time,seconds_elapsed,z,y,x
1683929103586430000,0.043429931640625,0,0,0
1683929103596471800,0.053471923828125,-0.2436060905456543,-0.5852720737457275,0.8205127716064453
1683929103606513700,0.063513671875,-0.30748653411865234,-0.9385950565338135,0.3615555763244629
1683929103616555500,0.073555419921875,0.24881935119628906,-0.05575156211853027,-0.3132915496826172
1683929103626597400,0.083597412109375,0.42880678176879883,0.4808781147003174,-0.5570263862609863
1683929103636639200,0.09363916015625,-0.4121532440185547,0.32224082946777344,0.21200084686279297
1683929103646681000,0.10368115234375,-10.21177864074707,0.5707933902740479,4.024802207946777
1683929103656723000,0.113722900390625,1.0195746421813965,0.7974356412887573,1.4151029586791992
1683929103666764800,0.123764892578125,3.6361007690429688,-0.11934900283813477,2.229330539703369
1683929103676806700,0.133806640625,1.7452616691589355,-1.0157206058502197,2.124436855316162
1683929103686848500,0.1438486328125,0.8594517707824707,-0.8850853443145752,1.3490715026855469
1683929103696890400,0.153890380859375,0.8989238739013672,0.291276216506958,0.4455385208129883
1683929103706932200,0.16393212890625,1.0045766830444336,-0.5828807353973389,0.2405409812927246
1683929103716974000,0.17397412109375,1.6959757804870605,-0.961761474609375,-0.8251256942749023
1683929103727016000,0.184015869140625,0.7391057014465332,-1.0253028869628906,-0.9721450805664062
1683929103737057800,0.194057861328125,0.3358001708984375,-2.1792030334472656,-0.7213587760925293
1683929103747099600,0.204099609375,1.6402559280395508,-1.618232011795044,-0.42258214950561523
1683929103757141500,0.2141416015625,1.455742359161377,-2.1778857707977295,-0.30239343643188477
1683929103767183400,0.224183349609375,1.1207575798034668,-1.5616395473480225,-1.0240817070007324
1683929103777225200,0.23422509765625,0.772489070892334,-1.1096515655517578,-1.1679539680480957
1683929103787267000,0.24426708984375,0.10637903213500977,-0.17646288871765137,-1.225114345550537
1683929103797309000,0.254308837890625,-0.6722226142883301,0.1711106300354004,-1.7626500129699707
1683929103807350800,0.264350830078125,0.16313648223876953,-0.45074009895324707,-0.4921298027038574
1683929103817392600,0.274392578125,0.3912620544433594,-0.7059073448181152,-0.3775348663330078
1683929103827434500,0.2844345703125,0.5632185935974121,-1.1164827346801758,-0.3137087821960449
1683929103837476400,0.294476318359375,0.537858247756958,-1.021160364151001,-0.7726044654846191
1683929103847518200,0.304518310546875,0.6731529235839844,-1.0306103229522705,-1.6304755210876465
1683929103857560000,0.31456005859375,1.4254798889160156,-1.4160432815551758,-0.9488067626953125
1683929103867602000,0.324601806640625,1.0907580852508545,-1.2476155757904053,-0.23162364959716797
1683929103877643800,0.334643798828125,1.464937448501587,-0.6421048641204834,-0.16728878021240234
1683929103887685600,0.344685546875,2.259666681289673,-0.3597118854522705,-0.21735572814941406
1683929103897727500,0.3547275390625,6.674053192138672,-0.8732292652130127,-0.3024606704711914
1683929103907769300,0.364769287109375,6.635393142700195,-1.2982301712036133,0.29421424865722656
1683929103917811200,0.374811279296875,4.917871475219727,-1.051743984222412,-0.06806564331054688
1683929103927853000,0.38485302734375,0.8366096019744873,-0.8460972309112549,-1.5141029357910156
1683929103937895000,0.39489501953125,2.0280210971832275,-0.3344309329986572,-0.28624534606933594
1683929103947936800,0.404936767578125,0.1491858959197998,0.2517712116241455,0.038150787353515625
1683929103957978600,0.414978515625,-1.9224685430526733,0.7886326313018799,1.0655202865600586
1683929103968020500,0.4250205078125,-5.778092861175537,2.079702138900757,2.401500701904297
1683929103978062300,0.435062255859375,-7.517618179321289,3.2957887649536133,3.0488176345825195
1683929103988104200,0.445104248046875,-6.519951820373535,3.546220064163208,3.2018232345581055
1683929103998146000,0.45514599609375,-3.844071388244629,3.402303695678711,2.155010223388672
1683929104008188000,0.46518798828125,-1.5496671199798584,2.5587949752807617,1.7830352783203125
1683929104018229800,0.475229736328125,-0.03831923007965088,1.733385682106018,1.1829338073730469
1683929104028271600,0.485271728515625,0.6635024547576904,2.1399619579315186,0.7828712463378906
1683929104038313500,0.4953134765625,0.8226683139801025,1.3256369829177856,0.5896778106689453
1683929104048355300,0.505355224609375,1.3293061256408691,0.5289888381958008,0.010128974914550781
1683929104058397200,0.515397216796875,2.25124454498291,0.18850350379943848,-0.6207561492919922
1683929104068439000,0.52543896484375,2.8108363151550293,-0.05195736885070801,-1.1531410217285156
1683929104078481000,0.53548095703125,2.6477463245391846,-0.4876890182495117,-1.5607538223266602
1683929104088522800,0.545522705078125,1.5992859601974487,-0.6872615814208984,-2.0920515060424805
1683929104098564600,0.555564697265625,0.13896024227142334,-1.3103506565093994,-2.7117834091186523
1683929104108606500,0.5656064453125,-0.27532655000686646,-1.694929838180542,-3.1810779571533203
1683929104118648300,0.5756484375,-0.061998724937438965,-1.6207530498504639,-3.137409210205078
1683929104128690200,0.585690185546875,0.16332948207855225,-1.5879137516021729,-3.049551486968994
1683929104138732000,0.59573193359375,1.8679225444793701,-0.8049440383911133,-3.075754165649414
1683929104148774000,0.60577392578125,0.7516001462936401,-1.6029436588287354,-1.9587621688842773
1683929104158815700,0.615815673828125,-0.577946126461029,-1.417588472366333,-1.5931358337402344
1683929104168857600,0.625857666015625,-1.3752140998840332,-1.6221294403076172,-1.2128276824951172
1683929104178899500,0.6358994140625,-0.4263911545276642,-1.3141062259674072,-1.4047446250915527
1683929104188941300,0.64594140625,-1.0577675104141235,-0.6405651569366455,-1.0442256927490234
1683929104198983200,0.655983154296875,-1.3793139457702637,-0.6394073963165283,-0.44564342498779297
1683929104209025000,0.66602490234375,-0.736045777797699,-0.6670339107513428,0.6326055526733398
1683929104219067000,0.67606689453125,-0.17150092124938965,-0.39554667472839355,1.3257818222045898
1683929104229108700,0.686108642578125,0.009816408157348633,-0.3616647720336914,1.4014778137207031
1683929104239150600,0.696150634765625,0.33918455243110657,-0.13740229606628418,1.1039066314697266
1683929104249192400,0.7061923828125,0.5947778224945068,0.11100244522094727,1.1589641571044922
1683929104259234300,0.716234375,0.5377435088157654,0.5640603303909302,0.5077648162841797
1683929104269276200,0.726276123046875,0.39316681027412415,0.46822071075439453,0.48183250427246094
1683929104279318000,0.736318115234375,0.3575265407562256,0.5406320095062256,0.14518451690673828
1683929104289360000,0.74635986328125,0.15130434930324554,0.4343395233154297,0.6092243194580078
1683929104299401700,0.756401611328125,0.16619472205638885,0.24434566497802734,1.1176996231079102
1683929104309443600,0.766443603515625,0.1405303180217743,0.01019740104675293,1.6787786483764648
1683929104319485400,0.7764853515625,0.24738430976867676,-0.15554046630859375,1.8082895278930664
1683929104329527300,0.78652734375,0.34426793456077576,-0.59024977684021,1.6357126235961914
1683929104339569200,0.796569091796875,0.33154356479644775,-0.46340012550354004,1.1446533203125
1683929104349611000,0.806611083984375,0.11580438166856766,-0.6522555351257324,0.9428329467773438
1683929104359652900,0.81665283203125,-0.16070690751075745,-1.2227787971496582,1.2904796600341797
1683929104369694700,0.82669482421875,0.08271731436252594,-1.6847879886627197,1.4963350296020508
1683929104379736600,0.836736572265625,0.36119818687438965,-1.4000678062438965,0.3812980651855469
1683929104389778400,0.8467783203125,0.7202450037002563,-0.15375232696533203,-0.36739253997802734
1683929104399820300,0.8568203125,0.7476454973220825,0.34528303146362305,0.33986759185791016
1683929104409862100,0.866862060546875,0.9268388152122498,0.8428089618682861,0.1080770492553711
1683929104419904000,0.876904052734375,0.7005659937858582,0.7533442974090576,0.28041934967041016
1683929104429945900,0.88694580078125,0.140712171792984,0.5333759784698486,0.02666473388671875
1683929104439987700,0.89698779296875,-0.196150541305542,0.17609715461730957,-0.2517833709716797
1683929104450029600,0.907029541015625,-0.14795377850532532,-0.00027942657470703125,-0.39542198181152344
1683929104460071400,0.917071533203125,-0.04247087985277176,-0.0984947681427002,-0.15294647216796875
1683929104470113300,0.92711328125,0.15010322630405426,0.1443328857421875,-0.2015514373779297
1683929104480155100,0.937155029296875,0.3227875828742981,1.6383386850357056,-3.2944064140319824
1683929104490197000,0.947197021484375,0.4635164737701416,1.155259370803833,-1.3041791915893555
1683929104500238800,0.95723876953125,0.27935147285461426,0.6357512474060059,0.28966617584228516
1683929104510280700,0.96728076171875,-0.06612569093704224,0.42623043060302734,1.5394039154052734
1683929104520322600,0.977322509765625,-0.2539360523223877,0.35961127281188965,1.884613037109375
1683929104530364400,0.987364501953125,-0.5097942352294922,-0.1612107753753662,2.0348663330078125
1683929104540406300,0.99740625,-0.35861122608184814,-0.6937763690948486,1.8509149551391602
1683929104550448000,1.0074482421875,-0.37495335936546326,-1.163055658340454,0.3585929870605469
1683929104560490000,1.017489990234375,-0.36102294921875,-1.2043213844299316,-0.17746257781982422
1683929104570531800,1.02753173828125,-0.14106443524360657,-0.6776976585388184,-0.730982780456543
1683929104580573700,1.03757373046875,0.37016505002975464,0.681617259979248,-1.190441608428955
1683929104590615600,1.047615478515625,0.9516124129295349,1.4766013622283936,-1.1141839027404785
1683929104600657400,1.057657470703125,2.3549768924713135,2.3423681259155273,-0.9766740798950195
1683929104610699300,1.06769921875,2.2884836196899414,4.201970100402832,-3.155409812927246
1683929104620741000,1.0777412109375,0.7564294338226318,1.8988885879516602,1.1120281219482422
1683929104630783000,1.087782958984375,0.1303059458732605,0.06615686416625977,2.4480981826782227
1683929104640824800,1.097824951171875,-0.40633100271224976,0.8737044334411621,0.2507791519165039
1683929104650866700,1.10786669921875,0.1970309615135193,0.2773442268371582,3.1267166137695312
1683929104660908500,1.117908447265625,0.6912944316864014,0.08382987976074219,3.4837446212768555
1683929104670950400,1.127950439453125,0.47084128856658936,0.034493446350097656,1.4756851196289062
1683929104680992300,1.1379921875,-0.43078532814979553,-0.4554409980773926,-0.2208099365234375
1683929104691034000,1.1480341796875,-0.45969948172569275,-0.5353970527648926,-0.18268966674804688
1683929104701076000,1.158075927734375,-0.5852805972099304,-0.3449373245239258,-0.07523155212402344
1683929104711117800,1.168117919921875,-0.44596248865127563,-0.1559453010559082,0.1326274871826172
1683929104721159700,1.17815966796875,0.030125558376312256,-0.042070865631103516,-0.028822898864746094
1683929104731201800,1.188201904296875,0.26776254177093506,-0.18325519561767578,-0.15923118591308594
1683929104741243400,1.198243408203125,-0.05906611680984497,-0.35434389114379883,-0.5156407356262207
1683929104751285200,1.20828515625,0.14166438579559326,-0.17654848098754883,-0.4367332458496094
1683929104761327400,1.218327392578125,0.3680412769317627,-0.30590295791625977,-0.050853729248046875
1683929104771369000,1.228368896484375,1.0340585708618164,-0.44922780990600586,0.8097753524780273
1683929104781410800,1.238410888671875,1.2432887554168701,-0.35588741302490234,1.396580696105957
1683929104791453000,1.248452880859375,0.9923554062843323,-0.22635555267333984,1.6320858001708984
1683929104801494500,1.25849462890625,0.216147780418396,-0.058304786682128906,1.7684850692749023
1683929104811536600,1.26853662109375,-0.2231188416481018,0.23238372802734375,1.5579833984375
1683929104821578500,1.27857861328125,-0.9136737585067749,0.07127571105957031,2.052149772644043
1683929104831620000,1.2886201171875,-0.5440747141838074,0.3543238639831543,2.4062137603759766
1683929104841662200,1.298662109375,-0.40367937088012695,0.7681269645690918,2.5137062072753906
1683929104851704000,1.3087041015625,-0.45599716901779175,0.40352392196655273,2.23018741607666
1683929104861746000,1.318745849609375,-0.5714488625526428,-0.40338850021362305,1.8932886123657227
1683929104871787800,1.328787841796875,-0.46404528617858887,-0.13013029098510742,1.585820198059082
1683929104881829600,1.33882958984375,-0.7124122381210327,-0.22353506088256836,2.1734237670898438
1683929104891871500,1.34887158203125,-0.4393501579761505,0.03297901153564453,1.996011734008789
1683929104901913300,1.358913330078125,0.051676660776138306,0.3816390037536621,1.4666452407836914
1683929104911955200,1.368955078125,0.5200846791267395,0.3473210334777832,0.4711465835571289
1683929104921997000,1.3789970703125,0.8343299031257629,0.29984140396118164,-0.2127537727355957
1683929104932039000,1.389038818359375,1.260436773300171,0.2118673324584961,-0.7934036254882812
1683929104942080800,1.399080810546875,2.0433642864227295,0.4397711753845215,-1.8221673965454102
1683929104952122600,1.40912255859375,2.2954964637756348,0.5997819900512695,-2.217695713043213
1683929104962164500,1.41916455078125,2.312299966812134,0.5756454467773438,-2.1632304191589355
1683929104972206300,1.429206298828125,2.1105294227600098,0.6153597831726074,-2.189967155456543
1683929104982248200,1.439248291015625,2.1000683307647705,0.5543613433837891,-1.8695831298828125
1683929104992290000,1.4492900390625,1.9871517419815063,0.624903678894043,-1.7782797813415527
1683929105002332000,1.459331787109375,1.847486972808838,0.6624159812927246,-1.8760027885437012
1683929105012373800,1.469373779296875,2.0448219776153564,0.7776055335998535,-1.691004753112793
1683929105022415600,1.47941552734375,2.4287190437316895,1.032057285308838,-1.4616680145263672
1683929105032457500,1.48945751953125,2.3247218132019043,1.2954540252685547,-0.9578628540039062
1683929105042499300,1.499499267578125,2.112978458404541,1.318234920501709,-0.5443630218505859
1683929105052541200,1.509541259765625,2.3294641971588135,1.5437092781066895,-0.2206735610961914
1683929105062583000,1.5195830078125,2.6412768363952637,1.5582447052001953,0.36756372451782227
1683929105072625000,1.529625,2.3367063999176025,1.028630256652832,0.20753145217895508
1683929105082666800,1.539666748046875,1.6050353050231934,0.763458251953125,-0.31123876571655273
1683929105092708600,1.54970849609375,1.2144031524658203,0.8754391670227051,-0.06733465194702148
1683929105102750500,1.55975048828125,1.3235262632369995,1.1413021087646484,0.2878708839416504
1683929105112792300,1.569792236328125,1.3414413928985596,1.3297505378723145,0.6080012321472168
1683929105122834200,1.579834228515625,1.0058348178863525,1.3107976913452148,1.0454349517822266
1683929105132876000,1.5898759765625,0.900834321975708,0.9259700775146484,1.4240431785583496
1683929105142918000,1.59991796875,1.0397671461105347,0.5687122344970703,1.296121597290039
1683929105152959700,1.609959716796875,0.6906236410140991,0.40998077392578125,0.780853271484375
1683929105163001600,1.620001708984375,0.5268176198005676,-0.01218557357788086,0.5454940795898438
1683929105173043500,1.63004345703125,0.992331326007843,-0.2980217933654785,0.27126312255859375
1683929105183085300,1.640085205078125,1.3877118825912476,-0.45728635787963867,0.012589454650878906
1683929105193127200,1.650127197265625,1.7249393463134766,-0.7146487236022949,-0.43136072158813477
1683929105203169000,1.6601689453125,1.6340360641479492,-0.9719982147216797,-1.1573095321655273
1683929105213211000,1.6702109375,1.0165098905563354,-1.0969610214233398,-1.4436440467834473
1683929105223252700,1.680252685546875,0.5490198135375977,-1.2356276512145996,-1.653127670288086
1683929105233294600,1.690294677734375,0.19458884000778198,-1.0838327407836914,-2.1611361503601074
1683929105243336400,1.70033642578125,0.19321686029434204,-0.9300088882446289,-2.328763008117676
1683929105253378300,1.71037841796875,2.186251640319824,-1.17820405960083,-0.6101560592651367
1683929105263420200,1.720420166015625,0.8002878427505493,0.2729911804199219,-1.237269401550293
1683929105273462000,1.7304619140625,0.8103353977203369,1.3269309997558594,-1.1282176971435547
1683929105283503900,1.74050390625,-0.7975033521652222,1.3833017349243164,-1.2098393440246582
1683929105293545700,1.750545654296875,-2.321798801422119,0.23300695419311523,-0.32593488693237305
1683929105303587600,1.760587646484375,-2.398597240447998,-0.48053741455078125,-0.17061185836791992
1683929105313629400,1.77062939453125,-2.3675284385681152,-0.32833242416381836,-0.20622634887695312
1683929105323671300,1.78067138671875,-1.2407019138336182,0.4612102508544922,0.05729961395263672
1683929105333713200,1.790713134765625,-0.8314118385314941,1.754502296447754,0.876197338104248
1683929105343755000,1.800755126953125,-1.7614481449127197,3.3072896003723145,1.2716503143310547
1683929105353796900,1.810796875,-1.7074741125106812,2.899503231048584,0.5654253959655762
1683929105363839000,1.8208388671875,-1.6758683919906616,1.7275805473327637,-0.13957929611206055
1683929105373880600,1.830880615234375,-2.5015487670898438,-0.6478400230407715,2.1812033653259277
1683929105383922400,1.84092236328125,-1.8400908708572388,-2.499145984649658,3.769113540649414
1683929105393964500,1.850964599609375,0.12992358207702637,-3.1050539016723633,3.2235188484191895
1683929105404006400,1.86100634765625,3.482229232788086,-1.847364902496338,2.178103446960449
1683929105414048300,1.87104833984375,2.0762155055999756,0.681549072265625,0.892608642578125
1683929105424090000,1.881090087890625,3.454092025756836,1.7801084518432617,0.7360148429870605
1683929105434132000,1.891132080078125,2.211930990219116,2.2416343688964844,-0.32790136337280273
1683929105444173800,1.901173828125,-0.6171718835830688,0.5964646339416504,-1.290299415588379
1683929105454215700,1.911215576171875,-2.2380547523498535,-1.6926813125610352,-1.0783600807189941
1683929105464257500,1.921257568359375,-4.9950456619262695,-3.624483585357666,-0.3363499641418457
1683929105474299400,1.93129931640625,-5.581142902374268,-3.9946742057800293,-0.6197614669799805
1683929105484341200,1.94134130859375,-3.174973487854004,-2.664571762084961,-0.8388581275939941
1683929105494383000,1.951383056640625,-1.9636659622192383,-1.5450177192687988,-0.11190032958984375
1683929105504425000,1.961425048828125,-1.7115092277526855,-1.426161289215088,0.3761601448059082
1683929105514466800,1.971466796875,-1.598888635635376,-1.1341428756713867,0.5964884757995605
1683929105524508700,1.9815087890625,-1.3484421968460083,-0.9949483871459961,0.9498238563537598
1683929105534550500,1.991550537109375,-0.8034253120422363,-0.6826395988464355,1.282564640045166
1683929105544592400,2.00159228515625,-0.42436909675598145,-0.3198685646057129,1.11277437210083
1683929105554634200,2.01163427734375,0.03132903575897217,-0.5794439315795898,0.9824042320251465
1683929105564676000,2.021676025390625,0.4265439510345459,-0.745638370513916,0.8161730766296387
1683929105574718000,2.031718017578125,0.44302403926849365,-1.010693073272705,0.3582768440246582
1683929105584759800,2.041759765625,0.30534934997558594,-1.1333022117614746,-0.09213924407958984
1683929105594801700,2.0518017578125,0.7749729156494141,-1.408341407775879,-0.1800537109375
1683929105604843500,2.061843505859375,1.1619722843170166,-1.1983766555786133,-0.21904516220092773
1683929105614885400,2.071885498046875,1.3819835186004639,-0.5422544479370117,-0.19460487365722656
1683929105624927200,2.08192724609375,1.4850504398345947,-0.14225530624389648,-0.4239497184753418
1683929105634969000,2.091968994140625,1.0747718811035156,-0.26038599014282227,-0.9609265327453613
1683929105645011000,2.102010986328125,0.2685225009918213,-0.2901458740234375,-1.4313297271728516
1683929105655052800,2.112052734375,-1.3448859453201294,-1.5289268493652344,-1.9687161445617676
1683929105665094700,2.1220947265625,0.9443575143814087,0.6702661514282227,-2.133701801300049
1683929105675136500,2.132136474609375,0.10051071643829346,0.16352319717407227,-2.4727416038513184
1683929105685178400,2.142178466796875,2.373350143432617,2.0681285858154297,-2.551851749420166
1683929105695220200,2.15222021484375,-1.131819248199463,-0.8904175758361816,-2.538325786590576
1683929105705262000,2.162261962890625,0.27683234214782715,0.47939157485961914,-2.875675678253174
1683929105715304000,2.172303955078125,0.45280134677886963,0.5713858604431152,-2.232891082763672
1683929105725345800,2.182345703125,-0.25346601009368896,0.3002181053161621,-2.0049710273742676
1683929105735387600,2.1923876953125,-0.5197374820709229,1.1473402976989746,-0.954892635345459
1683929105745429800,2.2024296875,-0.672945499420166,1.7525739669799805,-0.5533156394958496
1683929105755471600,2.2124716796875,-0.38275647163391113,1.1007146835327148,-1.1290888786315918
1683929105765513200,2.22251318359375,-0.2316303253173828,-0.5428109169006348,-1.5039329528808594
1683929105775555300,2.232555419921875,0.11198842525482178,-1.2243003845214844,-1.4580607414245605
1683929105785597200,2.24259716796875,2.1719915866851807,-0.9205942153930664,-1.3009085655212402
1683929105795639000,2.25263916015625,3.558605670928955,-0.3686847686767578,-1.3257637023925781
1683929105805681000,2.262680908203125,0.7215107679367065,-0.16326570510864258,0.5796527862548828
1683929105815722800,2.27272265625,-1.8386175632476807,-1.027595043182373,0.4314384460449219
1683929105825764600,2.2827646484375,-1.2806766033172607,-0.3345832824707031,-0.8339552879333496
1683929105835806500,2.292806396484375,-0.7441999912261963,0.3931288719177246,-1.215132713317871
1683929105845848300,2.302848388671875,-0.6562583446502686,0.3687729835510254,-1.5816750526428223
1683929105855890200,2.31289013671875,-0.5576732158660889,-0.04368925094604492,-1.337697982788086
1683929105865932000,2.32293212890625,-0.17721891403198242,-0.37088489532470703,-1.0634045600891113
1683929105875974000,2.332973876953125,-0.18248295783996582,-0.8777017593383789,-0.38282108306884766
1683929105886015700,2.343015625,-0.2831878662109375,-0.8068804740905762,0.2808341979980469
1683929105896057600,2.3530576171875,-0.3640778064727783,-0.3512263298034668,0.576319694519043
1683929105906099500,2.363099365234375,-0.4770488739013672,-0.2017650604248047,0.7191100120544434
1683929105916141300,2.373141357421875,-0.2387028932571411,-0.3828396797180176,0.8224406242370605
1683929105926183200,2.38318310546875,-0.31393492221832275,0.11991262435913086,0.41950273513793945
1683929105936225000,2.39322509765625,-0.5172511339187622,0.6338596343994141,0.37564706802368164
1683929105946267000,2.403266845703125,-1.0115931034088135,0.7227282524108887,0.10684061050415039
1683929105956308700,2.413308837890625,-1.1837270259857178,0.49182605743408203,-0.17243385314941406
1683929105966350600,2.4233505859375,-1.1012802124023438,0.686678409576416,-0.01995229721069336
1683929105976392400,2.433392333984375,-1.1908878087997437,1.039696216583252,0.5179977416992188
1683929105986434300,2.443434326171875,-1.189651370048523,0.9743199348449707,1.0107731819152832
1683929105996476200,2.45347607421875,-0.806411862373352,0.8250946998596191,1.4100027084350586
1683929106006518000,2.46351806640625,-0.7177492380142212,0.6273746490478516,1.2616963386535645
1683929106016559900,2.473559814453125,-0.340548038482666,0.45444583892822266,0.8911314010620117
1683929106026601700,2.483601806640625,0.14520704746246338,0.3474445343017578,0.8031444549560547
1683929106036643600,2.4936435546875,0.3723306655883789,0.4773087501525879,0.7519946098327637
1683929106046685700,2.503685791015625,0.304063618183136,0.6194257736206055,0.7296576499938965
1683929106056727600,2.5137275390625,0.06667786836624146,-0.053637027740478516,1.224365234375
1683929106066769400,2.523769287109375,-0.36606699228286743,-0.8278794288635254,1.3028521537780762
1683929106076811300,2.533811279296875,-0.0043566226959228516,-1.077505111694336,2.0340518951416016
1683929106086853000,2.54385302734375,-0.06579113006591797,-1.8252606391906738,1.328993797302246
1683929106096895000,2.55389501953125,-0.29497987031936646,-2.791731834411621,1.8195075988769531
1683929106106936800,2.563936767578125,-0.10911989212036133,-2.746588706970215,1.4229412078857422
1683929106116978700,2.573978759765625,0.19904327392578125,-2.1747140884399414,0.6629476547241211
1683929106127020500,2.5840205078125,0.2132236361503601,-1.433220386505127,-0.04912519454956055
1683929106137062400,2.5940625,0.04381221532821655,-0.8627357482910156,-0.6697087287902832
1683929106147104300,2.604104248046875,-0.12452250719070435,-0.46823549270629883,-1.0715928077697754
1683929106157146000,2.61414599609375,0.12696129083633423,0.03764200210571289,-1.4909052848815918
1683929106167188000,2.62418798828125,0.6816649436950684,0.5475478172302246,-1.4432997703552246
1683929106177229800,2.634229736328125,1.444828987121582,0.33150243759155273,-1.1545429229736328
1683929106187271700,2.644271728515625,1.2898707389831543,0.16826820373535156,-1.165022850036621
1683929106197313500,2.6543134765625,1.418407678604126,0.21699857711791992,-1.6769838333129883
1683929106207355400,2.66435546875,1.4330193996429443,-0.2944974899291992,-2.267824172973633
1683929106217397200,2.674397216796875,1.1164381504058838,-0.7941861152648926,-2.342090129852295
1683929106227439000,2.684439208984375,0.6085887551307678,-0.9575662612915039,-1.926917552947998
1683929106237481000,2.69448095703125,0.6692887544631958,-1.3830537796020508,-1.4033308029174805
1683929106247522800,2.704522705078125,1.109284520149231,-1.7367134094238281,-1.3881831169128418
1683929106257564700,2.714564697265625,1.6702646017074585,-1.068586826324463,-1.3707432746887207
1683929106267606500,2.7246064453125,2.107623815536499,-0.8135719299316406,-1.0088210105895996
1683929106277648400,2.7346484375,2.1092429161071777,-0.39729976654052734,-0.46329545974731445
1683929106287690500,2.7446904296875,1.5998623371124268,-0.05595827102661133,-0.04332923889160156
1683929106297732400,2.754732421875,1.1151708364486694,0.2404627799987793,-0.18638134002685547
1683929106307774200,2.764774169921875,0.6453467011451721,0.46648120880126953,-0.47608137130737305
1683929106317816000,2.774816162109375,0.0706058144569397,-0.07941722869873047,-0.971156120300293
1683929106327858000,2.78485791015625,-0.07317864894866943,-0.042639732360839844,-0.8317928314208984
1683929106337899800,2.794899658203125,-0.4688158631324768,-0.025733470916748047,-0.9138827323913574
1683929106347941600,2.804941650390625,-0.6629312038421631,0.07770109176635742,-0.7483043670654297
1683929106357983500,2.8149833984375,-0.4349589943885803,0.21087932586669922,-0.472078800201416
1683929106368025300,2.825025390625,-0.4160667657852173,-0.20679712295532227,-0.24830389022827148
1683929106378067200,2.835067138671875,-0.21556663513183594,-0.4841322898864746,-0.6701345443725586
1683929106388109000,2.845109130859375,0.12213188409805298,0.2674393653869629,-1.351346492767334
1683929106398151000,2.85515087890625,0.3815542161464691,0.6766047477722168,-1.0732007026672363
1683929106408192800,2.86519287109375,0.5792984366416931,0.5226607322692871,-0.8278522491455078
1683929106418234600,2.875234619140625,0.8493282794952393,0.32900094985961914,-1.4201607704162598
1683929106428276500,2.8852763671875,0.9401745796203613,-0.17756891250610352,-1.7337913513183594
1683929106438318300,2.895318359375,1.091185212135315,-1.1520490646362305,-1.071699619293213
1683929106448360200,2.905360107421875,1.7168684005737305,-1.3202366828918457,0.016981124877929688
1683929106458402000,2.915402099609375,1.8732661008834839,-1.6225318908691406,1.417473316192627
1683929106468444000,2.92544384765625,1.219111680984497,-1.630460262298584,2.400482177734375
1683929106478485800,2.93548583984375,0.292949914932251,-1.4040799140930176,2.278207302093506
1683929106488527600,2.945527587890625,-0.28982535004615784,-1.035576343536377,1.0211906433105469
1683929106498569500,2.955569580078125,-0.563653290271759,-0.718233585357666,-0.42755842208862305
1683929106508611600,2.965611572265625,-0.39462655782699585,-1.3442015647888184,-1.036435604095459
1683929106518653400,2.9756533203125,0.7248666882514954,-0.3797922134399414,-1.5049161911010742
1683929106528695300,2.9856953125,1.2321186065673828,-0.7283010482788086,-1.4569311141967773
1683929106538737200,2.995737060546875,1.5808578729629517,0.01611614227294922,-1.9461069107055664
1683929106548779000,3.005779052734375,1.7618894577026367,0.07424497604370117,-0.7760496139526367
1683929106558820900,3.01582080078125,1.3167228698730469,-0.28694820404052734,0.485476016998291
1683929106568862700,3.02586279296875,0.6871389746665955,-0.8664493560791016,1.6037750244140625
1683929106578904600,3.035904541015625,0.18866369128227234,-1.3168163299560547,2.3184738159179688
1683929106588946400,3.045946533203125,0.2953649163246155,-1.7143373489379883,1.5591316223144531
1683929106598988300,3.05598828125,0.26414722204208374,-1.425065040588379,-0.19333267211914062
1683929106609030100,3.066030029296875,0.037425071001052856,-0.11796140670776367,-0.0769495964050293
1683929106619072000,3.076072021484375,0.26866692304611206,0.18760251998901367,-0.3727869987487793
1683929106629113900,3.08611376953125,-0.16287310421466827,-0.37503623962402344,-0.6062679290771484
1683929106639155700,3.09615576171875,-0.06365174055099487,-0.2679324150085449,0.07568836212158203
1683929106649197600,3.106197509765625,0.29958295822143555,-0.16195392608642578,0.4373512268066406
1683929106659239400,3.116239501953125,0.5238431096076965,0.04962158203125,0.33304643630981445
1683929106669281300,3.12628125,0.3467899560928345,0.5552306175231934,-0.15649175643920898
1683929106679323100,3.1363232421875,-0.1932341307401657,0.41560935974121094,-0.4658322334289551
1683929106689365000,3.146364990234375,-0.24451309442520142,0.0879063606262207,0.39460134506225586
1683929106699407000,3.156406982421875,0.22147539258003235,0.29395198822021484,0.6172666549682617
1683929106709449000,3.166448974609375,0.4243667721748352,0.19371461868286133,0.8089413642883301
1683929106719490800,3.17649072265625,0.33916330337524414,-0.04261445999145508,1.133657455444336
1683929106729532700,3.18653271484375,0.3071076273918152,0.16972923278808594,1.018125057220459
1683929106739574500,3.196574462890625,0.7036562561988831,0.19078826904296875,1.6786527633666992
1683929106749616400,3.206616455078125,0.37668389081954956,0.5315399169921875,0.7204184532165527
1683929106759658200,3.216658203125,0.19129931926727295,0.47254180908203125,0.12046623229980469
1683929106769700000,3.2267001953125,-0.004324138164520264,0.4967923164367676,-0.16954851150512695
1683929106779742000,3.236741943359375,-0.026634931564331055,0.7820897102355957,0.21065139770507812
1683929106789783800,3.24678369140625,-0.025601446628570557,0.8717012405395508,0.4313793182373047
1683929106799825700,3.25682568359375,-0.10776016116142273,0.6421985626220703,0.3669252395629883
1683929106809867500,3.266867431640625,0.013053357601165771,0.6095499992370605,0.6445674896240234
1683929106819909400,3.276909423828125,0.1720549464225769,0.7729902267456055,0.7066555023193359
1683929106829951200,3.286951171875,0.19755390286445618,0.45796728134155273,0.7062973976135254
1683929106839993000,3.2969931640625,0.2509925365447998,0.2269573211669922,0.4624314308166504
1683929106850035000,3.307034912109375,0.5889595150947571,0.5963888168334961,0.557499885559082
1683929106860077000,3.3170771484375,0.5857899785041809,0.915522575378418,0.8995513916015625
1683929106870119000,3.327118896484375,0.2981896698474884,0.20780277252197266,0.2962961196899414
1683929106880160800,3.337160888671875,-0.13508163392543793,0.2724013328552246,-1.565408706665039
1683929106890202600,3.34720263671875,-0.04017799347639084,-0.05695915222167969,-0.39484691619873047
1683929106900244500,3.357244384765625,0.616801381111145,-0.1953411102294922,-1.257838249206543
1683929106910286300,3.367286376953125,1.4194903373718262,0.4062337875366211,-1.2531752586364746
1683929106920328200,3.377328125,1.706016182899475,0.8578743934631348,-0.8612141609191895
1683929106930370000,3.3873701171875,1.8647964000701904,1.0935053825378418,-0.4817214012145996
1683929106940412000,3.397411865234375,2.283083915710449,1.0513057708740234,-0.4779486656188965
1683929106950453800,3.407453857421875,2.2598092555999756,0.9275703430175781,-0.1735243797302246
1683929106960495600,3.41749560546875,1.910285234451294,0.4950881004333496,0.2126913070678711
1683929106970537500,3.427537353515625,1.6087768077850342,0.25682497024536133,1.1039953231811523
1683929106980579300,3.437579345703125,1.5112197399139404,2.070084571838379,2.835109233856201
1683929106990621200,3.44762109375,1.2534366846084595,-0.03749847412109375,1.505631446838379
1683929107000663000,3.4576630859375,1.4277310371398926,-0.7458009719848633,1.468017578125
1683929107010705000,3.467704833984375,1.160240650177002,-0.7785744667053223,1.1591081619262695
1683929107020746800,3.477746826171875,0.595292866230011,-0.9781293869018555,1.1101646423339844
1683929107030788900,3.487788818359375,0.31742846965789795,-0.9601798057556152,0.601860523223877
1683929107040830700,3.497830810546875,0.21092459559440613,-0.5871009826660156,0.10796308517456055
1683929107050872600,3.50787255859375,0.028119176626205444,-0.23631906509399414,-0.4238443374633789
1683929107060914400,3.51791455078125,-0.3120986819267273,-0.5196490287780762,-1.0899004936218262
1683929107070956300,3.527956298828125,-0.5280055403709412,-0.7336521148681641,-1.2122225761413574
1683929107080998100,3.537998046875,-0.328011691570282,-0.6029577255249023,-0.8605160713195801
1683929107091040000,3.5480400390625,-0.19572612643241882,0.030642032623291016,-0.5022397041320801
1683929107101081900,3.558081787109375,-0.28669503331184387,0.5195960998535156,-0.16297435760498047
1683929107111123700,3.568123779296875,-0.1632256805896759,0.48306751251220703,-0.12196779251098633
1683929107121165600,3.57816552734375,0.24927732348442078,0.29004335403442383,0.1771073341369629
1683929107131207400,3.58820751953125,0.721207857131958,0.26831912994384766,0.5379643440246582
1683929107141249300,3.598249267578125,1.083444595336914,0.5643863677978516,0.43434762954711914
1683929107151291100,3.608291015625,1.1849050521850586,0.8010520935058594,0.16213178634643555
1683929107161333200,3.618333251953125,1.1256918907165527,-0.2100682258605957,-2.1038784980773926
1683929107171375000,3.628375,0.8481398224830627,1.2423686981201172,1.392256259918213
1683929107181417000,3.6384169921875,0.9793086051940918,1.283599853515625,1.252270221710205
1683929107191458800,3.648458740234375,0.38841718435287476,0.5768065452575684,0.195587158203125
1683929107201500700,3.658500732421875,-0.4406789541244507,0.42441797256469727,-0.2208552360534668
1683929107211542500,3.66854248046875,-0.27724894881248474,1.6902546882629395,0.1322159767150879
1683929107221584400,3.67858447265625,0.28114497661590576,1.0687546730041504,-0.1746664047241211
1683929107231626200,3.688626220703125,-0.13561628758907318,1.146592140197754,-0.07617998123168945
1683929107241668000,3.698668212890625,-0.3962487578392029,1.2434706687927246,0.10054636001586914
1683929107251710000,3.7087099609375,-0.46021342277526855,0.9941635131835938,0.4286642074584961
1683929107261751800,3.718751708984375,-0.3577081263065338,0.7478847503662109,0.7540702819824219
1683929107271793700,3.728793701171875,-0.11814671754837036,0.4957151412963867,1.2655949592590332
1683929107281835500,3.73883544921875,-0.11133551597595215,-0.2660541534423828,0.9361705780029297
1683929107291877400,3.74887744140625,-0.3167004883289337,-0.45816755294799805,0.8156218528747559
1683929107301919500,3.75891943359375,-0.049566030502319336,-0.07030916213989258,1.1865544319152832
1683929107311961300,3.76896142578125,1.2226781845092773,0.3756570816040039,0.8021421432495117
1683929107322003200,3.779003173828125,1.4773755073547363,-0.9958467483520508,0.37414979934692383
1683929107332045000,3.789045166015625,1.5099773406982422,-0.7522783279418945,-0.25080442428588867
1683929107342087000,3.7990869140625,1.2906957864761353,-1.0849637985229492,-0.5851411819458008
1683929107352128800,3.809128662109375,1.0663694143295288,-0.9725284576416016,-0.7490172386169434
1683929107362170600,3.819170654296875,0.20781832933425903,-0.8450746536254883,-0.8035650253295898
1683929107372212500,3.82921240234375,0.46560952067375183,-0.05811023712158203,-0.28858089447021484
1683929107382254300,3.83925439453125,0.6017555594444275,0.31264495849609375,-0.3673286437988281
1683929107392296200,3.849296142578125,-0.3691256046295166,-0.44132518768310547,-0.3710298538208008
1683929107402338000,3.859338134765625,0.46010348200798035,0.4696683883666992,0.10106706619262695
1683929107412380000,3.8693798828125,0.771783709526062,-0.01607799530029297,0.20347118377685547
1683929107422421800,3.879421875,0.9193075299263,-0.1443157196044922,0.5987787246704102
1683929107432464000,3.8894638671875,0.8327900171279907,0.2800741195678711,1.0977106094360352
1683929107442505700,3.899505615234375,-1.0800635814666748,1.2888035774230957,0.40023136138916016
1683929107452547600,3.909547607421875,-2.4595625400543213,-0.07551765441894531,1.9153380393981934
1683929107462589400,3.91958935546875,-2.006626844406128,1.3337206840515137,1.04632568359375
1683929107472631300,3.92963134765625,-1.764531135559082,0.7603883743286133,0.6589760780334473
1683929107482673200,3.939673095703125,-0.9415680170059204,0.6109304428100586,0.7331151962280273
1683929107492715000,3.949715087890625,-0.6829155683517456,0.3645191192626953,1.340674877166748
1683929107502756900,3.9597568359375,0.012482047080993652,-0.3934316635131836,3.2671308517456055
1683929107512798700,3.969798828125,0.14480817317962646,-1.668229103088379,4.037063121795654
1683929107522840600,3.979840576171875,0.05811965465545654,-1.3216495513916016,3.8029279708862305
1683929107532882400,3.98988232421875,-0.24147474765777588,-0.43663597106933594,1.9678168296813965
1683929107542924500,3.999924560546875,-0.41379988193511963,-1.3350744247436523,0.4584841728210449
1683929107552966400,4.00996630859375,-0.32418906688690186,0.20604801177978516,-1.1758227348327637
1683929107563008300,4.02000830078125,-0.7626878023147583,-0.6626491546630859,-1.3398165702819824
1683929107573050000,4.030050048828125,0.45592641830444336,-1.3383445739746094,0.028104782104492188
1683929107583092000,4.040092041015625,1.0484261512756348,-0.12274456024169922,0.05580949783325195
1683929107593133800,4.0501337890625,0.15996992588043213,-0.3250722885131836,-0.450411319732666
1683929107603175700,4.06017578125,-0.013396024703979492,-0.2576637268066406,-0.03212928771972656
1683929107613217500,4.070217529296875,0.12731528282165527,0.1669607162475586,0.1856832504272461
1683929107623259400,4.08025927734375,0.1869579553604126,-0.2515850067138672,-0.154205322265625
1683929107633301200,4.09030126953125,0.25315403938293457,-1.1438531875610352,-0.23684024810791016
1683929107643343000,4.100343017578125,0.5944298505783081,-0.9979982376098633,-0.17927789688110352
1683929107653385000,4.110385009765625,0.6994273662567139,-1.1754884719848633,-0.10094881057739258
1683929107663426800,4.1204267578125,0.5499782562255859,-1.106734275817871,-0.3233199119567871
1683929107673469000,4.130468994140625,0.21302080154418945,-1.4535236358642578,-0.7305560111999512
1683929107683510800,4.1405107421875,-0.011689186096191406,-1.5540766716003418,-1.0600428581237793
1683929107693552600,4.150552734375,0.19885385036468506,-1.126929759979248,-0.8898453712463379
1683929107703594500,4.160594482421875,0.18241214752197266,-1.4135236740112305,-0.7861618995666504
1683929107713636400,4.17063623046875,0.16327190399169922,-1.7161555290222168,-0.9032135009765625
1683929107723678200,4.18067822265625,0.23018622398376465,-1.3668632507324219,-0.8508439064025879
1683929107733720000,4.190719970703125,0.4340660572052002,-1.1528730392456055,-1.521723747253418
1683929107743762000,4.200761962890625,1.0866951942443848,-0.32271432876586914,-1.637648105621338
1683929107753803800,4.2108037109375,0.9732563495635986,0.8599152565002441,-1.1011981964111328
1683929107763845600,4.220845703125,0.7915164232254028,0.5835685729980469,-2.3415892124176025
1683929107773887500,4.230887451171875,0.5960021018981934,-0.2179708480834961,-2.523693561553955
1683929107783929600,4.2409296875,0.5719499588012695,0.0008878707885742188,-2.5435590744018555
1683929107793971500,4.250971435546875,0.7694352865219116,0.650665283203125,-2.5378832817077637
1683929107804013300,4.261013427734375,0.4738929271697998,0.217529296875,-2.1335482597351074
1683929107814055200,4.27105517578125,-0.21231770515441895,-0.6410775184631348,-1.0569744110107422
1683929107824097000,4.281096923828125,-0.3733365535736084,-0.7038826942443848,-0.2737154960632324
1683929107834139000,4.291138916015625,-0.2934577465057373,-0.5710306167602539,0.31699371337890625
1683929107844180700,4.3011806640625,-0.35498762130737305,0.21524524688720703,0.09926176071166992
1683929107854222600,4.31122265625,-0.27935290336608887,0.13811349868774414,-0.47188806533813477
1683929107864264400,4.321264404296875,-0.34105706214904785,-0.39028120040893555,-1.3530888557434082
1683929107874306300,4.331306396484375,-0.35759544372558594,-0.42027950286865234,-1.7320480346679688
1683929107884348200,4.34134814453125,-0.45395660400390625,-0.2482752799987793,-1.7381901741027832
1683929107894390300,4.351390380859375,-0.3383467197418213,-0.45804834365844727,-1.662376880645752
1683929107904432000,4.36143212890625,-0.10497617721557617,-0.49754953384399414,-1.6916193962097168
1683929107914474000,4.371473876953125,0.04427003860473633,-0.552638053894043,-1.4230685234069824
1683929107924515800,4.381515869140625,0.02788400650024414,-0.5642199516296387,-1.2333626747131348
1683929107934557700,4.3915576171875,-0.027600765228271484,-0.4001307487487793,-0.9065284729003906
1683929107944599600,4.401599609375,0.007309913635253906,-0.4686317443847656,-0.27446889877319336
1683929107954641400,4.411641357421875,-0.15061640739440918,-0.4322323799133301,0.21976232528686523
1683929107964683300,4.421683349609375,-0.4454662799835205,-0.2537040710449219,0.31874513626098633
1683929107974725000,4.43172509765625,-0.38067126274108887,-0.30556631088256836,0.29121828079223633
1683929107984767000,4.44176708984375,-0.05159807205200195,-0.11849641799926758,0.23893404006958008
1683929107994809000,4.45180908203125,0.18651080131530762,-0.05193948745727539,0.22562360763549805
1683929108004851000,4.461850830078125,0.3036113977432251,0.028149127960205078,0.3446164131164551
1683929108014892800,4.471892822265625,0.3354853391647339,0.023021221160888672,0.29926490783691406
1683929108024934700,4.4819345703125,0.38419437408447266,0.22899532318115234,0.09209012985229492
1683929108034976500,4.4919765625,0.3710595369338989,0.19047260284423828,-0.28722286224365234
1683929108045018400,4.502018310546875,0.6688753366470337,1.2618179321289062,-0.06478261947631836
1683929108055060200,4.512060302734375,0.33485496044158936,0.746251106262207,-0.6848583221435547
1683929108065102000,4.52210205078125,0.0786130428314209,-0.15067243576049805,-0.2983665466308594
1683929108075144000,4.53214404296875,-0.28050899505615234,-0.0460963249206543,0.08605480194091797
1683929108085185800,4.542185791015625,-0.13973307609558105,0.7496871948242188,-0.36289262771606445
1683929108095227600,4.5522275390625,0.04430854320526123,1.9462051391601562,0.3402976989746094
1683929108105269800,4.562269775390625,-0.38504672050476074,-0.49550580978393555,-1.9434638023376465
1683929108115311600,4.5723115234375,-0.43140363693237305,-1.4811835289001465,-2.0745625495910645
1683929108125353500,4.582353515625,-0.5700361728668213,-1.287825584411621,-1.2406067848205566
1683929108135395300,4.592395263671875,-0.6204977035522461,-0.7995882034301758,-0.32604074478149414
1683929108145437200,4.602437255859375,-0.911415696144104,-0.49834108352661133,0.3381829261779785
1683929108155479000,4.61247900390625,-1.0028420686721802,0.13943719863891602,0.6241154670715332
1683929108165521000,4.62252099609375,-1.121311902999878,0.9592218399047852,0.17183923721313477
1683929108175562800,4.632562744140625,-0.6537604331970215,2.040350914001465,-0.0051937103271484375
1683929108185604600,4.6426044921875,-0.5624710321426392,1.2618656158447266,-0.28488969802856445
1683929108195646700,4.652646728515625,-0.21076202392578125,0.5302844047546387,-0.29457616806030273
1683929108205688600,4.6626884765625,0.2552151679992676,0.38721275329589844,-0.1463007926940918
1683929108215730400,4.67273046875,0.40629541873931885,0.5391736030578613,-0.04000282287597656
1683929108225772300,4.682772216796875,0.3552365303039551,0.6221060752868652,0.12489652633666992
1683929108235814100,4.692814208984375,-0.02208113670349121,0.4721798896789551,0.0781259536743164
1683929108245856000,4.70285595703125,-0.06826281547546387,1.074875831604004,-0.12994861602783203
1683929108255897900,4.71289794921875,-1.0420769453048706,1.1227688789367676,0.058043479919433594
1683929108265939700,4.722939697265625,-1.2433195114135742,1.0939006805419922,0.031154155731201172
1683929108275981600,4.732981689453125,-1.4220826625823975,0.9814515113830566,0.08448171615600586
1683929108286023400,4.7430234375,-1.554286241531372,0.6253252029418945,0.1607666015625
1683929108296065500,4.7530654296875,-1.2268030643463135,0.7233176231384277,0.3686971664428711
1683929108306107400,4.763107421875,-0.7629343271255493,0.48355627059936523,0.5386080741882324
1683929108316149200,4.773149169921875,-0.3885241746902466,-0.2624549865722656,0.751070499420166
1683929108326191000,4.783191162109375,-0.25512611865997314,-0.8194928169250488,0.8629827499389648
1683929108336233000,4.79323291015625,-0.36093735694885254,-1.062300205230713,1.0104050636291504
1683929108346274800,4.80327490234375,-0.37400388717651367,-1.0262703895568848,0.8065719604492188
1683929108356316700,4.813316650390625,-0.1671229600906372,-1.4587998390197754,0.7400102615356445
1683929108366358500,4.823358642578125,0.04336315393447876,-2.2390246391296387,0.8020682334899902
1683929108376400400,4.833400390625,-0.23041629791259766,-2.8041300773620605,1.3736262321472168
1683929108386442200,4.843442138671875,-0.8965938687324524,-2.413449287414551,2.541688919067383
1683929108396484000,4.853484130859375,-1.1525689363479614,-1.401188850402832,3.117344856262207
1683929108406526200,4.863526123046875,-0.4562237858772278,-0.45130348205566406,3.053351402282715
1683929108416568000,4.873568115234375,0.4270718991756439,0.5301451683044434,2.44395112991333
1683929108426610000,4.88360986328125,0.8386646509170532,0.07927227020263672,1.8263368606567383
1683929108436651800,4.89365185546875,0.8038954138755798,-0.25745296478271484,0.8168063163757324
1683929108446693600,4.903693603515625,0.8698264956474304,-0.385042667388916,-0.2638101577758789
1683929108456735500,4.913735595703125,0.5816464424133301,-0.2973213195800781,-0.9253182411193848
1683929108466777300,4.92377734375,0.14578944444656372,0.40874624252319336,-2.229262590408325
1683929108476819200,4.933819091796875,-0.24127858877182007,0.5302376747131348,-2.90090274810791
1683929108486861300,4.943861328125,-0.22545307874679565,0.8025140762329102,-2.9535367488861084
1683929108496903200,4.953903076171875,-0.20271623134613037,0.39178895950317383,-2.372992515563965
1683929108506945000,4.963945068359375,0.12093192338943481,0.6040287017822266,-2.0568532943725586
1683929108516987000,4.97398681640625,0.6548741459846497,0.7744870185852051,-1.8706817626953125
1683929108527028700,4.98402880859375,0.8741599321365356,0.6613402366638184,-1.89703369140625
1683929108537070600,4.994070556640625,0.8389734029769897,1.0677142143249512,-1.8026602268218994
1683929108547112400,5.004112548828125,1.0634952783584595,1.6276121139526367,-1.7680561542510986
1683929108557154300,5.014154296875,1.2493468523025513,1.4147424697875977,-1.6375150680541992
1683929108567196200,5.024196044921875,1.4944993257522583,1.8534879684448242,-1.437218189239502
1683929108577238300,5.03423828125,1.4205296039581299,3.391770839691162,-0.5960783958435059
1683929108587280100,5.044280029296875,1.9276103973388672,0.5173077583312988,-1.0239205360412598
1683929108597322000,5.054322021484375,1.2893562316894531,0.37676048278808594,0.026155948638916016
1683929108607363800,5.06436376953125,1.1020104885101318,-1.2223787307739258,0.8146829605102539
1683929108617405700,5.07440576171875,1.0353668928146362,-2.3539934158325195,1.160710334777832
1683929108627447600,5.084447509765625,0.8916439414024353,-2.6740942001342773,0.7416501045227051
1683929108637489400,5.094489501953125,0.8186204433441162,-2.504070281982422,0.7593379020690918
1683929108647531300,5.10453125,0.6676908731460571,-2.1864233016967773,0.5979962348937988
1683929108657573000,5.114572998046875,-0.45243504643440247,-1.7613525390625,-0.30225706100463867
1683929108667615200,5.124615234375,-1.352054476737976,-1.3743247985839844,-1.4154109954833984
1683929108677657000,5.134656982421875,-1.243516445159912,-0.49744701385498047,-1.437000036239624
1683929108687699000,5.144698974609375,-0.5567778944969177,0.43764686584472656,-1.1340365409851074
1683929108697740800,5.15474072265625,-0.08185011148452759,0.6809134483337402,-1.1930599212646484
1683929108707782700,5.16478271484375,0.15766513347625732,0.5645160675048828,-1.5437285900115967
1683929108717824500,5.174824462890625,-0.04291146993637085,-0.045950889587402344,-1.6937813758850098
1683929108727866400,5.184866455078125,0.04466789960861206,-0.4257354736328125,-1.5035018920898438
1683929108737908200,5.194908203125,0.3238781988620758,-0.5510454177856445,-1.2810554504394531
1683929108747950300,5.204950439453125,0.39176708459854126,-0.6896677017211914,-1.4295859336853027
1683929108757992200,5.2149921875,0.4281724691390991,-0.6484994888305664,-1.3132898807525635
1683929108768034000,5.225033935546875,0.4852980375289917,-0.6199321746826172,-1.0461468696594238
1683929108778076000,5.235075927734375,0.7509355545043945,-0.3323078155517578,-0.45647382736206055
1683929108788117800,5.24511767578125,1.0821772813796997,-0.7883138656616211,0.24549531936645508
1683929108798159600,5.25515966796875,1.5053725242614746,-1.3683500289916992,0.8579583168029785
1683929108808201500,5.265201416015625,1.5349031686782837,-0.781620979309082,0.9130744934082031
1683929108818243300,5.275243408203125,1.5016305446624756,-0.6309528350830078,0.6096763610839844
1683929108828285200,5.28528515625,1.2434289455413818,-0.6529941558837891,-0.2970242500305176
1683929108838327300,5.295327392578125,1.1458747386932373,0.38928794860839844,-0.4933900833129883
1683929108848369200,5.305369140625,0.814388632774353,-0.3481130599975586,-1.172396183013916
1683929108858411000,5.315410888671875,0.6808616518974304,-0.04152393341064453,-1.1841585636138916
1683929108868452900,5.325452880859375,0.8385303616523743,0.6941452026367188,-0.6012148857116699
1683929108878494700,5.33549462890625,0.8082627058029175,-0.3891124725341797,-0.44855451583862305
1683929108888536600,5.34553662109375,0.6743671894073486,-0.39711666107177734,-0.32105541229248047
1683929108898578400,5.355578369140625,0.5122863054275513,-0.5913295745849609,-0.35297107696533203
1683929108908620300,5.365620361328125,0.2717049717903137,-0.5101346969604492,-0.31201791763305664
1683929108918662100,5.375662109375,0.09249603748321533,-0.31382179260253906,-0.25273799896240234
1683929108928704300,5.385704345703125,0.04499763250350952,-0.04221534729003906,-0.24499988555908203
1683929108938746000,5.39574609375,0.11691728234291077,-1.212264060974121,-0.21071195602416992
1683929108948788000,5.4057880859375,0.04397884011268616,-0.042763710021972656,0.00953054428100586
1683929108958829800,5.415829833984375,0.248102605342865,-0.8985872268676758,-0.04237985610961914
1683929108968871700,5.42587158203125,0.3934023678302765,-0.7716007232666016,0.1906261444091797
1683929108978913500,5.43591357421875,0.41036882996559143,-0.6421270370483398,0.1491532325744629
1683929108988955400,5.445955322265625,0.4055367708206177,-0.541743278503418,0.04084634780883789
1683929108998997200,5.455997314453125,0.32795247435569763,-0.38100433349609375,-0.09866762161254883
1683929109009039000,5.4660390625,0.29915952682495117,-0.1162710189819336,-0.1745462417602539
1683929109019081200,5.476081298828125,0.2876172363758087,0.17142105102539062,-0.2792224884033203
1683929109029123000,5.486123046875,0.38342034816741943,0.3321523666381836,-0.3063020706176758
1683929109039165000,5.4961650390625,0.48546943068504333,0.5017423629760742,-0.2332606315612793
1683929109049206800,5.506206787109375,0.4852866232395172,0.7039890289306641,-0.24901437759399414
1683929109059248600,5.51624853515625,0.46280354261398315,0.5052461624145508,-0.19623422622680664
1683929109069290500,5.52629052734375,0.5858532190322876,2.34135103225708,0.2525367736816406
1683929109079332400,5.536332275390625,0.21803119778633118,-0.19063282012939453,-0.26333189010620117
1683929109089374200,5.546374267578125,0.6132069230079651,-0.5734310150146484,0.21396732330322266
1683929109099416300,5.556416259765625,0.7148222327232361,-0.5786170959472656,0.9209108352661133
1683929109109458200,5.566458251953125,0.12302672863006592,0.42412662506103516,0.7743754386901855
1683929109119500000,5.5765,0.13652294874191284,-0.9442119598388672,0.42514610290527344
1683929109129542000,5.5865419921875,0.479921817779541,-0.48227787017822266,0.8065414428710938
1683929109139583700,5.596583740234375,0.4966506361961365,-0.052491188049316406,0.48470115661621094
1683929109149625600,5.60662548828125,0.37007588148117065,0.16838359832763672,-0.022582530975341797
1683929109159667500,5.61666748046875,-0.016054272651672363,1.6443843841552734,-0.8446817398071289
1683929109169709300,5.626709228515625,0.12996774911880493,1.222764015197754,-1.3025262355804443
1683929109179751400,5.63675146484375,0.843189001083374,1.5901689529418945,-0.5222611427307129
1683929109189793300,5.646793212890625,0.9925413727760315,-0.1833038330078125,-0.1902618408203125
1683929109199835100,5.656835205078125,0.8027592301368713,-0.5028810501098633,0.009700775146484375
1683929109209877000,5.666876953125,0.6043853759765625,0.09242820739746094,0.4277524948120117
1683929109219918800,5.6769189453125,0.5237666368484497,0.4743824005126953,0.6357793807983398
1683929109229960700,5.686960693359375,0.799130380153656,-0.98876953125,0.9685068130493164
1683929109240002600,5.69700244140625,0.9667272567749023,-0.44806861877441406,1.7779254913330078
1683929109250044400,5.70704443359375,0.648489773273468,-0.20584392547607422,1.691835880279541
1683929109260086500,5.71708642578125,-0.11638396978378296,0.17677783966064453,0.3420109748840332
1683929109270128400,5.72712841796875,-0.031728386878967285,0.014652252197265625,-0.5566368103027344
1683929109280170200,5.737170166015625,0.3760952949523926,0.21680736541748047,-0.34052205085754395
1683929109290212000,5.747212158203125,0.6488474011421204,0.5486583709716797,0.06976032257080078
1683929109300254000,5.75725390625,0.6727500557899475,0.9615664482116699,0.5029559135437012
1683929109310295800,5.7672958984375,0.5956149101257324,1.1270980834960938,0.9965066909790039
1683929109320337700,5.777337646484375,0.32394862174987793,-0.5293807983398438,0.8444108963012695
1683929109330379500,5.787379638671875,0.06594246625900269,-0.29798030853271484,0.35631656646728516
1683929109340421600,5.797421630859375,-0.15071657299995422,-0.3988180160522461,-0.08529138565063477
1683929109350463500,5.80746337890625,-0.01811772584915161,-0.24595069885253906,-0.14365196228027344
1683929109360505300,5.81750537109375,0.13806727528572083,0.2180652618408203,0.17713642120361328
1683929109370547200,5.827547119140625,0.28519687056541443,1.178023338317871,0.05089712142944336
1683929109380589000,5.837589111328125,0.22462907433509827,0.9427061080932617,-0.1893014907836914
1683929109390631000,5.847630859375,0.19442832469940186,1.0270061492919922,-0.34400296211242676
1683929109400672800,5.8576728515625,0.32857248187065125,0.6064023971557617,-0.7298362255096436
1683929109410714600,5.867714599609375,0.4852948486804962,0.567835807800293,-0.6110110282897949
1683929109420756700,5.8777568359375,0.4216802418231964,0.4172019958496094,-0.3520183563232422
1683929109430798600,5.887798583984375,0.24771983921527863,0.21777820587158203,0.2750086784362793
1683929109440840400,5.89784033203125,0.07821469008922577,0.27387046813964844,0.6734199523925781
1683929109450882300,5.90788232421875,-0.051238805055618286,0.21588516235351562,0.8360719680786133
1683929109460924200,5.917924072265625,-0.3001457452774048,-0.22486400604248047,0.8504254817962646
1683929109470966000,5.927966064453125,-0.31984907388687134,-0.4592094421386719,1.058680772781372
1683929109481008000,5.938008056640625,-0.24934755265712738,-0.5900440216064453,0.8207128047943115
1683929109491050000,5.948050048828125,-0.13335341215133667,-0.2747821807861328,0.639927864074707
1683929109501091800,5.958091796875,-0.02053133398294449,-0.14459228515625,0.13146376609802246
1683929109511133700,5.9681337890625,0.11953525245189667,-0.5600166320800781,-0.06601262092590332
1683929109521175600,5.978175537109375,0.06756975501775742,-0.2600727081298828,-0.03171181678771973
1683929109531217400,5.988217529296875,-0.022082887589931488,-0.10341835021972656,-0.0992128849029541
1683929109541259300,5.99825927734375,0.0193997323513031,0.3112468719482422,-0.18032574653625488
1683929109551301400,6.00830126953125,-0.051129020750522614,-0.224884033203125,-0.04259181022644043
1683929109561343200,6.01834326171875,0.09494122117757797,0.1103200912475586,0.3114027976989746
1683929109571385000,6.028385009765625,0.028390755876898766,-0.07347679138183594,0.5023996829986572
1683929109581427000,6.038427001953125,0.2865840792655945,-0.9967584609985352,1.0312135219573975
1683929109591468800,6.04846875,0.33948153257369995,-0.6529197692871094,2.0210790634155273
1683929109601510700,6.0585107421875,0.07177327573299408,-1.2590303421020508,2.191037893295288
1683929109611552500,6.068552490234375,-0.17296478152275085,-0.7710065841674805,1.8647279739379883
1683929109621594400,6.078594482421875,0.4236758351325989,-0.360931396484375,1.7420320510864258
1683929109631636500,6.088636474609375,0.23471426963806152,0.1535024642944336,1.6142542362213135
1683929109641678300,6.09867822265625,0.27557137608528137,0.1949453353881836,1.3382151126861572
1683929109651720200,6.10872021484375,0.455247163772583,0.05644989013671875,0.8748667240142822
1683929109661762000,6.118761962890625,0.561538577079773,0.2530088424682617,0.6670851707458496
1683929109671804000,6.128803955078125,0.5583970546722412,0.40641307830810547,0.666386604309082
1683929109681845800,6.138845703125,0.5654407739639282,0.5071687698364258,0.6473674774169922
1683929109691887600,6.1488876953125,0.6202185153961182,0.7079744338989258,0.778439998626709
1683929109701929500,6.158929443359375,0.6436917185783386,0.6452064514160156,0.7018740177154541
1683929109711971600,6.1689716796875,0.9814445972442627,1.2832698822021484,0.03656816482543945
1683929109722013400,6.179013427734375,0.46520909667015076,1.5322937965393066,-0.8113489151000977
1683929109732055300,6.18905517578125,-0.09711378812789917,0.33697986602783203,-1.5162835121154785
1683929109742097200,6.19909716796875,0.10456335544586182,1.6221089363098145,-0.9608209133148193
1683929109752139000,6.209138916015625,-0.03507766127586365,-0.03042125701904297,-0.5522549152374268
1683929109762180900,6.219180908203125,-0.28509584069252014,-0.8942804336547852,0.36504173278808594
1683929109772222700,6.22922265625,-0.5911234617233276,-1.4909944534301758,0.3403298854827881
1683929109782264800,6.239264892578125,-0.7217391133308411,-1.6463727951049805,0.13716912269592285
1683929109792306700,6.249306640625,-1.0480226278305054,-1.4438848495483398,-0.15082883834838867
1683929109802348500,6.2593486328125,-1.372743844985962,-1.0153217315673828,-0.09964823722839355
1683929109812390400,6.269390380859375,-1.4299877882003784,-0.7166919708251953,0.020455121994018555
1683929109822432300,6.279432373046875,-1.1124699115753174,-0.3750333786010742,0.22920942306518555
1683929109832474000,6.28947412109375,-0.48454487323760986,-0.3884124755859375,0.45451784133911133
1683929109842516200,6.29951611328125,0.13408231735229492,-0.8238019943237305,0.38910019397735596
1683929109852558000,6.30955810546875,0.8396974802017212,-0.9109668731689453,0.21253621578216553
1683929109862600000,6.319599853515625,1.4021623134613037,-0.9100332260131836,0.02367687225341797
1683929109872641800,6.329641845703125,1.8684279918670654,-0.7719860076904297,-0.26464009284973145
1683929109882683600,6.33968359375,2.065584182739258,-0.46173572540283203,-0.6001983880996704
1683929109892725500,6.3497255859375,1.9961551427841187,-0.08494091033935547,-0.9908033609390259
1683929109902767400,6.359767333984375,1.6581279039382935,0.044219017028808594,-1.2905548810958862
1683929109912809200,6.369809326171875,1.2589296102523804,0.07969093322753906,-1.4434059858322144
1683929109922851300,6.379851318359375,0.8118099570274353,-0.03134918212890625,-1.5256688594818115
1683929109932893200,6.38989306640625,0.35382509231567383,-0.11501884460449219,-1.5083906650543213
1683929109942935000,6.39993505859375,-0.16285240650177002,-0.11684703826904297,-1.4849834442138672
1683929109952977000,6.409976806640625,-0.7109777927398682,-0.18338394165039062,-1.2924175262451172
1683929109963018800,6.420018798828125,-1.2269853353500366,-0.3131427764892578,-1.0906251668930054
1683929109973060600,6.430060546875,-1.4929158687591553,-0.3564453125,-0.8167588114738464
1683929109983102700,6.440102783203125,-1.4217671155929565,-0.14933395385742188,-0.4252111315727234
1683929109993144600,6.45014453125,-1.131382703781128,0.02088165283203125,-0.0849921703338623
1683929110003186400,6.4601865234375,-0.7071099281311035,0.07590103149414062,0.10410624742507935
1683929110013228300,6.470228271484375,-0.25418221950531006,-0.023809432983398438,0.2770751118659973
1683929110023270100,6.480270263671875,0.1299499273300171,0.014439582824707031,0.31130772829055786
1683929110033312000,6.49031201171875,0.32704412937164307,-0.12401580810546875,0.26801490783691406
1683929110043353900,6.500353759765625,0.343853235244751,-0.010890007019042969,0.19265085458755493
1683929110053395700,6.510395751953125,0.35327672958374023,0.09282112121582031,0.22329336404800415
1683929110063437800,6.520437744140625,0.38079833984375,0.1276998519897461,0.2655825614929199
1683929110073479700,6.530479736328125,0.3449305295944214,0.12536048889160156,0.14113616943359375
1683929110083521500,6.540521484375,0.24015891551971436,0.05251884460449219,0.10740852355957031
1683929110093563400,6.5505634765625,-0.05100882053375244,-0.01702594757080078,-0.030770063400268555
1683929110103605200,6.560605224609375,-0.35084831714630127,0.15009784698486328,-0.06652069091796875
1683929110113647000,6.570647216796875,-0.7798094749450684,0.11322879791259766,-0.1285470724105835
1683929110123689200,6.580689208984375,-1.1573721170425415,0.0560302734375,-0.35236746072769165
1683929110133731000,6.59073095703125,-1.6240127086639404,-0.10859394073486328,-0.7948188185691833
1683929110143773000,6.60077294921875,-1.4681411981582642,-0.012969970703125,-0.8907716274261475
1683929110153814800,6.610814697265625,-0.9937736988067627,-0.2827005386352539,-0.726506233215332
1683929110163856600,6.620856689453125,-0.5488600730895996,-0.37078189849853516,-0.7066208720207214
1683929110173898500,6.6308984375,-0.1778090000152588,-0.25501155853271484,-0.963626503944397
1683929110183940400,6.6409404296875,-0.010533571243286133,-0.12860870361328125,-1.5151923894882202
1683929110193982500,6.650982421875,0.09805965423583984,-0.10339641571044922,-1.920712947845459
1683929110204024300,6.6610244140625,0.12334227561950684,-0.20545482635498047,-2.0400452613830566
1683929110214066200,6.671066162109375,0.17508745193481445,-0.20551204681396484,-2.0009102821350098
1683929110224108000,6.68110791015625,0.3144650459289551,-0.11163520812988281,-1.8202506303787231
1683929110234150000,6.69114990234375,0.38365983963012695,-0.19190120697021484,-1.669015645980835
1683929110244191700,6.701191650390625,0.451554536819458,-0.2905445098876953,-1.4547030925750732
1683929110254233900,6.71123388671875,0.5198677778244019,-0.08978557586669922,-1.1331229209899902
1683929110264275700,6.721275634765625,0.5236504077911377,0.08980655670166016,-0.7498716711997986
1683929110274317600,6.731317626953125,0.4781196117401123,0.19121456146240234,-0.4828554093837738
1683929110284359400,6.741359375,0.4048573970794678,0.25731945037841797,-0.27376502752304077
1683929110294401300,6.7514013671875,0.35400390625,0.44033241271972656,-0.13510775566101074
1683929110304443100,6.761443115234375,0.3720376491546631,0.5269804000854492,-0.0604780912399292
1683929110314485000,6.771485107421875,0.40760087966918945,0.8139457702636719,0.15665924549102783
1683929110324527000,6.781527099609375,0.6376644372940063,1.2778339385986328,0.8528565168380737
1683929110334569000,6.79156884765625,0.656934380531311,1.0673694610595703,1.1358668804168701
1683929110344610800,6.80161083984375,0.3410310745239258,0.8442506790161133,1.212275743484497
1683929110354652700,6.811652587890625,-0.2631649971008301,0.25182628631591797,0.8369418978691101
1683929110364694500,6.821694580078125,-0.8162593841552734,0.18555164337158203,0.13524788618087769
1683929110374736600,6.831736572265625,-1.0311384201049805,0.1477508544921875,-0.29126301407814026
1683929110384778500,6.841778564453125,-0.8943829536437988,-0.0851583480834961,-0.4943086802959442
1683929110394820400,6.8518203125,-0.7079126834869385,0.05249786376953125,-0.4737161695957184
1683929110404862200,6.8618623046875,-0.6387906074523926,0.08922004699707031,-0.38121363520622253
1683929110414903600,6.871903564453125,-0.558912992477417,0.15371036529541016,-0.2977045178413391
1683929110424945400,6.8819453125,-0.4196586608886719,0.0832223892211914,-0.1803913712501526
1683929110434987300,6.8919873046875,-0.25569796562194824,0.05255889892578125,-0.009559094905853271
1683929110445029000,6.902029052734375,-0.11134529113769531,-0.0068416595458984375,0.08783119916915894
1683929110455071200,6.9120712890625,-0.00885629653930664,0.01582050323486328,0.17828291654586792
1683929110465113000,6.922113037109375,0.020792245864868164,0.14669418334960938,0.28866976499557495
1683929110475155000,6.932155029296875,-0.0068700313568115234,0.0317535400390625,0.30149710178375244
1683929110485196800,6.94219677734375,-0.061484336853027344,-0.18064308166503906,0.23519492149353027
1683929110495238700,6.95223876953125,-0.03481578826904297,-0.1727151870727539,0.220414936542511
1683929110505280500,6.962280517578125,0.047957420349121094,-0.29102325439453125,0.06525945663452148
1683929110515322600,6.972322509765625,0.29426121711730957,-0.3809022903442383,-0.01362675428390503
1683929110525364500,6.982364501953125,0.4641709327697754,-0.14041519165039062,-0.040604352951049805
1683929110535406300,6.99240625,0.3854649066925049,-0.11301517486572266,-0.1058957576751709
1683929110545448200,7.0024482421875,0.21984195709228516,-0.024732589721679688,-0.14436298608779907
1683929110555490000,7.012489990234375,-0.12585806846618652,0.3461570739746094,-0.11283129453659058
1683929110565532000,7.022531982421875,-0.4426388740539551,0.44211673736572266,-0.29458293318748474
1683929110575573800,7.03257373046875,-0.519974946975708,0.27117443084716797,-0.6085799932479858
1683929110585616000,7.042615966796875,-0.41087937355041504,0.026912689208984375,-0.663282036781311
1683929110595657700,7.05265771484375,-0.3228726387023926,-0.2269601821899414,-0.5157815217971802
1683929110605699600,7.062699462890625,-0.2168889045715332,-0.10677433013916016,-0.2936416566371918
1683929110615741400,7.072741455078125,-0.24777460098266602,-0.08980846405029297,-0.22499752044677734
1683929110625783300,7.082783203125,-0.3691084384918213,-0.1586904525756836,-0.17364680767059326
1683929110635825400,7.092825439453125,-0.45081067085266113,-0.2562713623046875,-0.0711560845375061
1683929110645867300,7.1028671875,-0.3353421688079834,-0.06509113311767578,0.06111186742782593
1683929110655909000,7.1129091796875,-0.20172357559204102,0.016992568969726562,0.30533766746520996
1683929110665951000,7.122950927734375,-0.1875004768371582,0.05516242980957031,0.4336530864238739
1683929110675992800,7.132992919921875,-0.18016695976257324,0.019173622131347656,0.33114200830459595
1683929110686034700,7.14303466796875,-0.12307500839233398,0.08793067932128906,0.19313544034957886
1683929110696076500,7.15307666015625,-0.028923988342285156,0.34291648864746094,0.08644908666610718
1683929110706118700,7.16311865234375,0.03153085708618164,0.4191455841064453,-0.12250155210494995
1683929110716160500,7.173160400390625,0.08411908149719238,0.5014352798461914,-0.30079853534698486
1683929110726202400,7.183202392578125,-0.0796821117401123,0.09672737121582031,-0.5332334041595459
1683929110736244200,7.193244140625,0.009984016418457031,-0.20833778381347656,-0.7281460762023926
1683929110746286000,7.2032861328125,0.1851363182067871,-0.0710458755493164,-0.7430667877197266
1683929110756328000,7.213327880859375,0.4001803398132324,-0.08558940887451172,-0.5892183780670166
1683929110766370000,7.2233701171875,0.4760463237762451,-0.22699832916259766,-0.5948454141616821
1683929110776412000,7.233411865234375,0.3601367473602295,-0.42891407012939453,-0.5676997900009155
1683929110786453800,7.243453857421875,0.12436795234680176,-0.6429719924926758,-0.5238709449768066
1683929110796495600,7.25349560546875,-0.09320187568664551,-0.5461826324462891,-0.2579830288887024
1683929110806537500,7.263537353515625,-0.22524046897888184,-0.2577238082885742,0.12759888172149658
1683929110816579600,7.27357958984375,-0.22173738479614258,0.08316421508789062,0.5806658267974854
1683929110826621400,7.283621337890625,-0.11409282684326172,0.4277219772338867,1.448979377746582
1683929110836663300,7.293663330078125,0.17804622650146484,0.3581552505493164,1.905099630355835
1683929110846705200,7.303705078125,0.6220657825469971,0.23601055145263672,1.8350132703781128
1683929110856747000,7.3137470703125,0.8661220073699951,0.8577966690063477,1.0335201025009155
1683929110866788900,7.323788818359375,1.0438594818115234,0.3244953155517578,0.8229835629463196
1683929110876831000,7.3338310546875,1.0039355754852295,0.32055091857910156,1.0019179582595825
1683929110886872800,7.343872802734375,0.6047170162200928,0.6754522323608398,0.9799349904060364
1683929110896914700,7.353914794921875,0.5321493148803711,0.8759069442749023,0.9775736927986145
1683929110906956500,7.36395654296875,0.7129201889038086,0.8122377395629883,0.4454355239868164
1683929110916998400,7.373998291015625,0.8300411701202393,0.3339424133300781,-0.4023759365081787
1683929110927040300,7.384040283203125,0.9102773666381836,1.1214866638183594,-1.6542565822601318
1683929110937082400,7.394082275390625,0.8211448192596436,-0.02471160888671875,-2.0456018447875977
1683929110947124200,7.404124267578125,0.6749038696289062,-0.47237205505371094,-1.815716028213501
1683929110957166000,7.414166015625,0.4194192886352539,-0.053307533264160156,-1.0281791687011719
1683929110967208000,7.4242080078125,0.15344524383544922,0.8621006011962891,-1.203751802444458
1683929110977249800,7.434249755859375,0.15876460075378418,-0.9500017166137695,-1.3609367609024048
1683929110987291600,7.444291748046875,-0.005000114440917969,-0.5216035842895508,-1.1603153944015503
1683929110997333800,7.454333740234375,-0.11213874816894531,-0.3736391067504883,-0.8969680070877075
1683929111007375600,7.464375732421875,-0.04335975646972656,-0.6852827072143555,-0.32184934616088867
1683929111017417500,7.47441748046875,-0.07025504112243652,-0.20968914031982422,-0.17254400253295898
1683929111027459300,7.484459228515625,0.04793286323547363,-0.05610179901123047,0.145180344581604
1683929111037501200,7.494501220703125,0.1463625431060791,0.3008136749267578,0.5251272916793823
1683929111047543000,7.50454296875,0.06706738471984863,0.3308219909667969,0.700982928276062
1683929111057585200,7.514585205078125,-0.09330201148986816,-0.006865501403808594,0.613375186920166
1683929111067627000,7.524626953125,-0.2528367042541504,-0.3308906555175781,0.4181478023529053
1683929111077668900,7.5346689453125,-0.369459867477417,-0.44651222229003906,0.2484186887741089
1683929111087710700,7.544710693359375,-0.37917661666870117,-0.42597103118896484,0.1230471134185791
1683929111097752600,7.554752685546875,-0.377838134765625,-0.3434715270996094,0.05686354637145996
1683929111107794700,7.564794677734375,-0.4392836093902588,-0.1777486801147461,0.052133798599243164
1683929111117836500,7.57483642578125,-0.4309713840484619,-0.03596019744873047,0.08208441734313965
1683929111127878400,7.58487841796875,-0.47599196434020996,0.12769508361816406,0.14892661571502686
1683929111137920300,7.594920166015625,-0.5540611743927002,0.2721672058105469,0.19788193702697754
1683929111147962000,7.604962158203125,-0.6080367565155029,0.3706836700439453,0.27849602699279785
1683929111158004000,7.61500390625,-0.5149147510528564,0.2845020294189453,0.1492551565170288
1683929111168046000,7.625046142578125,-0.3121652603149414,0.29398345947265625,0.1732720136642456
1683929111178088000,7.635087890625,0.34534478187561035,0.4268465042114258,0.39365601539611816
1683929111188129800,7.6451298828125,0.6561558246612549,0.18380355834960938,0.07467269897460938
1683929111198171600,7.655171630859375,0.5172121524810791,-0.08999347686767578,-0.1655336618423462
1683929111208213500,7.665213623046875,0.21481609344482422,-0.06334114074707031,0.21103692054748535
1683929111218255600,7.675255615234375,-0.10052728652954102,-0.08241939544677734,0.6350889205932617
1683929111228297500,7.68529736328125,-0.2867000102996826,-0.005709648132324219,1.0462074279785156
1683929111238339300,7.69533935546875,-0.39716148376464844,0.23103046417236328,1.2289576530456543
1683929111248381200,7.705381103515625,-0.3881959915161133,0.37023258209228516,1.1547267436981201
1683929111258423000,7.715423095703125,-0.2576179504394531,0.39054393768310547,0.9773653745651245
1683929111268465000,7.72546484375,-0.027752161026000977,0.40408897399902344,0.7466233968734741
1683929111278507000,7.735507080078125,0.16634058952331543,0.3412799835205078,0.5651634931564331
1683929111288548900,7.745548828125,0.2915043830871582,0.29058361053466797,0.4807932376861572
1683929111298590700,7.7555908203125,0.31177401542663574,0.19469356536865234,0.49112963676452637
1683929111308632600,7.765632568359375,0.22193360328674316,0.17319107055664062,0.5608197450637817
1683929111318674400,7.77567431640625,0.11705851554870605,0.1661834716796875,0.5784995555877686
1683929111328716500,7.785716552734375,0.056845664978027344,0.20459651947021484,0.5352439880371094
1683929111338758400,7.79575830078125,-0.03684854507446289,0.21408367156982422,0.4310877323150635
1683929111348800300,7.80580029296875,-0.1412801742553711,0.22558879852294922,0.4493124485015869
1683929111358842000,7.815842041015625,-0.20107364654541016,0.14855480194091797,0.4232518672943115
1683929111368884000,7.825884033203125,-0.2551431655883789,0.1147317886352539,0.3911656141281128
1683929111378925800,7.83592578125,-0.35460925102233887,-0.009514808654785156,0.4226105213165283
1683929111388968000,7.845968017578125,-0.46883726119995117,-0.06837272644042969,0.4279751777648926
1683929111399009800,7.856009765625,-0.580580472946167,-0.052559852600097656,0.17072570323944092
1683929111409051600,7.8660517578125,-0.6484391689300537,0.013478279113769531,-0.0468292236328125
1683929111419093500,7.876093505859375,-0.6170172691345215,0.04574775695800781,-0.3220475912094116
1683929111429135400,7.88613525390625,-0.5956673622131348,0.051204681396484375,-0.5086812973022461
1683929111439177500,7.896177490234375,-0.5472736358642578,0.05580902099609375,-0.7046908140182495
1683929111449219300,7.90621923828125,-0.47571659088134766,0.07837200164794922,-0.8525899648666382
1683929111459261200,7.91626123046875,-0.32797980308532715,0.11623287200927734,-0.8613333702087402
1683929111469303000,7.926302978515625,-0.12668323516845703,0.10501670837402344,-0.8286346197128296
1683929111479345000,7.936344970703125,0.0633995532989502,0.06354904174804688,-0.6736235618591309
1683929111489387000,7.946386962890625,0.20147466659545898,0.055634498596191406,-0.45104801654815674
1683929111499428900,7.956428955078125,0.27512383460998535,-0.010652542114257812,-0.3081221580505371
1683929111509470700,7.966470703125,0.2728242874145508,-0.1294422149658203,-0.2173612117767334
1683929111519512600,7.9765126953125,0.21437311172485352,-0.2765207290649414,-0.1975339651107788
1683929111529554400,7.986554443359375,0.09880232810974121,-0.38785266876220703,-0.050357937812805176
1683929111539596300,7.99659619140625,0.007795810699462891,-0.41700077056884766,-0.09185302257537842
1683929111549638400,8.006638427734375,-0.10553646087646484,-0.3960895538330078,-0.08827602863311768
1683929111559680300,8.01668017578125,-0.19368815422058105,-0.3496217727661133,-0.2845982313156128
1683929111569722000,8.02672216796875,-0.29796862602233887,-0.24762630462646484,-0.4371861219406128
1683929111579764000,8.036763916015625,-0.3951833248138428,0.0053462982177734375,-0.40843069553375244
1683929111589805800,8.046805908203124,-0.4159526824951172,0.3384971618652344,0.02279984951019287
1683929111599848000,8.056847900390625,-0.2799515724182129,0.6751289367675781,0.32012760639190674
1683929111609889800,8.066889892578125,0.0669713020324707,0.8833856582641602,0.48279476165771484
1683929111619931600,8.076931640625,0.5589118003845215,0.8457803726196289,0.5666812658309937
1683929111629973500,8.086973388671876,0.9818544387817383,0.723179817199707,0.5575733184814453
1683929111640015400,8.097015380859375,1.1321169137954712,0.6639032363891602,0.4043867588043213
1683929111650057500,8.107057373046874,1.0464571714401245,0.677398681640625,0.275348424911499
1683929111660099300,8.117099365234376,0.6911848783493042,0.7371768951416016,0.2291097640991211
1683929111670141200,8.12714111328125,0.24211716651916504,0.7353839874267578,0.14120852947235107
1683929111680183000,8.13718310546875,-0.10044670104980469,0.6572914123535156,0.09509479999542236
1683929111690225000,8.147224853515626,-0.3015017509460449,0.4622020721435547,0.12011373043060303
1683929111700267000,8.15726708984375,-0.39385390281677246,0.23426532745361328,0.2941780090332031
1683929111710308900,8.167308837890625,-0.4411194324493408,0.03831958770751953,0.5087407827377319
1683929111720350700,8.177350830078124,-0.4191169738769531,-0.17540645599365234,0.7489498853683472
1683929111730392600,8.187392578125,-0.30643367767333984,-0.3087177276611328,0.9252223968505859
1683929111740434400,8.197434326171875,-0.23208832740783691,-0.4478578567504883,1.0570909976959229
1683929111750476500,8.2074765625,-0.15714383125305176,-0.5526857376098633,1.1534225940704346
1683929111760518400,8.217518310546875,-0.03599190711975098,-0.5924396514892578,1.2317564487457275
1683929111770560300,8.227560302734375,0.15486979484558105,-0.45985984802246094,1.266455888748169
1683929111780602000,8.23760205078125,0.31425023078918457,-0.30573177337646484,1.1338807344436646
1683929111790644000,8.24764404296875,0.4385991096496582,-0.15856552124023438,0.9281071424484253
1683929111800686000,8.25768603515625,0.4634593725204468,0.015630722045898438,0.6185076236724854
1683929111810728000,8.26772802734375,0.34813034534454346,0.2148122787475586,0.1920546293258667
1683929111820769800,8.277769775390626,0.02953934669494629,0.30488109588623047,-0.3171733617782593
1683929111830811600,8.287811767578125,-0.3741114139556885,0.32119274139404297,-0.8516085147857666
1683929111840853500,8.297853515625,-0.8535714149475098,0.32059288024902344,-1.2697046995162964
1683929111850895600,8.3078955078125,-1.3282811641693115,0.31899261474609375,-1.5961519479751587
1683929111860937500,8.3179375,-1.645521879196167,0.33234596252441406,-1.7918627262115479
1683929111870979300,8.327979248046875,-1.66133451461792,0.39639854431152344,-1.8005826473236084
1683929111881021200,8.338021240234376,-1.4028912782669067,0.3730630874633789,-1.555582046508789
1683929111891063000,8.34806298828125,-0.937464714050293,0.40657615661621094,-1.2446836233139038
1683929111901105200,8.358105224609375,-0.3796544075012207,0.45668792724609375,-0.932700514793396
1683929111911147000,8.36814697265625,0.08146512508392334,0.42565250396728516,-0.7039529085159302
1683929111921188900,8.37818896484375,0.39444589614868164,0.34446239471435547,-0.400185227394104
1683929111931230700,8.388230712890625,0.624964714050293,0.2132701873779297,-0.12289690971374512
1683929111941272600,8.3982724609375,0.7958214282989502,0.08507919311523438,0.23494303226470947
1683929111951314700,8.408314697265626,0.9105446338653564,0.02470874786376953,0.538893461227417
1683929111961356500,8.4183564453125,1.0085711479187012,0.05362224578857422,0.6629209518432617
1683929111971398400,8.4283984375,1.0480177402496338,0.10004997253417969,0.7107900381088257
1683929111981440300,8.438440185546876,1.0350935459136963,0.12601470947265625,0.7154906988143921
1683929111991482000,8.448482177734375,0.9952254891395569,0.22493457794189453,0.6955811977386475
1683929112001524000,8.45852392578125,0.8634855151176453,0.3058319091796875,0.6203573942184448
1683929112011566000,8.468566162109376,0.6976383328437805,0.3923940658569336,0.4404003620147705
1683929112021608000,8.47860791015625,0.48903048038482666,0.41496849060058594,0.22610437870025635
1683929112031649800,8.48864990234375,0.24553990364074707,0.34470081329345703,-0.07150495052337646
1683929112041691600,8.498691650390626,-0.0016838312149047852,0.24596691131591797,-0.4099411964416504
1683929112051733500,8.5087333984375,-0.3361060619354248,0.034893035888671875,-0.7155336141586304
1683929112061775600,8.518775634765625,-0.7994310855865479,-0.05945587158203125,-0.9912055730819702
1683929112071817500,8.5288173828125,-1.3214341402053833,-0.08089065551757812,-1.1836563348770142
1683929112081859300,8.538859375,-1.7208949327468872,-0.04663372039794922,-1.2370713949203491
1683929112091901200,8.548901123046875,-1.8557778596878052,-0.10480022430419922,-1.0307786464691162
1683929112101943000,8.558943115234374,-1.7130694389343262,-0.032807350158691406,-0.8042192459106445
1683929112111985200,8.568985107421875,-1.4038976430892944,-0.05746269226074219,-0.6210442781448364
1683929112122027000,8.579027099609375,-1.094616413116455,-0.08987045288085938,-0.5367695093154907
1683929112132068900,8.58906884765625,-0.8012111186981201,-0.008175849914550781,-0.5713448524475098
1683929112142110700,8.59911083984375,-0.4544774293899536,0.022604942321777344,-0.6246628761291504
1683929112152152600,8.609152587890625,-0.07434654235839844,-0.061710357666015625,-0.6474735736846924
1683929112162194700,8.619194580078124,0.302839994430542,-0.2845592498779297,-0.664785623550415
1683929112172236500,8.629236572265626,0.6252160668373108,-0.5403861999511719,-0.6187797784805298
1683929112182278400,8.6392783203125,0.8205429911613464,-0.7502298355102539,-0.48807430267333984
1683929112192320300,8.6493203125,0.8534145951271057,-0.8688201904296875,-0.313846230506897
1683929112202362000,8.659362060546876,0.6416341662406921,-0.877324104309082,-0.14458060264587402
1683929112212404200,8.669404296875,0.3112878203392029,-0.8047399520874023,-0.05979442596435547
1683929112222446000,8.679446044921875,0.019250929355621338,-0.7253713607788086,0.021335124969482422
1683929112232488000,8.689488037109374,-0.1663365364074707,-0.6464242935180664,0.08604609966278076
1683929112242529800,8.69952978515625,-0.2797718644142151,-0.5893583297729492,0.14246118068695068
1683929112252572000,8.709572021484375,-0.31492459774017334,-0.5326509475708008,0.22093719244003296
1683929112262613800,8.71961376953125,-0.2835514545440674,-0.5097074508666992,0.29727649688720703
1683929112272655600,8.729655517578125,-0.2587846517562866,-0.48442745208740234,0.4020095467567444
1683929112282697500,8.739697509765625,-0.3354589343070984,-0.4040956497192383,0.46792298555374146
1683929112292739300,8.7497392578125,-0.5029190182685852,-0.35945892333984375,0.4734414219856262
1683929112302781400,8.759781494140626,-0.7048400640487671,-0.19277286529541016,0.416670024394989
1683929112312823300,8.7698232421875,-0.8502373099327087,-0.11936759948730469,0.2672702670097351
1683929112322865200,8.779865234375,-0.9570789337158203,0.0064868927001953125,-0.007407426834106445
1683929112332907000,8.789906982421876,-0.98475581407547,0.1509265899658203,-0.20785164833068848
1683929112342948900,8.799948974609375,-0.9141926169395447,0.2826194763183594,-0.4100562334060669
1683929112352991000,8.809990966796875,-0.7347647547721863,0.3917999267578125,-0.6339607238769531
1683929112363032800,8.82003271484375,-0.41355329751968384,0.5691070556640625,-0.7510555982589722
1683929112373074700,8.83007470703125,-0.0150984525680542,0.6687307357788086,-0.8606302738189697
1683929112383116500,8.840116455078125,0.3429342210292816,0.7435951232910156,-0.8215460777282715
1683929112393158400,8.850158447265626,0.6485546231269836,0.6650457382202148,-0.6298232078552246
1683929112403200500,8.860200439453125,0.8619523048400879,0.5316438674926758,-0.3993924856185913
1683929112413242400,8.870242431640625,0.9799362421035767,0.4249553680419922,-0.08883988857269287
1683929112423284200,8.8802841796875,1.0332149267196655,0.29256725311279297,0.1879064440727234
1683929112433326000,8.890326171875,1.0600905418395996,0.15611934661865234,0.4109780192375183
1683929112443368000,8.900367919921875,1.022137999534607,0.10872745513916016,0.5617095828056335
1683929112453410000,8.91041015625,0.8867536783218384,0.04261493682861328,0.721627950668335
1683929112463452000,8.920451904296876,0.7303647994995117,0.022185325622558594,0.9332478642463684
1683929112473493800,8.93049365234375,0.5986367464065552,-0.01253509521484375,1.0195130109786987
1683929112483535600,8.94053564453125,0.5291950106620789,-0.10698509216308594,1.0475026369094849
1683929112493577500,8.950577392578126,0.5552403926849365,-0.21082401275634766,0.9813528656959534
1683929112503619600,8.96061962890625,0.5914419889450073,-0.15448951721191406,0.9823908805847168
1683929112513661400,8.970661376953124,0.564507007598877,-0.08875751495361328,1.0744742155075073
1683929112523703300,8.980703369140626,0.512328028678894,-0.061287879943847656,1.2038445472717285
1683929112533745200,8.9907451171875,0.4318440854549408,-0.07201671600341797,1.2767002582550049
1683929112543787300,9.000787353515625,0.3897295296192169,-0.1089324951171875,1.311527132987976
1683929112553829000,9.0108291015625,0.42093512415885925,-0.10762500762939453,1.280452013015747
1683929112563871000,9.02087109375,0.5229281783103943,-0.07543468475341797,1.2657246589660645
1683929112573912800,9.030912841796875,0.6847516298294067,-0.1007680892944336,1.2294621467590332
1683929112583954700,9.04095458984375,0.8520822525024414,-0.21680164337158203,1.2549288272857666
1683929112593996800,9.050996826171875,0.9204938411712646,-0.29187965393066406,1.272691011428833
1683929112604038700,9.06103857421875,0.905896782875061,-0.3523101806640625,1.3207392692565918
1683929112614080500,9.07108056640625,0.8134593963623047,-0.3957366943359375,1.3725253343582153
1683929112624122400,9.081122314453125,0.682742714881897,-0.44851112365722656,1.389704704284668
1683929112634164500,9.09116455078125,0.5580263137817383,-0.4461536407470703,1.3768401145935059
1683929112644206300,9.101206298828124,0.48581188917160034,-0.3768949508666992,1.2741777896881104
1683929112654248200,9.111248291015626,0.43805721402168274,-0.3006715774536133,1.1898064613342285
1683929112664290000,9.1212900390625,0.429186075925827,-0.17928600311279297,1.0543030500411987
1683929112674332000,9.131331787109374,0.4538070559501648,-0.04387855529785156,0.8152241706848145
1683929112684373800,9.141373779296876,0.49399349093437195,-0.03303813934326172,0.5549582242965698
1683929112694416000,9.151415771484375,0.5267404913902283,-0.005595207214355469,0.3152393698692322
1683929112704457700,9.161457763671875,0.5222935676574707,0.04790782928466797,0.13063925504684448
1683929112714499600,9.17149951171875,0.4668903648853302,0.06766414642333984,0.06348466873168945
1683929112724541400,9.18154150390625,0.4004235863685608,0.03935432434082031,0.0779120922088623
1683929112734583600,9.19158349609375,0.4243088364601135,0.0036716461181640625,0.15449339151382446
1683929112744625400,9.20162548828125,0.5142409205436707,-0.03450298309326172,0.3542111814022064
1683929112754667300,9.211667236328125,0.6236122846603394,-0.04644489288330078,0.4926236569881439
1683929112764709000,9.221709228515625,0.7109388113021851,-0.044106483459472656,0.6604531407356262
1683929112774751000,9.2317509765625,0.7755318880081177,-0.039353370666503906,0.7705919146537781
1683929112784793000,9.24179296875,0.788634717464447,-0.015458106994628906,0.761026918888092
1683929112794835000,9.2518349609375,0.7525827884674072,-0.07282352447509766,0.6948732137680054
1683929112804876800,9.261876708984374,0.7153600454330444,-0.09422779083251953,0.7298733592033386
1683929112814918700,9.271918701171876,0.5887672305107117,-0.1394500732421875,0.7986528277397156
1683929112824960800,9.281960693359375,0.4743301272392273,-0.15112686157226562,0.7980309724807739
1683929112835002600,9.292002685546874,0.34428414702415466,-0.12696456909179688,0.7040501236915588
1683929112845044500,9.30204443359375,0.2378811091184616,-0.1554584503173828,0.595815896987915
1683929112855086300,9.31208642578125,0.18149548768997192,-0.09801006317138672,0.4713951647281647
1683929112865128200,9.322128173828125,0.1555851399898529,-0.05908966064453125,0.383204847574234
1683929112875170300,9.33217041015625,0.1266687512397766,-0.06572818756103516,0.37576764822006226
1683929112885212200,9.342212158203125,0.14405736327171326,0.00054168701171875,0.46192142367362976
1683929112895254000,9.35225390625,0.20930215716362,0.09384632110595703,0.5898282527923584
1683929112905296000,9.3622958984375,0.22761622071266174,0.11491203308105469,0.7180060148239136
1683929112915337700,9.372337646484375,0.32930803298950195,0.08853912353515625,0.8056775331497192
1683929112925379800,9.3823798828125,0.4185384511947632,0.09562301635742188,0.8952562808990479
1683929112935421700,9.392421630859374,0.5021875500679016,0.03436470031738281,0.8763967752456665
1683929112945463600,9.402463623046875,0.5413771271705627,0.00014209747314453125,0.906096339225769
1683929112955505400,9.41250537109375,0.5614258050918579,-0.08983802795410156,0.8541656732559204
1683929112965547500,9.422547607421874,0.5380467772483826,-0.21815013885498047,0.8541946411132812
1683929112975589400,9.43258935546875,0.44991499185562134,-0.31581974029541016,0.8955020308494568
1683929112985631200,9.44263134765625,0.30924683809280396,-0.3314971923828125,0.8637474775314331
1683929112995673000,9.452673095703124,0.08909228444099426,-0.3819007873535156,0.731339693069458
1683929113005715000,9.46271484375,-0.15718308091163635,-0.2240467071533203,0.525126576423645
1683929113015757000,9.472757080078125,-0.4024271070957184,-0.0075092315673828125,0.16163522005081177
1683929113025799000,9.482798828125,-0.5624697208404541,0.1700267791748047,-0.2559155225753784
1683929113035840800,9.4928408203125,-0.6569188833236694,0.2572803497314453,-0.5835085511207581
1683929113045882600,9.502882568359375,-0.6683706045150757,0.29335784912109375,-0.8873055577278137
1683929113055924700,9.5129248046875,-0.5945388078689575,0.2178821563720703,-1.0984376668930054
1683929113065966600,9.522966552734376,-0.49700817465782166,0.22659587860107422,-1.244359016418457
1683929113076008400,9.533008544921875,-0.39760711789131165,0.16097640991210938,-1.2350490093231201
1683929113086050300,9.54305029296875,-0.2826380729675293,0.21946048736572266,-1.1617786884307861
1683929113096092200,9.553092041015624,-0.22807377576828003,0.21541309356689453,-1.007671594619751
1683929113106134300,9.56313427734375,-0.1738274097442627,0.18246936798095703,-0.7191023230552673
1683929113116176100,9.573176025390625,-0.11752831935882568,0.11124515533447266,-0.374392032623291
1683929113126218000,9.583218017578124,-0.10300970077514648,0.0593719482421875,-0.038346946239471436
1683929113136259800,9.593259765625,-0.05675226449966431,0.08657169342041016,0.1262921690940857
1683929113146301700,9.6033017578125,-0.04547041654586792,0.05883216857910156,0.27141880989074707
1683929113156343800,9.61334375,-0.06878632307052612,-0.02848052978515625,0.3443005084991455
1683929113166385700,9.6233857421875,-0.09800165891647339,-0.08680438995361328,0.41612619161605835
1683929113176427500,9.633427490234375,-0.17340689897537231,-0.18303203582763672,0.4312286376953125
1683929113186469400,9.643469482421875,-0.2396407127380371,-0.2119922637939453,0.3155505657196045
1683929113196511500,9.653511474609376,-0.35522323846817017,-0.21690845489501953,0.13399171829223633
1683929113206553300,9.66355322265625,-0.45700836181640625,-0.19793224334716797,-0.0888906717300415
1683929113216595200,9.67359521484375,-0.510708212852478,-0.21013736724853516,-0.3381887674331665
1683929113226637000,9.683636962890626,-0.5015345811843872,-0.19384765625,-0.5556890368461609
1683929113236679200,9.69367919921875,-0.38847583532333374,-0.16826534271240234,-0.6151278614997864
1683929113246721000,9.703720947265625,-0.34506499767303467,-0.04036426544189453,-0.8105079531669617
1683929113256763000,9.713762939453124,-0.21398210525512695,0.07246017456054688,-0.9536808133125305
1683929113266804700,9.7238046875,-0.03737497329711914,0.17263221740722656,-0.9963716268539429
1683929113276846600,9.7338466796875,0.15410685539245605,0.2483348846435547,-0.9410871267318726
1683929113286888400,9.743888427734374,0.3438366651535034,0.2185220718383789,-0.8328661322593689
1683929113296930600,9.7539306640625,0.5305352807044983,0.28913307189941406,-0.6335107088088989
1683929113306972400,9.763972412109375,0.63447505235672,0.3144683837890625,-0.5382768511772156
1683929113317014300,9.77401416015625,0.6602627038955688,0.29466915130615234,-0.3818480372428894
1683929113327056100,9.78405615234375,0.658661961555481,0.34209728240966797,-0.15984094142913818
1683929113337098200,9.79409814453125,0.6206151247024536,0.406494140625,0.07901948690414429
1683929113347140000,9.80414013671875,0.5937303900718689,0.3923664093017578,0.2315354347229004
1683929113357182000,9.814181884765626,0.5656896829605103,0.3310270309448242,0.3166944980621338
1683929113367223800,9.824223876953125,0.4932441711425781,0.2154684066772461,0.2843572497367859
1683929113377265700,9.834265625,0.3906937539577484,0.1556854248046875,0.23514121770858765
1683929113387307800,9.844307861328126,0.26305150985717773,0.07982826232910156,0.15281730890274048
1683929113397349600,9.854349609375,0.09401708841323853,0.021213531494140625,0.09834903478622437
1683929113407391500,9.8643916015625,-0.13230061531066895,-0.0012378692626953125,0.1034848690032959
1683929113417433300,9.874433349609374,-0.3904750347137451,-0.04748249053955078,0.2235216498374939
1683929113427475500,9.884475341796875,-0.6000004410743713,-0.08419322967529297,0.34407931566238403
1683929113437517300,9.894517333984375,-0.8405704498291016,-0.16882705688476562,0.5345579385757446
1683929113447559200,9.90455908203125,-0.9817107915878296,-0.2272968292236328,0.7301486730575562
1683929113457601000,9.91460107421875,-1.0582929849624634,-0.2572975158691406,0.9112677574157715
1683929113467643000,9.924642822265625,-1.0490044355392456,-0.3090400695800781,1.0708379745483398
1683929113477685000,9.93468505859375,-0.9447833895683289,-0.31795597076416016,1.2398213148117065
1683929113487726800,9.944726806640626,-0.7751720547676086,-0.30076122283935547,1.4007569551467896
1683929113497768700,9.954768798828125,-0.5745633244514465,-0.2238922119140625,1.4638149738311768
1683929113507810600,9.964810546875,-0.3897820711135864,-0.15656089782714844,1.3468587398529053
1683929113517852700,9.974852783203126,-0.24187231063842773,-0.11765575408935547,1.025734782218933
1683929113527894500,9.98489453125,-0.13962167501449585,-0.059345245361328125,0.54743492603302
1683929113537936400,9.994936279296875,-0.11207002401351929,0.0015087127685546875,0.07372581958770752
1683929113547978200,10.004978271484376,-0.15392887592315674,-0.092742919921875,-0.27359461784362793
1683929113558020400,10.015020263671875,-0.23981982469558716,-0.09105873107910156,-0.5377654433250427
1683929113568062200,10.025062255859375,-0.3371347188949585,-0.029657363891601562,-0.8186318874359131
1683929113578104000,10.03510400390625,-0.43989771604537964,0.12690067291259766,-1.0713896751403809
1683929113588146000,10.04514599609375,-0.4853937029838562,0.32327938079833984,-1.1584374904632568
1683929113598187800,10.055187744140625,-0.4599751830101013,0.4375619888305664,-1.1390907764434814
1683929113608230000,10.06522998046875,-0.389060378074646,0.23834800720214844,-1.0368643999099731
1683929113618271700,10.075271728515625,-0.24999892711639404,0.08235931396484375,-0.6995278596878052
1683929113628313600,10.085313720703125,-0.19995707273483276,-0.025720596313476562,-0.3958272933959961
1683929113638355500,10.09535546875,-0.12799853086471558,-0.050171852111816406,-0.052524566650390625
1683929113648397300,10.105397216796876,-0.0145416259765625,0.004046440124511719,0.17907452583312988
1683929113658439400,10.115439453125,0.11863231658935547,0.11771392822265625,0.35811787843704224
1683929113668481300,10.125481201171874,0.2682969570159912,0.18102264404296875,0.5404899716377258
1683929113678523100,10.135523193359376,0.3873758316040039,0.19907665252685547,0.5317933559417725
1683929113688565000,10.14556494140625,0.44725653529167175,0.11725425720214844,0.4588235914707184
1683929113698607000,10.155607177734375,0.4055599570274353,0.03619575500488281,0.2863432765007019
1683929113708649000,10.16564892578125,0.2244974970817566,0.06090736389160156,0.06050366163253784
1683929113718690800,10.17569091796875,-0.045316100120544434,0.07386302947998047,-0.14151853322982788
1683929113728732700,10.185732666015625,-0.323908269405365,0.10349369049072266,-0.29314547777175903
1683929113738774500,10.1957744140625,-0.5281059145927429,0.11612987518310547,-0.36979442834854126
1683929113748816600,10.205816650390625,-0.6476855874061584,0.10930252075195312,-0.4041505455970764
1683929113758858500,10.2158583984375,-0.6736148595809937,0.032874107360839844,-0.3765266537666321
1683929113768900400,10.225900390625,-0.6402651071548462,-0.007860183715820312,-0.22259175777435303
1683929113778942200,10.235942138671875,-0.5297161936759949,-0.027254104614257812,-0.02389371395111084
1683929113788984300,10.245984375,-0.41907334327697754,-0.018117904663085938,0.17830103635787964
1683929113799026200,10.256026123046874,-0.310711145401001,-0.016290664672851562,0.39288240671157837
1683929113809068000,10.266068115234376,-0.1808023452758789,-0.047931671142578125,0.6284315586090088
1683929113819110000,10.27610986328125,-0.10622847080230713,-0.012533187866210938,0.7954732179641724
1683929113829151700,10.28615185546875,-0.015890181064605713,-0.05346393585205078,0.917617917060852
1683929113839193900,10.29619384765625,0.005537509918212891,-0.07970333099365234,0.9637002944946289
1683929113849235700,10.306235595703125,-0.05182749032974243,-0.07691192626953125,0.9002370834350586
1683929113859277600,10.316277587890625,-0.12030202150344849,-0.0475616455078125,0.7965024709701538
1683929113869319400,10.3263193359375,-0.21490997076034546,-0.025254249572753906,0.5929573774337769
1683929113879361500,10.336361572265625,-0.30068439245224,-0.022060394287109375,0.3693923354148865
1683929113889403400,10.3464033203125,-0.31732460856437683,0.00499725341796875,0.1548391580581665
1683929113899445200,10.3564453125,-0.2863906919956207,0.0534820556640625,-0.03417330980300903
1683929113909487000,10.366487060546875,-0.20109304785728455,0.06601619720458984,-0.24280089139938354
1683929113919529200,10.376529296875,-0.10021966695785522,0.025954246520996094,-0.44193315505981445
1683929113929571000,10.386571044921874,0.020593196153640747,-0.006882667541503906,-0.5691056251525879
1683929113939613000,10.396613037109375,0.1345919668674469,-0.04687786102294922,-0.638224720954895
1683929113949654800,10.40665478515625,0.20807000994682312,-0.024765968322753906,-0.6730288863182068
1683929113959696600,10.416696533203124,0.29568764567375183,-0.012331008911132812,-0.6974602341651917
1683929113969738800,10.42673876953125,0.371054083108902,-0.019107818603515625,-0.7352724671363831
1683929113979780600,10.436780517578125,0.40794795751571655,-0.02835369110107422,-0.7241455912590027
1683929113989822500,10.446822509765624,0.45674389600753784,-0.018586158752441406,-0.6783553957939148
1683929113999864300,10.4568642578125,0.5075067281723022,0.022092819213867188,-0.652823805809021
1683929114009906200,10.46690625,0.5714576244354248,0.07454204559326172,-0.5854611396789551
1683929114019948300,10.4769482421875,0.5857532024383545,0.09816932678222656,-0.4883292317390442
1683929114029990100,10.486990234375,0.538062572479248,0.10741233825683594,-0.3545162081718445
1683929114040032000,10.497031982421875,0.424300879240036,0.07126617431640625,-0.12956887483596802
1683929114050073900,10.507073974609375,0.28138062357902527,0.06386280059814453,0.03545933961868286
1683929114060116000,10.517115966796876,0.13170167803764343,0.018263816833496094,0.1785060167312622
1683929114070157800,10.52715771484375,-0.0003400146961212158,-0.015254020690917969,0.32056689262390137
1683929114080199700,10.53719970703125,-0.10469493269920349,-0.03194999694824219,0.3874274492263794
1683929114090241500,10.547241455078124,-0.13604900240898132,-0.05260181427001953,0.40197789669036865
1683929114100283600,10.55728369140625,-0.12304490804672241,-0.049353599548339844,0.3495716452598572
1683929114110325500,10.567325439453125,-0.05513876676559448,-0.053185462951660156,0.22186166048049927
1683929114120367400,10.577367431640624,0.0005019605159759521,-0.03811454772949219,0.11947369575500488
1683929114130409200,10.5874091796875,0.07670325040817261,-0.013896942138671875,0.02591085433959961
1683929114140451000,10.597451171875,0.13258707523345947,0.005167961120605469,-0.03261399269104004
1683929114150493200,10.6074931640625,0.18921270966529846,-0.039717674255371094,-0.08908897638320923
1683929114160535000,10.61753515625,0.16407114267349243,-0.03688526153564453,-0.0960085391998291
1683929114170577000,10.627576904296875,0.10801485180854797,-0.038898468017578125,-0.0568467378616333
1683929114180618800,10.63761865234375,0.019248783588409424,-0.04329204559326172,-0.03397113084793091
1683929114190660900,10.647660888671876,-0.07737046480178833,-0.005306243896484375,0.0009491443634033203
1683929114200702700,10.65770263671875,-0.11464112997055054,0.020140647888183594,0.08556032180786133
1683929114210744600,10.66774462890625,-0.0719800591468811,0.040340423583984375,0.20221471786499023
1683929114220786400,10.677786376953126,-0.027167320251464844,-0.0033655166625976562,0.300253689289093
1683929114230828500,10.68782861328125,0.021360278129577637,-0.015664100646972656,0.3583241105079651
1683929114240870400,10.697870361328125,0.08303600549697876,-0.0041484832763671875,0.42419081926345825
1683929114250912300,10.707912353515624,0.11785134673118591,0.0048732757568359375,0.47429946064949036
1683929114260954000,10.7179541015625,0.14984482526779175,0.016180992126464844,0.5108928680419922
1683929114270996000,10.727995849609375,0.18820519745349884,-0.0031766891479492188,0.5362244248390198
1683929114281038000,10.7380380859375,0.20908769965171814,-0.04326438903808594,0.5127984881401062
1683929114291080000,10.748079833984375,0.19418896734714508,-0.0637502670288086,0.4793277382850647
1683929114301121800,10.758121826171875,0.1607678234577179,-0.048506736755371094,0.4196968078613281
1683929114311163600,10.76816357421875,0.16812317073345184,-0.06406974792480469,0.36749351024627686
1683929114321205800,10.778205810546876,0.17100869119167328,-0.053473472595214844,0.29005175828933716
1683929114331247600,10.78824755859375,0.1791994273662567,-0.03130817413330078,0.2209896445274353
1683929114341289500,10.79828955078125,0.21613721549510956,-0.016613006591796875,0.18147683143615723
1683929114351331300,10.808331298828126,0.26462221145629883,-0.004532814025878906,0.09089690446853638
1683929114361373400,10.81837353515625,0.32420018315315247,0.0049648284912109375,0.011469066143035889
1683929114371415300,10.828415283203125,0.37294116616249084,0.040203094482421875,-0.03352934122085571
1683929114381457200,10.83845703125,0.42492756247520447,0.07014751434326172,-0.06345975399017334
1683929114391499000,10.8484990234375,0.4660041332244873,0.05488777160644531,-0.13297295570373535
1683929114401540900,10.858540771484375,0.47748780250549316,0.07993221282958984,-0.16609328985214233
1683929114411583000,10.8685830078125,0.45244845747947693,0.06927108764648438,-0.21512478590011597
1683929114421624800,10.878624755859375,0.4171854853630066,0.042351722717285156,-0.23286795616149902
1683929114431666700,10.888666748046875,0.3250000476837158,0.04651069641113281,-0.269176185131073
1683929114441708500,10.89870849609375,0.2527845799922943,0.02940845489501953,-0.2765378952026367
1683929114451750700,10.908750732421876,0.15121924877166748,0.010210990905761719,-0.2976962924003601
1683929114461792500,10.91879248046875,0.138755202293396,0.0007295608520507812,-0.2642609477043152
1683929114471834400,10.92883447265625,0.06459510326385498,0.01485443115234375,-0.2849714159965515
1683929114481876200,10.938876220703126,0.04112929105758667,0.009799003601074219,-0.3000612258911133
1683929114491918300,10.94891845703125,0.06257794797420502,-0.007038116455078125,-0.24381768703460693
1683929114501960200,10.958960205078125,0.07106363773345947,-0.04014301300048828,-0.24938136339187622
1683929114512002000,10.969001953125,0.125228151679039,-0.039780616760253906,-0.20995205640792847
1683929114522044000,10.9790439453125,0.12989777326583862,-0.039452552795410156,-0.16877049207687378
1683929114532085800,10.989085693359375,0.15132111310958862,-0.02501964569091797,-0.13765770196914673
1683929114542127900,10.9991279296875,0.19491994380950928,-0.03199958801269531,-0.13758772611618042
1683929114552169700,11.009169677734375,0.1762697994709015,-0.005855560302734375,-0.11206090450286865
1683929114562211600,11.019211669921875,0.14422471821308136,-0.043753623962402344,-0.1101652979850769
1683929114572253400,11.02925341796875,0.09212210774421692,-0.0104522705078125,-0.13144540786743164
1683929114582295300,11.03929541015625,0.045956119894981384,-0.015359878540039062,-0.12201344966888428
1683929114592337400,11.04933740234375,0.007166340947151184,0.010495185852050781,-0.16755986213684082
1683929114602379300,11.059379150390624,-0.06950986385345459,-0.018189430236816406,-0.23135632276535034
1683929114612421000,11.069421142578125,-0.15032631158828735,-0.0934743881225586,-0.2822258472442627
1683929114622463200,11.079463134765625,-0.24848711490631104,-0.10868072509765625,-0.28254783153533936
1683929114632505000,11.089505126953124,-0.29891639947891235,-0.10022926330566406,-0.30314064025878906
1683929114642547000,11.099546875,-0.33420008420944214,-0.08034038543701172,-0.2540144920349121
1683929114652588800,11.1095888671875,-0.28805404901504517,-0.04924583435058594,-0.19275307655334473
1683929114662630700,11.119630615234374,-0.21125897765159607,-0.0377197265625,-0.06332731246948242
1683929114672672500,11.129672607421876,-0.10013788938522339,-0.026558876037597656,0.05268383026123047
1683929114682714600,11.139714599609375,0.036721378564834595,0.04787158966064453,0.14098703861236572
1683929114692756500,11.149756591796875,0.1460297405719757,0.05745697021484375,0.21825039386749268
1683929114702798300,11.15979833984375,0.23451071977615356,0.07631587982177734,0.24912279844284058
1683929114712840200,11.169840087890625,0.28070226311683655,0.08783435821533203,0.3074309825897217
1683929114722882300,11.17988232421875,0.2969244718551636,0.061534881591796875,0.322168231010437
1683929114732924200,11.189924072265624,0.29296961426734924,0.023975372314453125,0.39274412393569946
1683929114742966000,11.199966064453125,0.30667513608932495,0.03893470764160156,0.48511582612991333
1683929114753008000,11.210008056640625,0.27451014518737793,-0.03337383270263672,0.5048144459724426
1683929114763050000,11.220050048828124,0.2300841361284256,-0.059642791748046875,0.4788109064102173
1683929114773091800,11.230091796875,0.18736347556114197,-0.12291431427001953,0.37870192527770996
1683929114783133700,11.2401337890625,0.11999571323394775,-0.10480785369873047,0.2241992950439453
1683929114793175600,11.250175537109374,0.03825098276138306,-0.046799659729003906,0.08525919914245605
1683929114803217400,11.260217529296876,-0.051756978034973145,0.01031494140625,-0.05438709259033203
1683929114813259500,11.270259521484375,-0.08067488670349121,0.04996681213378906,-0.11881601810455322
1683929114823301400,11.28030126953125,-0.09366437792778015,0.0888376235961914,-0.18644630908966064
1683929114833343200,11.29034326171875,-0.08172529935836792,0.10807514190673828,-0.1792299747467041
1683929114843385300,11.30038525390625,-0.04331463575363159,0.10329723358154297,-0.12643802165985107
1683929114853427200,11.31042724609375,-0.003080904483795166,0.06077003479003906,-0.08025825023651123
1683929114863469000,11.320468994140626,0.01080465316772461,0.06836318969726562,0.05459672212600708
1683929114873511000,11.330510986328125,0.017938852310180664,0.07582378387451172,0.055018603801727295
1683929114883553000,11.340552978515625,0.05864804983139038,0.0572052001953125,0.034269094467163086
1683929114893595000,11.350594970703124,0.04991275072097778,0.06941604614257812,0.06591325998306274
1683929114903636700,11.36063671875,0.05843907594680786,-0.008074760437011719,0.0992400050163269
1683929114913678600,11.3706787109375,0.039347946643829346,0.00516510009765625,0.15039265155792236
1683929114923720400,11.380720458984374,0.018723130226135254,-0.05715656280517578,0.1531740427017212
1683929114933762600,11.390762451171875,-0.0013519525527954102,-0.06422615051269531,0.12196236848831177
1683929114943804400,11.400804443359375,-0.02804166078567505,-0.03578376770019531,0.03135120868682861
1683929114953846300,11.41084619140625,-0.04239314794540405,-0.04542350769042969,-0.07746076583862305
1683929114963888000,11.42088818359375,-0.05829817056655884,-0.052542686462402344,-0.15926873683929443
1683929114973930200,11.43093017578125,-0.018803179264068604,-0.07133769989013672,-0.2380657196044922
1683929114983972000,11.44097216796875,0.005146384239196777,-0.07342815399169922,-0.31849873065948486
1683929114994014000,11.451013916015626,0.0046607255935668945,-0.0661764144897461,-0.40531373023986816
1683929115004055800,11.461055908203125,-0.027042031288146973,-0.04503345489501953,-0.5313490629196167
1683929115014098000,11.471097900390625,-0.09942591190338135,-0.021964073181152344,-0.6936129331588745
1683929115024139800,11.481139892578126,-0.21463990211486816,0.019501686096191406,-0.8985263109207153
1683929115034181600,11.491181640625,-0.320246160030365,-0.015134811401367188,-1.0839178562164307
1683929115044223500,11.501223388671875,-0.3923323154449463,-0.047036170959472656,-1.1836389303207397
1683929115054265300,11.511265380859374,-0.43555545806884766,-0.06457996368408203,-1.2247133255004883
1683929115064307500,11.521307373046875,-0.4786750078201294,-0.10337066650390625,-1.2501782178878784
1683929115074349300,11.531349365234375,-0.5387349128723145,-0.11826801300048828,-1.2558073997497559
1683929115084391200,11.54139111328125,-0.5549036264419556,-0.15434932708740234,-1.284287929534912
1683929115094433000,11.55143310546875,-0.5942211151123047,-0.15239620208740234,-1.309093713760376
1683929115104475100,11.56147509765625,-0.6675107479095459,-0.17926502227783203,-1.2966667413711548
1683929115114517000,11.57151708984375,-0.7290492057800293,-0.18977928161621094,-1.2430490255355835
1683929115124558800,11.581558837890626,-0.7155983448028564,-0.19124126434326172,-1.2134087085723877
1683929115134600700,11.5916005859375,-0.6382730007171631,-0.22678756713867188,-1.1722254753112793
1683929115144642600,11.601642578125,-0.5038748979568481,-0.2080850601196289,-1.2151504755020142
1683929115154684700,11.6116845703125,-0.2982325553894043,-0.22376155853271484,-1.3056021928787231
1683929115164726500,11.6217265625,-0.11974775791168213,-0.24517440795898438,-1.462006688117981
1683929115174768400,11.631768310546875,-0.06193220615386963,-0.226959228515625,-1.662575125694275
1683929115184810200,11.641810302734376,-0.049414873123168945,-0.22162914276123047,-1.880847692489624
1683929115194852400,11.651852294921875,-0.062485694885253906,-0.16683101654052734,-2.0807230472564697
1683929115204894200,11.661894287109375,-0.04577958583831787,-0.1985912322998047,-2.3067336082458496
1683929115214936000,11.67193603515625,0.015259504318237305,-0.2591562271118164,-2.50020694732666
1683929115224978000,11.68197802734375,0.014112114906311035,-0.3029060363769531,-2.633950710296631
1683929115235020000,11.69202001953125,0.017281055450439453,-0.2868499755859375,-2.633240222930908
1683929115245062000,11.702061767578124,0.14658474922180176,-0.13716793060302734,-2.4618172645568848
1683929115255103700,11.712103759765625,0.33990478515625,0.06934738159179688,-2.143923282623291
1683929115265145600,11.7221455078125,0.5122804641723633,0.3730916976928711,-1.65012788772583
1683929115275187700,11.732187744140624,0.7140090465545654,0.5323724746704102,-1.0304728746414185
1683929115285229600,11.7422294921875,0.9187350273132324,0.616694450378418,-0.393058180809021
1683929115295271400,11.752271484375,1.086000680923462,0.6480007171630859,0.1526118516921997
1683929115305313300,11.762313232421874,1.0519976615905762,0.7654886245727539,0.7008891701698303
1683929115315355100,11.772355224609376,0.920475959777832,0.8978967666625977,1.1958158016204834
1683929115325397200,11.782397216796875,0.8804773092269897,0.9742860794067383,1.7151986360549927
1683929115335439000,11.792439208984375,0.9936560392379761,1.0216360092163086,2.1162405014038086
1683929115345481000,11.80248095703125,1.1438403129577637,0.9347305297851562,2.4336652755737305
1683929115355522800,11.812522705078125,1.1906108856201172,0.8090543746948242,2.600196123123169
1683929115365565000,11.82256494140625,1.1248170137405396,0.5965385437011719,2.663046360015869
1683929115375606800,11.832606689453126,1.0063954591751099,0.36649227142333984,2.648909091949463
1683929115385648600,11.842648681640625,0.7951167821884155,0.15013599395751953,2.516301155090332
1683929115395690500,11.8526904296875,0.5450055599212646,-0.02606964111328125,2.3158533573150635
1683929115405732400,11.862732421875,0.23292601108551025,-0.18584632873535156,1.972032070159912
1683929115415774500,11.8727744140625,-0.16048145294189453,-0.07387447357177734,1.3242413997650146
1683929115425816300,11.88281640625,-0.5232446193695068,0.11252975463867188,0.49485695362091064
1683929115435858200,11.892858154296874,-0.8473525047302246,0.2548103332519531,-0.3805578947067261
1683929115445900300,11.902900390625,-1.0612983703613281,0.3402719497680664,-0.9868805408477783
1683929115455942100,11.912942138671875,-1.0314159393310547,0.41927051544189453,-1.361329436302185
1683929115465984000,11.92298388671875,-0.857081413269043,0.4517030715942383,-1.5422451496124268
1683929115476025900,11.93302587890625,-0.680861234664917,0.4477729797363281,-1.629673719406128
1683929115486068000,11.94306787109375,-0.5181136131286621,0.3672513961791992,-1.5503060817718506
1683929115496109800,11.95310986328125,-0.37497973442077637,0.45937442779541016,-1.2615216970443726
1683929115506151700,11.963151611328126,-0.3690197467803955,0.418487548828125,-1.1191962957382202
1683929115516193500,11.973193603515625,-0.3612849712371826,0.33347320556640625,-0.9617166519165039
1683929115526235400,11.9832353515625,-0.3223072290420532,0.34062862396240234,-0.728268027305603
1683929115536277500,11.993277587890624,-0.24106991291046143,0.41087913513183594,-0.5318669080734253
1683929115546319400,12.0033193359375,-0.049170494079589844,0.4792909622192383,-0.35814404487609863
1683929115556361200,12.013361328125,0.133325457572937,0.5193023681640625,-0.15010082721710205
1683929115566403000,12.023403076171874,0.24658560752868652,0.5831670761108398,0.10390055179595947
1683929115576445200,12.033445068359375,0.17377221584320068,0.5436725616455078,0.21353280544281006
1683929115586487000,12.043487060546875,-0.17792046070098877,0.4315319061279297,0.34733641147613525
1683929115596529000,12.05352880859375,-0.43012821674346924,0.3543834686279297,0.8964956998825073
1683929115606570800,12.06357080078125,-0.5481277704238892,0.3985109329223633,1.2852433919906616
1683929115616612900,12.07361279296875,-0.5046225786209106,0.4710350036621094,1.5286325216293335
1683929115626654700,12.08365478515625,-0.3870202302932739,0.4486360549926758,1.7115448713302612
1683929115636696600,12.093696533203126,-0.3140678405761719,0.32294178009033203,1.8235012292861938
1683929115646738400,12.103738525390625,-0.30855679512023926,0.20204734802246094,1.8257818222045898
1683929115656780300,12.1137802734375,-0.4383317232131958,0.040146827697753906,1.7076056003570557
1683929115666822400,12.123822509765626,-0.6452245712280273,-0.1729288101196289,1.5966521501541138
1683929115676864300,12.1338642578125,-0.9734145402908325,-0.3708047866821289,1.557101845741272
1683929115686906000,12.143906005859375,-1.3530157804489136,-0.6399164199829102,1.5666825771331787
1683929115696948200,12.1539482421875,-1.689476728439331,-0.9899435043334961,1.5230528116226196
1683929115706990000,12.163989990234375,-1.8754291534423828,-1.3229694366455078,1.4063293933868408
1683929115717032000,12.174031982421875,-1.9524078369140625,-1.5554637908935547,1.2869369983673096
1683929115727073800,12.18407373046875,-1.9307268857955933,-1.5992975234985352,1.1440987586975098
1683929115737115600,12.19411572265625,-1.727225661277771,-1.3999204635620117,0.8940317034721375
1683929115747157800,12.20415771484375,-1.2979999780654907,-0.8789691925048828,0.4942782521247864
1683929115757199600,12.21419970703125,-0.7479888200759888,-0.2566804885864258,-0.02586185932159424
1683929115767241500,12.224241455078126,-0.31477034091949463,0.2137613296508789,-0.5711079835891724
1683929115777283300,12.234283447265625,-0.10610008239746094,0.48993587493896484,-1.0682514905929565
1683929115787325400,12.244325439453124,-0.08181500434875488,0.6584997177124023,-1.4964696168899536
1683929115797367300,12.2543671875,-0.1572340726852417,0.7677373886108398,-1.8107811212539673
1683929115807409200,12.2644091796875,-0.27607619762420654,0.7462120056152344,-1.9345591068267822
1683929115817451000,12.274450927734375,-0.508417010307312,0.6200885772705078,-1.886389970779419
1683929115827493000,12.2844931640625,-0.8561919927597046,0.3791952133178711,-1.6705279350280762
1683929115837535000,12.294534912109375,-1.1002213954925537,0.08275890350341797,-1.2715038061141968
1683929115847576800,12.304576904296875,-1.1811476945877075,-0.08794879913330078,-0.9181200265884399
1683929115857618700,12.31461865234375,-1.0767983198165894,-0.12358283996582031,-0.6042126417160034
1683929115867660500,12.32466064453125,-0.8640033006668091,-0.12441158294677734,-0.45615315437316895
1683929115877702700,12.33470263671875,-0.5348337888717651,-0.047074317932128906,-0.3178107738494873
1683929115887744500,12.34474462890625,-0.16656172275543213,-0.06575489044189453,-0.18641245365142822
1683929115897786400,12.354786376953125,0.07409608364105225,-0.2016620635986328,-0.2755163908004761
1683929115907828500,12.364828369140625,0.36254221200942993,-0.19182300567626953,-0.39891350269317627
1683929115917870300,12.374870361328124,0.6647672653198242,-0.017477035522460938,-0.5800219774246216
1683929115927912200,12.384912109375,0.9549517631530762,0.2206888198852539,-0.7259872555732727
1683929115937954000,12.3949541015625,1.1656185388565063,0.46536731719970703,-0.7012856006622314
1683929115947996000,12.404995849609374,1.2770742177963257,0.5712156295776367,-0.6184943914413452
1683929115958038000,12.4150380859375,1.2589935064315796,0.5699377059936523,-0.5028418898582458
1683929115968080000,12.425079833984375,1.1362314224243164,0.5190801620483398,-0.3982977867126465
1683929115978121700,12.435121826171875,1.0005707740783691,0.4016685485839844,-0.3216872215270996
1683929115988163600,12.44516357421875,0.9062553644180298,0.3822021484375,-0.16068172454833984
1683929115998205700,12.455205810546875,0.9216316342353821,0.3860197067260742,-0.08266723155975342
1683929116008247600,12.46524755859375,1.0200361013412476,0.4009075164794922,-0.01063835620880127
1683929116018289400,12.475289306640626,1.2989041805267334,0.38628101348876953,0.12014955282211304
1683929116028331300,12.485331298828125,1.5882925987243652,0.41654109954833984,0.2899574637413025
1683929116038373400,12.495373291015625,1.8672771453857422,0.41802024841308594,0.4716373085975647
1683929116048415200,12.505415283203124,2.095460891723633,0.37209033966064453,0.6317669153213501
