time,seconds_elapsed,z,y,x
1683928672369147100,0.033147216796875,0,0,0
1683928672379188500,0.0431884765625,0.22202396392822266,-0.07584309577941895,-0.03577566146850586
1683928672389229800,0.053229736328125,0.23251628875732422,0.07123494148254395,-0.21200799942016602
1683928672399271200,0.063271240234375,-0.2064666748046875,-0.08744239807128906,-0.48393678665161133
1683928672409312500,0.0733125,-0.8638758659362793,-0.4952991008758545,-1.0135550498962402
1683928672419353900,0.083353759765625,-1.2397222518920898,-0.6441166400909424,-1.347806453704834
1683928672429395200,0.093395263671875,-1.0777506828308105,-0.3629016876220703,-1.3523333072662354
1683928672439436800,0.103436767578125,-0.5125002861022949,-0.05460524559020996,-1.1659612655639648
1683928672449478100,0.11347802734375,-0.12368488311767578,-0.03150749206542969,-0.8903698921203613
1683928672459519500,0.12351953125,0.13924121856689453,-0.16417980194091797,-0.3253517150878906
1683928672469560800,0.133560791015625,0.34725475311279297,0.011142492294311523,-0.12063932418823242
1683928672479602200,0.143602294921875,0.44135475158691406,0.05238771438598633,0.037410736083984375
1683928672489643500,0.1536435546875,0.45962047576904297,-0.07775211334228516,0.06895732879638672
1683928672499684900,0.163684814453125,0.7129392623901367,-0.153792142868042,0.0848231315612793
1683928672509726200,0.173726318359375,1.0481510162353516,-0.5452277660369873,-0.021260738372802734
1683928672519767600,0.183767578125,1.0441484451293945,-0.5187332630157471,0.2586669921875
1683928672529809000,0.193808837890625,0.2355365753173828,-0.6569900512695312,-0.24500608444213867
1683928672539850200,0.203850341796875,-1.060546875,-1.0207467079162598,-0.4643259048461914
1683928672549891600,0.2138916015625,-1.5523200035095215,-0.9739151000976562,-0.8490972518920898
1683928672559933000,0.223932861328125,-1.4367189407348633,-0.7557666301727295,-0.9142589569091797
1683928672569974300,0.233974365234375,-0.7536206245422363,-0.758281946182251,-0.6298313140869141
1683928672580015600,0.244015625,0.14351940155029297,-0.526564359664917,-0.5922250747680664
1683928672590057200,0.25405712890625,0.8837404251098633,-0.6819474697113037,-1.0157175064086914
1683928672600098600,0.2640986328125,1.5698070526123047,-0.7688982486724854,-1.532623291015625
1683928672610140000,0.274139892578125,2.091121196746826,-0.8380599021911621,-2.2246997356414795
1683928672620181200,0.28418115234375,2.1331286430358887,-1.0533363819122314,-3.038443088531494
1683928672630222600,0.29422265625,2.270930767059326,-1.1121253967285156,-3.7797229290008545
1683928672640264000,0.304263916015625,2.186232566833496,0.9272071123123169,-5.157095432281494
1683928672650305300,0.31430517578125,1.3977088928222656,-1.358372688293457,-4.252694129943848
1683928672660346600,0.3243466796875,0.34891843795776367,-2.4703407287597656,-3.218766212463379
1683928672670388000,0.334387939453125,-0.4892311096191406,-2.1112005710601807,-2.700869560241699
1683928672680429300,0.34442919921875,-28.687904357910156,0.673059344291687,3.0514464378356934
1683928672690470700,0.354470703125,3.5589380264282227,3.8576083183288574,-1.8630599975585938
1683928672700512000,0.364511962890625,4.081672191619873,0.986312985420227,-1.4612441062927246
1683928672710553300,0.37455322265625,0.6339125633239746,-2.655351161956787,1.089329719543457
1683928672720594700,0.3845947265625,9.111227035522461,-0.036440134048461914,1.2480077743530273
1683928672730636300,0.39463623046875,8.883569717407227,2.413022041320801,1.2399625778198242
1683928672740677600,0.404677734375,6.74376916885376,2.8597497940063477,0.6160116195678711
1683928672750719000,0.414718994140625,4.166851997375488,1.1599782705307007,1.3081741333007812
1683928672760760300,0.42476025390625,2.030042886734009,-1.1955194473266602,1.3899173736572266
1683928672770801700,0.4348017578125,0.5168018341064453,-3.0013089179992676,0.9577264785766602
1683928672780843000,0.444843017578125,-2.084075450897217,-3.7351415157318115,0.5661087036132812
1683928672790884400,0.45488427734375,-4.104562759399414,-3.3461461067199707,0.027139663696289062
1683928672800925700,0.46492578125,-6.155580520629883,-1.7648015022277832,-1.5511984825134277
1683928672810967000,0.474967041015625,-8.28399658203125,-0.5246503353118896,-2.9632058143615723
1683928672821008400,0.48500830078125,-9.51845932006836,-0.07494544982910156,-3.818798065185547
1683928672831049700,0.4950498046875,-8.680678367614746,0.23395347595214844,-3.6543993949890137
1683928672841091300,0.50509130859375,-5.907048225402832,0.42807507514953613,-2.869056224822998
1683928672851132700,0.515132568359375,-3.5504581928253174,-0.02573871612548828,-2.1006522178649902
1683928672861174000,0.525174072265625,-1.1994032859802246,0.2845947742462158,-1.3811678886413574
1683928672871215400,0.53521533203125,0.5537457466125488,0.45430922508239746,-0.6263055801391602
1683928672881256700,0.545256591796875,2.3388681411743164,-0.12617039680480957,0.7066164016723633
1683928672891298000,0.555298095703125,3.905622720718384,-0.5070290565490723,1.4153947830200195
1683928672901339400,0.56533935546875,4.504499912261963,-0.8372602462768555,1.9367904663085938
1683928672911380700,0.575380615234375,4.508059024810791,-0.7777266502380371,1.7925233840942383
1683928672921422000,0.585422119140625,4.267238140106201,-1.0412895679473877,1.6273727416992188
1683928672931463400,0.59546337890625,3.7666404247283936,-1.703749656677246,0.23889446258544922
1683928672941504800,0.6055048828125,2.8158416748046875,-2.242983102798462,-0.9308128356933594
1683928672951546000,0.615546142578125,0.5238317847251892,-1.9194741249084473,-1.8894662857055664
1683928672961587500,0.62558740234375,-2.609574556350708,-1.0036075115203857,-2.3035507202148438
1683928672971628800,0.63562890625,-4.609436988830566,0.3243553638458252,-2.452935218811035
1683928672981670100,0.645670166015625,-4.175441741943359,1.6345490217208862,-2.5061187744140625
1683928672991711700,0.655711669921875,-2.8280532360076904,1.5126233100891113,-0.7003393173217773
1683928673001753000,0.665753173828125,-1.5337835550308228,-0.3542754650115967,2.4625558853149414
1683928673011794400,0.67579443359375,-0.050075262784957886,-1.9296514987945557,3.804117202758789
1683928673021835800,0.685835693359375,1.350334882736206,-2.607804775238037,2.7724428176879883
1683928673031877000,0.695877197265625,2.812603712081909,-3.548827648162842,0.6968927383422852
1683928673041918500,0.70591845703125,3.0335240364074707,-3.4424424171447754,-0.932586669921875
1683928673051959800,0.715959716796875,2.301875114440918,-1.8232226371765137,-2.467315196990967
1683928673062001200,0.726001220703125,0.8823419809341431,-1.1556811332702637,-1.8276433944702148
1683928673072042500,0.73604248046875,-1.058768630027771,-0.554262638092041,-1.8419466018676758
1683928673082083800,0.746083740234375,-3.0430195331573486,-0.12193012237548828,-1.6689090728759766
1683928673092125400,0.75612548828125,-4.162994384765625,0.3941826820373535,-0.9935617446899414
1683928673102166800,0.766166748046875,-3.267732858657837,0.7335724830627441,-0.27764463424682617
1683928673112208100,0.7762080078125,-2.0090768337249756,0.17991161346435547,0.45344066619873047
1683928673122249500,0.78624951171875,-0.8557925820350647,-0.33789730072021484,1.3516263961791992
1683928673132290800,0.796290771484375,0.8074235916137695,-0.26189756393432617,1.677915096282959
1683928673142332200,0.806332275390625,2.1813580989837646,-0.7508358955383301,2.420196533203125
1683928673152373500,0.81637353515625,2.8806161880493164,-0.8867945671081543,2.962069034576416
1683928673162414800,0.826414794921875,2.024885416030884,-0.6162796020507812,2.7428970336914062
1683928673172456200,0.836456298828125,0.7196688652038574,-2.3207507133483887,2.4474759101867676
1683928673182497500,0.84649755859375,-0.38573920726776123,-3.230457305908203,2.123931884765625
1683928673192539000,0.856538818359375,-2.8119237422943115,-4.0879807472229,4.235039710998535
1683928673202580200,0.866580322265625,-1.0699533224105835,1.5000176429748535,-1.6346015930175781
1683928673212621800,0.876621826171875,0.37138181924819946,0.6674838066101074,-0.9946351051330566
1683928673222663200,0.8866630859375,-0.08017721772193909,0.3219485282897949,0.05062055587768555
1683928673232704500,0.89670458984375,0.1396222710609436,-0.42380237579345703,0.6285066604614258
1683928673242745900,0.906745849609375,0.40728527307510376,-1.1361865997314453,0.3938274383544922
1683928673252787200,0.916787109375,0.4088691771030426,-1.0823698043823242,-0.8098039627075195
1683928673262828500,0.92682861328125,0.331163227558136,-1.0926728248596191,-0.46135473251342773
1683928673272870000,0.936869873046875,-0.20612263679504395,-1.0717120170593262,-0.12848567962646484
1683928673282911200,0.9469111328125,-0.7686921954154968,-0.9265780448913574,0.20478153228759766
1683928673292952600,0.95695263671875,-0.6875939965248108,-0.3569216728210449,0.6014194488525391
1683928673302994000,0.966993896484375,-0.5878555774688721,0.6091985702514648,0.9590306282043457
1683928673313035300,0.97703515625,-0.9958823919296265,1.0506587028503418,0.7855639457702637
1683928673323076600,0.98707666015625,-1.3652753829956055,0.5943241119384766,0.5904541015625
1683928673333118200,0.9971181640625,-1.437602162361145,-0.25987863540649414,0.7240920066833496
1683928673343159600,1.00715966796875,-1.1846404075622559,0.05746603012084961,0.20426559448242188
1683928673353201000,1.017200927734375,0.11475443840026855,2.1720805168151855,0.35462236404418945
1683928673363242200,1.0272421875,0.7139464616775513,0.2841925621032715,1.4711542129516602
1683928673373283600,1.03728369140625,1.316068172454834,-0.8404746055603027,0.9118423461914062
1683928673383325000,1.047324951171875,1.430692434310913,-0.8894543647766113,0.19395685195922852
1683928673393366300,1.0573662109375,0.1547725796699524,-0.4942483901977539,-0.05972480773925781
1683928673403407600,1.06740771484375,-0.3168058395385742,-0.6335434913635254,0.32007741928100586
1683928673413449000,1.077448974609375,-1.9197609424591064,-0.3523592948913574,-0.10033941268920898
1683928673423490300,1.087490234375,-1.472355842590332,-0.5701508522033691,0.09968423843383789
1683928673433532000,1.097531982421875,-0.6914288997650146,-0.38365983963012695,-0.6781682968139648
1683928673443573200,1.1075732421875,0.10170155763626099,0.3374514579772949,-2.109818458557129
1683928673453614600,1.117614501953125,0.48059260845184326,1.1627168655395508,-2.2650952339172363
1683928673463656000,1.127656005859375,0.7155003547668457,1.9685907363891602,-1.2683844566345215
1683928673473697300,1.137697265625,0.8018960356712341,2.3794479370117188,-0.1527853012084961
1683928673483738600,1.147738525390625,0.7933386564254761,1.8857665061950684,0.290529727935791
1683928673493780000,1.157780029296875,0.7933400869369507,1.0201382637023926,0.2632460594177246
1683928673503821300,1.1678212890625,0.7383469939231873,-0.08431625366210938,-0.06586456298828125
1683928673513862700,1.177862548828125,0.6754250526428223,-0.5869059562683105,-0.0763559341430664
1683928673523904000,1.187904052734375,0.6461109519004822,-0.5548133850097656,-0.17919111251831055
1683928673533945600,1.197945556640625,0.5335134863853455,-0.2955789566040039,-1.147170066833496
1683928673543987000,1.207987060546875,0.9057299494743347,0.8885064125061035,-1.492612361907959
1683928673554028300,1.2180283203125,0.9419431686401367,1.355720043182373,-1.876492977142334
1683928673564069600,1.228069580078125,-0.20696912705898285,1.6362037658691406,-2.6059675216674805
1683928673574111000,1.238111083984375,-2.0948712825775146,1.68638277053833,-3.3044815063476562
1683928673584152300,1.24815234375,-3.2221086025238037,1.5677461624145508,-3.019655227661133
1683928673594193700,1.258193603515625,-2.289937734603882,1.2481684684753418,-1.6376333236694336
1683928673604235000,1.268235107421875,-0.9245777130126953,0.23293828964233398,-0.41977596282958984
1683928673614276400,1.2782763671875,-0.4600551724433899,0.039545536041259766,0.842348575592041
1683928673624317700,1.288317626953125,-0.6163098812103271,-0.5289888381958008,0.8800978660583496
1683928673634359300,1.298359375,-0.22579863667488098,-0.8176836967468262,0.25312280654907227
1683928673644400600,1.308400634765625,0.4125477075576782,-0.04076814651489258,0.21263599395751953
1683928673654442000,1.31844189453125,0.6163414120674133,0.5634865760803223,0.8149757385253906
1683928673664483300,1.3284833984375,0.22357383370399475,0.7378606796264648,1.3621244430541992
1683928673674524700,1.338524658203125,-0.432942658662796,0.4507102966308594,1.1316637992858887
1683928673684566000,1.34856591796875,-0.7533681392669678,-0.10165643692016602,0.08064889907836914
1683928673694607400,1.358607421875,-0.7574090957641602,-0.4273996353149414,0.06787586212158203
1683928673704648700,1.368648681640625,-0.5538959503173828,-0.5079798698425293,0.4168882369995117
1683928673714690000,1.37868994140625,-0.1261214017868042,-0.969940185546875,0.37881994247436523
1683928673724731400,1.3887314453125,0.10197247564792633,-1.5896201133728027,0.47233009338378906
1683928673734773000,1.39877294921875,0.5531893968582153,-1.8890132904052734,0.949984073638916
1683928673744814300,1.408814453125,0.9673677086830139,-2.4702329635620117,1.5482573509216309
1683928673754855700,1.418855712890625,1.2399171590805054,-2.0446786880493164,1.6485919952392578
1683928673764897000,1.42889697265625,1.1162348985671997,-0.6962289810180664,0.8581585884094238
1683928673774938400,1.4389384765625,0.8328864574432373,-0.1756730079650879,0.8032841682434082
1683928673784979700,1.448979736328125,0.5276924967765808,-0.025269508361816406,0.5965242385864258
1683928673795021000,1.45902099609375,0.4098905324935913,-0.01393890380859375,0.6142168045043945
1683928673805062400,1.4690625,0.5277937650680542,0.6172018051147461,1.0247740745544434
1683928673815103700,1.479103759765625,0.3666872978210449,-0.1208038330078125,0.6547098159790039
1683928673825145300,1.489145263671875,0.35449880361557007,-1.4313201904296875,0.8817591667175293
1683928673835186700,1.499186767578125,0.16659480333328247,-1.4599509239196777,0.3020663261413574
1683928673845228000,1.50922802734375,0.006938084959983826,-0.9817376136779785,-0.48410606384277344
1683928673855269400,1.519269287109375,0.027450334280729294,-0.5580649375915527,-0.6302342414855957
1683928673865310700,1.529310791015625,0.17655986547470093,-0.24033260345458984,-0.19318199157714844
1683928673875352000,1.53935205078125,0.2954632639884949,-0.15564632415771484,0.5613384246826172
1683928673885393400,1.549393310546875,0.2984602749347687,0.10415792465209961,0.8743758201599121
1683928673895434800,1.559434814453125,0.4553993344306946,0.3010225296020508,1.0823988914489746
1683928673905476000,1.56947607421875,0.4232998192310333,-0.14238786697387695,0.8752231597900391
1683928673915517400,1.579517333984375,-0.11912411451339722,0.16244077682495117,-0.3086123466491699
1683928673925559000,1.58955908203125,-0.3997144103050232,1.3296594619750977,-0.6883563995361328
1683928673935600400,1.599600341796875,-0.9674464464187622,-0.3756895065307617,-0.5837383270263672
1683928673945641700,1.609641845703125,-0.696807324886322,-1.151543140411377,-0.2492203712463379
1683928673955683000,1.61968310546875,-0.8042744398117065,-0.7077322006225586,-0.4032611846923828
1683928673965724400,1.629724365234375,-0.7535637021064758,-0.21524429321289062,-0.5898923873901367
1683928673975765800,1.639765869140625,-0.18053296208381653,0.05149364471435547,-0.6836647987365723
1683928673985807000,1.64980712890625,0.12255845963954926,-0.029337406158447266,-0.9267158508300781
1683928673995848400,1.659848388671875,0.11564802378416061,-0.2551584243774414,-1.4428653717041016
1683928674005889800,1.669889892578125,0.2507871389389038,-0.5636014938354492,-1.8441801071166992
1683928674015931100,1.67993115234375,0.5121657848358154,-0.6455378532409668,-1.88106107711792
1683928674025972700,1.68997265625,0.1740826964378357,-0.03590059280395508,-2.1747634410858154
1683928674036014000,1.70001416015625,0.19018065929412842,0.09413290023803711,-1.439011573791504
1683928674046055400,1.710055419921875,-0.28357717394828796,-0.1476602554321289,-0.9543676376342773
1683928674056096800,1.7200966796875,-0.30344149470329285,-1.1423702239990234,-0.11227226257324219
1683928674066138000,1.73013818359375,0.15605950355529785,-0.5415544509887695,0.6237740516662598
1683928674076179500,1.740179443359375,0.4446909427642822,-0.41608333587646484,0.6515421867370605
1683928674086220800,1.750220703125,0.3910914659500122,-0.32723426818847656,0.6426296234130859
1683928674096262100,1.76026220703125,0.23344065248966217,-0.0827322006225586,0.7891416549682617
1683928674106303500,1.770303466796875,0.09674319624900818,0.11030387878417969,0.5390887260437012
1683928674116344800,1.7803447265625,0.08812806010246277,0.1372222900390625,0.16592121124267578
1683928674126386400,1.790386474609375,0.2551942467689514,0.18193864822387695,0.21243810653686523
1683928674136427800,1.800427734375,0.48491424322128296,0.207672119140625,0.310701847076416
1683928674146469000,1.81046923828125,0.5991142988204956,0.4931159019470215,0.7618751525878906
1683928674156510500,1.820510498046875,0.3706668019294739,0.6184902191162109,0.777155876159668
1683928674166551800,1.8305517578125,0.2075185477733612,0.8845233917236328,0.8671703338623047
1683928674176593200,1.84059326171875,0.08395686745643616,1.4169445037841797,1.1755013465881348
1683928674186634500,1.850634521484375,0.2882644236087799,1.704397201538086,1.34080171585083
1683928674196675800,1.86067578125,0.37317565083503723,1.4767918586730957,1.2446441650390625
1683928674206717400,1.870717529296875,0.5247467160224915,0.8544888496398926,1.0273933410644531
1683928674216758800,1.8807587890625,0.5340577960014343,0.44797849655151367,0.5982513427734375
1683928674226800000,1.890800048828125,0.6221103072166443,0.20219659805297852,0.6209402084350586
1683928674236841500,1.900841552734375,0.5429570078849792,0.6481733322143555,-0.12230730056762695
1683928674246882800,1.9108828125,0.41391482949256897,1.1764521598815918,-0.85565185546875
1683928674256924200,1.920924072265625,-0.050547778606414795,1.9991331100463867,-1.915156602859497
1683928674266965500,1.930965576171875,-0.5154798626899719,2.7874512672424316,-2.621656894683838
1683928674277006800,1.9410068359375,-0.7226686477661133,3.402791976928711,-3.0204696655273438
1683928674287048200,1.951048095703125,-0.4812101721763611,3.5655975341796875,-3.1457526683807373
1683928674297089800,1.96108984375,0.04646795988082886,3.0779953002929688,-2.9317409992218018
1683928674307131100,1.971131103515625,0.33513975143432617,1.4258413314819336,-2.009557008743286
1683928674317172500,1.98117236328125,0.44177424907684326,-0.8609685897827148,-0.35057735443115234
1683928674327213800,1.9912138671875,0.5514737367630005,-2.370136260986328,0.9493045806884766
1683928674337255200,2.001255126953125,0.7369916439056396,-2.922572135925293,1.7490267753601074
1683928674347296500,2.011296630859375,0.6922420859336853,-2.6028690338134766,2.183053493499756
1683928674357337900,2.021337890625,0.6214775443077087,-2.470086097717285,2.080139636993408
1683928674367379200,2.031379150390625,0.39418137073516846,-0.7083024978637695,2.0798821449279785
1683928674377420800,2.0414208984375,0.41148293018341064,-0.05279827117919922,2.2402167320251465
1683928674387462100,2.051462158203125,0.39518672227859497,0.940159797668457,2.11091947555542
1683928674397503500,2.06150341796875,0.7715389728546143,2.450261116027832,1.8935599327087402
1683928674407544800,2.071544921875,0.8766868114471436,1.8528289794921875,2.0761959552764893
1683928674417586200,2.081586181640625,1.0562987327575684,1.6069254875183105,1.488647222518921
1683928674427627500,2.09162744140625,1.3064968585968018,1.710646629333496,0.09105587005615234
1683928674437668900,2.1016689453125,1.1157805919647217,1.1251468658447266,-1.2964608669281006
1683928674447710200,2.111710205078125,0.5956125259399414,0.5763416290283203,-2.3178937435150146
1683928674457751600,2.12175146484375,0.34681135416030884,0.02959918975830078,-2.105686664581299
1683928674467793200,2.131793212890625,0.4369193911552429,-0.27412986755371094,-1.2472288608551025
1683928674477834500,2.14183447265625,0.548934817314148,-0.5150623321533203,-0.17078113555908203
1683928674487875800,2.151875732421875,0.687218189239502,-0.3075981140136719,0.9385712146759033
1683928674497917200,2.161917236328125,0.7897297739982605,0.09080886840820312,1.6657078266143799
1683928674507958500,2.17195849609375,0.7297560572624207,0.09003162384033203,2.0780069828033447
1683928674517999900,2.181999755859375,0.5975037813186646,0.03063678741455078,1.9921040534973145
1683928674528041200,2.192041259765625,0.3900310695171356,0.06408405303955078,1.456944227218628
1683928674538082600,2.20208251953125,0.04940766096115112,-0.25232982635498047,1.189399003982544
1683928674548124000,2.2121240234375,-0.14702832698822021,-0.33759498596191406,1.1857798099517822
1683928674558165500,2.22216552734375,-0.028685271739959717,-0.9417953491210938,1.6106922626495361
1683928674568206800,2.232206787109375,0.31137615442276,-1.6834869384765625,2.1447436809539795
1683928674578248200,2.242248291015625,0.6511586904525757,-1.9338836669921875,2.3408734798431396
1683928674588289500,2.25228955078125,1.017417550086975,-1.7585992813110352,2.219998598098755
1683928674598331000,2.262330810546875,1.166466474533081,-1.5522966384887695,1.8694010972976685
1683928674608372200,2.272372314453125,1.2513830661773682,-1.0290956497192383,1.4371321201324463
1683928674618413600,2.28241357421875,1.125340461730957,-0.5696268081665039,0.9511048793792725
1683928674628455200,2.292455078125,0.8457450866699219,-0.45212459564208984,0.4623178243637085
1683928674638496500,2.30249658203125,0.4150437116622925,-0.4374876022338867,-0.17926275730133057
1683928674648537900,2.312537841796875,-0.31622380018234253,-0.4979209899902344,-0.814617395401001
1683928674658579200,2.3225791015625,-1.138512372970581,-0.6329412460327148,-1.2092065811157227
1683928674668620500,2.33262060546875,-1.9045774936676025,-0.5732288360595703,-1.281982660293579
1683928674678662000,2.342661865234375,-2.3305177688598633,-0.565704345703125,-1.1607768535614014
1683928674688703200,2.352703125,-2.442201614379883,-0.6320953369140625,-0.8593276739120483
1683928674698744600,2.36274462890625,-2.3210246562957764,-0.7298650741577148,-0.4744889736175537
1683928674708786200,2.3727861328125,-2.206394910812378,-0.8074636459350586,-0.019094228744506836
1683928674718827500,2.38282763671875,-1.8379732370376587,-0.47104835510253906,0.7460427284240723
1683928674728868900,2.392868896484375,-1.348071575164795,-0.7739620208740234,1.1376417875289917
1683928674738910200,2.40291015625,-0.9655042886734009,-0.8918933868408203,1.2152338027954102
1683928674748951600,2.41295166015625,-0.9472465515136719,-1.0419244766235352,1.0302454233169556
1683928674758993000,2.422992919921875,-1.0326730012893677,-1.3480358123779297,0.7380579710006714
1683928674769034200,2.4330341796875,-0.9482253789901733,-1.5350799560546875,0.4321413040161133
1683928674779075600,2.44307568359375,-0.8634028434753418,-1.728891372680664,0.13484597206115723
1683928674789117000,2.453116943359375,-0.7196124792098999,-1.7712888717651367,0.17351508140563965
1683928674799158500,2.463158447265625,-0.5096697807312012,-1.524397850036621,0.42692995071411133
1683928674809199900,2.473199951171875,-0.28876566886901855,-0.9252538681030273,0.8433840274810791
1683928674819241200,2.4832412109375,-0.38975441455841064,-0.5861063003540039,0.784658670425415
1683928674829282600,2.493282470703125,-0.6359282732009888,-0.5157489776611328,0.47190070152282715
1683928674839324000,2.503323974609375,-0.9082143306732178,-0.35325050354003906,0.14041709899902344
1683928674849365200,2.513365234375,-0.9827258586883545,-0.23033523559570312,-0.0514073371887207
1683928674859406600,2.523406494140625,-0.7738418579101562,-0.14398956298828125,-0.20664024353027344
1683928674869448000,2.533447998046875,-0.3045191764831543,-0.000583648681640625,-0.25474047660827637
1683928674879489500,2.543489501953125,0.3113741874694824,0.09759712219238281,-0.27626609802246094
1683928674889531000,2.55353076171875,0.8526949882507324,0.0630655288696289,-0.420727014541626
1683928674899572200,2.563572265625,1.2891989946365356,-0.05997467041015625,-0.6129423379898071
1683928674909613600,2.573613525390625,1.5441184043884277,-0.08758926391601562,-0.9945665597915649
1683928674919655000,2.583655029296875,1.640195369720459,-0.0735321044921875,-1.298256516456604
1683928674929696300,2.5936962890625,1.665353536605835,0.16309547424316406,-1.2594377994537354
1683928674939737600,2.603737548828125,1.529421091079712,0.2549409866333008,-0.8992786407470703
1683928674949779000,2.613779052734375,1.4949049949645996,0.6995019912719727,-0.59334397315979
1683928674959820500,2.623820556640625,1.2914906740188599,1.0230369567871094,-0.8480700850486755
1683928674969862000,2.63386181640625,1.1795305013656616,1.3073177337646484,-1.0092730522155762
1683928674979903200,2.6439033203125,1.1753597259521484,1.4978876113891602,-0.8040212988853455
1683928674989944600,2.653944580078125,1.1793248653411865,1.484288215637207,-0.4739813804626465
1683928674999986000,2.66398583984375,1.1594619750976562,1.3351612091064453,0.019837498664855957
1683928675010027300,2.67402734375,1.01389479637146,1.118485450744629,0.549944281578064
1683928675020068600,2.684068603515625,0.7344719171524048,0.7798757553100586,0.6876881718635559
1683928675030110000,2.69410986328125,0.33324646949768066,0.3761014938354492,0.544069230556488
1683928675040151600,2.704151611328125,0.001988649368286133,0.1285400390625,0.08032917976379395
1683928675050193000,2.71419287109375,-0.14420342445373535,0.23592472076416016,-0.6343421339988708
1683928675060234200,2.724234130859375,-0.028711795806884766,0.29000282287597656,-1.1029679775238037
1683928675070275600,2.734275634765625,0.13312458992004395,0.21587467193603516,-1.1462186574935913
1683928675080317000,2.74431689453125,0.336301326751709,0.07204246520996094,-0.9262006282806396
1683928675090358300,2.754358154296875,0.4735872745513916,0.12408828735351562,-0.8444289565086365
1683928675100399900,2.76439990234375,0.4714486598968506,0.0951375961303711,-0.7883685827255249
1683928675110441200,2.774441162109375,0.37664103507995605,0.059683799743652344,-0.7371494770050049
1683928675120482600,2.784482666015625,0.19900107383728027,-0.03474998474121094,-0.7881707549095154
1683928675130524000,2.79452392578125,-0.08631324768066406,-0.23821163177490234,-0.8107452988624573
1683928675140565200,2.804565185546875,-0.3004434108734131,-0.33590030670166016,-0.7863678932189941
1683928675150606600,2.814606689453125,-0.4749147891998291,-0.3429384231567383,-0.79332435131073
1683928675160648000,2.82464794921875,-0.6191787719726562,-0.24352645874023438,-0.7550985217094421
1683928675170689300,2.834689208984375,-0.7581133842468262,-0.22029590606689453,-0.741705596446991
1683928675180730600,2.844730712890625,-0.8603229522705078,0.04448986053466797,-0.9067639112472534
1683928675190772200,2.854772216796875,-0.8297841548919678,0.02694988250732422,-0.8817847967147827
1683928675200813600,2.8648134765625,-0.7758655548095703,0.10735225677490234,-0.9268266558647156
1683928675210855000,2.87485498046875,-0.5667026042938232,0.23868370056152344,-1.026986837387085
1683928675220896300,2.884896240234375,-0.2786979675292969,0.2041606903076172,-0.9911474585533142
1683928675230937600,2.8949375,-0.05245542526245117,0.2838249206542969,-1.0425715446472168
1683928675240979000,2.90497900390625,0.17980647087097168,0.2966957092285156,-1.1013951301574707
1683928675251020300,2.915020263671875,0.45097148418426514,0.2936067581176758,-1.2214959859848022
1683928675261062000,2.925061767578125,0.5725369453430176,0.4037961959838867,-1.3778789043426514
1683928675271103200,2.935103271484375,0.6982612609863281,0.5361127853393555,-1.0726585388183594
1683928675281144600,2.94514453125,0.498268723487854,0.4254570007324219,-0.8770066499710083
1683928675291186000,2.95518603515625,0.38814401626586914,0.244842529296875,-1.1555261611938477
1683928675301227300,2.965227294921875,0.10737895965576172,0.1755542755126953,-1.3220783472061157
1683928675311268600,2.9752685546875,-0.15749168395996094,0.1549205780029297,-1.3923593759536743
1683928675321310000,2.98531005859375,-0.3332974910736084,0.2181262969970703,-1.3855257034301758
1683928675331351300,2.995351318359375,-0.35962605476379395,0.27663135528564453,-1.2433339357376099
1683928675341393000,3.005392822265625,-0.18632960319519043,0.47129154205322266,-1.1402027606964111
1683928675351434200,3.015434326171875,0.01292729377746582,0.6685991287231445,-1.068179965019226
1683928675361475600,3.0254755859375,0.10243892669677734,0.6994295120239258,-0.9256325960159302
1683928675371517000,3.035516845703125,0.08976459503173828,0.6452999114990234,-0.8376519680023193
1683928675381558300,3.045558349609375,0.040580034255981445,0.6350154876708984,-0.7496637105941772
1683928675391599600,3.055599609375,0.05485248565673828,0.692326545715332,-0.6189751625061035
1683928675401641000,3.065640869140625,0.08298635482788086,0.7838821411132812,-0.49892187118530273
1683928675411682600,3.0756826171875,0.17985892295837402,0.8646059036254883,-0.29987215995788574
1683928675421724000,3.085723876953125,0.18631672859191895,0.9203968048095703,-0.09931075572967529
1683928675431765200,3.09576513671875,0.16889047622680664,0.8630790710449219,0.009283185005187988
1683928675441806600,3.105806640625,0.05396103858947754,0.7239713668823242,0.007373809814453125
1683928675451848000,3.115847900390625,-0.19987225532531738,0.5412454605102539,-0.03737175464630127
1683928675461889300,3.12588916015625,-0.4850633144378662,0.31931114196777344,-0.1340576410293579
1683928675471930600,3.1359306640625,-0.7089400291442871,0.1772441864013672,-0.19116604328155518
1683928675481972000,3.145971923828125,-0.8433496952056885,0.16281986236572266,-0.3719843626022339
1683928675492013600,3.156013671875,-0.8355014324188232,-0.03483390808105469,-0.21348178386688232
1683928675502055000,3.166054931640625,-0.8555197715759277,0.20296192169189453,-0.24183416366577148
1683928675512096300,3.17609619140625,-0.7559621334075928,0.2519865036010742,0.003791332244873047
1683928675522137600,3.1861376953125,-0.7602193355560303,0.4375324249267578,0.18576693534851074
1683928675532179000,3.196178955078125,-0.8078757524490356,0.43999195098876953,0.3227149248123169
1683928675542220300,3.20622021484375,-0.8523123264312744,0.12656116485595703,0.4824807643890381
1683928675552261600,3.21626171875,-0.8603864908218384,-0.5043315887451172,0.7028659582138062
1683928675562303200,3.22630322265625,-0.9002164602279663,-1.282700538635254,0.7686307430267334
1683928675572344600,3.236344482421875,-1.014551043510437,-1.979440689086914,0.6049066781997681
1683928675582386000,3.246385986328125,-1.2803601026535034,-2.7172107696533203,0.5592458248138428
1683928675592427300,3.25642724609375,-1.6871658563613892,-3.4778289794921875,0.6373354196548462
1683928675602468600,3.266468505859375,-2.1421053409576416,-4.083588600158691,0.7565896511077881
1683928675612510000,3.276510009765625,-2.604349136352539,-4.355002403259277,0.6855577230453491
1683928675622551300,3.28655126953125,-3.1967949867248535,-4.480342864990234,0.5401281118392944
1683928675632593000,3.296593017578125,-3.428344488143921,-3.9207868576049805,0.5291590690612793
1683928675642634200,3.30663427734375,-2.130568027496338,-1.7138357162475586,0.32061100006103516
1683928675652675600,3.316675537109375,-0.17812561988830566,0.3971071243286133,-0.26517850160598755
1683928675662717000,3.326717041015625,1.4641507863998413,1.6098012924194336,-0.8213501572608948
1683928675672758300,3.33675830078125,2.3281846046447754,2.176722526550293,-1.1760895252227783
1683928675682799600,3.346799560546875,2.5634899139404297,2.6569299697875977,-1.2522331476211548
1683928675692841000,3.356841064453125,2.5940592288970947,3.0427603721618652,-0.9856629371643066
1683928675702882600,3.366882568359375,2.3730416297912598,3.17453670501709,-0.7346234321594238
1683928675712924000,3.376923828125,2.0798511505126953,2.852872848510742,-0.7025625705718994
1683928675722965200,3.38696533203125,1.7421705722808838,2.0937867164611816,-0.7739307284355164
1683928675733006600,3.397006591796875,1.5107955932617188,1.2065811157226562,-0.725747287273407
1683928675743048000,3.4070478515625,1.38338041305542,0.48754119873046875,-0.5684586763381958
1683928675753089300,3.41708935546875,1.235651969909668,-0.15467071533203125,-0.413236528635025
1683928675763130600,3.427130615234375,0.8983371257781982,-0.8160390853881836,-0.19115623831748962
1683928675773172000,3.437171875,0.3070306181907654,-1.4589662551879883,0.11318254470825195
1683928675783213600,3.447213623046875,-0.2608921527862549,-1.731276512145996,0.4778737425804138
1683928675793255000,3.4572548828125,-0.4925757646560669,-1.277054786682129,0.453363835811615
1683928675803296300,3.467296142578125,-0.29018884897232056,-0.5116539001464844,0.04409533739089966
1683928675813337600,3.477337646484375,0.13063669204711914,-0.11604499816894531,-0.20049765706062317
1683928675823379000,3.48737890625,0.6216117739677429,0.05216407775878906,-0.34403127431869507
1683928675833420300,3.497420166015625,1.1209566593170166,0.1877422332763672,-0.4601621627807617
1683928675843462000,3.5074619140625,1.5432651042938232,0.2987060546875,-0.5876523852348328
1683928675853503200,3.517503173828125,1.8247928619384766,0.34269237518310547,-0.6995049118995667
1683928675863544600,3.527544677734375,2.040698766708374,0.2747783660888672,-0.6993938088417053
1683928675873586000,3.5375859375,2.105536460876465,0.48700428009033203,-0.8012276887893677
1683928675883627300,3.547627197265625,2.1889288425445557,0.3100709915161133,-0.638150691986084
1683928675893668600,3.557668701171875,2.1916627883911133,0.26533031463623047,-0.6247081160545349
1683928675903710000,3.5677099609375,2.14200496673584,0.20914840698242188,-0.6826989650726318
1683928675913751300,3.577751220703125,2.044135570526123,0.1653451919555664,-0.6382392644882202
1683928675923793000,3.58779296875,1.8757436275482178,0.04775047302246094,-0.5115737915039062
1683928675933834200,3.597834228515625,1.6957846879959106,0.018796920776367188,-0.4698120951652527
1683928675943875600,3.60787548828125,1.519212007522583,-0.007712364196777344,-0.4662213623523712
1683928675953917000,3.6179169921875,1.3775098323822021,-0.0056610107421875,-0.40463894605636597
1683928675963958300,3.627958251953125,1.2040907144546509,0.09404277801513672,-0.4314718544483185
1683928675973999600,3.63799951171875,1.0192513465881348,0.07623767852783203,-0.5006500482559204
1683928675984041200,3.648041259765625,0.8335539102554321,0.17292213439941406,-0.636137843132019
1683928675994082600,3.65808251953125,0.6693350076675415,0.3025665283203125,-0.6953157186508179
1683928676004124000,3.6681240234375,0.5341626405715942,0.45074462890625,-0.7531646490097046
1683928676014165200,3.678165283203125,0.4377659559249878,0.5362758636474609,-0.8140612244606018
1683928676024206600,3.68820654296875,0.3676651418209076,0.6071453094482422,-0.8248435854911804
1683928676034248000,3.698248046875,0.330199658870697,0.4843568801879883,-0.7567713260650635
1683928676044289300,3.708289306640625,0.3389490842819214,0.42394447326660156,-0.6498066186904907
1683928676054331000,3.718330810546875,0.33571311831474304,0.35890674591064453,-0.5604404211044312
1683928676064372200,3.728372314453125,0.34150516986846924,0.20080852508544922,-0.33770817518234253
1683928676074413600,3.73841357421875,0.33221638202667236,0.05489540100097656,-0.17405419051647186
1683928676084455000,3.748454833984375,0.3224104046821594,-0.11710929870605469,0.011045783758163452
1683928676094496300,3.758496337890625,0.30734214186668396,-0.15040969848632812,0.1813017725944519
1683928676104537600,3.76853759765625,0.30164989829063416,-0.17191123962402344,0.26791906356811523
1683928676114579000,3.778578857421875,0.2653161883354187,-0.13385581970214844,0.34600695967674255
1683928676124620500,3.78862060546875,0.18675780296325684,-0.10085010528564453,0.4114181697368622
1683928676134662000,3.798661865234375,0.157047301530838,-0.10394001007080078,0.5990246534347534
1683928676144703200,3.808703125,0.0711025595664978,-0.07139778137207031,0.728785514831543
1683928676154744600,3.81874462890625,0.005219489336013794,0.02772998809814453,0.7771922945976257
1683928676164786000,3.828785888671875,-0.07659423351287842,0.10253620147705078,0.8020696640014648
1683928676174827300,3.8388271484375,-0.1427532434463501,0.12923717498779297,0.8719931840896606
1683928676184868600,3.84886865234375,-0.19229859113693237,0.17488670349121094,0.8665475249290466
1683928676194910200,3.85891015625,-0.2810289263725281,0.20852375030517578,0.8287293910980225
1683928676204951600,3.86895166015625,-0.3355865776538849,0.13481712341308594,0.7797075510025024
1683928676214993000,3.878992919921875,-0.3193994462490082,0.1786060333251953,0.618447482585907
1683928676225034200,3.8890341796875,-0.3258243203163147,0.1772451400756836,0.5808834433555603
1683928676235075600,3.89907568359375,-0.2431967556476593,0.1093435287475586,0.5379145741462708
1683928676245117000,3.909116943359375,-0.16584527492523193,0.051422119140625,0.42862245440483093
1683928676255158300,3.919158203125,-0.07806521654129028,0.01770305633544922,0.4544612765312195
1683928676265199900,3.929199951171875,0.016821622848510742,0.0366973876953125,0.47712016105651855
1683928676275241200,3.9392412109375,0.09931230545043945,0.007946968078613281,0.5341753363609314
1683928676285282600,3.949282470703125,0.1881275177001953,-0.025465965270996094,0.6294002532958984
1683928676295324000,3.959323974609375,0.2932816743850708,-0.1685638427734375,0.7183108925819397
1683928676305365200,3.969365234375,0.3888546824455261,-0.30451107025146484,0.7587920427322388
1683928676315406600,3.979406494140625,0.4611722230911255,-0.4310779571533203,0.8090009689331055
1683928676325448200,3.9894482421875,0.48031604290008545,-0.4777555465698242,0.9690981507301331
1683928676335489500,3.999489501953125,0.5080743432044983,-0.5070505142211914,1.2047909498214722
1683928676345531000,4.00953076171875,0.5201152563095093,-0.4910144805908203,1.351665735244751
1683928676355572200,4.019572265625,0.4943535327911377,-0.5481834411621094,1.416254997253418
1683928676365613600,4.029613525390625,0.5151112675666809,-0.7621850967407227,1.4955780506134033
1683928676375655000,4.039655029296875,0.5246648192405701,-1.0512666702270508,1.5594950914382935
1683928676385696300,4.0496962890625,0.529439389705658,-1.3900766372680664,1.612346887588501
1683928676395737900,4.05973779296875,0.5077342987060547,-1.7952089309692383,1.7847093343734741
1683928676405779200,4.069779296875,0.4195842742919922,-1.9225664138793945,1.8631128072738647
1683928676415820500,4.079820556640625,0.3262312412261963,-2.1166114807128906,2.0015013217926025
1683928676425862000,4.08986181640625,0.15800797939300537,-2.0021677017211914,1.890084147453308
1683928676435903200,4.0999033203125,0.019515812397003174,-1.888071060180664,1.827262043952942
1683928676445944600,4.109944580078125,-0.1779189109802246,-1.5785493850708008,1.505204439163208
1683928676455986200,4.119986083984375,-0.39623963832855225,-1.1076946258544922,1.193087100982666
1683928676466027500,4.130027587890625,-0.6245810389518738,-0.531214714050293,0.8880050182342529
1683928676476068900,4.14006884765625,-1.145789384841919,-0.00986480712890625,0.42665356397628784
1683928676486110200,4.150110107421875,-2.486083745956421,0.40383434295654297,0.028520941734313965
1683928676496151600,4.160151611328125,-3.4446568489074707,0.7779340744018555,0.010044276714324951
1683928676506193000,4.17019287109375,-3.751319169998169,0.9826803207397461,0.15160119533538818
1683928676516234200,4.180234130859375,-3.3312904834747314,1.1269245147705078,0.3268517255783081
1683928676526275800,4.19027587890625,-2.352560520172119,1.3084535598754883,0.30224013328552246
1683928676536317200,4.200317138671875,-1.126268744468689,1.537888526916504,-0.056307077407836914
1683928676546358500,4.210358642578125,-0.07587498426437378,1.7515687942504883,-0.6875060200691223
1683928676556399900,4.22039990234375,0.6247826218605042,1.9579997062683105,-1.364300012588501
1683928676566441200,4.230441162109375,0.9832850694656372,1.867959976196289,-1.630556583404541
1683928676576482600,4.240482666015625,1.0569895505905151,1.7020988464355469,-1.643235206604004
1683928676586524000,4.25052392578125,1.0439691543579102,1.525238037109375,-1.5553557872772217
1683928676596565500,4.2605654296875,0.9467368125915527,1.2753543853759766,-1.579622745513916
1683928676606606800,4.27060693359375,0.8736857771873474,0.9287586212158203,-1.5869686603546143
1683928676616648200,4.280648193359375,0.7956839799880981,0.44274330139160156,-1.594842553138733
1683928676626689500,4.290689453125,0.8621246814727783,-0.09874153137207031,-1.6683073043823242
1683928676636731000,4.30073095703125,0.9807078838348389,-0.6502208709716797,-1.7861015796661377
1683928676646772500,4.3107724609375,1.0863540172576904,-1.2020292282104492,-1.9202687740325928
1683928676656813800,4.320813720703125,1.124839186668396,-1.7321653366088867,-1.9257292747497559
1683928676666855200,4.330855224609375,1.0403759479522705,-2.069888114929199,-1.8005584478378296
1683928676676896500,4.340896484375,0.7938342094421387,-2.2062673568725586,-1.4916540384292603
1683928676686937900,4.350937744140625,0.42123544216156006,-2.1364784240722656,-1.2044588327407837
1683928676696979200,4.360979248046875,-0.016651034355163574,-1.8296384811401367,-1.0050992965698242
1683928676707020500,4.3710205078125,-0.32868826389312744,-0.6595087051391602,-1.192635416984558
1683928676717062100,4.381062255859375,-0.5465604066848755,0.6354589462280273,-2.042747974395752
1683928676727103500,4.391103515625,-0.4818774461746216,1.2706270217895508,-2.2616477012634277
1683928676737144800,4.401144775390625,-0.2409343719482422,1.4100580215454102,-1.7563209533691406
1683928676747186200,4.411186279296875,0.09816098213195801,1.4023990631103516,-1.3888189792633057
1683928676757227500,4.4212275390625,0.38926398754119873,1.4277849197387695,-1.3237358331680298
1683928676767268900,4.431268798828125,0.5743627548217773,1.4052000045776367,-1.4323136806488037
1683928676777310200,4.441310302734375,0.6695511341094971,1.3157167434692383,-1.5818209648132324
1683928676787351600,4.4513515625,0.5810831785202026,1.2002859115600586,-1.6528749465942383
1683928676797393200,4.46139306640625,0.3921542167663574,1.0330581665039062,-1.6830837726593018
1683928676807434500,4.4714345703125,0.18148291110992432,0.8813047409057617,-1.736324667930603
1683928676817475800,4.481475830078125,-0.07214665412902832,0.7737293243408203,-1.6846723556518555
1683928676827517200,4.49151708984375,-0.27496588230133057,0.8033370971679688,-1.6437281370162964
1683928676837558500,4.50155859375,-0.4553588628768921,0.7811470031738281,-1.4664335250854492
1683928676847600000,4.51160009765625,-0.6037285327911377,0.7574243545532227,-1.3277667760849
1683928676857641500,4.521641357421875,-0.7672357559204102,0.6792535781860352,-1.1730217933654785
1683928676867682800,4.531682861328125,-0.8164517879486084,0.6109161376953125,-0.9546282887458801
1683928676877724200,4.54172412109375,-0.7419173717498779,0.5665397644042969,-0.6833149194717407
1683928676887765500,4.551765625,-0.503610372543335,0.43151092529296875,-0.39039093255996704
1683928676897806800,4.561806884765625,-0.28108298778533936,0.32314586639404297,-0.18408358097076416
1683928676907848200,4.57184814453125,-0.12163901329040527,0.2890605926513672,-0.04505950212478638
1683928676917889800,4.581889892578125,-0.05593669414520264,0.3218841552734375,0.1459529995918274
1683928676927931100,4.59193115234375,-0.09484684467315674,0.3902425765991211,0.3171491324901581
1683928676937972500,4.601972412109375,-0.19119584560394287,0.3958101272583008,0.4927027225494385
1683928676948013800,4.612013916015625,-0.24854052066802979,0.34812450408935547,0.4841975271701813
1683928676958055200,4.62205517578125,-0.2907165288925171,0.306976318359375,0.41402772068977356
1683928676968096500,4.632096435546875,-0.3042980432510376,0.2844715118408203,0.37051379680633545
1683928676978137900,4.642137939453125,-0.27161991596221924,0.4432210922241211,0.11475908756256104
1683928676988179500,4.652179443359375,-0.19894468784332275,0.7041606903076172,-0.3633154034614563
1683928676998220800,4.662220703125,-0.15612554550170898,0.9571437835693359,-0.7333378791809082
1683928677008262100,4.67226220703125,-0.11165893077850342,1.0492830276489258,-0.8231899738311768
1683928677018303500,4.682303466796875,-0.04086172580718994,1.0549192428588867,-0.7250130772590637
1683928677028344800,4.6923447265625,0.0570216178894043,1.0648565292358398,-0.5968337655067444
1683928677038386400,4.702386474609375,0.22730040550231934,1.079050064086914,-0.4354414939880371
1683928677048427800,4.712427734375,0.4354734420776367,1.0523185729980469,-0.25558239221572876
1683928677058469000,4.72246923828125,0.6509400606155396,0.9613637924194336,-0.03022181987762451
1683928677068510500,4.732510498046875,0.7739859819412231,0.9094581604003906,0.14422550797462463
1683928677078551800,4.7425517578125,0.8654917478561401,0.9016199111938477,0.36522310972213745
1683928677088593200,4.75259326171875,0.9127715826034546,0.9307823181152344,0.4936131238937378
1683928677098634800,4.762634765625,0.9254249334335327,0.9132556915283203,0.548973560333252
1683928677108676000,4.772676025390625,0.9681706428527832,0.8013315200805664,0.5699144601821899
1683928677118717400,4.782717529296875,0.9171442985534668,0.5879974365234375,0.5751028060913086
1683928677128758800,4.7927587890625,0.7682873010635376,0.3044595718383789,0.4898272752761841
1683928677138800000,4.802800048828125,0.386699914932251,0.07007503509521484,0.3164517283439636
1683928677148841500,4.812841552734375,-0.18486106395721436,-0.2540597915649414,0.11373493075370789
1683928677158882800,4.8228828125,-0.8103879690170288,-0.47461605072021484,-0.13785874843597412
1683928677168924400,4.83292431640625,-1.208767056465149,-0.45131969451904297,-0.23640650510787964
1683928677178965800,4.8429658203125,-1.317704439163208,-0.16111469268798828,-0.30748021602630615
1683928677189007000,4.853007080078125,-1.2121691703796387,0.14219093322753906,-0.3884570002555847
1683928677199048400,4.86304833984375,-1.0290520191192627,0.2938117980957031,-0.5028311610221863
1683928677209089800,4.87308984375,-0.7721173763275146,0.40896129608154297,-0.5644786357879639
1683928677219131100,4.883131103515625,-0.5536642074584961,0.4809398651123047,-0.4610213041305542
1683928677229172700,4.8931728515625,-0.4692511558532715,0.6033620834350586,-0.15175116062164307
1683928677239214000,4.903214111328125,-0.5995794534683228,0.68804931640625,0.3199245035648346
1683928677249255400,4.91325537109375,-0.9441591501235962,0.6705007553100586,0.7486146092414856
1683928677259296800,4.923296875,-1.4734201431274414,0.5909500122070312,0.9632726311683655
1683928677269338000,4.933338134765625,-2.014899730682373,0.3842000961303711,0.9601150751113892
1683928677279379500,4.94337939453125,-2.2678396701812744,-0.021780014038085938,0.8277775645256042
1683928677289421000,4.953421142578125,-2.1685237884521484,-0.6721715927124023,0.4779602587223053
1683928677299462400,4.96346240234375,-1.8660236597061157,-1.4636726379394531,-0.03594022989273071
1683928677309503700,4.973503662109375,-1.5693145990371704,-2.0854568481445312,-0.5743885636329651
1683928677319545000,4.983545166015625,-1.3163304328918457,-2.480679512023926,-0.9347652196884155
1683928677329586400,4.99358642578125,-1.101511001586914,-2.77164363861084,-1.1672911643981934
1683928677339627800,5.003627685546875,-1.0810905694961548,-2.9225902557373047,-1.3260750770568848
1683928677349669000,5.013669189453125,-1.4065511226654053,-2.904913902282715,-1.5317432880401611
1683928677359710700,5.023710693359375,-1.923569917678833,-2.9523696899414062,-1.6011046171188354
1683928677369752000,5.033751953125,-2.366588592529297,-3.025125503540039,-1.3410855531692505
1683928677379793400,5.04379345703125,-1.772261619567871,-2.2978286743164062,-0.5204663276672363
1683928677389834800,5.053834716796875,-0.5608751773834229,-1.1565866470336914,0.48044919967651367
1683928677399876000,5.0638759765625,0.7375240325927734,-0.07558059692382812,1.274831771850586
1683928677409917400,5.07391748046875,1.7750126123428345,0.7488441467285156,1.3770949840545654
1683928677419959000,5.083958984375,2.3252947330474854,1.495589256286621,0.9285569190979004
1683928677430000400,5.09400048828125,2.4617972373962402,1.8582868576049805,0.3469257354736328
1683928677440041700,5.104041748046875,2.3623344898223877,2.0928759574890137,-0.13434183597564697
1683928677450083000,5.1140830078125,2.2427330017089844,2.314206123352051,-0.3789869546890259
1683928677460124400,5.12412451171875,2.1667957305908203,2.415231704711914,-0.415956974029541
1683928677470166000,5.134166015625,2.0420632362365723,2.4245972633361816,-0.545695424079895
1683928677480207400,5.144207275390625,1.9765421152114868,2.1973557472229004,-0.4594731330871582
1683928677490248700,5.154248779296875,1.9199578762054443,1.7879881858825684,-0.20556914806365967
1683928677500290000,5.1642900390625,1.9244556427001953,1.2648601531982422,-0.2165546417236328
1683928677510331400,5.174331298828125,1.8780531883239746,0.5932807922363281,-0.4942905902862549
1683928677520372700,5.184372802734375,1.7361942529678345,0.07473087310791016,-0.8325941562652588
1683928677530414300,5.194414306640625,1.6087327003479004,-0.18055057525634766,-1.348032832145691
1683928677540455700,5.20445556640625,1.4346879720687866,-0.423431396484375,-1.5795379877090454
1683928677550497000,5.2144970703125,1.2288732528686523,-0.5046987533569336,-1.5472500324249268
1683928677560538400,5.224538330078125,0.9701305031776428,-0.31117820739746094,-1.632415771484375
1683928677570579700,5.234579833984375,0.7867295145988464,-0.17596149444580078,-1.6540645360946655
1683928677580621000,5.24462109375,0.7304285168647766,0.020978927612304688,-1.5875163078308105
1683928677590662400,5.254662353515625,0.6835032105445862,0.19896697998046875,-1.4254482984542847
1683928677600704000,5.2647041015625,0.6941999793052673,0.4517030715942383,-1.4270857572555542
1683928677610745300,5.274745361328125,0.6545197367668152,0.6288480758666992,-1.5061651468276978
1683928677620786700,5.28478662109375,0.6252018213272095,0.6522092819213867,-1.634866714477539
1683928677630828000,5.294828125,0.6775988936424255,0.6421785354614258,-1.7411941289901733
1683928677640869400,5.304869384765625,0.6823216676712036,0.5829362869262695,-1.8191993236541748
1683928677650910700,5.31491064453125,0.6728377342224121,0.47542285919189453,-1.8563998937606812
1683928677660952300,5.324952392578125,0.5986648797988892,0.2153606414794922,-1.8808549642562866
1683928677670993700,5.33499365234375,0.5467054843902588,0.3482999801635742,-2.139707565307617
1683928677681035000,5.345034912109375,0.50429368019104,0.36550235748291016,-2.0108718872070312
1683928677691076400,5.355076416015625,0.48594793677330017,0.2630167007446289,-1.5909312963485718
1683928677701117700,5.36511767578125,0.4993724226951599,0.23501014709472656,-1.3170757293701172
1683928677711159300,5.3751591796875,0.5412189960479736,0.1927928924560547,-1.1447889804840088
1683928677721200600,5.38520068359375,0.5855302810668945,0.16475200653076172,-1.0648492574691772
1683928677731242000,5.395241943359375,0.6323406100273132,0.06716632843017578,-0.9474568367004395
1683928677741283300,5.405283447265625,0.6747047901153564,0.03395366668701172,-0.8333898782730103
1683928677751324700,5.41532470703125,0.6872035264968872,-0.021109580993652344,-0.7246510982513428
1683928677761366000,5.425365966796875,0.6883814930915833,-0.038349151611328125,-0.5802580118179321
1683928677771407400,5.435407470703125,0.6546074151992798,0.01549530029296875,-0.3975430727005005
1683928677781449000,5.445448974609375,0.6293293237686157,0.13308238983154297,-0.20292043685913086
1683928677791490300,5.455490234375,0.59903883934021,0.17334651947021484,-0.020233750343322754
1683928677801531600,5.46553173828125,0.6099880933761597,0.27260303497314453,0.191200852394104
1683928677811573000,5.475572998046875,0.6148934364318848,0.2779216766357422,0.3809056282043457
1683928677821614300,5.4856142578125,0.6525448560714722,0.3447895050048828,0.5058732032775879
1683928677831655700,5.49565576171875,0.6771271228790283,0.3943510055541992,0.6635646820068359
1683928677841697300,5.505697265625,0.699966549873352,0.37427520751953125,0.8003987073898315
1683928677851738600,5.515738525390625,0.7440555691719055,0.3541383743286133,0.894054651260376
1683928677861780000,5.525780029296875,0.7267200946807861,0.22418594360351562,0.9534448385238647
1683928677871821300,5.5358212890625,0.6991803646087646,0.051636695861816406,0.9803489446640015
1683928677881862700,5.545862548828125,0.626662015914917,-0.17522621154785156,1.0169460773468018
1683928677891904000,5.555904052734375,0.4986845552921295,-0.39890384674072266,1.0315775871276855
1683928677901945600,5.565945556640625,0.3440053164958954,-0.5166616439819336,1.026247262954712
1683928677911987000,5.575987060546875,0.1256641149520874,-0.5382566452026367,1.0007479190826416
1683928677922028300,5.5860283203125,-0.19140982627868652,-0.3968324661254883,0.808965802192688
1683928677932069600,5.596069580078125,-0.47364434599876404,-0.24046993255615234,0.5796481370925903
1683928677942111000,5.606111083984375,-0.6596081852912903,-0.12639713287353516,0.2564809322357178
1683928677952152600,5.616152587890625,-0.7349809408187866,-0.023590087890625,-0.041524648666381836
1683928677962194000,5.62619384765625,-0.6928355097770691,-0.04437828063964844,-0.29683995246887207
1683928677972235300,5.6362353515625,-0.547102689743042,0.04525566101074219,-0.529893159866333
1683928677982276600,5.646276611328125,-0.3767704665660858,0.10380077362060547,-0.6753625869750977
1683928677992318000,5.65631787109375,-0.18627575039863586,0.16457271575927734,-0.7570483684539795
1683928678002359300,5.666359375,-0.008436441421508789,0.21064376831054688,-0.7627753019332886
1683928678012401000,5.67640087890625,0.11235594749450684,0.2275714874267578,-0.6972278356552124
1683928678022442200,5.686442138671875,0.22050023078918457,0.27742767333984375,-0.6441081762313843
1683928678032483600,5.696483642578125,0.29358410835266113,0.34094905853271484,-0.5030016899108887
1683928678042525000,5.70652490234375,0.3410570025444031,0.42522621154785156,-0.39817261695861816
1683928678052566300,5.716566162109375,0.36802321672439575,0.4751853942871094,-0.29796409606933594
1683928678062607600,5.726607666015625,0.422458291053772,0.4742002487182617,-0.19043421745300293
1683928678072649200,5.736649169921875,0.4682852029800415,0.3914051055908203,-0.13326144218444824
1683928678082690600,5.746690673828125,0.5150414705276489,0.3391532897949219,-0.04235959053039551
1683928678092732000,5.75673193359375,0.5337746739387512,0.31009960174560547,0.05146026611328125
1683928678102773200,5.766773193359375,0.5172344446182251,0.23736095428466797,0.16217708587646484
1683928678112814600,5.776814697265625,0.5205684900283813,0.1568622589111328,0.24196290969848633
1683928678122856000,5.78685595703125,0.5076419115066528,0.0685720443725586,0.32198119163513184
1683928678132897500,5.7968974609375,0.5119930505752563,-0.051300048828125,0.38985276222229004
1683928678142939000,5.80693896484375,0.5146098136901855,-0.10939788818359375,0.49984121322631836
1683928678152980200,5.816980224609375,0.5032258033752441,-0.09391307830810547,0.6037911176681519
1683928678163021600,5.827021484375,0.4825347661972046,-0.10048675537109375,0.6989104747772217
1683928678173063000,5.83706298828125,0.4410884380340576,-0.13845252990722656,0.79176926612854
1683928678183104500,5.8471044921875,0.36047327518463135,-0.11933612823486328,0.8393751382827759
1683928678193145900,5.857145751953125,0.2609557509422302,-0.15064525604248047,0.8465104103088379
1683928678203187200,5.867187255859375,0.1580904722213745,-0.18420886993408203,0.8531107902526855
1683928678213228500,5.877228515625,0.11744731664657593,-0.22223663330078125,0.8230706453323364
1683928678223270000,5.887269775390625,0.07016116380691528,-0.20739173889160156,0.7853541374206543
1683928678233311200,5.897311279296875,0.042786240577697754,-0.18272781372070312,0.7900173664093018
1683928678243352800,5.907352783203125,0.025835931301116943,-0.21748733520507812,0.7652807235717773
1683928678253394200,5.917394287109375,0.016498208045959473,-0.17530345916748047,0.6918478012084961
1683928678263435500,5.927435546875,0.02648526430130005,-0.21354961395263672,0.6755421161651611
1683928678273476900,5.937476806640625,0.05495035648345947,-0.22015380859375,0.6466962099075317
1683928678283518200,5.947518310546875,0.0751640796661377,-0.2144460678100586,0.6617701053619385
1683928678293559600,5.9575595703125,0.07231169939041138,-0.23901844024658203,0.6633516550064087
1683928678303601200,5.96760107421875,0.10257905721664429,-0.2651395797729492,0.6751260757446289
1683928678313642500,5.977642578125,0.06627756357192993,-0.3611602783203125,0.6383965015411377
1683928678323683800,5.987683837890625,0.058849453926086426,-0.505131721496582,0.5931375026702881
1683928678333725200,5.99772509765625,0.056490182876586914,-0.5372467041015625,0.4326803684234619
1683928678343766500,6.0077666015625,0.07309001684188843,-0.685302734375,0.608170747756958
1683928678353808000,6.017807861328125,0.05454611778259277,-0.7389345169067383,0.7918796539306641
1683928678363849500,6.027849365234375,0.03242713212966919,-0.8766622543334961,1.0005948543548584
1683928678373890800,6.037890869140625,0.11184144020080566,-0.9381923675537109,1.140338659286499
1683928678383932200,6.04793212890625,0.17127317190170288,-0.8396644592285156,0.8936675786972046
1683928678393973500,6.057973388671875,0.15421223640441895,-0.8392763137817383,0.9093215465545654
1683928678404014800,6.068014892578125,0.11923468112945557,-0.9350671768188477,1.0454814434051514
1683928678414056200,6.07805615234375,0.10084325075149536,-1.032912254333496,1.175539255142212
1683928678424097800,6.088097900390625,0.09022367000579834,-1.134765625,1.1666629314422607
1683928678434139100,6.09813916015625,0.06839442253112793,-1.1019001007080078,1.0336699485778809
1683928678444180500,6.108180419921875,0.006375253200531006,-1.0286931991577148,0.8359133005142212
1683928678454221800,6.118221923828125,-0.11816215515136719,-0.7843208312988281,0.5539412498474121
1683928678464263200,6.12826318359375,-0.35545480251312256,-0.44022178649902344,0.18268156051635742
1683928678474304800,6.1383046875,-0.733187735080719,-0.07816505432128906,-0.19815969467163086
1683928678484346000,6.14834619140625,-1.1828802824020386,0.23583984375,-0.5971145629882812
1683928678494387500,6.158387451171875,-1.662271499633789,0.5173225402832031,-0.9245812892913818
1683928678504428800,6.1684287109375,-2.110349416732788,0.8396167755126953,-1.2282381057739258
1683928678514470100,6.17847021484375,-2.36751127243042,1.1000299453735352,-1.4361934661865234
1683928678524511700,6.18851171875,-2.3825249671936035,1.3485870361328125,-1.5514624118804932
1683928678534553000,6.198552978515625,-2.121509552001953,1.4674034118652344,-1.5900366306304932
1683928678544594400,6.208594482421875,-1.5467791557312012,1.4652814865112305,-1.2973573207855225
1683928678554635800,6.2186357421875,-0.8725277781486511,1.330002784729004,-0.6550660133361816
1683928678564677000,6.228677001953125,-0.23376643657684326,1.1791601181030273,-0.017373085021972656
1683928678574718500,6.238718505859375,0.3233165144920349,1.0993003845214844,0.4222445487976074
1683928678584760000,6.248760009765625,0.7625843286514282,0.9688777923583984,0.6703387498855591
1683928678594801400,6.258801513671875,1.071455717086792,0.8072605133056641,0.7232552766799927
1683928678604842800,6.2688427734375,1.1711997985839844,0.5786352157592773,0.630753755569458
1683928678614884000,6.278884033203125,1.2190351486206055,0.2699470520019531,0.6524355411529541
1683928678624925400,6.288925537109375,1.1816561222076416,0.17304229736328125,0.39804959297180176
1683928678634966800,6.298966796875,1.0862075090408325,0.05520820617675781,0.051984310150146484
1683928678645008400,6.30900830078125,0.9373485445976257,0.1477670669555664,-0.30524182319641113
1683928678655049700,6.3190498046875,0.6916301846504211,0.10029411315917969,-0.8192014694213867
1683928678665091000,6.329091064453125,0.38182756304740906,0.09036922454833984,-1.052276611328125
1683928678675132400,6.33913232421875,0.016564399003982544,0.10188102722167969,-1.4237549304962158
1683928678685173800,6.349173828125,-0.38362082839012146,0.047125816345214844,-1.781282663345337
1683928678695215000,6.359215087890625,-0.8193191289901733,-0.008511543273925781,-2.1834053993225098
1683928678705256700,6.369256591796875,-1.220874547958374,-0.300262451171875,-2.375673532485962
1683928678715298000,6.379298095703125,-1.5815349817276,-0.20486736297607422,-2.7300827503204346
1683928678725339400,6.38933935546875,-1.753359317779541,-0.09039592742919922,-3.0325045585632324
1683928678735380700,6.399380615234375,-1.809166669845581,0.05349540710449219,-3.0169715881347656
1683928678745422000,6.409422119140625,-1.7258844375610352,0.11853313446044922,-2.770115613937378
1683928678755463400,6.41946337890625,-1.4747713804244995,0.1906442642211914,-2.395110845565796
1683928678765505000,6.429505126953125,-1.0493881702423096,0.2624073028564453,-2.073498487472534
1683928678775546400,6.43954638671875,-0.4392678737640381,0.35764122009277344,-1.899327039718628
1683928678785587700,6.449587646484375,0.2457214593887329,0.38155364990234375,-1.6499478816986084
1683928678795629000,6.459629150390625,0.845090925693512,0.4005708694458008,-1.3878304958343506
1683928678805670700,6.469670654296875,1.1639106273651123,0.3876199722290039,-1.1900690793991089
1683928678815712000,6.4797119140625,1.1469347476959229,0.4266681671142578,-1.198367953300476
1683928678825753300,6.48975341796875,0.8449147343635559,0.4715566635131836,-1.1775480508804321
1683928678835794700,6.499794677734375,0.5630578994750977,0.4071063995361328,-1.1633615493774414
1683928678845836000,6.5098359375,0.33555805683135986,0.3100471496582031,-1.0896047353744507
1683928678855877400,6.51987744140625,0.16413617134094238,0.19989395141601562,-1.053104043006897
1683928678865919000,6.5299189453125,-0.023221850395202637,0.10762786865234375,-1.1938360929489136
1683928678875960300,6.539960205078125,-0.1806873083114624,0.08040714263916016,-1.4201918840408325
1683928678886001700,6.550001708984375,-0.29079127311706543,0.10564804077148438,-1.5864990949630737
1683928678896043000,6.56004296875,-0.33073413372039795,0.22115039825439453,-1.6089571714401245
1683928678906084400,6.57008447265625,-0.24224042892456055,0.3932180404663086,-1.6225252151489258
1683928678916125700,6.580125732421875,-0.1587378978729248,0.5835638046264648,-1.616314172744751
1683928678926167300,6.590167236328125,-0.015874624252319336,0.7777442932128906,-1.5825204849243164
1683928678936208600,6.600208740234375,0.15188074111938477,0.9256467819213867,-1.5655361413955688
1683928678946250000,6.61025,0.3480120897293091,1.0394964218139648,-1.4593262672424316
1683928678956291300,6.620291259765625,0.5308808088302612,1.0621585845947266,-1.4205427169799805
1683928678966332700,6.630332763671875,0.7068597078323364,1.1324682235717773,-1.373930811882019
1683928678976374300,6.640374267578125,0.7893034219741821,1.1288299560546875,-1.243760347366333
1683928678986415600,6.65041552734375,0.819164514541626,1.15655517578125,-1.135480523109436
1683928678996457000,6.66045703125,0.7143819332122803,1.0862979888916016,-0.955664873123169
1683928679006498300,6.670498291015625,0.5774838924407959,1.0515985488891602,-0.747193455696106
1683928679016539600,6.68053955078125,0.39075708389282227,0.9733457565307617,-0.4366424083709717
1683928679026581000,6.6905810546875,0.16765236854553223,0.908726692199707,-0.17763590812683105
1683928679036622600,6.70062255859375,-0.05447077751159668,0.8885564804077148,0.01937079429626465
1683928679046664000,6.710663818359375,-0.1441793441772461,0.9223146438598633,0.03696155548095703
1683928679056705300,6.720705322265625,-0.09356307983398438,0.9576616287231445,-0.09850537776947021
1683928679066746600,6.73074658203125,-0.059914350509643555,1.0809259414672852,-0.25516951084136963
1683928679076788000,6.7407880859375,-0.04462909698486328,1.196791648864746,-0.3237830400466919
1683928679086829300,6.750829345703125,-0.07410049438476562,1.3221416473388672,-0.36501801013946533
1683928679096871000,6.760870849609375,-0.1906747817993164,1.3160400390625,-0.2722201347351074
1683928679106912300,6.770912353515625,-0.3862326145172119,1.166947364807129,-0.06645083427429199
1683928679116953600,6.78095361328125,-0.6621627807617188,0.9470500946044922,0.1611872911453247
1683928679126995000,6.790994873046875,-0.8957297801971436,0.7020206451416016,0.39918529987335205
1683928679137036300,6.801036376953125,-1.0296220779418945,0.4031686782836914,0.4784424304962158
1683928679147078000,6.811077880859375,-0.9382486343383789,0.15073490142822266,0.4686735272407532
1683928679157119200,6.821119140625,-0.8332815170288086,-0.11287307739257812,0.44194644689559937
1683928679167160600,6.83116064453125,-0.858910322189331,-0.2897186279296875,0.5502590537071228
1683928679177202000,6.841201904296875,-1.0378351211547852,-0.4425687789916992,0.7782315611839294
1683928679187243300,6.8512431640625,-1.3579680919647217,-0.3548765182495117,1.203104019165039
1683928679197284900,6.861284912109375,-1.77614426612854,-0.33561038970947266,1.8392263650894165
1683928679207326200,6.871326171875,-2.1030402183532715,-0.3864583969116211,2.49301815032959
1683928679217367600,6.881367431640625,-2.226597785949707,-0.5492620468139648,3.0734524726867676
1683928679227409000,6.891408935546875,-1.9767355918884277,-0.6173076629638672,3.4941787719726562
1683928679237450200,6.9014501953125,-1.4322466850280762,-0.8407859802246094,3.9318814277648926
1683928679247491800,6.911491943359375,-0.5674409866333008,-1.0921802520751953,4.274613380432129
1683928679257533200,6.921533203125,0.9302620887756348,-1.0650138854980469,4.056774616241455
1683928679267574500,6.931574462890625,2.3071818351745605,-0.7816553115844727,3.0675389766693115
1683928679277615900,6.941615966796875,2.424518585205078,-0.23767566680908203,1.6516616344451904
1683928679287657200,6.9516572265625,1.8357795476913452,0.5180826187133789,0.39312875270843506
1683928679297698600,6.961698486328125,1.4559059143066406,1.3451433181762695,-0.615333080291748
1683928679307740200,6.971740234375,1.3306392431259155,1.8017005920410156,-1.2502952814102173
1683928679317781500,6.981781494140625,1.1543247699737549,1.8942956924438477,-1.6340584754943848
1683928679327822800,6.99182275390625,1.0287567377090454,2.0670394897460938,-1.6369097232818604
1683928679337864200,7.0018642578125,0.7906872034072876,2.3871846199035645,-1.1780861616134644
1683928679347905500,7.011905517578125,0.6318080425262451,2.4765896797180176,-0.619255781173706
1683928679357947000,7.02194677734375,0.6737608909606934,2.2403602600097656,-0.08511745929718018
1683928679367988500,7.031988525390625,0.878817081451416,1.711503028869629,0.15970087051391602
1683928679378029800,7.04202978515625,1.031276822090149,1.0502500534057617,0.13320255279541016
1683928679388071200,7.0520712890625,1.0965319871902466,0.40212535858154297,-0.0211179256439209
1683928679398112500,7.062112548828125,0.9600073099136353,-0.28908538818359375,-0.1519087553024292
1683928679408153900,7.07215380859375,0.5615297555923462,-0.7537908554077148,-0.23760771751403809
1683928679418195500,7.082195556640625,-0.016721725463867188,-1.0305280685424805,-0.18456852436065674
1683928679428236800,7.09223681640625,-0.46683216094970703,-0.9099063873291016,-0.1542215347290039
1683928679438278100,7.102278076171875,-0.5596020221710205,-0.5139617919921875,-0.14210796356201172
1683928679448319500,7.112319580078125,-0.40104150772094727,-0.20444679260253906,-0.22987306118011475
1683928679458360800,7.12236083984375,-0.08332180976867676,0.24077796936035156,-0.5070133209228516
1683928679468402200,7.132402099609375,0.33226442337036133,0.5730743408203125,-0.8731290102005005
1683928679478443800,7.14244384765625,0.7431071996688843,0.7532405853271484,-1.1474112272262573
1683928679488485000,7.152485107421875,1.106797695159912,0.9915170669555664,-1.2967575788497925
1683928679498526500,7.1625263671875,1.045729398727417,1.3256311416625977,-1.5345152616500854
1683928679508567800,7.17256787109375,0.32463228702545166,1.4341535568237305,-2.003112554550171
1683928679518609400,7.182609375,-1.7482584714889526,1.2276592254638672,-2.4765713214874268
1683928679528650800,7.192650634765625,-4.924799919128418,0.6354236602783203,-2.700472831726074
1683928679538692000,7.202692138671875,-7.150885581970215,-0.08529853820800781,-2.2787094116210938
1683928679548733400,7.2127333984375,-6.875447750091553,-0.4405393600463867,-1.4730368852615356
1683928679558774800,7.22277490234375,-5.020839691162109,-0.4680747985839844,-0.9246363639831543
1683928679568816400,7.23281640625,-2.915632963180542,-0.39610862731933594,-0.5557606220245361
1683928679578857700,7.242857666015625,-1.0102615356445312,-0.47139739990234375,-0.40681779384613037
1683928679588899000,7.252899169921875,0.2721107006072998,-0.7567110061645508,-0.31371891498565674
1683928679598940400,7.2629404296875,0.8310195803642273,-1.2105731964111328,-0.35660433769226074
1683928679608981800,7.272981689453125,0.8886915445327759,-1.837571144104004,-0.5010714530944824
1683928679619023000,7.283023193359375,0.6336165070533752,-2.496487617492676,-0.6253800392150879
1683928679629064700,7.293064697265625,0.20364993810653687,-2.826505661010742,-0.5855424404144287
1683928679639106000,7.30310595703125,-0.16382789611816406,-2.441830635070801,-0.37085628509521484
1683928679649147400,7.3131474609375,-0.27004432678222656,-1.4449806213378906,0.16026437282562256
1683928679659188700,7.323188720703125,-0.14298832416534424,-0.5226831436157227,0.7523030042648315
1683928679669230000,7.33322998046875,0.214835524559021,0.003421783447265625,1.2486510276794434
1683928679679271700,7.343271728515625,0.7368934750556946,0.45709896087646484,1.481844186782837
1683928679689313000,7.35331298828125,1.2448043823242188,0.7433052062988281,1.6992077827453613
1683928679699354400,7.363354248046875,1.748633623123169,1.1898698806762695,1.6655058860778809
1683928679709395700,7.373395751953125,2.1137218475341797,1.579268455505371,1.5899221897125244
1683928679719437000,7.38343701171875,2.2936480045318604,1.8929443359375,1.559810996055603
1683928679729478400,7.393478515625,2.355179786682129,1.9021539688110352,1.3254692554473877
1683928679739520000,7.40352001953125,2.3451905250549316,1.5383310317993164,0.8546308279037476
1683928679749561300,7.413561279296875,2.359308958053589,1.0171928405761719,0.261496901512146
1683928679759602700,7.423602783203125,2.2657952308654785,0.5277128219604492,-0.3428492546081543
1683928679769644000,7.43364404296875,2.011472463607788,0.11446189880371094,-0.8592789173126221
1683928679779685400,7.443685302734375,1.7706630229949951,0.05411529541015625,-1.6392853260040283
1683928679789727000,7.45372705078125,1.412819743156433,-0.09661483764648438,-1.9308764934539795
1683928679799768300,7.463768310546875,0.8597707152366638,-0.14879608154296875,-2.050877809524536
1683928679809809700,7.4738095703125,0.20228707790374756,-0.09540081024169922,-2.1965291500091553
1683928679819851000,7.48385107421875,-0.43514013290405273,0.028333663940429688,-2.30710506439209
1683928679829892400,7.493892333984375,-1.1013017892837524,0.1303539276123047,-2.545290231704712
1683928679839933700,7.50393359375,-1.7614150047302246,0.09047794342041016,-2.824260950088501
1683928679849975300,7.513975341796875,-2.1653144359588623,0.30788230895996094,-3.0597195625305176
1683928679860016600,7.5240166015625,-1.9373955726623535,0.6718912124633789,-3.3605456352233887
1683928679870058000,7.53405810546875,-1.1852465867996216,0.880126953125,-2.98574161529541
1683928679880099300,7.544099365234375,-0.3575865924358368,0.8289022445678711,-2.2231509685516357
1683928679890140700,7.554140625,0.38797634840011597,0.7391424179077148,-1.5705833435058594
1683928679900182300,7.564182373046875,0.897197961807251,0.6564054489135742,-0.8872020244598389
1683928679910223600,7.5742236328125,1.2465906143188477,0.5570926666259766,-0.27693915367126465
1683928679920265000,7.584264892578125,1.4943029880523682,0.4536266326904297,0.22758269309997559
1683928679930306300,7.594306396484375,1.6614900827407837,0.37960243225097656,0.5209723711013794
1683928679940347600,7.60434765625,1.818126916885376,0.2727975845336914,0.7091370820999146
1683928679950389200,7.61438916015625,1.8878846168518066,0.1784820556640625,0.867133617401123
1683928679960430600,7.6244306640625,1.8599905967712402,-0.0013093948364257812,0.9353102445602417
1683928679970472000,7.634471923828125,1.724700689315796,-0.17557907104492188,0.9421441555023193
1683928679980513300,7.64451318359375,1.4473512172698975,-0.25600528717041016,0.8923141956329346
1683928679990554600,7.6545546875,1.081541895866394,-0.18543148040771484,0.7734251022338867
1683928680000596200,7.66459619140625,0.6629667282104492,-0.02400684356689453,0.5214530229568481
1683928680010637600,7.674637451171875,0.3273138701915741,0.05360603332519531,0.23774337768554688
1683928680020679000,7.684678955078125,0.11996470391750336,0.045098304748535156,-0.028887033462524414
1683928680030720300,7.69472021484375,0.09815257787704468,-0.013563156127929688,-0.21579813957214355
1683928680040761600,7.70476171875,0.18095767498016357,-0.04817962646484375,-0.32335662841796875
1683928680050803200,7.71480322265625,0.2940610647201538,-0.051690101623535156,-0.3637056350708008
1683928680060844500,7.724844482421875,0.34041792154312134,-0.0719461441040039,-0.3825032711029053
1683928680070886000,7.734885986328125,0.3436661660671234,0.015370368957519531,-0.37307238578796387
1683928680080927200,7.74492724609375,0.2731311023235321,0.0905904769897461,-0.39280080795288086
1683928680090968600,7.754968505859375,0.16762158274650574,0.11313056945800781,-0.3984701633453369
1683928680101010200,7.76501025390625,0.025388628244400024,0.1427326202392578,-0.3943932056427002
1683928680111051500,7.775051513671875,-0.09331509470939636,0.15786457061767578,-0.41379499435424805
1683928680121092900,7.7850927734375,-0.20248618721961975,0.19906902313232422,-0.39879393577575684
1683928680131134200,7.79513427734375,-0.2178208827972412,0.1278533935546875,-0.35200071334838867
1683928680141175600,7.805175537109375,-0.18916329741477966,0.1354846954345703,-0.3208143711090088
1683928680151217200,7.815217041015625,-0.0783827006816864,0.1620626449584961,-0.2358858585357666
1683928680161258500,7.825258544921875,0.051361411809921265,0.15024948120117188,-0.17163825035095215
1683928680171299800,7.8352998046875,0.20117875933647156,0.12871837615966797,-0.13509035110473633
1683928680181341200,7.845341064453125,0.2982817590236664,0.17149066925048828,-0.06656289100646973
1683928680191382500,7.855382568359375,0.4019012451171875,0.13995742797851562,-0.04772758483886719
1683928680201424100,7.865424072265625,0.4518774747848511,0.12982654571533203,-0.030802249908447266
1683928680211465500,7.875465576171875,0.4933190941810608,0.06464195251464844,-0.03265547752380371
1683928680221506800,7.8855068359375,0.5165674090385437,0.07594871520996094,-0.0225069522857666
1683928680231548200,7.895548095703125,0.5262311697006226,0.1301593780517578,-0.03165102005004883
1683928680241589500,7.905589599609375,0.4963429570198059,0.11976814270019531,-0.022076845169067383
1683928680251630800,7.915630859375,0.4367128014564514,0.14050579071044922,0.013162851333618164
1683928680261672400,7.92567236328125,0.38345128297805786,0.11351871490478516,0.03330731391906738
1683928680271713800,7.9357138671875,0.31322479248046875,0.1607952117919922,0.02863907814025879
1683928680281755100,7.945755126953125,0.20811980962753296,0.10800838470458984,0.005860090255737305
1683928680291796500,7.95579638671875,0.16215449571609497,0.08682060241699219,-0.05414319038391113
1683928680301837800,7.965837890625,0.13514173030853271,0.11861419677734375,-0.1509866714477539
1683928680311879400,7.97587939453125,0.15845024585723877,0.095703125,-0.28407859802246094
1683928680321920800,7.985920654296875,0.22702044248580933,0.16612911224365234,-0.45982861518859863
1683928680331962000,7.995962158203125,0.2849764823913574,0.2315206527709961,-0.6033246517181396
1683928680342003500,8.00600341796875,0.33386677503585815,0.26546382904052734,-0.7261514663696289
1683928680352044800,8.016044921875,0.34717559814453125,0.29418468475341797,-0.7825040817260742
1683928680362086400,8.02608642578125,0.344230055809021,0.30566883087158203,-0.8031773567199707
1683928680372127700,8.036127685546875,0.34016358852386475,0.24499130249023438,-0.7639868259429932
1683928680382169000,8.046169189453124,0.3585945963859558,0.2143239974975586,-0.6532516479492188
1683928680392210400,8.05621044921875,0.4128131866455078,0.21906089782714844,-0.4411137104034424
1683928680402251800,8.066251708984375,0.4683723449707031,0.18572139739990234,-0.24764037132263184
1683928680412293400,8.07629345703125,0.48710137605667114,0.1314992904663086,-0.08241033554077148
1683928680422334700,8.086334716796875,0.450630784034729,0.0780038833618164,0.08764362335205078
1683928680432376000,8.0963759765625,0.4402892589569092,0.04889965057373047,0.25020384788513184
1683928680442417400,8.10641748046875,0.38758522272109985,0.039221763610839844,0.397771954536438
1683928680452458800,8.116458740234375,0.359475314617157,-0.03601646423339844,0.47147059440612793
1683928680462500000,8.1265,0.3253069519996643,-0.06256866455078125,0.5214321613311768
1683928680472541700,8.136541748046875,0.3297710418701172,-0.048201560974121094,0.5334455966949463
1683928680482583000,8.1465830078125,0.34848272800445557,-0.07368183135986328,0.43057072162628174
1683928680492624400,8.156624267578126,0.364662230014801,-0.055993080139160156,0.28079652786254883
1683928680502665700,8.166665771484375,0.3695757985115051,-0.021859169006347656,0.05023837089538574
1683928680512707000,8.17670703125,0.3247658610343933,0.09908199310302734,-0.18876028060913086
1683928680522748700,8.186748779296876,0.31690382957458496,0.17570114135742188,-0.3767220973968506
1683928680532790000,8.1967900390625,0.2951594591140747,0.1519460678100586,-0.4882943630218506
1683928680542831400,8.206831298828124,0.2096865177154541,0.1328573226928711,-0.6299557685852051
1683928680552872700,8.216872802734375,0.0903090238571167,0.12787437438964844,-0.6760246753692627
1683928680562914300,8.226914306640625,-0.0002783536911010742,0.17453479766845703,-0.655860424041748
1683928680572955600,8.23695556640625,-0.042750000953674316,0.20376968383789062,-0.5517721176147461
1683928680582997000,8.2469970703125,-0.01112586259841919,0.16170501708984375,-0.38910436630249023
1683928680593038300,8.257038330078124,0.03981143236160278,0.1178731918334961,-0.21910905838012695
1683928680603079700,8.26707958984375,0.0671846866607666,0.0631246566772461,-0.07823634147644043
1683928680613121300,8.277121337890625,0.07409834861755371,0.0400848388671875,0.02203655242919922
1683928680623162600,8.28716259765625,0.09635013341903687,0.031792640686035156,0.04926180839538574
1683928680633204000,8.297203857421875,0.10115134716033936,0.007358551025390625,0.06140279769897461
1683928680643245300,8.307245361328125,0.15508341789245605,-0.023568153381347656,0.028315305709838867
1683928680653286700,8.31728662109375,0.20107662677764893,-0.0019931793212890625,-0.009352922439575195
1683928680663328300,8.327328369140625,0.29272013902664185,0.04516029357910156,-0.06287527084350586
1683928680673369600,8.33736962890625,0.3504290282726288,0.07260513305664062,-0.07757806777954102
1683928680683411000,8.347410888671876,0.3971588909626007,0.08052539825439453,-0.12440061569213867
1683928680693452300,8.357452392578125,0.4295913279056549,0.13273239135742188,-0.10617494583129883
1683928680703493600,8.36749365234375,0.43543216586112976,0.1366596221923828,-0.07346224784851074
1683928680713535200,8.37753515625,0.3891173303127289,0.14488983154296875,-0.04526782035827637
1683928680723576600,8.38757666015625,0.33684518933296204,0.16912460327148438,-0.01196599006652832
1683928680733618000,8.397617919921874,0.2725845277309418,0.15729999542236328,0.028896331787109375
1683928680743659300,8.4076591796875,0.20485985279083252,0.11001205444335938,0.10566329956054688
1683928680753700600,8.41770068359375,0.1489182412624359,0.11027145385742188,0.19896936416625977
1683928680763742200,8.4277421875,0.13357815146446228,0.025592803955078125,0.31748151779174805
1683928680773783600,8.437783447265625,0.15336021780967712,-0.022543907165527344,0.41599154472351074
1683928680783825000,8.447824951171874,0.14611873030662537,-0.06291866302490234,0.5179955959320068
1683928680793866200,8.4578662109375,0.13103213906288147,-0.10031986236572266,0.6043531894683838
1683928680803907600,8.467907470703125,0.1696227788925171,-0.16766071319580078,0.6749658584594727
1683928680813949200,8.47794921875,0.1881372034549713,-0.1491107940673828,0.7325232028961182
1683928680823990500,8.487990478515625,0.19920514523983002,-0.26249122619628906,0.8000482320785522
1683928680834031900,8.498031982421875,0.26632440090179443,-0.2679281234741211,0.8094077110290527
1683928680844073200,8.5080732421875,0.3219875693321228,-0.27551841735839844,0.8580079078674316
1683928680854114600,8.518114501953125,0.37284737825393677,-0.23579978942871094,0.8910173177719116
1683928680864156200,8.52815625,0.4375377893447876,-0.17775917053222656,0.8872874975204468
1683928680874197500,8.538197509765626,0.471467524766922,-0.1605243682861328,0.8943954706192017
1683928680884238800,8.54823876953125,0.5453827977180481,-0.06583786010742188,0.8938047885894775
1683928680894280200,8.5582802734375,0.5990122556686401,0.06981754302978516,0.8451378345489502
1683928680904321500,8.568321533203125,0.651140034198761,0.06938648223876953,0.7272796630859375
1683928680914363100,8.578363037109375,0.6748354434967041,0.08579158782958984,0.6167919635772705
1683928680924404500,8.588404541015626,0.6669747829437256,0.1492767333984375,0.4173903465270996
1683928680934445800,8.59844580078125,0.6319918036460876,0.24720096588134766,0.23926186561584473
1683928680944487200,8.608487060546874,0.5475216507911682,0.3154134750366211,0.025663375854492188
1683928680954528500,8.618528564453126,0.42293912172317505,0.3543710708618164,-0.15437984466552734
1683928680964570000,8.628570068359375,0.31172484159469604,0.3574237823486328,-0.3482389450073242
1683928680974611500,8.638611572265624,0.22627468407154083,0.35100364685058594,-0.5413475036621094
1683928680984652800,8.64865283203125,0.1310553252696991,0.2858419418334961,-0.6937663555145264
1683928680994694100,8.658694091796875,0.05944805592298508,0.22882652282714844,-0.8250155448913574
1683928681004735500,8.668735595703126,-0.01952458918094635,0.2128753662109375,-0.9617424011230469
1683928681014777000,8.678777099609375,-0.10803204774856567,0.21142959594726562,-1.056879997253418
1683928681024818400,8.688818359375,-0.17768508195877075,0.2855691909790039,-1.1139187812805176
1683928681034859800,8.69885986328125,-0.236424058675766,0.344757080078125,-1.1761400699615479
1683928681044901000,8.708901123046875,-0.2740785479545593,0.3705301284790039,-1.1819798946380615
1683928681054942500,8.7189423828125,-0.2752828598022461,0.29822444915771484,-1.1021084785461426
1683928681064984000,8.728984130859375,-0.2343924343585968,0.23295974731445312,-1.0412981510162354
1683928681075025400,8.739025390625,-0.17958620190620422,0.1600971221923828,-0.9891078472137451
1683928681085066800,8.749066650390626,-0.08719077706336975,0.11772632598876953,-0.9212961196899414
1683928681095108000,8.759108154296875,0.0011163949966430664,0.0746307373046875,-0.859105110168457
1683928681105149400,8.7691494140625,0.10313087701797485,0.05011558532714844,-0.8079495429992676
1683928681115191000,8.77919091796875,0.17204037308692932,0.1114044189453125,-0.8359572887420654
1683928681125232400,8.789232421875,0.19511818885803223,0.14876174926757812,-0.8627986907958984
1683928681135273700,8.799273681640624,0.1147071123123169,0.18636035919189453,-1.022918701171875
1683928681145315000,8.809315185546875,-0.044937074184417725,0.26239585876464844,-1.268165111541748
1683928681155356400,8.8193564453125,-0.27111589908599854,0.16463470458984375,-1.3969714641571045
1683928681165398000,8.82939794921875,-0.56328946352005,0.12516021728515625,-1.6605241298675537
1683928681175439400,8.839439453125,-0.980679988861084,0.0596923828125,-1.8966212272644043
1683928681185480700,8.849480712890625,-1.3784750699996948,-0.058609962463378906,-2.1106295585632324
1683928681195522000,8.85952197265625,-1.6811120510101318,-0.18737125396728516,-2.209807872772217
1683928681205563400,8.8695634765625,-1.7494838237762451,-0.30068016052246094,-2.143427848815918
1683928681215605000,8.87960498046875,-1.6750811338424683,-0.37712669372558594,-1.9740707874298096
1683928681225646300,8.889646240234375,-1.5261300802230835,-0.40004444122314453,-1.7640933990478516
1683928681235687700,8.899687744140625,-1.3264002799987793,-0.328765869140625,-1.5733003616333008
1683928681245729000,8.90972900390625,-1.1065720319747925,-0.2778139114379883,-1.3518831729888916
1683928681255770400,8.919770263671875,-0.9321563243865967,-0.3326845169067383,-1.1868743896484375
1683928681265812000,8.92981201171875,-0.7769836187362671,-0.33539772033691406,-1.0639047622680664
1683928681275853300,8.939853271484376,-0.7126690149307251,-0.29567623138427734,-0.9801747798919678
1683928681285894700,8.949894775390625,-0.7500107288360596,-0.20195960998535156,-0.887253999710083
1683928681295936000,8.95993603515625,-0.8011683225631714,-0.018861770629882812,-0.7301220893859863
1683928681305977300,8.969977294921875,-0.8340264558792114,0.16715431213378906,-0.5302143096923828
1683928681316019000,8.98001904296875,-0.7723881006240845,0.34664440155029297,-0.3454298973083496
1683928681326060300,8.990060302734374,-0.7422051429748535,0.38623714447021484,-0.1736593246459961
1683928681336101600,9.0001015625,-0.7095587253570557,0.4393911361694336,0.014194011688232422
1683928681346143000,9.01014306640625,-0.5777513980865479,0.48478126525878906,0.1682109832763672
1683928681356184300,9.020184326171876,-0.5877838134765625,0.4269533157348633,0.29051756858825684
1683928681366226000,9.030225830078125,-0.7407588958740234,0.2802600860595703,0.4584357738494873
1683928681376267300,9.040267333984374,-0.8528556823730469,0.1065835952758789,0.5839850902557373
1683928681386308600,9.05030859375,-0.8089792728424072,-0.0700998306274414,0.7099506855010986
1683928681396350000,9.060349853515625,-0.6615710258483887,-0.10362434387207031,0.7765665054321289
1683928681406391300,9.070391357421874,-0.4725375175476074,-0.13716983795166016,0.7022979259490967
1683928681416433000,9.080432861328125,-0.28469371795654297,-0.043412208557128906,0.6818749904632568
1683928681426474200,9.09047412109375,-0.17252802848815918,0.10175132751464844,0.5641043186187744
1683928681436515600,9.100515625,-0.0945899486541748,0.1771078109741211,0.5659348964691162
1683928681446557000,9.110556884765625,0.026164531707763672,0.22412586212158203,0.6346144676208496
1683928681456598500,9.1205986328125,0.17277026176452637,0.3888816833496094,0.8675953149795532
1683928681466640000,9.130639892578126,0.285616397857666,0.506495475769043,1.1830198764801025
1683928681476681200,9.14068115234375,0.38049793243408203,0.5764074325561523,1.5580718517303467
1683928681486722600,9.15072265625,0.4836881160736084,0.5785293579101562,2.0109000205993652
1683928681496764000,9.160763916015625,0.5806782245635986,0.5647497177124023,2.365211009979248
1683928681506805500,9.170805419921875,0.7176878452301025,0.42250823974609375,2.5739285945892334
1683928681516846800,9.180846923828126,0.945236325263977,0.2503833770751953,2.550020456314087
1683928681526888200,9.19088818359375,1.0528677701950073,0.051224708557128906,2.4483561515808105
1683928681536929500,9.200929443359374,0.9795515537261963,-0.08887481689453125,2.2994894981384277
1683928681546971000,9.210970947265626,0.8045089244842529,-0.1226491928100586,2.159747362136841
1683928681557012500,9.221012451171875,0.5221519470214844,-0.06722068786621094,2.0949642658233643
1683928681567053800,9.2310537109375,0.36673617362976074,0.07671546936035156,1.838852047920227
1683928681577095200,9.24109521484375,0.2761266231536865,0.3583049774169922,1.4155205488204956
1683928681587136500,9.251136474609375,0.24036359786987305,0.7000646591186523,0.9425175189971924
1683928681597177900,9.261177734375,0.18143606185913086,0.9701099395751953,0.3724665641784668
1683928681607219500,9.271219482421875,0.15413665771484375,1.1257076263427734,-0.1679849624633789
1683928681617260800,9.2812607421875,0.05172276496887207,1.1631593704223633,-0.6466982364654541
1683928681627302100,9.29130224609375,-0.06821513175964355,1.1245417594909668,-1.0274364948272705
1683928681637343500,9.301343505859375,-0.17654895782470703,1.0488910675048828,-1.286937952041626
1683928681647384800,9.311384765625,-0.30902886390686035,0.9146585464477539,-1.511322021484375
1683928681657426400,9.321426513671875,-0.47275471687316895,0.738011360168457,-1.6530745029449463
1683928681667467800,9.3314677734375,-0.6070461273193359,0.6378049850463867,-1.7300431728363037
1683928681677509000,9.341509033203126,-0.7019996643066406,0.5992279052734375,-1.5718674659729004
1683928681687550500,9.351550537109375,-0.742067813873291,0.6032142639160156,-1.2641968727111816
1683928681697592000,9.361592041015625,-0.8181140422821045,0.5831670761108398,-0.9921772480010986
1683928681707633400,9.37163330078125,-0.7954952716827393,0.5132064819335938,-0.8053860664367676
1683928681717674800,9.3816748046875,-0.7837741374969482,0.4150848388671875,-0.6928799152374268
1683928681727716000,9.391716064453124,-0.6860017776489258,0.3629312515258789,-0.6417868137359619
1683928681737757400,9.40175732421875,-0.6020922660827637,0.30863380432128906,-0.6636314392089844
1683928681747799000,9.411799072265625,-0.537539005279541,0.3306245803833008,-0.760688066482544
1683928681757840400,9.42184033203125,-0.4153869152069092,0.37128734588623047,-0.7751233577728271
1683928681767881700,9.4318818359375,-0.2514824867248535,0.41866207122802734,-0.8040928840637207
1683928681777923000,9.441923095703125,-0.2271561622619629,0.4632148742675781,-0.8342115879058838
1683928681787964400,9.45196435546875,-0.26482081413269043,0.4929981231689453,-0.8715531826019287
1683928681798006000,9.462006103515625,-0.2218799591064453,0.5272684097290039,-0.9159221649169922
1683928681808047400,9.47204736328125,-0.13955330848693848,0.47775936126708984,-0.9531025886535645
1683928681818088700,9.482088623046875,-0.15087127685546875,0.32782936096191406,-0.9260931015014648
1683928681828130000,9.492130126953125,-0.24670052528381348,0.17045879364013672,-0.8184607028961182
1683928681838171400,9.50217138671875,-0.2774214744567871,0.09117603302001953,-0.6396417617797852
1683928681848213000,9.512212890625,-0.20719099044799805,0.010952949523925781,-0.3899095058441162
1683928681858254300,9.52225439453125,-0.07301568984985352,-0.048209190368652344,-0.02727365493774414
1683928681868295700,9.532295654296876,0.05427432060241699,-0.10036182403564453,0.28074002265930176
1683928681878337000,9.5423369140625,0.10249626636505127,-0.09273242950439453,0.5004260540008545
1683928681888378600,9.552378662109374,0.021408438682556152,-0.04913902282714844,0.7485616207122803
1683928681898420000,9.562419921875,-0.061836957931518555,0.06393051147460938,0.9098105430603027
1683928681908461300,9.57246142578125,-0.17476511001586914,0.07210254669189453,0.9595463275909424
1683928681918502700,9.582502685546874,-0.2729707956314087,0.0015840530395507812,0.9077193737030029
1683928681928544000,9.5925439453125,-0.3343111276626587,-0.05933570861816406,0.874347448348999
1683928681938585600,9.602585693359375,-0.37556397914886475,-0.15357112884521484,0.8329079151153564
1683928681948627000,9.612626953125,-0.4372866153717041,-0.1996774673461914,0.7782645225524902
1683928681958668300,9.622668212890625,-0.4936850070953369,-0.21485424041748047,0.6877119541168213
1683928681968709600,9.632709716796874,-0.47136497497558594,-0.21564865112304688,0.6900126934051514
1683928681978751000,9.6427509765625,-0.4070223569869995,-0.19912147521972656,0.6763908863067627
1683928681988792600,9.65279248046875,-0.41034555435180664,-0.2343130111694336,0.6055905818939209
1683928681998834000,9.662833984375,-0.525241494178772,-0.2306385040283203,0.4421195983886719
1683928682008875300,9.672875244140625,-0.6115224361419678,-0.18131637573242188,0.3344416618347168
1683928682018916600,9.68291650390625,-0.6708589792251587,-0.05294990539550781,0.2939786911010742
1683928682028958200,9.692958251953126,-0.6720585823059082,0.06363105773925781,0.30121660232543945
1683928682038999600,9.70299951171875,-0.6010843515396118,0.10643768310546875,0.32736873626708984
1683928682049041000,9.713041015625,-0.5368564128875732,0.08313179016113281,0.4004042148590088
1683928682059082200,9.723082275390626,-0.48393070697784424,0.13237571716308594,0.42232799530029297
1683928682069123600,9.73312353515625,-0.48259449005126953,0.107879638671875,0.4037609100341797
1683928682079165200,9.743165283203124,-0.48517513275146484,0.11512947082519531,0.4447286128997803
1683928682089206500,9.75320654296875,-0.6018142700195312,0.1684122085571289,0.3708031177520752
1683928682099247900,9.763247802734375,-0.6702920198440552,0.21253490447998047,0.30696678161621094
1683928682109289200,9.773289306640624,-0.7766978740692139,0.15665912628173828,0.25823307037353516
1683928682119330600,9.78333056640625,-0.8971343040466309,0.09192085266113281,0.2624967098236084
1683928682129372200,9.7933720703125,-0.9146814346313477,0.12111663818359375,0.1881246566772461
1683928682139413500,9.80341357421875,-0.9135193824768066,0.09341812133789062,0.1861875057220459
1683928682149454800,9.813454833984375,-0.8347407579421997,0.09960365295410156,0.11609840393066406
1683928682159496200,9.82349609375,-0.6983902454376221,0.13809680938720703,0.18715429306030273
1683928682169537800,9.833537841796876,-0.5518091917037964,0.16544723510742188,0.27112317085266113
1683928682179579100,9.8435791015625,-0.4596606492996216,0.12078571319580078,0.36772727966308594
1683928682189620500,9.853620361328124,-0.37461018562316895,0.10667037963867188,0.5096120834350586
1683928682199661800,9.863661865234375,-0.2101985216140747,0.11801719665527344,0.6558892726898193
1683928682209703200,9.873703125,-0.11858737468719482,0.0956277847290039,1.058140516281128
1683928682219744800,9.883744873046876,-0.06025850772857666,0.05442047119140625,1.5298612117767334
1683928682229786000,9.8937861328125,-0.09244740009307861,0.04408550262451172,1.7963018417358398
1683928682239827500,9.903827392578124,-0.14460265636444092,0.019288063049316406,1.9836585521697998
1683928682249868800,9.913868896484376,-0.29651105403900146,-0.0280303955078125,2.0765771865844727
1683928682259910100,9.92391015625,-0.3687114715576172,0.07635498046875,2.06917405128479
1683928682269951700,9.93395166015625,-0.5308511257171631,0.12644100189208984,1.9748775959014893
1683928682279993000,9.9439931640625,-0.702467679977417,0.1673879623413086,1.7638791799545288
1683928682290034400,9.954034423828125,-0.897221565246582,0.1392059326171875,1.4726381301879883
1683928682300075800,9.96407568359375,-1.0890321731567383,0.02973461151123047,1.1468415260314941
1683928682310117400,9.974117431640625,-1.2327876091003418,-0.11097431182861328,0.6958293914794922
1683928682320158700,9.98415869140625,-1.2087806463241577,-0.28154563903808594,0.132338285446167
1683928682330200000,9.994199951171876,-1.0880546569824219,-0.3442049026489258,-0.783869743347168
1683928682340241400,10.004241455078125,-1.2431107759475708,-0.9546022415161133,-1.1238007545471191
1683928682350282800,10.01428271484375,-1.4955328702926636,-1.5716485977172852,-1.3978571891784668
1683928682360324400,10.024324462890625,-1.8660523891448975,-2.088693618774414,-1.6099028587341309
1683928682370365700,10.03436572265625,-2.2125415802001953,-2.0134897232055664,-1.8686974048614502
1683928682380407000,10.044406982421876,-2.5493688583374023,-1.5504264831542969,-1.8505840301513672
1683928682390448400,10.054448486328125,-2.5753262042999268,-0.8311643600463867,-1.4049673080444336
1683928682400490000,10.064489990234375,-2.323894739151001,-0.15790843963623047,-1.100618600845337
1683928682410531300,10.07453125,-2.0282914638519287,0.24587440490722656,-0.974783182144165
1683928682420572700,10.08457275390625,-1.7136470079421997,0.40518951416015625,-1.0109038352966309
1683928682430614000,10.094614013671874,-1.4448516368865967,0.41910648345947266,-0.9517946243286133
1683928682440655400,10.1046552734375,-1.063294529914856,0.3335256576538086,-0.8695802688598633
1683928682450697000,10.114697021484375,-0.5069409012794495,0.20825481414794922,-0.7591991424560547
1683928682460738300,10.12473828125,0.15980157256126404,0.15550899505615234,-0.5559868812561035
1683928682470779600,10.134779541015625,0.8015648722648621,0.3112373352050781,-0.38184046745300293
1683928682480821000,10.144821044921875,1.1952705383300781,0.5812997817993164,-0.3975234031677246
1683928682490862600,10.154862548828126,1.3589521646499634,0.8404273986816406,-0.38973331451416016
1683928682500904000,10.164904052734375,1.4114710092544556,0.9258699417114258,-0.3614933490753174
1683928682510945300,10.1749453125,1.3670185804367065,0.78057861328125,-0.26839399337768555
1683928682520986600,10.184986572265625,1.260875940322876,0.46726036071777344,-0.14798498153686523
1683928682531028000,10.195028076171875,1.0666706562042236,0.09883785247802734,-0.0009248256683349609
1683928682541069600,10.205069580078124,0.8424594402313232,-0.014116287231445312,0.1527111530303955
1683928682551111000,10.21511083984375,0.7071348428726196,0.17278194427490234,0.3029797077178955
1683928682561152300,10.22515234375,0.7048940062522888,0.47005271911621094,0.5278587341308594
1683928682571193600,10.235193603515626,0.7976697683334351,0.6297101974487305,0.8177154064178467
1683928682581235200,10.245235107421875,0.8704847693443298,0.5358095169067383,1.003138542175293
1683928682591276500,10.255276611328124,0.8087292909622192,0.2465372085571289,1.2128697633743286
1683928682601318000,10.26531787109375,0.6044565439224243,-0.2397785186767578,1.4009122848510742
1683928682611359200,10.275359130859375,0.2237870693206787,-0.8576011657714844,1.6228080987930298
1683928682621400600,10.285400634765624,-0.13230769336223602,-1.2789630889892578,1.7359864711761475
1683928682631442200,10.295442138671875,-0.3207584619522095,-1.329737663269043,1.740097999572754
1683928682641483500,10.3054833984375,-0.25867676734924316,-1.0491714477539062,1.4859962463378906
1683928682651524900,10.31552490234375,0.037671640515327454,-0.7490425109863281,1.0552330017089844
1683928682661566200,10.325566162109375,0.5084119439125061,-0.5181188583374023,0.6451778411865234
1683928682671607800,10.33560791015625,0.9227157235145569,-0.35659217834472656,0.31859636306762695
1683928682681649200,10.345649169921876,1.2536424398422241,-0.1928720474243164,0.1616203784942627
1683928682691690500,10.3556904296875,1.4519128799438477,-0.06052207946777344,0.08092737197875977
1683928682701731800,10.36573193359375,1.524890661239624,0.007189750671386719,0.09749627113342285
1683928682711773200,10.375773193359375,1.455815315246582,-0.01812458038330078,0.10083222389221191
1683928682721814800,10.385814697265625,1.2893223762512207,-0.07657051086425781,0.0885477066040039
1683928682731856100,10.395856201171876,1.0196605920791626,-0.18726062774658203,0.09197640419006348
1683928682741897500,10.4058974609375,0.8052181601524353,-0.21900653839111328,0.028651714324951172
1683928682751938800,10.415938720703124,0.7085800766944885,-0.19606590270996094,0.016715049743652344
1683928682761980400,10.42598046875,0.7591257691383362,-0.09232234954833984,0.09932541847229004
1683928682772021800,10.436021728515625,0.846562922000885,-0.03209686279296875,0.15658903121948242
1683928682782063000,10.44606298828125,0.9549553394317627,0.025300979614257812,0.2051246166229248
1683928682792104400,10.4561044921875,1.0233914852142334,0.06775474548339844,0.22144269943237305
1683928682802146000,10.46614599609375,1.0256272554397583,0.004389762878417969,0.23941254615783691
1683928682812187400,10.4761875,0.9660978317260742,-0.15734291076660156,0.2541325092315674
1683928682822228700,10.486228759765625,0.8747521638870239,-0.25711822509765625,0.212890625
1683928682832270000,10.49627001953125,0.7727670073509216,-0.2927112579345703,0.18524432182312012
1683928682842311400,10.5063115234375,0.6691187620162964,-0.31435298919677734,0.21883416175842285
1683928682852353000,10.51635302734375,0.5860059261322021,-0.2815217971801758,0.2301630973815918
1683928682862394400,10.526394287109374,0.5298871994018555,-0.23252582550048828,0.3432941436767578
1683928682872435700,10.536435791015625,0.47061583399772644,-0.24854183197021484,0.4358253479003906
1683928682882477000,10.54647705078125,0.3784259557723999,-0.1765604019165039,0.5148007869720459
1683928682892518700,10.5565185546875,0.30343496799468994,-0.140899658203125,0.6133582592010498
1683928682902560000,10.56656005859375,0.20097386837005615,-0.12939167022705078,0.6976237297058105
1683928682912601300,10.576601318359375,0.10785642266273499,-0.1443777084350586,0.7343428134918213
1683928682922642700,10.586642578125,0.008331507444381714,-0.1619100570678711,0.7787158489227295
1683928682932684000,10.59668408203125,-0.06609857082366943,-0.23686981201171875,0.8067872524261475
1683928682942725600,10.6067255859375,-0.12954238057136536,-0.2903881072998047,0.8428328037261963
1683928682952767000,10.61676708984375,-0.18142172694206238,-0.33437252044677734,0.8986074924468994
1683928682962808300,10.626808349609375,-0.24719983339309692,-0.3877983093261719,0.9617933034896851
1683928682972849700,10.636849609375,-0.26645249128341675,-0.32393360137939453,0.9914734363555908
1683928682982891300,10.646891357421875,-0.26540130376815796,-0.30773353576660156,1.0112853050231934
1683928682992932600,10.6569326171875,-0.2376880645751953,-0.2912788391113281,1.035339593887329
1683928683002974000,10.666973876953126,-0.19165968894958496,-0.2938089370727539,1.0065678358078003
1683928683013015300,10.677015380859375,-0.14705753326416016,-0.3272695541381836,0.9657633304595947
1683928683023056600,10.687056640625,-0.09421730041503906,-0.3175697326660156,0.9058715105056763
1683928683033098200,10.69709814453125,-0.023570328950881958,-0.29839229583740234,0.8775750398635864
1683928683043139600,10.7071396484375,0.02676600217819214,-0.2602090835571289,0.8497740030288696
1683928683053181000,10.717180908203124,0.07837933301925659,-0.18869304656982422,0.8557462692260742
1683928683063222300,10.72722216796875,0.16184008121490479,-0.12463665008544922,0.8622539043426514
1683928683073263900,10.737263916015625,0.21901750564575195,-0.12549686431884766,0.8529815673828125
1683928683083305200,10.74730517578125,0.27317166328430176,-0.1434469223022461,0.9069702625274658
1683928683093346600,10.7573466796875,0.3211768865585327,-0.18080425262451172,0.8948721885681152
1683928683103388000,10.767387939453124,0.3362732231616974,-0.20404815673828125,0.938433051109314
1683928683113429500,10.777429443359376,0.32327455282211304,-0.2275075912475586,0.9179754257202148
1683928683123470800,10.787470947265625,0.30425989627838135,-0.26880931854248047,0.9183883666992188
1683928683133512200,10.79751220703125,0.2606580853462219,-0.26489734649658203,0.8980497121810913
1683928683143553500,10.807553466796875,0.2120075821876526,-0.21885395050048828,0.9349650144577026
1683928683153595000,10.817594970703125,0.1849057674407959,-0.21832847595214844,0.9241704940795898
1683928683163636500,10.827636474609376,0.15380233526229858,-0.22717857360839844,0.8498826026916504
1683928683173677800,10.837677734375,0.15400391817092896,-0.21477603912353516,0.8218803405761719
1683928683183719200,10.84771923828125,0.17242705821990967,-0.17209243774414062,0.8605355024337769
1683928683193760500,10.857760498046876,0.17059320211410522,-0.1749582290649414,0.861017107963562
1683928683203802000,10.867802001953125,0.14160168170928955,-0.16147327423095703,0.8312116861343384
1683928683213843500,10.877843505859374,0.10281389951705933,-0.20721054077148438,0.8233766555786133
1683928683223884800,10.887884765625,0.054925739765167236,-0.21718120574951172,0.7954307794570923
1683928683233926100,10.897926025390625,0.026902377605438232,-0.2625732421875,0.8512958288192749
1683928683243967500,10.907967529296876,-0.009553134441375732,-0.30735015869140625,0.8597104549407959
1683928683254009000,10.918009033203125,-0.016817927360534668,-0.2881183624267578,0.8219717741012573
1683928683264050400,10.928050537109375,-0.009937882423400879,-0.3095054626464844,0.8092877864837646
1683928683274091800,10.938091796875,-0.04811519384384155,-0.2906770706176758,0.726660966873169
1683928683284133000,10.948133056640625,-0.07634466886520386,-0.29587841033935547,0.5682287216186523
1683928683294174700,10.9581748046875,-0.1292324662208557,-0.27318763732910156,0.3810851573944092
1683928683304216000,10.968216064453125,-0.17968782782554626,-0.2467203140258789,0.2886314392089844
1683928683314257400,10.97825732421875,-0.1805606186389923,-0.18833637237548828,0.2705814838409424
1683928683324298800,10.988298828125,-0.18739408254623413,-0.14809608459472656,0.25519800186157227
1683928683334340000,10.998340087890625,-0.17731192708015442,-0.1422138214111328,0.31765222549438477
1683928683344381700,11.008381591796875,-0.17013752460479736,-0.1183004379272461,0.41869306564331055
1683928683354423000,11.018423095703126,-0.1827247440814972,-0.1495962142944336,0.4891483783721924
1683928683364464400,11.02846435546875,-0.13964396715164185,-0.10093498229980469,0.5975234508514404
1683928683374505700,11.038505615234374,-0.11497926712036133,-0.11246490478515625,0.6416349411010742
1683928683384547300,11.04854736328125,-0.10388898849487305,-0.1501779556274414,0.7117958068847656
1683928683394588700,11.058588623046875,-0.09895330667495728,-0.16887760162353516,0.7156703472137451
1683928683404630000,11.068630126953124,-0.09285086393356323,-0.17593955993652344,0.7650117874145508
1683928683414671400,11.07867138671875,-0.11798417568206787,-0.20445728302001953,0.7930586338043213
1683928683424712700,11.088712646484375,-0.13547128438949585,-0.27741527557373047,0.870330810546875
1683928683434754300,11.09875439453125,-0.13531965017318726,-0.3115262985229492,0.9156951904296875
1683928683444795600,11.108795654296875,-0.14110732078552246,-0.3826608657836914,0.9882841110229492
1683928683454837000,11.1188369140625,-0.11934977769851685,-0.5535039901733398,1.0634651184082031
1683928683464878300,11.12887841796875,-0.07524043321609497,-0.8127174377441406,1.1287219524383545
1683928683474920000,11.138919921875,-0.03808093070983887,-0.9631471633911133,1.220981240272522
1683928683484961300,11.148961181640624,0.000546574592590332,-1.1053581237792969,1.263915777206421
1683928683495002600,11.159002685546875,0.06522947549819946,-1.0323724746704102,1.3241846561431885
1683928683505044000,11.1690439453125,0.06531935930252075,-1.0538949966430664,1.3450535535812378
1683928683515085600,11.17908544921875,0.058519721031188965,-1.043623924255371,1.3814964294433594
1683928683525127000,11.189126953125,0.03199642896652222,-1.020991325378418,1.4101797342300415
1683928683535168300,11.199168212890624,-0.023907899856567383,-1.1155223846435547,1.478258728981018
1683928683545209600,11.209209716796876,-0.03925442695617676,-1.0401086807250977,1.532711148262024
1683928683555251200,11.219251220703125,-0.031064331531524658,-0.9975385665893555,1.5027188062667847
1683928683565292500,11.22929248046875,-0.00254899263381958,-0.9377641677856445,1.3469635248184204
1683928683575334000,11.239333984375,-0.008488476276397705,-0.9697456359863281,1.0874059200286865
1683928683585375200,11.249375244140625,-0.08085304498672485,-0.8922348022460938,0.8258929252624512
1683928683595416600,11.25941650390625,-0.19167965650558472,-0.7941007614135742,0.6166427135467529
1683928683605458200,11.269458251953125,-0.26663559675216675,-0.5791997909545898,0.3884251117706299
1683928683615499500,11.27949951171875,-0.36266329884529114,-0.18947792053222656,0.03464627265930176
1683928683625540900,11.289540771484376,-0.4031398296356201,0.09755706787109375,-0.24761176109313965
1683928683635582200,11.299582275390625,-0.4454573392868042,0.23987197875976562,-0.2819523811340332
1683928683645623800,11.309623779296874,-0.5513559579849243,0.3802051544189453,-0.4001295566558838
1683928683655665200,11.3196650390625,-0.7149091362953186,0.39585018157958984,-0.4538545608520508
1683928683665706500,11.32970654296875,-0.939836859703064,0.5226497650146484,-0.579387903213501
1683928683675747800,11.339747802734376,-1.1059801578521729,0.749943733215332,-0.948798418045044
1683928683685789400,11.34978955078125,-1.2496516704559326,0.7410926818847656,-0.8983569145202637
1683928683695830800,11.359830810546875,-1.4316504001617432,0.6766252517700195,-0.6898610591888428
1683928683705872100,11.3698720703125,-1.6230096817016602,0.626683235168457,-0.5314230918884277
1683928683715913500,11.37991357421875,-1.8062889575958252,0.5414285659790039,-0.4736957550048828
1683928683725955000,11.389955078125,-1.9722164869308472,0.4808502197265625,-0.31833386421203613
1683928683735996400,11.399996337890625,-2.060181140899658,0.4380807876586914,-0.18856048583984375
1683928683746037800,11.410037841796875,-2.0827553272247314,0.39882850646972656,-0.15694642066955566
1683928683756079000,11.4200791015625,-1.9843262434005737,0.3723182678222656,-0.22120332717895508
1683928683766120700,11.43012060546875,-1.7016154527664185,0.46059322357177734,-0.3428325653076172
1683928683776162000,11.440162109375,-1.2905768156051636,0.6245794296264648,-0.4645838737487793
1683928683786203400,11.450203369140626,-0.7964795231819153,0.789616584777832,-0.5079481601715088
1683928683796244700,11.46024462890625,-0.31309983134269714,0.8554468154907227,-0.5601377487182617
1683928683806286000,11.4702861328125,0.20388753712177277,0.8349142074584961,-0.5419013500213623
1683928683816327700,11.48032763671875,0.6070284843444824,0.7144269943237305,-0.6262166500091553
1683928683826369000,11.490369140625,0.9399912357330322,0.5540246963500977,-0.7882113456726074
1683928683836410400,11.500410400390624,1.1852777004241943,0.2725086212158203,-0.997697114944458
1683928683846451700,11.51045166015625,1.3976199626922607,-0.0104827880859375,-1.1936419010162354
1683928683856493300,11.520493408203125,1.479036808013916,-0.2926511764526367,-1.4656109809875488
1683928683866534700,11.53053466796875,1.529070258140564,-0.5238676071166992,-1.6663649082183838
1683928683876576000,11.540575927734375,1.526989221572876,-0.7423496246337891,-1.7637677192687988
1683928683886617300,11.550617431640624,1.5213565826416016,-0.9573917388916016,-1.7834992408752441
1683928683896658700,11.56065869140625,1.4133555889129639,-1.0855255126953125,-1.8002467155456543
1683928683906700300,11.5707001953125,1.2704600095748901,-1.1082725524902344,-1.7233030796051025
1683928683916741600,11.58074169921875,0.9677073359489441,-0.935516357421875,-1.5156128406524658
1683928683926783000,11.590782958984375,0.5704053640365601,-0.5940876007080078,-1.1972315311431885
1683928683936824300,11.60082421875,0.16875064373016357,-0.18245792388916016,-0.8605058193206787
1683928683946866000,11.610865966796876,-0.14274084568023682,0.20107460021972656,-0.48989248275756836
1683928683956907300,11.6209072265625,-0.3161505460739136,0.5348377227783203,-0.16243863105773926
1683928683966948600,11.630948486328125,-0.3864915370941162,0.8164548873901367,0.05012345314025879
1683928683976990000,11.640989990234376,-0.3614656925201416,0.9532928466796875,0.2900533676147461
1683928683987031600,11.651031494140625,-0.2451099157333374,1.075179100036621,0.3149378299713135
1683928683997073000,11.661072998046874,-0.1271820068359375,1.1752443313598633,0.2276897430419922
1683928684007114200,11.6711142578125,0.0033818483352661133,1.311056137084961,0.090484619140625
1683928684017155600,11.681155517578125,0.16300392150878906,1.339421272277832,-0.13768529891967773
1683928684027197200,11.691197265625,0.2660278081893921,1.346548080444336,-0.4113152027130127
1683928684037238500,11.701238525390625,0.3440268039703369,1.2608528137207031,-0.6947343349456787
1683928684047279900,11.71127978515625,0.3424645662307739,1.0993213653564453,-0.9476897716522217
1683928684057321200,11.7213212890625,0.20154190063476562,0.9338293075561523,-1.191730260848999
1683928684067362800,11.73136279296875,-0.05699741840362549,0.7287359237670898,-1.3415648937225342
1683928684077404200,11.741404052734374,-0.4255727529525757,0.49611663818359375,-1.4000790119171143
1683928684087445500,11.751445556640626,-0.7930437326431274,0.3647632598876953,-1.2860932350158691
1683928684097486800,11.76148681640625,-1.1599740982055664,0.3100004196166992,-1.0970737934112549
1683928684107528400,11.771528564453124,-1.4070934057235718,0.2188873291015625,-0.8017570972442627
1683928684117569800,11.78156982421875,-1.4376689195632935,0.17475128173828125,-0.495729923248291
1683928684127611100,11.791611083984375,-1.3328996896743774,0.1247406005859375,-0.319751501083374
1683928684137652500,11.801652587890626,-1.157922625541687,0.04969215393066406,-0.21108126640319824
1683928684147694000,11.811694091796875,-0.9310553073883057,0.023797988891601562,-0.18103528022766113
1683928684157735400,11.8217353515625,-0.7378108501434326,0.013815879821777344,-0.11964702606201172
1683928684167776800,11.83177685546875,-0.5415358543395996,0.07731819152832031,-0.11059141159057617
1683928684177818000,11.841818115234375,-0.34622061252593994,0.12830257415771484,-0.193589448928833
1683928684187859700,11.851859619140624,-0.212066650390625,0.214630126953125,-0.22246241569519043
1683928684197901000,11.861901123046875,-0.17437171936035156,0.3171062469482422,-0.28359150886535645
1683928684207942400,11.8719423828125,-0.15607118606567383,0.4522829055786133,-0.4244037866592407
1683928684217983700,11.881983642578126,-0.17104244232177734,0.5528736114501953,-0.4691101312637329
1683928684228025300,11.892025390625,-0.22619009017944336,0.6020936965942383,-0.4507986307144165
1683928684238066700,11.902066650390625,-0.354266881942749,0.5689725875854492,-0.34133994579315186
1683928684248108000,11.91210791015625,-0.45455503463745117,0.5324745178222656,-0.25089383125305176
1683928684258149400,11.9221494140625,-0.46799421310424805,0.5261564254760742,-0.1554853916168213
1683928684268190700,11.932190673828124,-0.33392977714538574,0.600372314453125,-0.007271885871887207
1683928684278232300,11.942232421875,-0.11897087097167969,0.621668815612793,0.19108963012695312
1683928684288273700,11.952273681640625,0.20557928085327148,0.6959857940673828,0.3862522840499878
1683928684298315000,11.96231494140625,0.5207430124282837,0.768895149230957,0.5154814720153809
1683928684308356400,11.9723564453125,0.7612987756729126,0.8190536499023438,0.47686755657196045
1683928684318398000,11.98239794921875,0.9016836881637573,0.7913112640380859,0.3744570016860962
1683928684328439300,11.992439208984376,0.931607723236084,0.7762641906738281,0.24663186073303223
1683928684338480600,12.002480712890625,0.9004924297332764,0.7307252883911133,0.11403036117553711
1683928684348522000,12.01252197265625,0.8377811908721924,0.7002468109130859,0.030308961868286133
1683928684358563600,12.0225634765625,0.7119991779327393,0.718348503112793,-0.1216135025024414
1683928684368605000,12.03260498046875,0.5131758451461792,0.6584138870239258,-0.26953983306884766
1683928684378646300,12.042646240234374,0.1630115509033203,0.54681396484375,-0.43262434005737305
1683928684388687600,12.0526875,-0.27493977546691895,0.5457649230957031,-0.594085693359375
1683928684398729200,12.062729248046875,-0.7113981246948242,0.4972724914550781,-0.6158885955810547
1683928684408770600,12.0727705078125,-1.0505127906799316,0.4874420166015625,-0.5251255035400391
1683928684418812000,12.08281201171875,-1.1359851360321045,0.5809535980224609,-0.32933568954467773
1683928684428853200,12.092853271484374,-1.0131487846374512,0.641880989074707,-0.04794049263000488
1683928684438894800,12.102894775390626,-0.8457891941070557,0.6158151626586914,0.19604647159576416
1683928684448936200,12.112936279296875,-0.7410635948181152,0.5556068420410156,0.27274882793426514
1683928684458977500,12.1229775390625,-0.7167503833770752,0.4516868591308594,0.27712368965148926
1683928684469019000,12.133018798828125,-0.7306897640228271,0.26798343658447266,0.1615467071533203
1683928684479060500,12.143060546875,-0.8319559097290039,0.14037322998046875,-0.04424786567687988
1683928684489101800,12.153101806640626,-1.003361701965332,-0.041443824768066406,-0.2649986743927002
1683928684499143200,12.16314306640625,-1.165825366973877,-0.29921627044677734,-0.49678635597229004
1683928684509184500,12.1731845703125,-1.231353521347046,-0.6712894439697266,-0.7068705558776855
1683928684519226000,12.18322607421875,-1.2149672508239746,-1.114645004272461,-0.8175106048583984
1683928684529267500,12.193267333984375,-1.1747467517852783,-1.4810962677001953,-1.0098605155944824
1683928684539308800,12.203308837890624,-1.201200246810913,-1.5702781677246094,-1.202855110168457
1683928684549350100,12.21335009765625,-1.210981845855713,-1.3258485794067383,-1.2779314517974854
1683928684559391700,12.223391845703125,-1.1985262632369995,-0.8350963592529297,-1.2290945053100586
1683928684569433000,12.23343310546875,-1.2661327123641968,-0.3258380889892578,-1.2032642364501953
1683928684579474400,12.243474365234375,-1.5420973300933838,0.07277870178222656,-1.02276611328125
1683928684589515800,12.253515869140625,-2.023993968963623,0.22027969360351562,-0.6539294719696045
1683928684599557400,12.263557373046876,-2.12846040725708,-0.03740119934082031,-0.2429039478302002
1683928684609598700,12.2735986328125,-1.5374484062194824,-0.7720298767089844,-0.038848161697387695
1683928684619640000,12.28364013671875,-0.9698892831802368,-1.3912973403930664,0.007872343063354492
1683928684629681400,12.293681396484375,-0.5768234729766846,-1.6373357772827148,0.18842482566833496
1683928684639722800,12.30372265625,-0.09717285633087158,-1.4208564758300781,0.4765915870666504
1683928684649764400,12.313764404296874,0.5267239809036255,-0.8678779602050781,0.7226732969284058
1683928684659805700,12.3238056640625,1.3164689540863037,-0.29224205017089844,0.8371087312698364
1683928684669847000,12.333846923828125,2.0684564113616943,0.22505474090576172,0.716923713684082
1683928684679888400,12.343888427734376,2.534029483795166,0.6176118850708008,0.554624080657959
1683928684689930000,12.353929931640625,2.7238547801971436,0.9861688613891602,0.2955353260040283
1683928684699971300,12.363971435546874,2.688729763031006,1.2977104187011719,0.1685926914215088
1683928684710012700,12.3740126953125,2.522874593734741,1.624837875366211,0.17302513122558594
1683928684720054000,12.384053955078125,2.26883864402771,1.6460132598876953,0.1705639362335205
1683928684730095600,12.394095703125,1.9465919733047485,1.5289855003356934,-0.05052471160888672
1683928684740137000,12.404136962890625,1.5207206010818481,1.2993135452270508,-0.42522454261779785
1683928684750178300,12.41417822265625,1.042250156402588,0.9396200180053711,-0.7068881988525391
1683928684760219600,12.4242197265625,0.5245050191879272,0.5304241180419922,-0.8534612655639648
1683928684770261200,12.43426123046875,0.10039043426513672,0.1306438446044922,-0.7184920310974121
1683928684780302600,12.444302490234374,-0.1262143850326538,-0.0762786865234375,-0.6052908897399902
1683928684790344000,12.454343994140626,-0.11729562282562256,-0.16275978088378906,-0.5923488140106201
1683928684800385300,12.46438525390625,0.08320140838623047,-0.1027383804321289,-0.6257548332214355
1683928684810427000,12.474427001953124,0.32478201389312744,0.0011625289916992188,-0.6352188587188721
1683928684820468200,12.48446826171875,0.5583793520927429,0.03963756561279297,-0.6182990074157715
1683928684830509600,12.494509521484375,0.7394976615905762,0.1564950942993164,-0.5312604904174805
1683928684840551200,12.50455126953125,0.8558660745620728,0.2110300064086914,-0.4746561050415039
1683928684850592500,12.514592529296875,0.840391218662262,0.33243560791015625,-0.36963677406311035
1683928684860633900,12.5246337890625,0.7108268141746521,0.4106121063232422,-0.29573631286621094
1683928684870675200,12.53467529296875,0.47176969051361084,0.5504245758056641,-0.22941946983337402
1683928684880716800,12.544716796875,0.22004446387290955,0.6727104187011719,-0.1545569896697998
