time,seconds_elapsed,z,y,x
1684108302422352400,0.030352294921875,0,0,0
1684108302432392400,0.040392333984375,-0.0778951644897461,0.22929167747497559,-0.23612463474273682
1684108302442432800,0.050432861328125,-0.022150039672851562,-0.13695192337036133,-0.2192620038986206
1684108302452472800,0.060472900390625,-0.11777877807617188,-0.4998040199279785,0.1072918176651001
1684108302462513000,0.070512939453125,-0.4646778106689453,-0.3892045021057129,0.06363892555236816
1684108302472553200,0.08055322265625,-0.8566021919250488,-0.4548015594482422,-0.1338489055633545
1684108302482593300,0.09059326171875,-1.0559287071228027,-0.8343033790588379,-0.024965882301330566
1684108302492633300,0.10063330078125,-0.8680872917175293,-0.3030261993408203,-0.3215068578720093
1684108302502673700,0.110673583984375,-0.23516368865966797,0.4515535831451416,-0.7384246587753296
1684108302512713700,0.120713623046875,0.4268817901611328,0.2225029468536377,-0.5029703378677368
1684108302522753800,0.13075390625,1.0354366302490234,0.1497631072998047,-0.25538039207458496
1684108302532794000,0.140794189453125,1.7540616989135742,1.1897494792938232,-0.11213159561157227
1684108302542834200,0.150834228515625,1.7900028228759766,0.6388139724731445,0.8647452592849731
1684108302552874500,0.16087451171875,1.615849494934082,0.16500568389892578,1.448009729385376
1684108302562914600,0.17091455078125,0.7651815414428711,-0.06063222885131836,1.3505520820617676
1684108302572954600,0.18095458984375,-0.6398200988769531,-0.386155366897583,0.41162633895874023
1684108302582995000,0.190994873046875,-1.488713264465332,-0.8908147811889648,-0.04512310028076172
1684108302593035000,0.201034912109375,-1.590336799621582,-1.0724024772644043,-0.033308982849121094
1684108302603075300,0.211075439453125,-1.065833568572998,-0.4026038646697998,-0.4298422336578369
1684108302613115400,0.221115478515625,-0.16835975646972656,0.383587121963501,-0.7140693664550781
1684108302623155500,0.231155517578125,0.3524494171142578,0.46097302436828613,-0.49370408058166504
1684108302633195800,0.24119580078125,0.9455442428588867,0.13261723518371582,-0.265122652053833
1684108302643235800,0.25123583984375,1.3821964263916016,0.07727909088134766,-0.9096879959106445
1684108302653276000,0.26127587890625,0.9536848068237305,-0.05268502235412598,-1.1841646432876587
1684108302663316200,0.271316162109375,-0.1406402587890625,0.012615680694580078,-0.6637883186340332
1684108302673356300,0.281356201171875,-0.9211196899414062,0.07827258110046387,-0.3551487922668457
1684108302683396400,0.291396240234375,-1.216066837310791,0.03485274314880371,0.11066770553588867
1684108302693436700,0.301436767578125,-1.2916245460510254,-0.2507789134979248,0.25543951988220215
1684108302703476700,0.311476806640625,-0.6203126907348633,-0.4999814033508301,0.37477588653564453
1684108302713517000,0.32151708984375,0.4977445602416992,-0.5915811061859131,0.023326873779296875
1684108302723557000,0.33155712890625,1.5832242965698242,-0.42897915840148926,-0.49503207206726074
1684108302733597200,0.34159716796875,2.4210290908813477,-0.3046097755432129,-0.5188107490539551
1684108302743637500,0.351637451171875,2.7252635955810547,0.03458833694458008,-0.49379587173461914
1684108302753677600,0.361677490234375,3.112950325012207,0.4288792610168457,-0.5931639671325684
1684108302763717600,0.371717529296875,2.843489646911621,0.4147377014160156,-0.7819027900695801
1684108302773758000,0.381758056640625,1.7512187957763672,-0.558157205581665,-0.5210905075073242
1684108302783798000,0.391798095703125,-6.881163597106934,-1.4593851566314697,1.1244773864746094
1684108302793838000,0.401838134765625,-24.760604858398438,-0.12356400489807129,2.662728786468506
1684108302803878400,0.41187841796875,5.6451826095581055,5.735208511352539,-0.25672435760498047
1684108302813918500,0.42191845703125,-1.388232707977295,-0.05001568794250488,5.580743312835693
1684108302823958500,0.43195849609375,-0.39155101776123047,-0.4373149871826172,1.846447467803955
1684108302833998800,0.441998779296875,4.332366466522217,-0.5069098472595215,0.8465447425842285
1684108302844039000,0.452038818359375,-0.7443866729736328,-2.568112850189209,1.4219388961791992
1684108302854079200,0.462079345703125,0.3101334571838379,-0.11499834060668945,-0.2669501304626465
1684108302864119300,0.472119384765625,1.0991291999816895,0.6035823822021484,-0.7943849563598633
1684108302874159400,0.482159423828125,1.0740699768066406,-0.22481727600097656,-1.5071101188659668
1684108302884199700,0.49219970703125,1.188215732574463,1.155650019645691,-1.8917808532714844
1684108302894239700,0.50223974609375,2.200376510620117,0.3980686664581299,-2.7038393020629883
1684108302904280000,0.512280029296875,1.3054137229919434,-0.34129786491394043,-2.2040858268737793
1684108302914320100,0.522320068359375,6.596731662750244,-0.5462071895599365,0.23587703704833984
1684108302924360200,0.532360107421875,7.871994972229004,-0.14120864868164062,1.161508560180664
1684108302934400500,0.542400390625,3.806819438934326,0.07174038887023926,-0.7125177383422852
1684108302944440600,0.552440673828125,-0.43027710914611816,-0.26071810722351074,-1.610671043395996
1684108302954480600,0.562480712890625,-3.8645055294036865,-0.3942439556121826,-1.8835210800170898
1684108302964521000,0.57252099609375,-6.662228584289551,0.8145670890808105,-2.2322216033935547
1684108302974561000,0.58256103515625,-6.132004737854004,1.5889743566513062,-1.4537434577941895
1684108302984601000,0.59260107421875,-5.564525604248047,1.334709644317627,-0.053902626037597656
1684108302994641400,0.602641357421875,-4.907495498657227,0.2181544303894043,-0.2041187286376953
1684108303004681500,0.612681396484375,-3.601212978363037,0.6740224361419678,-1.2641258239746094
1684108303014721800,0.6227216796875,-2.28267502784729,0.6417248249053955,-1.9965314865112305
1684108303024761900,0.632761962890625,-1.6596457958221436,-0.27512240409851074,-2.493960380554199
1684108303034802000,0.642802001953125,-0.6318457126617432,-0.6789519786834717,-2.464968204498291
1684108303044842200,0.65284228515625,-0.1595664918422699,-0.6659064292907715,-1.704249382019043
1684108303054882300,0.66288232421875,-0.7885099649429321,-0.8582420349121094,-1.5095634460449219
1684108303064922600,0.672922607421875,-1.1852924823760986,-0.6231203079223633,-0.7644619941711426
1684108303074962700,0.682962646484375,-1.193362832069397,-0.15311169624328613,-0.009409904479980469
1684108303085002800,0.693002685546875,-1.0906949043273926,0.11657571792602539,0.020522117614746094
1684108303095043000,0.70304296875,-0.26744747161865234,0.013855457305908203,-0.92840576171875
1684108303105083100,0.713083251953125,0.290482759475708,-0.9266133308410645,-1.4900808334350586
1684108303115123200,0.723123291015625,1.0690875053405762,-1.3069672584533691,-1.2559475898742676
1684108303125163500,0.73316357421875,0.8962945938110352,-3.1963281631469727,0.958526611328125
1684108303135203600,0.74320361328125,1.7356867790222168,-3.2967162132263184,3.3313074111938477
1684108303145243600,0.75324365234375,2.812267541885376,-2.289893627166748,3.810307502746582
1684108303155284000,0.763283935546875,2.833970546722412,-2.040442943572998,4.5085344314575195
1684108303165324000,0.773323974609375,2.4800639152526855,-1.616142749786377,3.5530147552490234
1684108303175364000,0.783364013671875,1.905724048614502,-1.5014152526855469,2.218259811401367
1684108303185404400,0.793404296875,0.5407015085220337,-1.4193544387817383,0.6635217666625977
1684108303195444500,0.803444580078125,-0.6784323453903198,-1.1594667434692383,-1.0360031127929688
1684108303205484800,0.81348486328125,-1.5173920392990112,-1.068835735321045,-0.644803524017334
1684108303215524900,0.82352490234375,-1.4675456285476685,-0.9724035263061523,-1.6936454772949219
1684108303225565000,0.83356494140625,-1.6836313009262085,-1.334153175354004,-1.4274888038635254
1684108303235605200,0.843605224609375,-1.6364158391952515,-1.3245978355407715,-0.05942535400390625
1684108303245645300,0.853645263671875,-0.9431542158126831,-0.7803645133972168,0.6969833374023438
1684108303255685600,0.863685546875,-0.09757232666015625,-1.128962516784668,2.1402482986450195
1684108303265725700,0.8737255859375,0.7447049617767334,-0.9801411628723145,2.1553850173950195
1684108303275765800,0.883765869140625,1.2739500999450684,-0.37981224060058594,0.6967735290527344
1684108303285806000,0.89380615234375,0.7809770107269287,-0.03931856155395508,-0.00539398193359375
1684108303295846100,0.90384619140625,0.08999252319335938,0.12129783630371094,-0.6789302825927734
1684108303305886200,0.91388623046875,-0.3939706087112427,0.06578588485717773,-1.0513081550598145
1684108303315926500,0.923926513671875,-0.47466838359832764,-0.03450584411621094,-1.0709900856018066
1684108303325966600,0.933966552734375,-0.16118884086608887,0.05950212478637695,-0.8423805236816406
1684108303336006700,0.944006591796875,0.0017162561416625977,0.16690540313720703,-0.3582758903503418
1684108303346047000,0.954046875,0.07142853736877441,0.02629852294921875,-0.6972155570983887
1684108303356087000,0.964087158203125,-0.007524609565734863,0.41062068939208984,-1.3939156532287598
1684108303366127400,0.97412744140625,-0.005398452281951904,0.18819761276245117,-0.007048130035400391
1684108303376167400,0.98416748046875,0.3798951208591461,0.6806035041809082,0.5081448554992676
1684108303386207500,0.99420751953125,0.6696990132331848,1.2669334411621094,0.8466100692749023
1684108303396247800,1.004247802734375,0.6352169513702393,1.360565185546875,1.2006711959838867
1684108303406288000,1.014287841796875,0.6317447423934937,0.8897590637207031,0.9216709136962891
1684108303416328200,1.024328125,0.7357785105705261,-0.10450410842895508,0.3784599304199219
1684108303426368300,1.0343681640625,1.4554076194763184,-1.0366191864013672,-0.1031031608581543
1684108303436408300,1.044408203125,2.8873507976531982,-0.7761225700378418,0.48616743087768555
1684108303446448600,1.05444873046875,3.5776143074035645,-0.053639888763427734,0.4412655830383301
1684108303456488700,1.06448876953125,2.5944766998291016,0.2564735412597656,-0.24030637741088867
1684108303466528800,1.07452880859375,0.9736112356185913,0.5719890594482422,-1.010331630706787
1684108303476569000,1.084569091796875,-0.25845086574554443,0.847865104675293,-1.9411616325378418
1684108303486609200,1.094609130859375,-1.0759562253952026,1.307396411895752,-2.3025922775268555
1684108303496649200,1.104649169921875,-1.0408523082733154,1.3821477890014648,-1.5957932472229004
1684108303506689500,1.114689453125,-0.3769730031490326,1.3410167694091797,-0.6697769165039062
1684108303516729600,1.1247294921875,0.16165125370025635,1.2238202095031738,-0.23489999771118164
1684108303526770000,1.13477001953125,0.9560240507125854,0.7425503730773926,0.3712339401245117
1684108303536810000,1.14481005859375,1.4150488376617432,0.5921244621276855,0.3889303207397461
1684108303546850000,1.15485009765625,1.0743837356567383,0.5233192443847656,0.21764326095581055
1684108303556890400,1.164890380859375,0.9340088963508606,-0.46710968017578125,0.8842639923095703
1684108303566930400,1.174930419921875,1.2076058387756348,-1.2429537773132324,2.0757932662963867
1684108303576970800,1.184970703125,1.1172752380371094,-1.148566722869873,2.5181384086608887
1684108303587010800,1.1950107421875,1.0335558652877808,-1.1052989959716797,3.052055835723877
1684108303597051000,1.20505078125,0.006606996059417725,-0.9032149314880371,2.6236791610717773
1684108303607091200,1.21509130859375,-1.748320460319519,-0.7850761413574219,1.3924446105957031
1684108303617131300,1.22513134765625,-0.4839693009853363,-3.24583101272583,3.039729595184326
1684108303627171300,1.23517138671875,-1.2684407234191895,-1.5854144096374512,0.8375835418701172
1684108303637211600,1.245211669921875,-1.5391883850097656,0.1950397491455078,-0.6348028182983398
1684108303647251700,1.255251708984375,-1.1034579277038574,0.5688085556030273,-0.7579083442687988
1684108303657292000,1.2652919921875,-1.0529561042785645,0.12682437896728516,-0.5230107307434082
1684108303667332000,1.27533203125,-0.48563411831855774,-0.5809645652770996,-0.5394401550292969
1684108303677372200,1.2853720703125,0.13103967905044556,-0.7432589530944824,-0.37340402603149414
1684108303687412500,1.29541259765625,0.09462463855743408,-0.28652524948120117,-0.27564382553100586
1684108303697452500,1.30545263671875,-0.00035393238067626953,-0.2925543785095215,0.18515491485595703
1684108303707492600,1.31549267578125,-0.8724023103713989,-0.6995739936828613,0.1843886375427246
1684108303717533000,1.325532958984375,-1.693853735923767,-1.2347602844238281,-0.5560173988342285
1684108303727573000,1.335572998046875,-1.6381131410598755,-0.8971233367919922,-1.2569255828857422
1684108303737613000,1.345613037109375,-1.2692090272903442,-0.5851941108703613,-1.2470216751098633
1684108303747653400,1.3556533203125,-0.9272157549858093,-0.7422041893005371,-0.9084444046020508
1684108303757693400,1.365693359375,-0.602370023727417,-0.7838163375854492,-0.4537515640258789
1684108303767733800,1.375733642578125,-0.03706920146942139,-0.20631742477416992,0.16439342498779297
1684108303777773800,1.38577392578125,0.3221311569213867,0.22762727737426758,0.4514155387878418
1684108303787814000,1.39581396484375,0.8071699142456055,-0.8167119026184082,0.4237809181213379
1684108303797854200,1.405854248046875,1.654190182685852,-1.0094590187072754,0.4523134231567383
1684108303807894300,1.415894287109375,1.9846835136413574,-0.3998527526855469,0.6960797309875488
1684108303817934600,1.4259345703125,1.28091561794281,0.42447805404663086,0.22380542755126953
1684108303827974700,1.435974609375,0.2624891996383667,0.979006290435791,-0.37444114685058594
1684108303838014700,1.4460146484375,-0.5423156023025513,1.2818536758422852,-0.3803424835205078
1684108303848055000,1.456054931640625,-1.5320467948913574,1.3359637260437012,-0.16922283172607422
1684108303858095000,1.46609521484375,-2.0500988960266113,1.4241585731506348,-0.07108068466186523
1684108303868135400,1.476135498046875,-1.713180661201477,1.4964818954467773,-0.21358013153076172
1684108303878175500,1.486175537109375,-0.9159083962440491,1.8268446922302246,-0.10952281951904297
1684108303888215600,1.496215576171875,-0.32744163274765015,1.3651413917541504,-0.376157283782959
1684108303898256000,1.506255859375,-0.24651657044887543,0.6419248580932617,-0.9121966361999512
1684108303908296000,1.5162958984375,0.14433982968330383,0.23150348663330078,-0.5881791114807129
1684108303918336000,1.5263359375,1.4931814670562744,1.0293750762939453,-0.9172530174255371
1684108303928376300,1.536376220703125,1.582295536994934,0.934241771697998,-1.0194292068481445
1684108303938416400,1.54641650390625,1.3405653238296509,0.49982738494873047,-0.6032214164733887
1684108303948456400,1.55645654296875,1.3731108903884888,1.0736174583435059,-0.3490605354309082
1684108303958496800,1.566496826171875,0.8671423196792603,1.2302041053771973,0.1431717872619629
1684108303968536800,1.576536865234375,0.16677390038967133,0.6029253005981445,0.7316131591796875
1684108303978577200,1.5865771484375,-1.1621789932250977,0.8360090255737305,0.8137965202331543
1684108303988617200,1.5966171875,-2.20379638671875,0.9324555397033691,0.7293496131896973
1684108303998657300,1.6066572265625,-2.529052257537842,0.5797548294067383,0.4499940872192383
1684108304008697600,1.616697509765625,-2.154658794403076,0.049897193908691406,0.35430479049682617
1684108304018737700,1.626737548828125,-1.465214490890503,0.5070571899414062,0.12329435348510742
1684108304028778000,1.636778076171875,-0.5634528994560242,0.45829153060913086,0.911644458770752
1684108304038818000,1.646818115234375,0.13522383570671082,0.21198463439941406,0.41593170166015625
1684108304048858000,1.656858154296875,0.6807421445846558,-0.06442594528198242,0.0007443428039550781
1684108304058898400,1.6668984375,0.9673548340797424,-0.5307769775390625,0.0025529861450195312
1684108304068938500,1.6769384765625,1.014303207397461,-1.3417463302612305,0.047850608825683594
1684108304078978800,1.686978759765625,1.0888160467147827,-1.4042654037475586,0.4186882972717285
1684108304089019000,1.697018798828125,0.7179884314537048,-1.352818489074707,0.8965015411376953
1684108304099059000,1.707058837890625,-0.35428673028945923,-1.001845359802246,1.749906063079834
1684108304109099300,1.717099365234375,-1.1401848793029785,-0.5224943161010742,3.115145206451416
1684108304119139300,1.727139404296875,-1.0378859043121338,0.4219169616699219,3.5491576194763184
1684108304129179400,1.737179443359375,-0.6354832649230957,0.602900505065918,3.7487783432006836
1684108304139219700,1.7472197265625,-0.06832736730575562,0.6789379119873047,3.5720138549804688
1684108304149259800,1.757259765625,0.3690308928489685,0.5290460586547852,3.321495532989502
1684108304159299800,1.7672998046875,0.8666880130767822,0.4928417205810547,3.1506881713867188
1684108304169340200,1.777340087890625,1.4296984672546387,0.7774267196655273,2.9905638694763184
1684108304179380200,1.787380126953125,1.7392687797546387,0.9631261825561523,2.3069725036621094
1684108304189420500,1.797420654296875,1.7611010074615479,2.193014144897461,1.1667776107788086
1684108304199460600,1.807460693359375,1.4773483276367188,2.759889602661133,0.6790084838867188
1684108304209500700,1.817500732421875,0.7243605852127075,1.3137617111206055,-0.5364665985107422
1684108304219541000,1.827541015625,0.008638527244329453,1.070608139038086,-0.9674768447875977
1684108304229581000,1.8375810546875,-0.1426887959241867,1.338757038116455,-1.042029619216919
1684108304239621400,1.847621337890625,-0.6355994939804077,1.3880939483642578,-1.0628249645233154
1684108304249661400,1.857661376953125,-1.8152192831039429,0.5815410614013672,-1.361889362335205
1684108304259701500,1.867701416015625,-2.7253987789154053,-0.5546464920043945,-1.3740952014923096
1684108304269741800,1.877741943359375,-2.9479267597198486,-1.8483285903930664,-1.1269476413726807
1684108304279782000,1.887781982421875,-2.6508028507232666,-1.9232664108276367,-1.031625747680664
1684108304289822200,1.897822265625,-2.1342380046844482,-1.3096857070922852,-1.3742704391479492
1684108304299862300,1.9078623046875,-1.2931064367294312,-1.0246524810791016,-1.9718267917633057
1684108304309902300,1.91790234375,-2.2309110164642334,-4.291373252868652,-2.1157259941101074
1684108304319942700,1.927942626953125,-1.734023094177246,-5.277218818664551,-1.7777795791625977
1684108304329982700,1.937982666015625,0.001391291618347168,-3.641742706298828,-1.257387638092041
1684108304340022800,1.948022705078125,0.2922545373439789,-0.8308172225952148,-1.3257880210876465
1684108304350063000,1.95806298828125,-0.493973970413208,1.030928134918213,-1.6686522960662842
1684108304360103200,1.968103271484375,-1.367372751235962,1.2799811363220215,-2.11647367477417
1684108304370143500,1.9781435546875,-1.4598151445388794,1.2209053039550781,-2.378551959991455
1684108304380183600,1.98818359375,-1.0615081787109375,1.391965389251709,-2.457594156265259
1684108304390223600,1.9982236328125,-0.47132325172424316,1.2923030853271484,-2.3669044971466064
1684108304400264000,2.008263916015625,-0.0804452896118164,0.690457820892334,-2.0799977779388428
1684108304410304000,2.018303955078125,0.09303414821624756,0.2730131149291992,-1.854968547821045
1684108304420344000,2.028343994140625,0.06544339656829834,0.061127662658691406,-1.753025770187378
1684108304430384400,2.03838427734375,0.041140198707580566,-0.12115097045898438,-1.597489595413208
1684108304440424400,2.048424560546875,0.004116415977478027,-0.43967342376708984,-1.3377549648284912
1684108304450464800,2.05846484375,0.16602253913879395,-1.1194000244140625,-1.006201982498169
1684108304460504800,2.0685048828125,0.3632723093032837,-1.7735986709594727,-0.3464527130126953
1684108304470545000,2.078544921875,0.8190255165100098,-1.5424184799194336,0.41422581672668457
1684108304480585200,2.088585205078125,1.1229139566421509,-1.0718765258789062,1.3710923194885254
1684108304490625300,2.098625244140625,1.1791805028915405,-0.7033910751342773,1.632991075515747
1684108304500665300,2.108665283203125,0.8407977819442749,-0.3887615203857422,1.2784004211425781
1684108304510705700,2.11870556640625,0.4435007572174072,-0.30054378509521484,0.7687270641326904
1684108304520745700,2.128745849609375,0.32120227813720703,-0.0628042221069336,0.2155604362487793
1684108304530786000,2.1387861328125,0.30869054794311523,0.24764347076416016,-0.3610382080078125
1684108304540826000,2.148826171875,0.3698556423187256,0.3050804138183594,-1.0573369264602661
1684108304550866400,2.158866455078125,0.4333733320236206,0.18035030364990234,-1.4630357027053833
1684108304560906500,2.168906494140625,0.4485262632369995,-0.15931129455566406,-1.6788241863250732
1684108304570946600,2.178946533203125,0.5424145460128784,-0.45647144317626953,-1.4271347522735596
1684108304580987000,2.18898681640625,0.7021582126617432,-0.6783199310302734,-1.0099140405654907
1684108304591027000,2.19902685546875,0.6582522392272949,-0.7538080215454102,-0.6671942472457886
1684108304601067300,2.2090673828125,0.3514537811279297,-0.7937774658203125,-0.46254754066467285
1684108304611107300,2.219107421875,-0.2721848487854004,-0.7500171661376953,-0.40895092487335205
1684108304621147400,2.2291474609375,-0.8913242816925049,-0.7374515533447266,-0.1904003620147705
1684108304631187700,2.239187744140625,-1.3214890956878662,-1.3070173263549805,0.1918572187423706
1684108304641227800,2.249227783203125,-1.2535786628723145,-1.8710365295410156,0.28417277336120605
1684108304651268000,2.25926806640625,-0.8720097541809082,-0.9575510025024414,-0.21550118923187256
1684108304661308200,2.26930810546875,-0.5637068748474121,0.07263851165771484,-0.5065628290176392
1684108304671348200,2.27934814453125,-0.51936936378479,0.47893810272216797,-0.41876232624053955
1684108304681388500,2.289388427734375,-0.6483664512634277,0.2922554016113281,-0.33862996101379395
1684108304691428600,2.2994287109375,-0.7830295562744141,-0.24875450134277344,-0.36135590076446533
1684108304701468700,2.30946875,-0.6493144035339355,-0.21884918212890625,-0.5102941989898682
1684108304711509000,2.319509033203125,-0.5193455219268799,-0.02455615997314453,-0.49831271171569824
1684108304721549000,2.329549072265625,-0.4199361801147461,-0.1303853988647461,-0.5042928457260132
1684108304731589400,2.33958935546875,-0.3279001712799072,-0.23902606964111328,-0.10599040985107422
1684108304741629400,2.34962939453125,-0.29224586486816406,0.25399208068847656,0.05736351013183594
1684108304751669500,2.35966943359375,-0.5831747055053711,0.1004953384399414,0.2264387607574463
1684108304761709800,2.369709716796875,-0.8103439807891846,-0.07944583892822266,0.2700982093811035
1684108304771750000,2.37975,-0.9571959972381592,-0.11368274688720703,0.4218099117279053
1684108304781790000,2.3897900390625,-1.1938633918762207,-0.01640033721923828,0.8176031112670898
1684108304791830300,2.399830322265625,-1.3020596504211426,0.237823486328125,1.192697286605835
1684108304801870300,2.409870361328125,-1.4876720905303955,0.5223302841186523,1.253551721572876
1684108304811910700,2.41991064453125,-1.4975600242614746,0.6690759658813477,1.255791425704956
1684108304821950700,2.42995068359375,-1.4217860698699951,0.31925487518310547,1.0252492427825928
1684108304831990800,2.43999072265625,-1.1081011295318604,0.11415481567382812,0.6996185779571533
1684108304842031000,2.450031005859375,-0.7231602668762207,0.1371746063232422,0.4861128330230713
1684108304852071200,2.4600712890625,-0.42473793029785156,0.26912593841552734,0.4532647132873535
1684108304862111500,2.470111572265625,-0.25983238220214844,0.26117420196533203,0.4674513339996338
1684108304872151600,2.480151611328125,-0.013988494873046875,0.29969215393066406,0.3912358283996582
1684108304882191600,2.490191650390625,0.16155123710632324,0.2774381637573242,0.21582388877868652
1684108304892232000,2.50023193359375,0.33992648124694824,0.3087034225463867,0.11095118522644043
1684108304902272000,2.51027197265625,0.5074996948242188,0.341339111328125,-0.11241698265075684
1684108304912312000,2.52031201171875,0.59149169921875,0.4099607467651367,-0.2753927707672119
1684108304922352400,2.530352294921875,0.6164960861206055,0.4626922607421875,-0.4022867679595947
1684108304932392400,2.540392333984375,0.6587390899658203,0.51416015625,-0.5501959323883057
1684108304942432800,2.550432861328125,0.7786996364593506,0.8330612182617188,-0.6791582107543945
1684108304952472800,2.560472900390625,0.8037991523742676,1.3484902381896973,-0.7808057069778442
1684108304962513000,2.570512939453125,0.9311745166778564,1.3546838760375977,-0.6644607782363892
1684108304972553200,2.58055322265625,1.1495857238769531,1.352403163909912,-0.6466175317764282
1684108304982593300,2.59059326171875,1.2818626165390015,1.4350743293762207,-0.7175329923629761
1684108304992633600,2.600633544921875,1.2694635391235352,1.4837336540222168,-0.7709918022155762
1684108305002673700,2.610673583984375,1.15481436252594,1.424208164215088,-0.7480270862579346
1684108305012714000,2.6207138671875,0.9189352989196777,1.2265920639038086,-0.7816873788833618
1684108305022754000,2.630754150390625,0.5314726829528809,0.8215885162353516,-0.8575423955917358
1684108305032794000,2.640794189453125,-0.13503146171569824,0.2565584182739258,-1.055783987045288
1684108305042834400,2.65083447265625,-0.8547205924987793,-0.31905078887939453,-1.2829563617706299
1684108305052874500,2.66087451171875,-1.2675116062164307,-0.6783170700073242,-1.579742193222046
1684108305062914800,2.670914794921875,-1.192051887512207,-0.7419900894165039,-1.850776195526123
1684108305072955000,2.680954833984375,-1.0612564086914062,-0.8664608001708984,-1.8203428983688354
1684108305082995000,2.690994873046875,-1.0682930946350098,-1.0586528778076172,-1.4827344417572021
1684108305093035300,2.70103515625,-1.3202366828918457,-1.340958595275879,-1.0175222158432007
1684108305103075300,2.711075439453125,-1.5992803573608398,-1.869542121887207,-0.42157435417175293
1684108305113115600,2.72111572265625,-2.0172572135925293,-2.7008352279663086,0.2694971561431885
1684108305123155700,2.73115576171875,-2.2187483310699463,-3.3122692108154297,1.2059385776519775
1684108305133195800,2.74119580078125,-1.8052787780761719,-3.253411293029785,1.9826925992965698
1684108305143236000,2.751236083984375,-1.0090004205703735,-2.7311973571777344,2.304286479949951
1684108305153276200,2.761276123046875,-0.6539576053619385,-2.0140037536621094,2.106006145477295
1684108305163316500,2.77131640625,-1.3326371908187866,-1.2485570907592773,1.9755219221115112
1684108305173356500,2.7813564453125,-2.405608892440796,-0.3800811767578125,2.016803741455078
1684108305183396600,2.791396728515625,-2.0707807540893555,0.37098121643066406,1.4610402584075928
1684108305193437000,2.80143701171875,-0.5703163146972656,0.6678791046142578,0.23682403564453125
1684108305203477000,2.81147705078125,0.6598280072212219,0.8314352035522461,-0.6909865736961365
1684108305213517000,2.82151708984375,1.4823646545410156,1.5311975479125977,-1.0004303455352783
1684108305223557400,2.831557373046875,1.6521371603012085,1.9109983444213867,-1.0964112281799316
1684108305233597400,2.841597412109375,1.5041004419326782,2.161851406097412,-0.8914772272109985
1684108305243637800,2.8516376953125,1.4163578748703003,2.138420581817627,-0.5924846529960632
1684108305253677800,2.861677734375,1.1205027103424072,1.75740385055542,-0.1906212568283081
1684108305263718000,2.8717177734375,0.8625624179840088,1.324498176574707,0.006434202194213867
1684108305273758200,2.88175830078125,0.6749657392501831,0.8657817840576172,0.2937766909599304
1684108305283798300,2.89179833984375,0.48349082469940186,0.4097108840942383,0.5580382347106934
1684108305293838600,2.901838623046875,0.2594940662384033,0.008273124694824219,0.6809443235397339
1684108305303878700,2.911878662109375,0.2065131664276123,-0.25542545318603516,0.797359049320221
1684108305313918700,2.921918701171875,0.37786227464675903,-0.39101219177246094,0.8146547675132751
1684108305323959000,2.931958984375,0.6437218189239502,-0.4030752182006836,0.5954424738883972
1684108305333999000,2.9419990234375,0.9260048270225525,-0.29129695892333984,0.45797377824783325
1684108305344039400,2.952039306640625,1.0785744190216064,-0.20833110809326172,0.4960574507713318
1684108305354079500,2.96207958984375,1.1307233572006226,-0.26621246337890625,0.7317385673522949
1684108305364119600,2.97211962890625,1.1604984998703003,-0.36905574798583984,0.9299088716506958
1684108305374160000,2.982159912109375,1.0972594022750854,-0.6362972259521484,1.07175612449646
1684108305384200000,2.992199951171875,0.9629300832748413,-0.7075595855712891,1.1725120544433594
1684108305394240300,3.002240234375,0.8772286176681519,-0.6077156066894531,1.0565941333770752
1684108305404280300,3.0122802734375,0.8797198534011841,-0.253936767578125,0.7752506136894226
1684108305414320400,3.0223203125,1.0154271125793457,0.30780792236328125,0.3976776599884033
1684108305424360700,3.032360595703125,1.206111192703247,0.6978158950805664,0.05951344966888428
1684108305434400800,3.04240087890625,1.3988147974014282,0.9003105163574219,-0.07595419883728027
1684108305444441000,3.052441162109375,1.5495963096618652,1.021193504333496,-0.01826310157775879
1684108305454481200,3.062481201171875,1.6105927228927612,1.0775985717773438,0.10327374935150146
1684108305464521200,3.072521240234375,1.535261631011963,0.8286333084106445,0.16530370712280273
1684108305474561500,3.0825615234375,1.4365981817245483,0.6640596389770508,0.237245112657547
1684108305484601600,3.0926015625,1.3271923065185547,0.5309791564941406,0.30065301060676575
1684108305494642000,3.102641845703125,1.2783606052398682,0.5342321395874023,0.3187589943408966
1684108305504682000,3.112681884765625,1.2835323810577393,0.5205793380737305,0.39785027503967285
1684108305514722000,3.12272216796875,1.296019434928894,0.5352973937988281,0.44156497716903687
1684108305524762400,3.132762451171875,1.2803078889846802,0.4539613723754883,0.4659118950366974
1684108305534802400,3.142802490234375,1.2604855298995972,0.3886270523071289,0.46137043833732605
1684108305544842800,3.1528427734375,1.1439827680587769,0.26958656311035156,0.49350211024284363
1684108305554882800,3.1628828125,1.0512936115264893,0.1062021255493164,0.5334808230400085
1684108305564923000,3.1729228515625,0.9753230810165405,-0.1325693130493164,0.5603082776069641
1684108305574963200,3.182963134765625,0.8500884175300598,-0.30802345275878906,0.5910419225692749
1684108305585003300,3.193003173828125,0.798093318939209,-0.3057222366333008,0.6230775117874146
1684108305595043600,3.203043701171875,0.7515567541122437,-0.2503328323364258,0.660677433013916
1684108305605083600,3.213083740234375,0.6889404058456421,-0.1659097671508789,0.6010653376579285
1684108305615123700,3.223123779296875,0.6007634401321411,-0.07642841339111328,0.6612293720245361
1684108305625164000,3.2331640625,0.5147632360458374,0.0086822509765625,0.7296622395515442
1684108305635204000,3.2432041015625,0.4324333667755127,0.061107635498046875,0.7048046588897705
1684108305645244400,3.253244384765625,0.35671693086624146,-0.009294509887695312,0.6573712229728699
1684108305655284500,3.263284423828125,0.30119961500167847,-0.1275777816772461,0.5555752515792847
1684108305665324500,3.273324462890625,0.2502581477165222,-0.2595787048339844,0.45146119594573975
1684108305675364900,3.28336474609375,0.22502577304840088,-0.4193115234375,0.33418452739715576
1684108305685405000,3.293405029296875,0.2357766032218933,-0.44690513610839844,0.14181458950042725
1684108305695445200,3.3034453125,0.29734981060028076,-0.4737672805786133,0.010293960571289062
1684108305705485300,3.3134853515625,0.3699986934661865,-0.43735408782958984,-0.0724644660949707
1684108305715525400,3.323525390625,0.42309343814849854,-0.3875246047973633,-0.17079246044158936
1684108305725565700,3.333565673828125,0.4732514023780823,-0.2667112350463867,-0.30051136016845703
1684108305735605800,3.343605712890625,0.4911535978317261,-0.1299571990966797,-0.5168900489807129
1684108305745646000,3.35364599609375,0.4527128338813782,-0.04170703887939453,-0.7698588371276855
1684108305755686100,3.36368603515625,0.42476654052734375,0.031612396240234375,-1.0475468635559082
1684108305765726200,3.373726318359375,0.4206686019897461,0.04736137390136719,-1.1742591857910156
1684108305775766500,3.3837666015625,0.455346941947937,0.044264793395996094,-1.2565202713012695
1684108305785806600,3.393806640625,0.43982768058776855,0.13704586029052734,-1.3157165050506592
1684108305795847000,3.403846923828125,0.4761868119239807,0.3579883575439453,-1.2880749702453613
1684108305805887000,3.413886962890625,0.5338125228881836,0.639958381652832,-1.4236876964569092
1684108305815927300,3.42392724609375,0.5776355266571045,0.6548032760620117,-1.2639610767364502
1684108305825967400,3.43396728515625,0.6462669968605042,0.5517244338989258,-0.983299970626831
1684108305836007400,3.44400732421875,0.6966373920440674,0.4674720764160156,-0.7148730754852295
1684108305846047700,3.4540478515625,0.7210283875465393,0.3232746124267578,-0.5569641590118408
1684108305856087800,3.464087890625,0.7092530727386475,0.14551067352294922,-0.4137418270111084
1684108305866128100,3.474128173828125,0.6223713159561157,-0.015601158142089844,-0.21143555641174316
1684108305876168200,3.484168212890625,0.5125207304954529,-0.10265159606933594,-0.02278423309326172
1684108305886208300,3.494208251953125,0.4010735750198364,-0.1012105941772461,0.1913226842880249
1684108305896248600,3.50424853515625,0.2694321274757385,-0.07336139678955078,0.3439662456512451
1684108305906288600,3.51428857421875,0.14491212368011475,-0.10273456573486328,0.3950536251068115
1684108305916329000,3.524328857421875,0.06188398599624634,-0.10333633422851562,0.3719780445098877
1684108305926369000,3.534369140625,-0.008069097995758057,-0.08970832824707031,0.32342445850372314
1684108305936409000,3.5444091796875,-0.023993074893951416,-0.07877635955810547,0.2909637689590454
1684108305946449400,3.554449462890625,0.014381587505340576,-0.010931968688964844,0.255950927734375
1684108305956489500,3.564489501953125,0.10504919290542603,0.02541637420654297,0.280276894569397
1684108305966529800,3.57452978515625,0.1814669370651245,-0.0006351470947265625,0.282543420791626
1684108305976569900,3.58456982421875,0.23681366443634033,-0.03869342803955078,0.2840077877044678
1684108305986610000,3.59460986328125,0.2877733111381531,-0.16492748260498047,0.32431304454803467
1684108305996650200,3.604650146484375,0.35773926973342896,-0.23322677612304688,0.37828707695007324
1684108306006690300,3.614690185546875,0.4364092946052551,-0.24586009979248047,0.4372568130493164
1684108306016730600,3.624730712890625,0.558547854423523,-0.20528411865234375,0.4456174373626709
1684108306026770700,3.634770751953125,0.6516554951667786,-0.13793468475341797,0.4105795621871948
1684108306036810800,3.644810791015625,0.7029617428779602,-0.07738685607910156,0.32277750968933105
1684108306046851000,3.65485107421875,0.7216524481773376,-0.08806705474853516,0.24187016487121582
1684108306056891100,3.66489111328125,0.6714410781860352,-0.10776329040527344,0.13927245140075684
1684108306066931500,3.674931396484375,0.5974146127700806,-0.09596443176269531,0.005805492401123047
1684108306076971500,3.684971435546875,0.4874422550201416,-0.040793418884277344,-0.08699750900268555
1684108306087011800,3.69501171875,0.3873656988143921,0.024127960205078125,-0.200911283493042
1684108306097052000,3.705052001953125,0.2840157747268677,0.043883323669433594,-0.3213365077972412
1684108306107092000,3.715092041015625,0.20000046491622925,0.07347774505615234,-0.40483856201171875
1684108306117132300,3.72513232421875,0.1313512921333313,0.06985855102539062,-0.5537660121917725
1684108306127172400,3.73517236328125,0.057115018367767334,0.04745197296142578,-0.7105245590209961
1684108306137212700,3.745212646484375,-0.008278369903564453,0.08497905731201172,-0.8626112937927246
1684108306147252700,3.755252685546875,-0.03651547431945801,0.11758232116699219,-1.0520858764648438
1684108306157292800,3.765292724609375,0.0052776336669921875,0.23333168029785156,-1.306304931640625
1684108306167333000,3.7753330078125,0.009562849998474121,0.2908763885498047,-1.5163984298706055
1684108306177373200,3.785373291015625,0.012335538864135742,0.3189201354980469,-1.59836745262146
1684108306187413500,3.79541357421875,-0.017872750759124756,0.39624977111816406,-1.5832886695861816
1684108306197453600,3.80545361328125,-0.021899402141571045,0.44847965240478516,-1.4418411254882812
1684108306207493600,3.81549365234375,-0.0046231746673583984,0.4782590866088867,-0.9651401042938232
1684108306217534000,3.825533935546875,0.051219940185546875,0.46469688415527344,-0.4763617515563965
1684108306227574000,3.835573974609375,0.14834296703338623,0.4131174087524414,-0.0610201358795166
1684108306237614300,3.8456142578125,0.21751266717910767,0.23259353637695312,0.036509037017822266
1684108306247654400,3.855654296875,0.25312358140945435,0.01845836639404297,0.031685829162597656
1684108306257694500,3.865694580078125,0.335111141204834,-0.10248184204101562,0.21495580673217773
1684108306267734800,3.87573486328125,0.3322104811668396,-0.18256092071533203,0.3665761947631836
1684108306277774800,3.88577490234375,0.32664597034454346,-0.26951122283935547,0.405068039894104
1684108306287815200,3.895815185546875,0.3016754984855652,-0.3060941696166992,0.4337855577468872
1684108306297855200,3.905855224609375,0.25755906105041504,-0.25403881072998047,0.597608208656311
1684108306307895300,3.915895263671875,0.20926004648208618,-0.2447338104248047,0.7522704601287842
1684108306317935600,3.925935546875,0.18763861060142517,-0.21840858459472656,0.8167389631271362
1684108306327975700,3.9359755859375,0.17110475897789001,-0.18946075439453125,0.8701763153076172
1684108306338016000,3.94601611328125,0.17601141333580017,-0.15072059631347656,0.9530657529830933
1684108306348056000,3.95605615234375,0.15695703029632568,-0.10219669342041016,0.938705563545227
1684108306358096400,3.966096435546875,0.13850143551826477,-0.14421558380126953,0.8872041702270508
1684108306368136400,3.976136474609375,0.1351476013660431,-0.16908836364746094,0.7174886465072632
1684108306378176500,3.986176513671875,0.15414679050445557,-0.1315317153930664,0.5041055679321289
1684108306388216800,3.996216796875,0.17851129174232483,-0.1369171142578125,0.27399730682373047
1684108306398257000,4.0062568359375,0.212967187166214,-0.10404682159423828,0.10408353805541992
1684108306408297200,4.016297119140625,0.22885051369667053,-0.0832357406616211,-0.08428955078125
1684108306418337300,4.026337158203125,0.2312586009502411,-0.043465614318847656,-0.22151589393615723
1684108306428377600,4.036377685546875,0.20845302939414978,0.029460906982421875,-0.29777026176452637
1684108306438417700,4.046417724609375,0.24420130252838135,0.1211395263671875,-0.34666895866394043
1684108306448457700,4.056457763671875,0.21436992287635803,0.11450386047363281,-0.3634781837463379
1684108306458498000,4.066498046875,0.21467015147209167,0.14117145538330078,-0.3412466049194336
1684108306468538000,4.0765380859375,0.21381613612174988,0.0960073471069336,-0.3113114833831787
1684108306478578400,4.086578369140625,0.2401861846446991,0.03647041320800781,-0.22821569442749023
1684108306488618500,4.096618408203125,0.24817311763763428,-0.011109352111816406,-0.14719414710998535
1684108306498658600,4.106658447265625,0.2714051902294159,-0.0061664581298828125,-0.11838054656982422
1684108306508699000,4.116698974609375,0.2812906503677368,-0.0037078857421875,-0.08456873893737793
1684108306518739000,4.126739013671875,0.34010493755340576,0.0010852813720703125,-0.0865628719329834
1684108306528779300,4.136779296875,0.406984806060791,0.02490520477294922,-0.062137603759765625
1684108306538819300,4.1468193359375,0.48125672340393066,0.029489517211914062,-0.06874608993530273
1684108306548859600,4.156859619140625,0.5482779741287231,0.03160667419433594,-0.07532024383544922
1684108306558899700,4.166899658203125,0.6028908491134644,0.026468276977539062,-0.07940101623535156
1684108306568939800,4.176939697265625,0.6377454996109009,0.0021495819091796875,-0.04755902290344238
1684108306578980000,4.18697998046875,0.6362923383712769,-0.03411865234375,-0.03487086296081543
1684108306589020200,4.197020263671875,0.613336980342865,-0.039315223693847656,0.011253595352172852
1684108306599060500,4.207060546875,0.5743055939674377,-0.190277099609375,0.08135604858398438
1684108306609100500,4.2171005859375,0.5203725695610046,-0.2574605941772461,0.1805044412612915
1684108306619140600,4.227140625,0.47058430314064026,-0.19557476043701172,0.28169918060302734
1684108306629181000,4.237180908203125,0.5159673690795898,-0.12194347381591797,0.31065356731414795
1684108306639221000,4.247220947265625,0.5164169669151306,-0.1844320297241211,0.25203120708465576
1684108306649261300,4.25726123046875,0.5312926173210144,-0.17019939422607422,0.2416222095489502
1684108306659301400,4.26730126953125,0.5184777975082397,-0.009634971618652344,0.15269219875335693
1684108306669341400,4.277341552734375,0.5289593935012817,0.204833984375,-0.1356046199798584
1684108306679381800,4.2873818359375,0.48154646158218384,0.31679534912109375,-0.10567665100097656
1684108306689421800,4.297421875,0.36808183789253235,0.2692279815673828,-0.11634683609008789
1684108306699462100,4.307462158203125,0.2770926356315613,0.1234893798828125,-0.298215389251709
1684108306709502200,4.317502197265625,0.21368640661239624,0.015351295471191406,-0.25535154342651367
1684108306719542500,4.32754248046875,0.12841223180294037,-0.020448684692382812,-0.16869664192199707
1684108306729582600,4.33758251953125,0.1525520533323288,-0.11960697174072266,-0.17448639869689941
1684108306739622700,4.34762255859375,0.2182610034942627,-0.12811946868896484,-0.05208301544189453
1684108306749663000,4.3576630859375,0.3194468319416046,-0.09212207794189453,0.10167431831359863
1684108306759703000,4.367703125,0.4474928081035614,0.018301963806152344,0.22487270832061768
1684108306769743400,4.377743408203125,0.5604333281517029,0.004260063171386719,0.2895214557647705
1684108306779783400,4.387783447265625,0.6756551265716553,0.09875202178955078,0.3148374557495117
1684108306789823700,4.39782373046875,0.7915109992027283,0.19875621795654297,0.1865074634552002
1684108306799863800,4.40786376953125,0.8949086666107178,0.23123836517333984,0.11454248428344727
1684108306809904000,4.417904052734375,0.985381007194519,0.18320751190185547,-0.02410125732421875
1684108306819944200,4.427944091796875,1.0163242816925049,0.16431522369384766,-0.1152958869934082
1684108306829984300,4.437984375,1.0539348125457764,0.17441177368164062,-0.07930660247802734
1684108306840024600,4.448024658203125,0.9865832924842834,0.139923095703125,-0.3065378665924072
1684108306850064600,4.458064697265625,0.9152206778526306,0.14800643920898438,-0.42703771591186523
1684108306860105000,4.46810498046875,0.8867454528808594,-0.0989084243774414,-0.3880293369293213
1684108306870145000,4.47814501953125,0.8869428634643555,-0.1796875,-0.32106733322143555
1684108306880185000,4.48818505859375,0.9837214946746826,-0.21947288513183594,-0.33293652534484863
1684108306890225400,4.498225341796875,1.0467636585235596,-0.1618175506591797,-0.16109299659729004
1684108306900265500,4.508265380859375,1.0335990190505981,-0.08101463317871094,-0.09237265586853027
1684108306910305800,4.518305908203125,1.067284107208252,-0.06032371520996094,-0.1416792869567871
1684108306920345900,4.528345947265625,1.0940940380096436,0.009378433227539062,-0.04230546951293945
1684108306930386000,4.538385986328125,1.119130253791809,0.10620307922363281,0.026913166046142578
1684108306940426200,4.54842626953125,1.1127564907073975,0.26511669158935547,0.12311172485351562
1684108306950466300,4.55846630859375,1.0673089027404785,0.4286031723022461,0.13327085971832275
1684108306960506600,4.568506591796875,0.9637936949729919,0.5636768341064453,0.035509586334228516
1684108306970546700,4.578546630859375,0.7818998694419861,0.6518945693969727,-0.0995640754699707
1684108306980587000,4.5885869140625,0.45313745737075806,0.6609106063842773,-0.2590494155883789
1684108306990627000,4.598626953125,0.0009959936141967773,0.5941982269287109,-0.44013500213623047
1684108307000667400,4.60866748046875,-0.5165334343910217,0.4995889663696289,-0.6207635402679443
1684108307010707500,4.61870751953125,-1.0083613395690918,0.4873533248901367,-0.7714593410491943
1684108307020747500,4.62874755859375,-1.2525725364685059,0.3350706100463867,-0.6765589714050293
1684108307030787800,4.638787841796875,-1.2425719499588013,0.2254657745361328,-0.5082273483276367
1684108307040828000,4.648827880859375,-1.0009026527404785,0.16852474212646484,-0.3303992748260498
1684108307050868200,4.6588681640625,-0.6643717288970947,0.1621112823486328,-0.09497261047363281
1684108307060908300,4.668908203125,-0.4030771255493164,0.1915283203125,-0.006049156188964844
1684108307070948600,4.678948486328125,-0.3516862392425537,0.20372867584228516,-0.020850658416748047
1684108307080988700,4.68898876953125,-0.4394538402557373,0.26581287384033203,-0.05976414680480957
1684108307091028700,4.69902880859375,-0.5839539766311646,0.2658052444458008,-0.06244325637817383
1684108307101069000,4.709069091796875,-0.6234519481658936,0.3161430358886719,-0.11820411682128906
1684108307111109000,4.719109130859375,-0.4807826280593872,0.2853126525878906,-0.11016201972961426
1684108307121149400,4.7291494140625,-0.23542821407318115,0.24773311614990234,-0.041356801986694336
1684108307131189500,4.739189453125,-0.010498046875,0.18930625915527344,0.08084702491760254
1684108307141229600,4.7492294921875,0.06943225860595703,0.045691490173339844,0.1632702350616455
1684108307151270000,4.759269775390625,-0.0398554801940918,-0.09455490112304688,0.21516895294189453
1684108307161310000,4.76931005859375,-0.3237262964248657,-0.2770118713378906,0.19778728485107422
1684108307171350300,4.779350341796875,-0.7521960735321045,-0.5018520355224609,0.1341238021850586
1684108307181390300,4.789390380859375,-1.197851300239563,-0.6258068084716797,0.003763914108276367
1684108307191430700,4.7994306640625,-1.625554084777832,-0.7255945205688477,-0.21321392059326172
1684108307201470700,4.809470703125,-2.0444812774658203,-0.8826436996459961,-0.4875907897949219
1684108307211510800,4.8195107421875,-2.2723629474639893,-0.9294548034667969,-0.611269474029541
1684108307221551000,4.829551025390625,-2.2462005615234375,-0.906153678894043,-0.44452953338623047
1684108307231591200,4.839591064453125,-2.1004836559295654,-0.8269262313842773,-0.06640362739562988
1684108307241631500,4.849631591796875,-1.9544146060943604,-0.6112985610961914,0.2763315439224243
1684108307251671600,4.859671630859375,-1.78675377368927,-0.4416379928588867,0.5915740728378296
1684108307261712000,4.8697119140625,-1.5171692371368408,-0.38259220123291016,0.7838143110275269
1684108307271752000,4.879751953125,-1.15788733959198,-0.35030269622802734,0.8891501426696777
1684108307281792300,4.889792236328125,-0.7772303819656372,-0.2729835510253906,0.8964592218399048
1684108307291832300,4.899832275390625,-0.4964488744735718,-0.15754127502441406,0.8106486797332764
1684108307301872400,4.909872314453125,-0.3100060224533081,-0.025116920471191406,0.6961221694946289
1684108307311912700,4.91991259765625,-0.24000155925750732,0.09587955474853516,0.5190684795379639
1684108307321952800,4.929952880859375,-0.2509927749633789,0.20088768005371094,0.40366435050964355
1684108307331993000,4.9399931640625,-0.295212984085083,0.2776975631713867,0.26540040969848633
1684108307342033200,4.950033203125,-0.3983602523803711,0.39498329162597656,0.1928269863128662
1684108307352073200,4.9600732421875,-0.559065580368042,0.3572864532470703,0.3188023567199707
1684108307362113500,4.970113525390625,-0.6823509931564331,0.3133859634399414,0.40102672576904297
1684108307372153600,4.980153564453125,-0.7529927492141724,0.2487812042236328,0.4299590587615967
1684108307382194000,4.99019384765625,-0.8369848728179932,0.20129013061523438,0.46886515617370605
1684108307392234000,5.00023388671875,-0.859909176826477,0.08709716796875,0.5230004787445068
1684108307402274300,5.0102744140625,-0.7914565801620483,-0.05547142028808594,0.47603487968444824
1684108307412314400,5.020314453125,-0.7262036800384521,-0.18332290649414062,0.3984326124191284
1684108307422354700,5.030354736328125,-0.7128726243972778,-0.2891864776611328,0.338276743888855
1684108307432394800,5.040394775390625,-0.6486866474151611,-0.3419351577758789,0.1731511354446411
1684108307442434800,5.050434814453125,-0.5588507652282715,-0.32015323638916016,0.049944519996643066
1684108307452475100,5.06047509765625,-0.3770207166671753,-0.2384328842163086,-0.13088715076446533
1684108307462515200,5.07051513671875,-0.23257124423980713,-0.03071117401123047,-0.2799028158187866
1684108307472555500,5.080555419921875,-0.05329775810241699,0.1326446533203125,-0.411993145942688
1684108307482595600,5.090595703125,0.1456007957458496,0.2491598129272461,-0.6114040613174438
1684108307492636000,5.100635986328125,0.19276690483093262,0.24500179290771484,-0.5852041244506836
1684108307502676000,5.110676025390625,0.21721434593200684,0.2162628173828125,-0.6046637296676636
1684108307512716000,5.120716064453125,0.1036003828048706,0.1732616424560547,-0.3951890468597412
1684108307522756400,5.13075634765625,-0.2905740737915039,0.10260295867919922,-0.14371204376220703
1684108307532796400,5.14079638671875,-0.7541439533233643,0.04776477813720703,0.08509397506713867
1684108307542836700,5.150836669921875,-1.1171777248382568,0.018178939819335938,0.21723592281341553
1684108307552876800,5.160876708984375,-1.4107563495635986,-0.08938980102539062,0.31454479694366455
1684108307562917000,5.170917236328125,-1.4437557458877563,-0.09411048889160156,0.14202046394348145
1684108307572957200,5.180957275390625,-1.1465445756912231,0.04624176025390625,-0.061931490898132324
1684108307582997500,5.19099755859375,-0.6895601749420166,0.1403207778930664,-0.29997777938842773
1684108307593037600,5.20103759765625,-0.25059354305267334,0.21729469299316406,-0.4229121208190918
1684108307603077600,5.21107763671875,0.12397456169128418,0.21805477142333984,-0.4445645809173584
1684108307613118000,5.221117919921875,0.4128197431564331,0.20332813262939453,-0.38098859786987305
1684108307623158000,5.231157958984375,0.4256850481033325,0.12418460845947266,0.11208534240722656
1684108307633198300,5.2411982421875,0.2211672067642212,-0.044569969177246094,0.7886476516723633
1684108307643238400,5.25123828125,-0.126487135887146,-0.22875213623046875,1.4466115236282349
1684108307653278700,5.26127880859375,-0.5025488138198853,-0.2628326416015625,1.8233797550201416
1684108307663318800,5.27131884765625,-0.8596808910369873,-0.09726524353027344,1.8688796758651733
1684108307673358800,5.28135888671875,-0.885085940361023,0.43702220916748047,0.9435057044029236
1684108307683399200,5.291399169921875,-0.7250567674636841,0.9647989273071289,-0.6312799453735352
1684108307693439200,5.301439208984375,-0.15287518501281738,1.1428470611572266,-1.2618749141693115
1684108307703479600,5.3114794921875,0.5212934017181396,1.155766487121582,-1.3816004991531372
1684108307713519600,5.32151953125,1.0251116752624512,1.0655632019042969,-1.3554414510726929
1684108307723560000,5.331559814453125,1.2134473323822021,0.9216108322143555,-1.2582191228866577
1684108307733600000,5.34160009765625,1.1518142223358154,0.7487936019897461,-1.0481053590774536
1684108307743640300,5.351640380859375,1.0284457206726074,0.5806655883789062,-0.7617440223693848
1684108307753680400,5.361680419921875,0.9299056529998779,0.4882926940917969,-0.411662220954895
1684108307763720400,5.371720458984375,0.8473668098449707,0.3971519470214844,-0.13796329498291016
1684108307773760800,5.3817607421875,0.7068336009979248,0.3023223876953125,0.12240427732467651
1684108307783800800,5.39180078125,0.4950675964355469,0.24177074432373047,0.2550210952758789
1684108307793841200,5.401841064453125,0.21207332611083984,0.2197113037109375,0.27942758798599243
1684108307803881200,5.411881103515625,-0.13681495189666748,0.20446491241455078,0.20546609163284302
1684108307813921500,5.421921630859375,-0.6200193166732788,0.17876720428466797,0.12402009963989258
1684108307823961600,5.431961669921875,-1.0460731983184814,0.17563247680664062,-0.03375732898712158
1684108307834001700,5.442001708984375,-1.3757754564285278,0.18041515350341797,-0.09711384773254395
1684108307844042000,5.4520419921875,-1.6167778968811035,0.2264719009399414,-0.20354223251342773
1684108307854082000,5.46208203125,-1.7505271434783936,0.2539196014404297,-0.3277585506439209
1684108307864122400,5.472122314453125,-1.8319615125656128,0.25761890411376953,-0.43461310863494873
1684108307874162400,5.482162353515625,-1.7171058654785156,0.29013824462890625,-0.4826275110244751
1684108307884202800,5.49220263671875,-1.265044093132019,0.32099342346191406,-0.5550742149353027
1684108307894242800,5.502242919921875,-0.8486056327819824,0.36994361877441406,-0.6180547475814819
1684108307904283100,5.512283203125,-0.5842717885971069,0.4566011428833008,-0.6687995195388794
1684108307914323200,5.5223232421875,-0.4242013692855835,0.6193771362304688,-0.7260839939117432
1684108307924363300,5.53236328125,-0.3037194013595581,0.8510236740112305,-0.8526904582977295
1684108307934403600,5.542403564453125,-0.25864577293395996,1.1130657196044922,-0.9401190280914307
1684108307944443600,5.552443603515625,-0.33718907833099365,1.2979068756103516,-0.9395129680633545
1684108307954484000,5.56248388671875,-0.4917980432510376,1.324509620666504,-0.8908731937408447
1684108307964524000,5.57252392578125,-0.7478247880935669,1.1786794662475586,-0.8677747249603271
1684108307974564400,5.582564453125,-0.9335696697235107,0.9559469223022461,-0.8629363775253296
1684108307984604400,5.5926044921875,-1.0213407278060913,0.6777162551879883,-0.7789804935455322
1684108307994644500,5.60264453125,-1.0261974334716797,0.38732242584228516,-0.7078409194946289
1684108308004684800,5.612684814453125,-0.9819263219833374,0.1737813949584961,-0.5476148128509521
1684108308014724900,5.622724853515625,-0.8776127099990845,0.05428886413574219,-0.3367575407028198
1684108308024765200,5.63276513671875,-0.7067196369171143,-0.0782766342163086,-0.03948962688446045
1684108308034805200,5.64280517578125,-0.5705995559692383,-0.09705543518066406,0.1787891387939453
1684108308044845600,5.652845458984375,-0.48939287662506104,-0.0836639404296875,0.4155081510543823
1684108308054885600,5.6628857421875,-0.3572707176208496,-0.024309158325195312,0.6793276071548462
1684108308064926000,5.672926025390625,-0.24992620944976807,-0.10571098327636719,0.8779538869857788
1684108308074966000,5.682966064453125,-0.16757667064666748,-0.41356563568115234,1.067464828491211
1684108308085006000,5.693006103515625,-0.0574038028717041,-0.462188720703125,1.353974461555481
1684108308095046400,5.70304638671875,0.02476179599761963,-0.3016929626464844,1.5418758392333984
1684108308105086500,5.71308642578125,0.11043381690979004,-0.14663219451904297,1.7537351846694946
1684108308115126800,5.723126708984375,0.1181483268737793,-0.05129241943359375,1.767217755317688
1684108308125166800,5.733166748046875,0.026656270027160645,-0.3283109664916992,1.3959271907806396
1684108308135207200,5.743207275390625,-0.030097246170043945,-0.9102230072021484,0.8614211082458496
1684108308145247200,5.753247314453125,-0.1307082176208496,-1.4573516845703125,0.5483064651489258
1684108308155287600,5.76328759765625,-0.4022824764251709,-1.5117416381835938,0.27642595767974854
1684108308165327600,5.77332763671875,-0.8357177972793579,-1.2807435989379883,0.0588686466217041
1684108308175368000,5.783367919921875,-1.2864753007888794,-1.2909784317016602,-0.16027116775512695
1684108308185408000,5.793407958984375,-1.7440327405929565,-1.7523279190063477,-0.4444401264190674
1684108308195448000,5.803447998046875,-2.7899444103240967,-2.308380126953125,-0.6270871162414551
1684108308205488400,5.81348828125,-4.513724327087402,-2.7141056060791016,-0.41527724266052246
1684108308215528400,5.823528564453125,-5.188809394836426,-2.3738880157470703,0.2831552028656006
1684108308225568800,5.83356884765625,-3.836860179901123,-1.4423913955688477,1.101089358329773
1684108308235608800,5.84360888671875,-1.6652461290359497,-0.5747766494750977,1.631279706954956
1684108308245649200,5.853649169921875,0.24253177642822266,0.007918357849121094,1.9902981519699097
1684108308255689200,5.863689208984375,1.4587740898132324,0.3405342102050781,1.9109737873077393
1684108308265729500,5.8737294921875,2.007537364959717,0.6575202941894531,1.3350932598114014
1684108308275769600,5.88376953125,1.9484238624572754,0.7461690902709961,0.3002206087112427
1684108308285810000,5.893809814453125,1.7135658264160156,0.7194089889526367,-0.6332402229309082
1684108308295850000,5.90385009765625,1.3585865497589111,0.7311382293701172,-1.2920308113098145
1684108308305890000,5.91389013671875,0.9180235862731934,0.8686027526855469,-1.5278935432434082
1684108308315930400,5.923930419921875,0.4704321622848511,0.8531637191772461,-1.5281500816345215
1684108308325970400,5.933970458984375,0.13003289699554443,0.8254489898681641,-1.5297236442565918
1684108308336010800,5.9440107421875,-0.033107638359069824,0.8379297256469727,-1.5968446731567383
1684108308346050800,5.95405078125,0.05824005603790283,0.7843265533447266,-1.372938632965088
1684108308356091100,5.964091064453125,0.4025593400001526,0.6817989349365234,-1.0085349082946777
1684108308366131200,5.974131103515625,0.9584267139434814,0.5401391983032227,-0.7167558670043945
1684108308376171300,5.984171142578125,1.4408429861068726,0.4886150360107422,-0.48371171951293945
1684108308386211600,5.994211669921875,1.8660460710525513,0.32936954498291016,-0.4498023986816406
1684108308396251600,6.004251708984375,2.131402015686035,0.1868896484375,-0.5657832622528076
1684108308406292000,6.0142919921875,2.228767156600952,0.04220294952392578,-0.6729245185852051
1684108308416332000,6.02433203125,2.135249614715576,-0.037428855895996094,-0.6543986797332764
1684108308426372400,6.034372314453125,1.9921245574951172,0.07392024993896484,-0.6839034557342529
1684108308436412400,6.044412353515625,1.7849822044372559,0.09505462646484375,-0.4322082996368408
1684108308446452500,6.054452392578125,1.4696736335754395,0.18511295318603516,-0.3206324577331543
1684108308456492800,6.064492919921875,0.9913821220397949,0.22676372528076172,-0.5043237209320068
1684108308466533000,6.074533203125,0.33036571741104126,0.2334766387939453,-0.7638607025146484
1684108308476573200,6.0845732421875,-0.4099285304546356,0.3642721176147461,-1.117030143737793
1684108308486613200,6.09461328125,-1.1171948909759521,0.4987955093383789,-1.3325181007385254
1684108308496653600,6.104653564453125,-1.6644673347473145,0.5388584136962891,-1.5301415920257568
1684108308506693600,6.114693603515625,-1.8206735849380493,0.5634555816650391,-1.6022531986236572
1684108308516734000,6.12473388671875,-1.5123294591903687,0.5941867828369141,-1.497239589691162
1684108308526774000,6.13477392578125,-0.8475878834724426,0.5570707321166992,-1.3654615879058838
1684108308536814300,6.144814453125,-0.08180530369281769,0.39266300201416016,-1.2072625160217285
1684108308546854400,6.1548544921875,0.5807529091835022,0.17786026000976562,-1.008896827697754
1684108308556894700,6.164894775390625,1.1062272787094116,-0.005799293518066406,-0.7090137004852295
1684108308566934800,6.174934814453125,1.4531700611114502,-0.15088176727294922,-0.37355995178222656
1684108308576975000,6.18497509765625,1.6803605556488037,-0.20701217651367188,-0.10894536972045898
1684108308587015200,6.19501513671875,1.8176382780075073,-0.18141841888427734,0.053340911865234375
1684108308597055500,6.205055419921875,1.9320507049560547,-0.17935562133789062,0.09913778305053711
1684108308607095600,6.215095458984375,2.012862205505371,-0.23190879821777344,0.11755037307739258
1684108308617135600,6.225135498046875,2.0913732051849365,-0.23382186889648438,0.17540216445922852
1684108308627176000,6.235176025390625,2.0941922664642334,-0.25436973571777344,0.2291417121887207
1684108308637216000,6.245216064453125,2.003746509552002,-0.3316335678100586,0.1875
1684108308647256300,6.25525634765625,1.7654045820236206,-0.3770875930786133,0.18874120712280273
1684108308657296400,6.26529638671875,1.4779343605041504,-0.2929496765136719,0.15843415260314941
1684108308667336700,6.275336669921875,1.0620324611663818,-0.17273235321044922,0.022333621978759766
1684108308677376800,6.285376708984375,0.6151132583618164,-0.05016517639160156,-0.19724774360656738
1684108308687417000,6.2954169921875,0.17610062658786774,0.06485652923583984,-0.4579033851623535
1684108308697457200,6.30545703125,-0.18768435716629028,0.1746234893798828,-0.648449182510376
1684108308707497500,6.31549755859375,-0.4796980023384094,0.20996475219726562,-0.8590874671936035
1684108308717537500,6.32553759765625,-0.6388887763023376,0.23065567016601562,-1.0551176071166992
1684108308727577600,6.33557763671875,-0.6546492576599121,0.2914848327636719,-1.1806492805480957
1684108308737618000,6.345617919921875,-0.5252888202667236,0.2824821472167969,-1.169126272201538
1684108308747658000,6.355657958984375,-0.2879469394683838,0.2705955505371094,-1.0830411911010742
1684108308757698300,6.3656982421875,-0.05976015329360962,0.23898887634277344,-0.8889729976654053
1684108308767738400,6.37573828125,0.1870279610157013,0.19265079498291016,-0.6405520439147949
1684108308777778700,6.38577880859375,0.37501636147499084,0.15795421600341797,-0.4553689956665039
1684108308787818800,6.39581884765625,0.5651657581329346,0.1516551971435547,-0.30030155181884766
1684108308797859000,6.405859130859375,0.73900306224823,0.13788509368896484,-0.20425963401794434
1684108308807899100,6.415899169921875,0.8331214189529419,0.1429882049560547,-0.09586119651794434
1684108308817939200,6.425939208984375,0.9230709075927734,0.1239786148071289,-0.030373334884643555
1684108308827979500,6.4359794921875,0.9536455869674683,0.0880880355834961,0.03045964241027832
1684108308838019600,6.44601953125,0.9516658782958984,0.06409263610839844,-0.00439143180847168
1684108308848060000,6.456059814453125,0.886699914932251,0.035239219665527344,-0.01521754264831543
1684108308858100000,6.466099853515625,0.7930179834365845,0.05638408660888672,-0.03513622283935547
1684108308868140300,6.476140380859375,0.7094837427139282,0.017518997192382812,-0.04486966133117676
1684108308878180400,6.486180419921875,0.5891254544258118,-0.02377605438232422,-0.011370182037353516
1684108308888220700,6.496220703125,0.48058417439460754,-0.06979751586914062,0.024410009384155273
1684108308898260700,6.5062607421875,0.3729379177093506,-0.14200496673583984,0.04106926918029785
1684108308908301000,6.516301025390625,0.2647438049316406,-0.1924428939819336,0.05505704879760742
1684108308918341000,6.526341064453125,0.19988512992858887,-0.2592935562133789,0.11401724815368652
1684108308928381200,6.536381103515625,0.15708404779434204,-0.29467201232910156,0.14836478233337402
1684108308938421500,6.54642138671875,0.14083224534988403,-0.2819709777832031,0.17499852180480957
1684108308948461800,6.5564619140625,0.12417814135551453,-0.23572731018066406,0.19179868698120117
1684108308958502000,6.566501953125,0.1283397376537323,-0.19187068939208984,0.21078228950500488
1684108308968542200,6.576542236328125,0.10508593916893005,-0.18400001525878906,0.23729825019836426
1684108308978582300,6.586582275390625,0.11693352460861206,-0.1905679702758789,0.30257654190063477
1684108308988622300,6.596622314453125,0.13560974597930908,-0.14940834045410156,0.41361308097839355
1684108308998662700,6.60666259765625,0.20624691247940063,-0.09167003631591797,0.5009243488311768
1684108309008702700,6.61670263671875,0.25402599573135376,-0.058045387268066406,0.581369161605835
1684108309018743000,6.626742919921875,0.32122454047203064,-0.055716514587402344,0.6598634719848633
1684108309028783000,6.636783203125,0.3786473274230957,-0.04883766174316406,0.7102622985839844
1684108309038823400,6.646823486328125,0.43790319561958313,-0.056540489196777344,0.7278488874435425
1684108309048863500,6.656863525390625,0.5016494989395142,-0.07409286499023438,0.7249703407287598
1684108309058903800,6.66690380859375,0.5318245887756348,-0.10389041900634766,0.6277834177017212
1684108309068944000,6.67694384765625,0.5783705711364746,-0.16258525848388672,0.5676693916320801
1684108309078984200,6.686984130859375,0.5950642824172974,-0.22381877899169922,0.424929141998291
1684108309089024300,6.697024169921875,0.6082202196121216,-0.24957656860351562,0.2219557762145996
1684108309099064300,6.707064208984375,0.5780011415481567,-0.2373676300048828,0.15891051292419434
1684108309109104600,6.717104736328125,0.5836042165756226,-0.15127277374267578,0.007925987243652344
1684108309119144700,6.727144775390625,0.565575122833252,-0.032181739807128906,-0.029767513275146484
1684108309129185000,6.73718505859375,0.5476555228233337,0.010146141052246094,-0.0032215118408203125
1684108309139225000,6.74722509765625,0.5287137031555176,0.011864662170410156,-0.09521222114562988
1684108309149265400,6.757265380859375,0.5154321193695068,-0.005362510681152344,-0.13834786415100098
1684108309159305500,6.767305419921875,0.5163462162017822,-0.08143901824951172,-0.18940258026123047
1684108309169345800,6.777345703125,0.4878079295158386,-0.13779735565185547,-0.25278615951538086
1684108309179385900,6.7873857421875,0.4578830301761627,-0.08773136138916016,-0.22698044776916504
1684108309189426200,6.79742626953125,0.3872588872909546,-0.027217864990234375,-0.23804712295532227
1684108309199466200,6.80746630859375,0.30164554715156555,0.08833885192871094,-0.18408679962158203
1684108309209506600,6.817506591796875,0.21864870190620422,0.1474294662475586,-0.12275004386901855
1684108309219546600,6.827546630859375,0.17240387201309204,0.03071880340576172,-0.008600473403930664
1684108309229587000,6.8375869140625,0.18028414249420166,-0.2258901596069336,0.19057989120483398
1684108309239627000,6.847626953125,0.2355438470840454,-0.35364341735839844,0.47461628913879395
1684108309249667000,6.8576669921875,0.33752772212028503,-0.3895540237426758,0.746535062789917
1684108309259707400,6.867707275390625,0.4778153896331787,-0.41019535064697266,0.9490482807159424
1684108309269747500,6.87774755859375,0.5885162353515625,-0.382781982421875,1.0381510257720947
1684108309279787800,6.887787841796875,0.7366150617599487,-0.39775943756103516,1.0655077695846558
1684108309289827800,6.897827880859375,0.8491297960281372,-0.4592618942260742,0.989999532699585
1684108309299868200,6.9078681640625,0.9625657796859741,-0.460662841796875,0.9923479557037354
1684108309309908200,6.917908203125,0.9863221645355225,-0.513575553894043,0.9298450946807861
1684108309319948500,6.927948486328125,0.9594910144805908,-0.3985271453857422,0.7928187847137451
1684108309329988600,6.937988525390625,0.8783582448959351,-0.23865795135498047,0.6846158504486084
1684108309340029000,6.94802880859375,0.7345325350761414,-0.20120525360107422,0.6168851852416992
1684108309350069000,6.958069091796875,0.5543501973152161,-0.17074871063232422,0.49124860763549805
1684108309360109300,6.968109375,0.4142090678215027,-0.2014446258544922,0.29970598220825195
1684108309370149400,6.9781494140625,0.29866302013397217,-0.31835079193115234,0.06998634338378906
1684108309380189700,6.988189697265625,0.13852086663246155,-0.2819709777832031,0.07986855506896973
1684108309390229800,6.998229736328125,0.0725855827331543,-0.2664947509765625,-0.05415606498718262
1684108309400269800,7.008269775390625,-0.03907668590545654,-0.20090770721435547,-0.20497417449951172
1684108309410310100,7.01831005859375,-0.17210116982460022,-0.10468482971191406,-0.3328695297241211
1684108309420350200,7.02835009765625,-0.36087214946746826,-0.05385398864746094,-0.48711609840393066
1684108309430390500,7.038390625,-0.5001165866851807,-0.004192352294921875,-0.717719554901123
1684108309440430600,7.0484306640625,-0.6743754744529724,-0.03712272644042969,-0.8039875030517578
1684108309450471000,7.058470947265625,-0.7747888565063477,-0.17578601837158203,-0.7301957607269287
1684108309460511000,7.068510986328125,-0.8203837275505066,-0.2713661193847656,-0.682267427444458
1684108309470551300,7.07855126953125,-0.8149067759513855,-0.32393646240234375,-0.6868093013763428
1684108309480591400,7.08859130859375,-0.8218881487846375,-0.3885459899902344,-0.7534694671630859
1684108309490631700,7.098631591796875,-0.674166202545166,-0.42978954315185547,-0.6947402954101562
1684108309500671700,7.108671630859375,-0.4407270848751068,-0.4810218811035156,-0.626204252243042
1684108309510712000,7.118712158203125,-0.1900704801082611,-0.5542631149291992,-0.6671955585479736
1684108309520752000,7.128752197265625,0.02913762629032135,-0.6423759460449219,-0.8339109420776367
1684108309530792400,7.13879248046875,0.19184914231300354,-0.5560274124145508,-0.90543532371521
1684108309540832500,7.14883251953125,0.22233381867408752,-0.5076236724853516,-1.1745531558990479
1684108309550872800,7.158872802734375,0.13826078176498413,-0.3658027648925781,-1.399153709411621
1684108309560913000,7.168912841796875,-0.05632784962654114,-0.15767860412597656,-1.7495622634887695
1684108309570953000,7.178952880859375,-0.26312756538391113,0.05406761169433594,-2.0164122581481934
1684108309580993300,7.1889931640625,-0.45131468772888184,0.34840965270996094,-1.9972758293151855
1684108309591033600,7.19903369140625,-0.6548174023628235,0.4550180435180664,-2.117060899734497
1684108309601073700,7.20907373046875,-0.8948032259941101,0.7843198776245117,-2.172630548477173
1684108309611114000,7.219114013671875,-1.1781880855560303,1.0035200119018555,-1.951282262802124
1684108309621154000,7.229154052734375,-1.5030484199523926,1.0052070617675781,-1.888639211654663
1684108309631194000,7.239194091796875,-1.6819384098052979,0.8604726791381836,-1.8013606071472168
1684108309641234400,7.249234375,-1.6151351928710938,0.8076877593994141,-1.5863029956817627
1684108309651274500,7.2592744140625,-1.3599486351013184,0.721186637878418,-1.0447664260864258
1684108309661314800,7.269314697265625,-1.1244659423828125,0.5796413421630859,-0.8164033889770508
1684108309671355000,7.27935498046875,-0.845604658126831,0.4406003952026367,-0.42614030838012695
1684108309681395200,7.289395263671875,-0.4493284225463867,0.2811422348022461,0.009012460708618164
1684108309691435300,7.299435302734375,0.0028039216995239258,0.0686044692993164,0.1089775562286377
1684108309701475600,7.3094755859375,0.3712061047554016,0.16400146484375,0.3439638614654541
1684108309711515600,7.319515625,0.5731357336044312,0.6826143264770508,0.8746473789215088
1684108309721556000,7.329555908203125,0.8237876892089844,0.1916179656982422,0.9615252017974854
1684108309731596000,7.339595947265625,0.9940729737281799,-0.25383949279785156,0.8035852909088135
1684108309741636400,7.34963623046875,0.9389165043830872,-0.5511445999145508,0.6645421981811523
1684108309751676400,7.359676513671875,0.7561734914779663,-0.8698978424072266,0.5171115398406982
1684108309761716700,7.369716796875,0.4249722957611084,-0.663334846496582,0.4277529716491699
1684108309771756800,7.3797568359375,0.08511233329772949,-0.04532432556152344,0.4602484703063965
1684108309781796900,7.389796875,-0.20632517337799072,0.4860687255859375,0.710888147354126
1684108309791837200,7.399837158203125,-0.2672770023345947,0.8400754928588867,1.2378251552581787
1684108309801877500,7.40987744140625,-0.12964177131652832,1.0003652572631836,1.6846344470977783
1684108309811917600,7.41991748046875,0.0027866363525390625,1.2384285926818848,2.231729030609131
1684108309821958000,7.4299580078125,0.1313316822052002,1.4546518325805664,2.6351404190063477
1684108309831998000,7.439998046875,0.24314069747924805,1.4160280227661133,2.9164953231811523
1684108309842038000,7.4500380859375,0.24309229850769043,1.169327735900879,2.9993507862091064
1684108309852078300,7.460078369140625,0.17822670936584473,0.8300652503967285,2.908057689666748
1684108309862118400,7.470118408203125,0.10289502143859863,0.29283714294433594,2.5254440307617188
1684108309872158700,7.48015869140625,-0.0640418529510498,-0.04877662658691406,2.0431158542633057
1684108309882198800,7.49019873046875,-0.22902870178222656,-0.23688888549804688,1.5758633613586426
1684108309892239000,7.500239013671875,-0.4056274890899658,-0.2490520477294922,1.118492603302002
1684108309902279200,7.510279052734375,-0.589409351348877,-0.213104248046875,0.760077953338623
1684108309912319500,7.520319580078125,-0.7228341102600098,0.03268146514892578,0.5406463146209717
1684108309922359600,7.530359619140625,-0.7472081184387207,0.34874439239501953,0.288226842880249
1684108309932399900,7.54039990234375,-0.6757733821868896,0.5849285125732422,0.08133673667907715
1684108309942440000,7.55043994140625,-0.5659880638122559,0.7138681411743164,0.03346562385559082
1684108309952480300,7.560480224609375,-0.5164551734924316,0.8330936431884766,0.1014719009399414
1684108309962520300,7.570520263671875,-0.6216409206390381,0.9176263809204102,0.1515824794769287
1684108309972560600,7.580560546875,-0.9084746837615967,0.9190335273742676,0.13678812980651855
1684108309982600700,7.5906005859375,-1.3155078887939453,0.7486839294433594,-0.0864875316619873
1684108309992641000,7.60064111328125,-1.6682205200195312,0.6413230895996094,-0.11443090438842773
1684108310002681000,7.61068115234375,-1.9166924953460693,0.5460548400878906,0.04146099090576172
1684108310012721400,7.620721435546875,-2.1556150913238525,0.49634456634521484,0.25430893898010254
1684108310022761500,7.630761474609375,-2.3860719203948975,0.49021053314208984,0.5529613494873047
1684108310032801800,7.6408017578125,-2.536104679107666,0.10213470458984375,0.5294058322906494
1684108310042841900,7.650841796875,-2.321643590927124,-0.6130075454711914,0.28951263427734375
1684108310052882200,7.660882080078125,-1.6625034809112549,-0.9712648391723633,0.2218914031982422
1684108310062922200,7.670922119140625,-0.7344701290130615,-0.9557056427001953,0.04489779472351074
1684108310072962600,7.680962646484375,0.0731661319732666,-0.6735200881958008,-0.12917327880859375
1684108310083002600,7.691002685546875,0.5815930366516113,-0.3721122741699219,-0.21198654174804688
1684108310093042700,7.701042724609375,0.6321451663970947,-0.1822338104248047,-0.3633885383605957
1684108310103083000,7.7110830078125,0.3922114372253418,0.08002471923828125,-0.37582898139953613
1684108310113123000,7.721123046875,-0.19792962074279785,0.43296241760253906,-0.23970890045166016
1684108310123163400,7.731163330078125,-0.8825063705444336,0.6718158721923828,-0.14764642715454102
1684108310133203500,7.741203369140625,-1.1302955150604248,0.8941693305969238,-0.4495213031768799
1684108310143243800,7.751243896484375,-0.9152379035949707,1.1083364486694336,-0.839423656463623
1684108310153283800,7.761283935546875,-0.4759335517883301,1.1137323379516602,-1.1407580375671387
1684108310163324200,7.77132421875,-0.11272573471069336,0.992866039276123,-1.305391788482666
1684108310173364200,7.7813642578125,0.23620223999023438,0.7610435485839844,-1.3160724639892578
1684108310183404500,7.791404541015625,0.5382987260818481,0.4481668472290039,-1.2243216037750244
1684108310193444600,7.801444580078125,0.6620743274688721,0.12498283386230469,-1.073866367340088
1684108310203485000,7.81148486328125,0.6343101263046265,0.056087493896484375,-0.6761288642883301
1684108310213525000,7.82152490234375,0.6203547716140747,0.14091110229492188,-0.2543964385986328
1684108310223565300,7.8315654296875,0.5647760629653931,0.31290721893310547,0.11329174041748047
1684108310233605400,7.84160546875,0.5650376081466675,0.5244894027709961,0.2515864372253418
1684108310243645700,7.851645751953125,0.5313161611557007,0.6159744262695312,0.2893362045288086
1684108310253685800,7.861685791015625,0.37842118740081787,0.5260229110717773,0.3031575679779053
1684108310263726000,7.87172607421875,0.10281777381896973,0.31980037689208984,0.2581477165222168
1684108310273766100,7.88176611328125,-0.2357494831085205,0.08341503143310547,0.14841437339782715
1684108310283806500,7.891806396484375,-0.5588860511779785,-0.07111454010009766,0.018973827362060547
1684108310293846500,7.901846435546875,-0.7795965671539307,-0.16808700561523438,-0.10638737678527832
1684108310303886800,7.911886962890625,-0.9093382358551025,-0.22685813903808594,-0.2899510860443115
1684108310313927000,7.921927001953125,-0.9383032321929932,-0.1808309555053711,-0.4859645366668701
1684108310323967200,7.93196728515625,-0.8217575550079346,-0.0780496597290039,-0.6844470500946045
1684108310334007300,7.94200732421875,-0.6754839420318604,0.08359432220458984,-0.9177563190460205
1684108310344047600,7.952047607421875,-0.5194272994995117,0.2273578643798828,-1.1392536163330078
1684108310354087700,7.962087646484375,-0.5626757144927979,0.02889728546142578,-1.4679982662200928
1684108310364128000,7.9721279296875,-0.6867778301239014,-0.1525726318359375,-1.7806470394134521
1684108310374168000,7.98216796875,-0.6054186820983887,0.24579715728759766,-1.8937509059906006
1684108310384208400,7.99220849609375,-0.4716324806213379,0.7498741149902344,-1.5901567935943604
1684108310394248400,8.00224853515625,-0.35240721702575684,1.0208721160888672,-1.3106162548065186
1684108310404288800,8.012288818359375,-0.3434438705444336,0.8609495162963867,-1.266265630722046
1684108310414328800,8.022328857421876,-0.3068993091583252,0.6265573501586914,-1.1975321769714355
1684108310424369200,8.032369140625,-0.17581641674041748,0.3772563934326172,-1.0693538188934326
1684108310434409200,8.0424091796875,-0.004807472229003906,0.2537984848022461,-0.9031062126159668
1684108310444449500,8.052449462890625,0.3637275695800781,0.15401554107666016,-0.6283974647521973
1684108310454489600,8.062489501953126,0.4644012451171875,0.008170127868652344,0.032495737075805664
1684108310464530000,8.072530029296875,0.11102509498596191,-0.037059783935546875,0.7798280715942383
1684108310474570000,8.082570068359376,-0.408721923828125,-0.20106029510498047,1.581297516822815
1684108310484610300,8.0926103515625,-0.9453815221786499,-0.7019243240356445,2.318089008331299
1684108310494650400,8.102650390625,-1.7617443799972534,-1.3426589965820312,2.919316291809082
1684108310504690700,8.112690673828125,-2.177323341369629,-2.033334732055664,3.040261745452881
1684108310514730800,8.122730712890625,-1.9108573198318481,-2.225083351135254,2.204281806945801
1684108310524771000,8.13277099609375,-1.7301393747329712,-1.7865238189697266,1.300743818283081
1684108310534811100,8.14281103515625,-1.703041672706604,-0.8350162506103516,0.1817641258239746
1684108310544851500,8.1528515625,-1.7003833055496216,0.15706348419189453,-0.896399736404419
1684108310554891500,8.1628916015625,-1.7348544597625732,0.9784555435180664,-1.7214972972869873
1684108310564931800,8.172931884765624,-1.277471661567688,1.7776403427124023,-2.705106735229492
1684108310574972000,8.182971923828125,-0.2717090845108032,2.2133493423461914,-3.0406863689422607
1684108310585012200,8.19301220703125,0.6159392595291138,2.2198452949523926,-2.750718116760254
1684108310595052300,8.20305224609375,0.9692107439041138,1.6084551811218262,-1.8318326473236084
1684108310605092600,8.213092529296874,0.8694187998771667,0.6377849578857422,-0.6562387943267822
1684108310615132700,8.223132568359375,0.5284907817840576,-0.028379440307617188,0.36142587661743164
1684108310625173000,8.233173095703124,0.16258561611175537,-0.19525718688964844,1.0335586071014404
1684108310635213000,8.243213134765625,-0.24675476551055908,-0.13214683532714844,1.261905550956726
1684108310645253400,8.25325341796875,-0.5953729152679443,-0.12364864349365234,1.2161967754364014
1684108310655293400,8.26329345703125,-0.9248921871185303,-0.24710655212402344,0.9858986139297485
1684108310665333800,8.273333740234374,-1.044972538948059,0.1015472412109375,0.6346728801727295
1684108310675373800,8.283373779296875,-0.8854646682739258,0.38721466064453125,0.41367650032043457
1684108310685414100,8.2934140625,-0.5852416753768921,0.4323310852050781,0.019728422164916992
1684108310695454200,8.3034541015625,-0.2920401096343994,0.43102073669433594,-0.5077147483825684
1684108310705494500,8.31349462890625,-0.07278287410736084,0.49063777923583984,-0.8976562023162842
1684108310715534600,8.32353466796875,0.06344485282897949,0.46042919158935547,-1.1573755741119385
1684108310725575000,8.333574951171874,0.1332632303237915,0.3862943649291992,-1.2236449718475342
1684108310735615000,8.343614990234375,0.18336892127990723,0.3953886032104492,-1.248246192932129
1684108310745655300,8.3536552734375,0.157867431640625,0.3326454162597656,-1.1769578456878662
1684108310755695400,8.3636953125,0.08671092987060547,0.37731266021728516,-1.1396450996398926
1684108310765735700,8.373735595703126,-0.010629534721374512,0.4976205825805664,-1.1318094730377197
1684108310775775700,8.383775634765625,-0.10087299346923828,0.6690044403076172,-1.0745110511779785
1684108310785816000,8.393816162109376,-0.10248923301696777,0.8100137710571289,-0.9081144332885742
1684108310795856100,8.403856201171875,-0.129311203956604,0.659027099609375,-0.682889461517334
1684108310805896400,8.413896484375,-0.10687386989593506,0.4542875289916992,-0.5489864349365234
1684108310815936500,8.4239365234375,-0.07980060577392578,0.1275043487548828,-0.3905298709869385
1684108310825976800,8.433976806640626,-0.01772749423980713,0.3322763442993164,-0.5072338581085205
1684108310836017000,8.444016845703125,0.053856492042541504,0.3072175979614258,-0.29052114486694336
1684108310846057200,8.45405712890625,0.16459167003631592,0.4950408935546875,-0.07717299461364746
1684108310856097300,8.46409716796875,0.2742934226989746,0.43276023864746094,0.18273568153381348
1684108310866137600,8.4741376953125,0.36685800552368164,0.1263561248779297,0.2364654541015625
1684108310876177700,8.484177734375,0.3664916753768921,-0.3264732360839844,0.06030869483947754
1684108310886218000,8.494218017578126,0.22429633140563965,-0.7399148941040039,0.01238393783569336
1684108310896258000,8.504258056640625,-0.027713894844055176,-0.8712959289550781,-0.0872492790222168
1684108310906298400,8.51429833984375,-0.2848653793334961,-0.7479400634765625,-0.06282353401184082
1684108310916338400,8.52433837890625,-0.5031603574752808,-0.6067037582397461,-0.10071420669555664
1684108310926378800,8.534378662109376,-0.8073151111602783,-0.4381570816040039,-0.2887237071990967
1684108310936418800,8.544418701171875,-1.0507906675338745,-0.12095451354980469,-0.5137009620666504
1684108310946459100,8.554459228515626,-1.1993091106414795,0.2291555404663086,-0.82208251953125
1684108310956499200,8.564499267578125,-1.2613935470581055,0.5374641418457031,-0.9933574199676514
1684108310966539500,8.57453955078125,-1.1502649784088135,0.7321319580078125,-1.068558692932129
1684108310976579600,8.58457958984375,-0.956918478012085,0.8586540222167969,-1.0359878540039062
1684108310986620000,8.594619873046875,-0.6795446872711182,0.7960634231567383,-0.85223388671875
1684108310996660000,8.604659912109375,-0.39839959144592285,0.5628509521484375,-0.6588180065155029
1684108311006700300,8.6147001953125,-0.21665501594543457,-0.04738807678222656,-0.5437076091766357
1684108311016740400,8.624740234375,-0.12980222702026367,-0.7705087661743164,-0.40007710456848145
1684108311026780700,8.63478076171875,-0.032399654388427734,-1.2021255493164062,-0.03674483299255371
1684108311036820700,8.64482080078125,0.18387794494628906,-1.1893892288208008,0.4508686065673828
1684108311046861000,8.654861083984375,0.41421830654144287,-0.9399251937866211,0.9786269664764404
1684108311056901000,8.664901123046874,0.4323662519454956,-0.6209745407104492,1.364924430847168
1684108311066941400,8.67494140625,0.30743587017059326,-0.3354959487915039,1.6023223400115967
1684108311076981500,8.6849814453125,0.11589431762695312,-0.19798755645751953,1.8094251155853271
1684108311087021800,8.695021728515625,-0.02827739715576172,-0.1026153564453125,1.9632275104522705
1684108311097062000,8.705061767578124,-0.15426039695739746,-0.06164264678955078,1.956324815750122
1684108311107102200,8.715102294921875,-0.23789024353027344,-0.12089920043945312,1.8427531719207764
1684108311117142300,8.725142333984374,-0.21428203582763672,-0.18955516815185547,1.752995252609253
1684108311127182600,8.7351826171875,-0.399300217628479,-0.13654136657714844,1.5778272151947021
1684108311137222700,8.74522265625,-0.5754572153091431,-0.07004833221435547,1.448594093322754
1684108311147263000,8.755262939453125,-0.7330070734024048,0.040427207946777344,1.3936140537261963
1684108311157303000,8.765302978515624,-0.8838633298873901,-0.025186538696289062,1.5100581645965576
1684108311167343400,8.77534326171875,-1.050589919090271,0.08247852325439453,1.5624217987060547
1684108311177383400,8.785383544921874,-1.068044662475586,0.1195526123046875,1.557689905166626
1684108311187423700,8.795423828125,-0.8929533958435059,0.0651865005493164,1.6128642559051514
1684108311197463800,8.8054638671875,-0.7339757680892944,0.02764892578125,1.4364166259765625
1684108311207504100,8.815504150390625,-0.690453290939331,-0.17740440368652344,1.2356560230255127
1684108311217544400,8.82554443359375,-0.8298370838165283,-0.24951934814453125,1.0762016773223877
1684108311227584500,8.83558447265625,-1.0068432092666626,-0.3614645004272461,1.036222219467163
1684108311237624600,8.84562451171875,-1.282647967338562,-0.3727283477783203,0.8955795764923096
1684108311247665000,8.855664794921875,-1.586376667022705,-0.2669258117675781,0.7092137336730957
1684108311257705200,8.865705322265624,-1.6765246391296387,-0.1424875259399414,0.6242823600769043
1684108311267745300,8.875745361328125,-1.5130345821380615,-0.17144012451171875,0.5420975685119629
1684108311277785600,8.88578564453125,-1.2196906805038452,-0.30521678924560547,0.5705797672271729
1684108311287825700,8.89582568359375,-0.9328144788742065,-0.53680419921875,0.648146390914917
1684108311297866000,8.905865966796876,-0.6948734521865845,-0.7682962417602539,0.7669904232025146
1684108311307906000,8.915906005859375,-0.5812897682189941,-0.6794948577880859,0.8991894721984863
1684108311317946400,8.9259462890625,-0.4397575855255127,-0.7748508453369141,1.0269758701324463
1684108311327986400,8.935986328125,-0.19942057132720947,-0.710515022277832,1.1249516010284424
1684108311338026800,8.94602685546875,0.04499208927154541,-0.6581592559814453,1.044795274734497
1684108311348066800,8.95606689453125,0.10056090354919434,-0.4296722412109375,0.7751832008361816
1684108311358107100,8.966107177734376,-0.2380443811416626,-0.1768779754638672,0.46675658226013184
1684108311368147200,8.976147216796875,-0.7116400003433228,0.08684539794921875,-0.08596992492675781
1684108311378187500,8.9861875,-0.9456560611724854,0.22948646545410156,-0.5399117469787598
1684108311388227600,8.9962275390625,-0.6503196954727173,0.4852714538574219,-0.998986005783081
1684108311398268000,9.006267822265626,-0.058075547218322754,0.6174383163452148,-1.4426217079162598
1684108311408308000,9.016307861328125,0.6468451023101807,0.7150201797485352,-1.6372792720794678
1684108311418348300,9.026348388671876,1.0441327095031738,0.8862371444702148,-1.7726037502288818
1684108311428388400,9.036388427734375,0.9975647330284119,0.920475959777832,-1.7743077278137207
1684108311438428700,9.0464287109375,0.6092236042022705,1.439591407775879,-2.276099443435669
1684108311448468700,9.05646875,0.5095505714416504,1.7579798698425293,-2.3883419036865234
1684108311458509000,9.066509033203126,0.4909297823905945,2.0961594581604004,-2.486844062805176
1684108311468549000,9.076549072265625,0.4014957547187805,2.3700637817382812,-2.647711753845215
1684108311478589400,9.08658935546875,0.2621186375617981,2.6196417808532715,-2.8190793991088867
1684108311488629500,9.09662939453125,-0.015488922595977783,2.68967866897583,-2.597991704940796
1684108311498669800,9.106669921875,-0.27247434854507446,2.4434866905212402,-1.8716564178466797
1684108311508710000,9.1167099609375,-0.23784250020980835,1.4556427001953125,-0.8159043788909912
1684108311518750200,9.126750244140625,-0.07310640811920166,0.27583980560302734,-0.07798433303833008
1684108311528790500,9.13679052734375,0.15241336822509766,-0.7981433868408203,0.3086812496185303
1684108311538830600,9.14683056640625,0.3169221878051758,-1.5919504165649414,0.6332805156707764
1684108311548871000,9.156870849609374,0.4612240493297577,-1.8864994049072266,0.831707239151001
1684108311558911000,9.166910888671875,0.7661930322647095,-1.7487945556640625,0.5882594585418701
1684108311568951300,9.176951416015624,1.148229956626892,-1.2917308807373047,0.3136110305786133
1684108311578991400,9.186991455078125,1.451229214668274,-0.7065515518188477,0.05560612678527832
1684108311589031700,9.19703173828125,1.5693254470825195,-0.3120269775390625,-0.019543886184692383
1684108311599071700,9.20707177734375,1.6699719429016113,0.06347846984863281,-0.023334741592407227
1684108311609112000,9.217112060546874,1.6241321563720703,0.073272705078125,-0.07014322280883789
1684108311619152100,9.227152099609375,1.395527720451355,0.0951986312866211,-0.05193018913269043
1684108311629192400,9.2371923828125,0.9310840368270874,0.017686843872070312,0.11965131759643555
1684108311639232500,9.247232421875,0.3115597069263458,0.13508224487304688,0.3043961524963379
1684108311649272800,9.25727294921875,-0.5146260857582092,0.14638900756835938,0.4220423698425293
1684108311659313000,9.26731298828125,-1.232847809791565,0.21660804748535156,0.31504154205322266
1684108311669353200,9.277353271484374,-1.6700938940048218,0.13068771362304688,0.12723922729492188
1684108311679393300,9.287393310546875,-1.6694164276123047,-0.13981914520263672,-0.23350739479064941
1684108311689433600,9.29743359375,-1.4104735851287842,-0.3458871841430664,-0.4587886333465576
1684108311699473700,9.3074736328125,-1.047221302986145,-0.6063451766967773,-0.6412491798400879
1684108311709514000,9.317513916015624,-0.6981209516525269,-0.7196435928344727,-0.6180925369262695
1684108311719554000,9.327553955078125,-0.47078341245651245,-0.7675762176513672,-0.6040003299713135
1684108311729594400,9.337594482421874,-0.34585919976234436,-0.8440532684326172,-0.4897928237915039
1684108311739634700,9.347634765625,-0.29299601912498474,-1.106614112854004,-0.352128267288208
1684108311749674800,9.3576748046875,-0.2908964455127716,-1.37310791015625,-0.26079487800598145
1684108311759715000,9.367715087890625,-0.3681856095790863,-1.337662696838379,-0.08004498481750488
1684108311769755100,9.377755126953126,-0.4744315445423126,-1.3855438232421875,-0.03690314292907715
1684108311779795500,9.38779541015625,-0.6119885444641113,-1.552389144897461,-0.04259157180786133
1684108311789835500,9.39783544921875,-0.7726584076881409,-1.4769535064697266,0.13851094245910645
1684108311799875800,9.407875732421875,-0.8904299139976501,-1.4678430557250977,0.17859697341918945
1684108311809916000,9.417916015625,-0.9546904563903809,-1.582575798034668,0.1650240421295166
1684108311819956200,9.427956298828125,-1.0243970155715942,-1.5462465286254883,0.23173260688781738
1684108311829996300,9.437996337890626,-0.9514285922050476,-1.6314830780029297,0.2136707305908203
1684108311840036600,9.44803662109375,-0.8222768902778625,-1.771042823791504,0.191910982131958
1684108311850076700,9.45807666015625,-0.5094506740570068,-1.922011375427246,0.08331036567687988
1684108311860117000,9.468116943359375,0.029973238706588745,-1.9180660247802734,-0.11186480522155762
1684108311870157000,9.478156982421876,0.45753756165504456,-1.574087142944336,-0.15460920333862305
1684108311880197400,9.488197265625,0.7713961005210876,-1.3756532669067383,-0.2028818130493164
1684108311890237400,9.498237548828126,0.9425960183143616,-0.956822395324707,-0.1137838363647461
1684108311900277800,9.50827783203125,1.048115849494934,-0.36860179901123047,-0.11582612991333008
1684108311910318000,9.518318115234376,0.9535927176475525,0.17376136779785156,0.03935432434082031
1684108311920358100,9.528358154296875,0.7239679098129272,0.8184318542480469,0.22959589958190918
1684108311930398500,9.5383984375,0.4319632351398468,1.1927423477172852,0.5736856460571289
1684108311940438500,9.5484384765625,0.33197617530822754,1.4624371528625488,0.8457338809967041
1684108311950478800,9.558478759765626,0.12355631589889526,1.8834338188171387,1.1790945529937744
1684108311960519000,9.568518798828125,-0.14977963268756866,1.8869166374206543,1.323087215423584
1684108311970559200,9.578559326171876,-0.4042268693447113,2.087535858154297,1.5438729524612427
1684108311980599300,9.588599365234375,-0.39342179894447327,2.3489322662353516,1.8453410863876343
1684108311990639600,9.5986396484375,-0.3424580693244934,2.6241989135742188,2.1525845527648926
1684108312000679700,9.6086796875,-0.25679779052734375,2.866636276245117,2.3620100021362305
1684108312010720000,9.618719970703125,-0.24630331993103027,2.969621181488037,2.4071974754333496
1684108312020760000,9.628760009765625,-0.24129152297973633,2.3797178268432617,1.9631327390670776
1684108312030800400,9.63880029296875,-0.027584701776504517,1.362351417541504,0.853585958480835
1684108312040840700,9.6488408203125,0.17910709977149963,1.1756420135498047,0.2761256694793701
1684108312050880800,9.658880859375,0.17062334716320038,1.3276090621948242,0.06322669982910156
1684108312060920800,9.6689208984375,0.07256960868835449,1.6407966613769531,0.0870981216430664
1684108312070961200,9.678961181640625,-0.013981997966766357,2.2105355262756348,0.26534509658813477
1684108312081001500,9.68900146484375,0.031428903341293335,2.7901601791381836,0.5285220146179199
1684108312091041500,9.69904150390625,0.07899710536003113,3.068737030029297,0.6724789142608643
1684108312101081900,9.709081787109374,0.16239799559116364,3.0371756553649902,0.7126913070678711
1684108312111122000,9.719121826171875,0.2182544320821762,2.87335205078125,0.8320903778076172
1684108312121162200,9.729162353515624,0.25368306040763855,2.3946661949157715,0.7982628345489502
1684108312131202300,9.739202392578125,0.17220357060432434,2.8632888793945312,1.0185644626617432
1684108312141242600,9.74924267578125,0.09936505556106567,2.515535831451416,0.8039059638977051
1684108312151282700,9.75928271484375,0.1421888768672943,1.8534893989562988,0.3744361400604248
1684108312161323000,9.769322998046874,0.23442867398262024,0.7831382751464844,-0.1479816436767578
1684108312171363000,9.779363037109375,0.1266683042049408,0.9896860122680664,0.2550203800201416
1684108312181403400,9.7894033203125,0.18329131603240967,-0.03208160400390625,-0.7280938625335693
1684108312191443700,9.799443603515625,0.26027414202690125,-0.3870363235473633,-1.5586962699890137
1684108312201483800,9.80948388671875,0.5641950368881226,-0.8496017456054688,-1.846919298171997
1684108312211523800,9.81952392578125,0.7361776828765869,-1.3611526489257812,-1.95851731300354
1684108312221564200,9.829564208984374,0.7379065752029419,-2.4504356384277344,-2.4123690128326416
1684108312231604500,9.8396044921875,0.7514955997467041,-3.9795894622802734,-2.9841747283935547
1684108312241644500,9.84964453125,0.7135317325592041,-5.030587196350098,-3.1040704250335693
1684108312251684900,9.859684814453125,0.5002856254577637,-5.582581520080566,-2.5860228538513184
1684108312261725000,9.869724853515624,-0.0747641921043396,-5.392727851867676,-1.6691930294036865
1684108312271765200,9.87976513671875,-0.8185734748840332,-4.427641868591309,-0.4821133613586426
1684108312281805300,9.889805419921874,-1.4103541374206543,-2.955352783203125,0.03815507888793945
1684108312291845600,9.899845703125,-1.6085522174835205,-1.215036392211914,0.17030835151672363
1684108312301885700,9.9098857421875,-1.53706693649292,-0.12131023406982422,0.7269227504730225
1684108312311926000,9.919926025390625,-1.2867265939712524,0.3298664093017578,1.3735740184783936
1684108312321966000,9.929966064453126,-0.8221777677536011,0.40114688873291016,1.7744901180267334
1684108312332006400,9.94000634765625,-0.25111910700798035,0.3934440612792969,1.555734634399414
1684108312342046700,9.950046630859376,0.3003506660461426,0.24479007720947266,1.2244579792022705
1684108312352086800,9.960086669921875,0.6982916593551636,-0.008657455444335938,1.1578123569488525
1684108312362127000,9.970127197265626,0.9130744934082031,-0.20531368255615234,1.1087052822113037
1684108312372167200,9.980167236328125,1.0153361558914185,-0.38100242614746094,0.9170272350311279
1684108312382207500,9.99020751953125,1.0233104228973389,-0.4499359130859375,0.7316756248474121
1684108312392247600,10.00024755859375,0.9592472314834595,-0.2864065170288086,0.6351912021636963
1684108312402287900,10.010287841796876,0.7904353141784668,-0.19438838958740234,0.6156501770019531
1684108312412328000,10.020327880859375,0.5499189496040344,-0.21920204162597656,0.5825216770172119
1684108312422368300,10.0303681640625,0.2666468620300293,-0.28949546813964844,0.4466555118560791
1684108312432408300,10.040408203125,-0.028080403804779053,-0.31443023681640625,0.34001636505126953
1684108312442448600,10.05044873046875,-0.3100641965866089,-0.23660945892333984,0.2457716464996338
1684108312452489000,10.060489013671875,-0.46676796674728394,0.05585765838623047,0.11677312850952148
1684108312462529000,10.070529052734376,-0.5135995745658875,0.1373128890991211,-0.0536651611328125
1684108312472569300,10.0805693359375,-0.40581196546554565,0.04155731201171875,-0.2650933265686035
1684108312482609400,10.090609375,-0.22495079040527344,0.0336761474609375,-0.383009672164917
1684108312492649700,10.100649658203125,-0.03340786695480347,0.060736656188964844,-0.4267158508300781
1684108312502689800,10.110689697265625,0.15770256519317627,0.06526374816894531,-0.3391377925872803
1684108312512730000,10.120730224609375,0.3022657632827759,0.11694717407226562,-0.16932344436645508
1684108312522770200,10.130770263671875,0.3992111086845398,0.07972049713134766,-0.03267788887023926
1684108312532810500,10.140810546875,0.41133660078048706,0.06628131866455078,0.09879612922668457
1684108312542850600,10.1508505859375,0.32657599449157715,0.0026330947875976562,0.1699216365814209
1684108312552891000,10.160890869140625,0.17286783456802368,-0.05845069885253906,0.18795418739318848
1684108312562931200,10.17093115234375,0.038337528705596924,-0.05966663360595703,0.22018885612487793
1684108312572971300,10.18097119140625,-0.06656336784362793,0.013204574584960938,0.28812479972839355
1684108312583011600,10.191011474609375,-0.11042794585227966,-0.059653282165527344,0.2602224349975586
1684108312593051600,10.2010517578125,-0.14122161269187927,-0.0391387939453125,0.26822924613952637
1684108312603092000,10.211092041015625,-0.12789401412010193,-0.08786869049072266,0.23085308074951172
1684108312613132000,10.221132080078124,-0.11114421486854553,-0.12470817565917969,0.1654653549194336
1684108312623172400,10.23117236328125,-0.06712758541107178,-0.17841148376464844,0.19647932052612305
1684108312633212400,10.24121240234375,-0.005949735641479492,-0.19402408599853516,0.20181608200073242
1684108312643252700,10.251252685546875,0.007177174091339111,-0.18370723724365234,0.2509884834289551
1684108312653292800,10.261292724609374,0.019868850708007812,-0.18313980102539062,0.3457481861114502
1684108312663333000,10.2713330078125,0.032101988792419434,-0.16352272033691406,0.36869168281555176
1684108312673373400,10.28137353515625,0.029564261436462402,-0.21321773529052734,0.38197875022888184
1684108312683413500,10.29141357421875,0.021711289882659912,-0.19116878509521484,0.3999824523925781
1684108312693453800,10.301453857421874,0.02749699354171753,-0.16888427734375,0.4267101287841797
1684108312703494000,10.311493896484375,0.02518826723098755,-0.18001461029052734,0.3360421657562256
1684108312713534200,10.3215341796875,-0.020970463752746582,-0.16236495971679688,0.34076809883117676
1684108312723574300,10.33157421875,-0.10967385768890381,-0.13493061065673828,0.32100510597229004
1684108312733614600,10.341614501953124,-0.140031635761261,-0.12636566162109375,0.2744274139404297
1684108312743655000,10.351655029296875,-0.16059532761573792,-0.08395576477050781,0.2986159324645996
1684108312753695000,10.361695068359374,-0.1479284167289734,-0.1298084259033203,0.20281338691711426
1684108312763735300,10.3717353515625,-0.12880095839500427,-0.12045478820800781,0.14496374130249023
1684108312773775400,10.381775390625,-0.1345919966697693,-0.10383892059326172,0.10352230072021484
1684108312783815700,10.391815673828125,-0.19617602229118347,-0.042336463928222656,0.03682112693786621
1684108312793855700,10.401855712890624,-0.2701137661933899,0.07208919525146484,0.03149008750915527
1684108312803896000,10.41189599609375,-0.3264174461364746,0.11606311798095703,0.008417606353759766
1684108312813936000,10.42193603515625,-0.3499467968940735,0.2083415985107422,-0.09280657768249512
1684108312823976400,10.4319765625,-0.27135297656059265,0.2818260192871094,-0.11709332466125488
1684108312834016500,10.4420166015625,-0.14167684316635132,0.1203155517578125,-0.2781383991241455
1684108312844056800,10.452056884765625,-0.03223389387130737,0.19405174255371094,-0.2542874813079834
1684108312854097200,10.46209716796875,-0.006962418556213379,0.24036788940429688,-0.287001371383667
1684108312864137200,10.47213720703125,-0.026113390922546387,0.3205289840698242,-0.2542431354522705
1684108312874177500,10.482177490234376,-0.041461050510406494,0.28334903717041016,-0.13597679138183594
1684108312884217600,10.492217529296875,-0.05577385425567627,0.22083759307861328,0.008439302444458008
1684108312894258000,10.5022578125,-0.06998860836029053,0.07210063934326172,0.016234159469604492
1684108312904298000,10.512298095703125,-0.1075768768787384,-0.1121063232421875,0.026513099670410156
1684108312914338300,10.52233837890625,-0.19398391246795654,-0.14019107818603516,0.19425344467163086
1684108312924378400,10.53237841796875,-0.2653063237667084,-0.1485881805419922,0.27617883682250977
1684108312934418700,10.542418701171876,-0.26839718222618103,-0.1963663101196289,0.28041815757751465
1684108312944459000,10.552458984375,-0.27887359261512756,-0.20753955841064453,0.2786834239959717
1684108312954499000,10.5624990234375,-0.2964000999927521,-0.2604026794433594,0.2310788631439209
1684108312964539400,10.572539306640625,-0.3120313584804535,-0.2645759582519531,0.15930676460266113
1684108312974579500,10.582579345703126,-0.3044363558292389,-0.22109127044677734,0.113739013671875
1684108312984619800,10.592619873046875,-0.27256497740745544,-0.19196224212646484,0.07735133171081543
1684108312994659800,10.602659912109376,-0.2876754701137543,-0.07348251342773438,0.04550981521606445
1684108313004700200,10.6127001953125,-0.30057334899902344,0.02652263641357422,0.0051195621490478516
1684108313014740500,10.622740478515626,-0.27388837933540344,-0.00684356689453125,0.1960599422454834
1684108313024780500,10.632780517578125,-0.17280778288841248,-0.18772220611572266,0.19013094902038574
1684108313034820900,10.64282080078125,-0.14282816648483276,-0.14168548583984375,0.23534870147705078
1684108313044861000,10.65286083984375,-0.13407763838768005,-0.05388450622558594,0.19947218894958496
1684108313054901200,10.6629013671875,-0.06880483031272888,-0.007542610168457031,0.15238332748413086
1684108313064941300,10.67294140625,-0.026805520057678223,0.02617168426513672,0.11319160461425781
1684108313074981600,10.682981689453126,-0.01925516128540039,0.02373790740966797,0.09165406227111816
1684108313085022000,10.69302197265625,-0.040920257568359375,0.028128623962402344,0.09218573570251465
1684108313095062000,10.70306201171875,-0.06587710976600647,0.13109683990478516,0.10952949523925781
1684108313105102300,10.713102294921875,-0.11005383729934692,0.020196914672851562,0.042352914810180664
1684108313115142400,10.723142333984375,-0.136732280254364,-0.0914468765258789,0.028676986694335938
1684108313125182700,10.7331826171875,-0.10391265153884888,-0.062305450439453125,0.07640504837036133
1684108313135222800,10.743222900390625,-0.09616529941558838,-0.0737142562866211,0.024420499801635742
1684108313145263000,10.75326318359375,-0.12234973907470703,-0.056679725646972656,0.01083993911743164
1684108313155303200,10.76330322265625,-0.1525716483592987,-0.037421226501464844,0.01599597930908203
1684108313165343500,10.773343505859375,-0.18628257513046265,-0.044162750244140625,0.006540775299072266
1684108313175383800,10.7833837890625,-0.18816527724266052,-0.050579071044921875,-0.017281293869018555
1684108313185424000,10.793423828125,-0.17754590511322021,-0.05191230773925781,-0.02239084243774414
1684108313195464200,10.803464111328125,-0.18535420298576355,-0.010486602783203125,-0.03287506103515625
1684108313205504300,10.813504150390624,-0.17354583740234375,-0.004752159118652344,-0.07677626609802246
1684108313215544600,10.823544677734375,-0.13765370845794678,0.012897491455078125,-0.12039804458618164
1684108313225584600,10.833584716796874,-0.13004988431930542,0.0845174789428711,-0.13288092613220215
1684108313235625000,10.843625,-0.09639561176300049,0.08901786804199219,-0.14744853973388672
1684108313245665300,10.853665283203124,-0.06531363725662231,0.07455825805664062,-0.1333601474761963
1684108313255705300,10.863705322265625,-0.041430503129959106,0.05795574188232422,-0.10055208206176758
1684108313265745700,10.87374560546875,0.012745678424835205,-0.0007581710815429688,-0.0611879825592041
1684108313275785700,10.88378564453125,0.05366623401641846,0.037975311279296875,-0.036565303802490234
1684108313285826000,10.893825927734374,0.07443535327911377,-0.0017032623291015625,-0.02873706817626953
1684108313295866000,10.9038662109375,0.07531934976577759,0.058089256286621094,-0.0068590641021728516
1684108313305906400,10.913906494140624,0.07769185304641724,0.0767526626586914,-0.053475141525268555
1684108313315946500,10.923946533203125,0.06295055150985718,0.09259891510009766,-0.05667519569396973
1684108313325986800,10.93398681640625,0.029460430145263672,0.12211227416992188,-0.07822704315185547
1684108313336027100,10.944027099609375,-0.0058321356773376465,0.08034038543701172,-0.059010982513427734
1684108313346067200,10.954067138671874,-0.024204015731811523,0.048476219177246094,-0.049078941345214844
1684108313356107500,10.964107421875,-0.030684828758239746,0.007572174072265625,-0.008377790451049805
1684108313366147600,10.974147705078124,0.0028082728385925293,-0.011529922485351562,0.03177928924560547
1684108313376188000,10.98418798828125,0.019696831703186035,0.023895263671875,0.0782465934753418
1684108313386228000,10.99422802734375,0.055222272872924805,0.05404090881347656,0.08859395980834961
1684108313396268300,11.004268310546875,0.04728424549102783,0.013102531433105469,0.05386233329772949
1684108313406308600,11.01430859375,0.04837614297866821,0.015219688415527344,0.057305335998535156
1684108313416348700,11.0243486328125,-0.0003758668899536133,-0.018032073974609375,0.011238574981689453
1684108313426389000,11.034388916015626,-0.043522536754608154,-0.06725025177001953,0.053151845932006836
1684108313436429000,11.044428955078125,-0.0640682578086853,-0.07323265075683594,0.049645423889160156
1684108313446469400,11.054469482421876,-0.06260597705841064,-0.06494140625,0.06498479843139648
1684108313456509400,11.064509521484375,-0.034925758838653564,-0.028400421142578125,0.0727388858795166
1684108313466549800,11.0745498046875,-0.016638338565826416,0.03119659423828125,0.04483485221862793
1684108313476589800,11.08458984375,-0.00984799861907959,0.03106975555419922,0.03838205337524414
1684108313486630100,11.094630126953126,0.04187464714050293,-0.004281044006347656,0.0036306381225585938
1684108313496670500,11.10467041015625,0.10638749599456787,-0.0437774658203125,-0.04703330993652344
1684108313506710500,11.11471044921875,0.13398557901382446,-0.03787803649902344,0.006634950637817383
1684108313516750800,11.124750732421875,0.11670130491256714,-0.008498191833496094,0.009928464889526367
1684108313526791200,11.134791259765626,0.14042818546295166,0.027503013610839844,0.041414499282836914
1684108313536831200,11.144831298828125,0.17320561408996582,0.01820659637451172,0.060524702072143555
1684108313546871600,11.15487158203125,0.1980171799659729,-0.009737014770507812,0.025047779083251953
1684108313556911600,11.16491162109375,0.21041107177734375,-0.023161888122558594,0.011479616165161133
1684108313566952000,11.174951904296876,0.23876714706420898,-0.005799293518066406,0.026430845260620117
1684108313576992000,11.184991943359375,0.25220680236816406,0.008900642395019531,0.024649858474731445
1684108313587032300,11.1950322265625,0.22043567895889282,-0.0025892257690429688,0.05592656135559082
1684108313597072400,11.205072265625,0.22909653186798096,-0.02568531036376953,0.027864456176757812
1684108313607112700,11.21511279296875,0.20238161087036133,-0.046059608459472656,0.01209402084350586
1684108313617153000,11.225153076171875,0.17652636766433716,-0.08259010314941406,0.055541038513183594
1684108313627193000,11.235193115234376,0.12864673137664795,-0.02435779571533203,0.09847545623779297
1684108313637233400,11.2452333984375,0.11349725723266602,-0.035330772399902344,0.18555688858032227
1684108313647273500,11.2552734375,0.13034003973007202,-0.06013202667236328,0.21695947647094727
1684108313657313800,11.265313720703125,0.16401565074920654,-0.1055898666381836,0.22176861763000488
1684108313667354000,11.27535400390625,0.1857021450996399,-0.11722087860107422,0.2239389419555664
1684108313677394200,11.285394287109375,0.1954553723335266,-0.1215353012084961,0.23067069053649902
1684108313687434500,11.2954345703125,0.191545307636261,-0.13516712188720703,0.2279052734375
1684108313697474600,11.305474609375,0.19820386171340942,-0.15083980560302734,0.26282501220703125
1684108313707515000,11.315514892578125,0.22940129041671753,-0.14722919464111328,0.24039268493652344
1684108313717555000,11.325554931640625,0.22159719467163086,-0.11771202087402344,0.20664596557617188
1684108313727595300,11.33559521484375,0.24109011888504028,-0.08877086639404297,0.22564458847045898
1684108313737635600,11.345635498046875,0.2533605098724365,-0.07913875579833984,0.2796311378479004
1684108313747675600,11.355675537109375,0.2512192130088806,-0.10487556457519531,0.2830049991607666
1684108313757716000,11.365716064453125,0.24466627836227417,-0.1017904281616211,0.2812983989715576
1684108313767756000,11.375756103515625,0.297654390335083,-0.14096641540527344,0.2910654544830322
1684108313777796400,11.38579638671875,0.31458455324172974,-0.1768941879272461,0.27419590950012207
1684108313787836700,11.395836669921875,0.37081050872802734,-0.19301128387451172,0.25424671173095703
1684108313797876700,11.405876708984374,0.43178409337997437,-0.17292308807373047,0.16696858406066895
1684108313807917000,11.4159169921875,0.43188077211380005,-0.11038780212402344,0.06585478782653809
1684108313817957000,11.42595703125,0.42836952209472656,-0.010862350463867188,-0.039018869400024414
1684108313827997400,11.43599755859375,0.4330472946166992,0.10618782043457031,-0.13071632385253906
1684108313838037500,11.44603759765625,0.46096694469451904,0.10840606689453125,-0.24170923233032227
1684108313848077800,11.456077880859375,0.5253794193267822,0.035271644592285156,-0.37153100967407227
1684108313858118100,11.4661181640625,0.6029064655303955,-0.07902240753173828,-0.4777107238769531
1684108313868158200,11.476158203125,0.6610673069953918,-0.1326589584350586,-0.6030306816101074
1684108313878198500,11.486198486328124,0.6923761963844299,-0.1878061294555664,-0.7073838710784912
1684108313888238600,11.496238525390625,0.725479781627655,-0.13138580322265625,-0.7441668510437012
1684108313898279000,11.50627880859375,0.717965841293335,0.0064907073974609375,-0.8227806091308594
1684108313908319200,11.5163193359375,0.7308970093727112,0.21256732940673828,-0.8246169090270996
1684108313918359300,11.526359375,0.7355184555053711,0.4007997512817383,-0.8497467041015625
1684108313928399600,11.536399658203125,0.6978563070297241,0.5430383682250977,-0.8459157943725586
1684108313938439700,11.546439697265624,0.5909113883972168,0.5857791900634766,-0.8088159561157227
1684108313948480000,11.55647998046875,0.42479369044303894,0.5728740692138672,-0.7712905406951904
1684108313958520000,11.56652001953125,0.17861080169677734,0.5004482269287109,-0.6549525260925293
1684108313968560400,11.576560302734375,-0.07926878333091736,0.37204837799072266,-0.4729158878326416
1684108313978600700,11.5866005859375,-0.3234049081802368,0.25011157989501953,-0.24323415756225586
1684108313988640800,11.596640869140625,-0.5622840523719788,0.11835289001464844,0.0021317005157470703
1684108313998681000,11.60668115234375,-0.7274861931800842,0.019571304321289062,0.16609692573547363
1684108314008721200,11.61672119140625,-0.7522410154342651,-0.10066890716552734,0.2660646438598633
1684108314018761500,11.626761474609374,-0.6576402187347412,-0.1313333511352539,0.27463316917419434
1684108314028801800,11.6368017578125,-0.4790607690811157,-0.12582111358642578,0.21429991722106934
1684108314038841900,11.646841796875,-0.24548029899597168,-0.11314201354980469,0.14023160934448242
1684108314048882200,11.656882080078125,-0.05119338631629944,-0.11248588562011719,0.04817986488342285
1684108314058922200,11.666922119140626,0.0031779110431671143,-0.11218547821044922,0.023818016052246094
1684108314068962600,11.676962646484375,-0.05810531973838806,-0.06060028076171875,0.05006909370422363
1684108314079003000,11.6870029296875,-0.2362028956413269,-0.045558929443359375,0.14493608474731445
1684108314089043000,11.69704296875,-0.2799714207649231,-0.035773277282714844,0.22259521484375
1684108314099083300,11.707083251953126,-0.22761371731758118,-0.014634132385253906,0.3161914348602295
1684108314109123300,11.717123291015625,-0.03529898077249527,-0.019867897033691406,0.3613717555999756
1684108314119163600,11.72716357421875,0.15291385352611542,-0.058175086975097656,0.3047962188720703
1684108314129203700,11.73720361328125,0.34175512194633484,-0.14076614379882812,0.2351846694946289
1684108314139244000,11.747244140625,0.512793242931366,-0.2033405303955078,0.1692509651184082
1684108314149284400,11.757284423828125,0.6063148975372314,-0.26502132415771484,0.1586909294128418
1684108314159324400,11.767324462890626,0.6070719957351685,-0.30462646484375,0.11082625389099121
1684108314169364700,11.77736474609375,0.5467019081115723,-0.32018184661865234,0.19351601600646973
1684108314179404800,11.78740478515625,0.42245054244995117,-0.3730583190917969,0.18509769439697266
1684108314189445000,11.797445068359375,0.3370438516139984,-0.32375621795654297,0.20011401176452637
1684108314199485400,11.8074853515625,0.35841137170791626,-0.2727079391479492,0.23067975044250488
1684108314209525500,11.817525390625,0.4048200845718384,-0.2317514419555664,0.2035965919494629
1684108314219565800,11.82756591796875,0.44282734394073486,-0.27342796325683594,0.2698683738708496
1684108314229606000,11.83760595703125,0.4550800323486328,-0.31099700927734375,0.3087918758392334
1684108314239646200,11.847646240234376,0.41893255710601807,-0.3134727478027344,0.296201229095459
1684108314249686500,11.8576865234375,0.37391623854637146,-0.2624855041503906,0.2914559841156006
1684108314259726600,11.8677265625,0.25944462418556213,-0.18707752227783203,0.2823319435119629
1684108314269767000,11.877766845703125,0.14748132228851318,-0.06403732299804688,0.1791548728942871
1684108314279807000,11.887806884765626,0.038023874163627625,0.11739158630371094,-0.051386356353759766
1684108314289847300,11.897847412109375,-0.056397438049316406,0.23679733276367188,-0.39777588844299316
1684108314299887600,11.9078876953125,-0.1405484974384308,0.4497671127319336,-0.9173910617828369
1684108314309927700,11.917927734375,-0.34026986360549927,0.7504730224609375,-1.4929416179656982
1684108314319968000,11.927968017578126,-0.638818621635437,1.1141719818115234,-1.9553639888763428
1684108314330008000,11.938008056640625,-1.0153534412384033,1.4925689697265625,-2.2349729537963867
1684108314340048400,11.94804833984375,-1.271761417388916,1.7657055854797363,-2.4748547077178955
1684108314350088700,11.958088623046875,-1.3472660779953003,1.8858685493469238,-2.587045669555664
1684108314360128800,11.968128662109375,-1.1717731952667236,1.8153843879699707,-2.577667713165283
1684108314370169000,11.978169189453125,-0.8318737745285034,1.6000585556030273,-2.4730966091156006
1684108314380209200,11.988209228515625,-0.4816892147064209,1.2208614349365234,-2.236091136932373
1684108314390249500,11.99824951171875,-0.295029878616333,0.8406476974487305,-1.7273755073547363
1684108314400289800,12.008289794921875,-0.26655125617980957,0.49594879150390625,-1.070528507232666
1684108314410329900,12.018329833984374,-0.2778858542442322,0.23714733123779297,-0.5030558109283447
1684108314420370200,12.0283701171875,-0.2720791697502136,0.04265308380126953,0.04400134086608887
1684108314430410200,12.03841015625,-0.19764941930770874,-0.15436267852783203,0.5461242198944092
1684108314440450600,12.048450439453125,-0.02344423532485962,-0.25583744049072266,0.96724534034729
1684108314450491000,12.058490966796874,0.14689719676971436,-0.4434356689453125,1.216909408569336
1684108314460531000,12.068531005859375,0.3575742840766907,-0.5901155471801758,1.3311336040496826
1684108314470571300,12.0785712890625,0.4845101833343506,-0.7624750137329102,1.3577802181243896
1684108314480611300,12.088611328125,0.5163284540176392,-0.8955402374267578,1.3157718181610107
1684108314490651600,12.098651611328124,0.38107848167419434,-0.9888057708740234,1.2589080333709717
1684108314500691700,12.108691650390625,0.10436397790908813,-0.9674463272094727,1.1989433765411377
1684108314510732000,12.11873193359375,-0.2658575177192688,-0.7262258529663086,1.0314292907714844
1684108314520772400,12.1287724609375,-0.6276033520698547,-0.43283748626708984,0.7226934432983398
1684108314530812400,12.1388125,-1.0427746772766113,-0.10228443145751953,0.14062237739562988
1684108314540852700,12.148852783203125,-1.5685043334960938,0.12326526641845703,-0.45388197898864746
1684108314550892800,12.158892822265624,-2.017930030822754,0.2879037857055664,-0.8432495594024658
1684108314560933000,12.16893310546875,-2.2568459510803223,0.2354116439819336,-1.0837223529815674
1684108314570973400,12.178973388671874,-2.1723806858062744,0.1731891632080078,-1.1336236000061035
1684108314581013500,12.189013427734375,-1.8153597116470337,-0.016332626342773438,-1.039825201034546
1684108314591053800,12.1990537109375,-1.3234708309173584,-0.1633472442626953,-0.8472132682800293
1684108314601094000,12.209093994140625,-0.8497065305709839,-0.22236347198486328,-0.627187967300415
1684108314611134200,12.21913427734375,-0.5288650989532471,-0.12871360778808594,-0.3967549800872803
1684108314621174500,12.229174560546875,-0.3531830310821533,0.0796365737915039,-0.19044876098632812
1684108314631214600,12.239214599609374,-0.354303240776062,0.2812623977661133,-0.04547381401062012
1684108314641255000,12.2492548828125,-0.509448766708374,0.4598989486694336,0.01305532455444336
1684108314651295200,12.259295166015624,-0.6923134326934814,0.5873584747314453,0.08642387390136719
1684108314661335300,12.269335205078125,-0.9752938747406006,0.6900558471679688,0.07131671905517578
1684108314671375600,12.279375732421874,-1.2689006328582764,0.7845230102539062,0.06131291389465332
1684108314681415700,12.289415771484375,-1.4825519323349,0.7417221069335938,0.025547027587890625
1684108314691456000,12.2994560546875,-1.6077252626419067,0.6886634826660156,0.0022420883178710938
1684108314701496300,12.309496337890625,-1.675536036491394,0.546534538269043,0.05815267562866211
1684108314711536400,12.319536376953126,-1.5974295139312744,0.3442659378051758,0.10917210578918457
1684108314721576700,12.32957666015625,-1.416454792022705,0.0699625015258789,0.20548200607299805
1684108314731616800,12.33961669921875,-1.0375897884368896,-0.2118825912475586,0.42284488677978516
1684108314741657000,12.349656982421875,-0.4463496208190918,-0.3579435348510742,0.745182991027832
1684108314751697400,12.359697509765626,0.2982112169265747,-0.18223857879638672,1.018512487411499
1684108314761737500,12.369737548828125,1.0434494018554688,0.020761489868164062,1.2622954845428467
1684108314771777800,12.37977783203125,1.6486022472381592,0.0057010650634765625,1.3789448738098145
1684108314781817900,12.38981787109375,2.0714476108551025,-0.010683059692382812,1.3476178646087646
1684108314791858200,12.399858154296876,2.157015562057495,-0.04597663879394531,1.2241621017456055
1684108314801898500,12.4098984375,1.9413124322891235,-0.0694589614868164,1.097219705581665
1684108314811938600,12.4199384765625,1.3008534908294678,-0.02682018280029297,0.8572726249694824
1684108314821979000,12.429978759765625,0.12630438804626465,0.1623058319091797,0.40990734100341797
1684108314832019200,12.440019287109376,-1.4041272401809692,0.34764766693115234,-0.18389320373535156
1684108314842059300,12.450059326171875,-2.685926914215088,0.5408134460449219,-0.7200155258178711
1684108314852099600,12.460099609375,-3.1288223266601562,0.8196330070495605,-1.1060285568237305
1684108314862139600,12.4701396484375,-2.718768835067749,1.001701831817627,-1.330519676208496
1684108314872180000,12.480179931640626,-1.799074649810791,1.014601707458496,-1.2258648872375488
1684108314882220300,12.49022021484375,-0.7521698474884033,0.9611539840698242,-0.9033026695251465
