time,seconds_elapsed,z,y,x
1684108871691216100,0.045216064453125,0,0,0
1684108871701257500,0.055257568359375,-0.12559223175048828,0.05150794982910156,0.08003169298171997
1684108871711298600,0.065298583984375,-0.2156534194946289,0.13495635986328125,-0.1363406479358673
1684108871721340000,0.07533984375,-0.23841238021850586,0.12743234634399414,0.032942622900009155
1684108871731381000,0.085381103515625,-0.03950786590576172,0.17374610900878906,-0.0512060821056366
1684108871741422300,0.09542236328125,0.000850677490234375,0.22067689895629883,0.13226985931396484
1684108871751463400,0.10546337890625,0.1456470489501953,0.2379913330078125,0.01853594183921814
1684108871761504800,0.1155048828125,0.6879158020019531,0.5822455883026123,-0.3517591953277588
1684108871771545900,0.1255458984375,0.8470706939697266,-0.2586522102355957,0.10082513093948364
1684108871781587200,0.135587158203125,0.8450689315795898,-0.15015745162963867,-0.1405978500843048
1684108871791628500,0.145628662109375,0.7026529312133789,0.6183807849884033,-0.6846187114715576
1684108871801669600,0.155669677734375,-0.3042449951171875,-1.2935972213745117,0.12572062015533447
1684108871811711000,0.1657109375,-0.7295932769775391,0.05180835723876953,-1.117275357246399
1684108871821752000,0.175751953125,-1.1549315452575684,-0.9856986999511719,0.3521825671195984
1684108871831793400,0.18579345703125,-0.8954157829284668,-0.8403692245483398,-0.08809846639633179
1684108871841834500,0.19583447265625,-0.7501087188720703,-0.8451828956604004,0.839564323425293
1684108871851875800,0.205875732421875,0.11374759674072266,0.34833836555480957,-0.285159707069397
1684108871861917200,0.215917236328125,0.44583797454833984,-0.8838858604431152,0.7421987056732178
1684108871871958300,0.225958251953125,0.9791059494018555,0.25598573684692383,-0.16207349300384521
1684108871881999600,0.23599951171875,0.6876916885375977,-1.0111613273620605,0.39573657512664795
1684108871892040700,0.246040771484375,0.5955085754394531,-0.25156307220458984,-0.1201314926147461
1684108871902082000,0.25608203125,-0.04844474792480469,-0.5171806812286377,1.0237926244735718
1684108871912123100,0.266123046875,-0.3742704391479492,-0.7749402523040771,1.0109996795654297
1684108871922164500,0.27616455078125,-0.47124195098876953,-0.24451684951782227,1.2195460796356201
1684108871932205600,0.28620556640625,-0.7703566551208496,-0.17244362831115723,1.6617672443389893
1684108871942247000,0.296246826171875,-0.6938571929931641,-0.6341180801391602,1.948767900466919
1684108871952288300,0.306288330078125,-0.11643695831298828,-0.5684788227081299,1.82541823387146
1684108871962329300,0.316329345703125,0.11268138885498047,-0.6801533699035645,2.142624855041504
1684108871972370700,0.32637060546875,0.4032163619995117,0.2416825294494629,2.1026878356933594
1684108871982411800,0.336411865234375,0.23133277893066406,-0.035269737243652344,1.3928890228271484
1684108871992453000,0.346453125,0.11068344116210938,-0.29444456100463867,2.182074546813965
1684108872002494500,0.356494384765625,0.3976001739501953,0.020184755325317383,0.8353135585784912
1684108872012535600,0.36653564453125,0.3431854248046875,0.07876372337341309,1.195566177368164
1684108872022577000,0.376576904296875,0.06817626953125,0.08609747886657715,0.9009606838226318
1684108872032618000,0.386617919921875,-0.1396341323852539,0.17690348625183105,0.8894913196563721
1684108872042659300,0.396659423828125,-0.22254371643066406,0.4657557010650635,0.6172518730163574
1684108872052700700,0.40670068359375,-0.10943317413330078,0.42542004585266113,0.3688161373138428
1684108872062741800,0.41674169921875,0.2783966064453125,0.48175048828125,0.13998055458068848
1684108872072783000,0.426783203125,0.41155147552490234,0.7870051860809326,-0.18953275680541992
1684108872082824200,0.43682421875,0.5660905838012695,-0.2693326473236084,-0.06878066062927246
1684108872092865500,0.446865478515625,0.8821582794189453,-0.36613988876342773,-0.3909873962402344
1684108872102907000,0.456906982421875,1.034017562866211,-0.1981661319732666,-0.48851943016052246
1684108872112948000,0.466947998046875,1.2497777938842773,-0.2569398880004883,-0.11990690231323242
1684108872122989300,0.4769892578125,1.3243131637573242,0.19185495376586914,0.4721670150756836
1684108872133030400,0.487030517578125,0.09940528869628906,1.0601977109909058,1.0409059524536133
1684108872143071700,0.49707177734375,-0.9769420623779297,1.2770814895629883,0.635401725769043
1684108872153113000,0.507113037109375,-1.6763825416564941,0.9123976230621338,0.4894084930419922
1684108872163154200,0.517154296875,-2.207181453704834,0.7103328704833984,0.3085951805114746
1684108872173195500,0.527195556640625,-2.410332202911377,0.3396047353744507,0.3669767379760742
1684108872183236600,0.537236572265625,-2.3289856910705566,0.26416587829589844,0.5347347259521484
1684108872193278000,0.54727783203125,-1.893442153930664,0.652430534362793,0.6258821487426758
1684108872203319300,0.5573193359375,-1.2313966751098633,0.6171133518218994,0.6418099403381348
1684108872213360400,0.5673603515625,-0.6411805152893066,0.5242658853530884,0.28745269775390625
1684108872223401700,0.577401611328125,-0.2033405303955078,0.20302891731262207,0.4081597328186035
1684108872233442800,0.58744287109375,0.34731435775756836,0.30670440196990967,0.2941322326660156
1684108872243484200,0.597484130859375,0.8465490341186523,0.7083878517150879,0.024982452392578125
1684108872253525200,0.607525146484375,0.9117121696472168,0.6103149652481079,0.07211065292358398
1684108872263566600,0.617566650390625,0.7760896682739258,-0.11186039447784424,-0.9458975791931152
1684108872273608000,0.62760791015625,1.5304007530212402,-0.769415020942688,-0.10336065292358398
1684108872283649000,0.63764892578125,1.5764541625976562,-1.0644370317459106,0.32981109619140625
1684108872293690400,0.6476904296875,0.5234670639038086,-0.17008626461029053,-0.7118616104125977
1684108872303731700,0.657731689453125,-0.5894947052001953,-0.1679391860961914,-1.0524530410766602
1684108872313772800,0.667772705078125,-0.9749822616577148,-0.755562424659729,-0.37413740158081055
1684108872323814100,0.677814208984375,-0.4653158187866211,-0.5938069820404053,-0.15750551223754883
1684108872333855500,0.68785546875,0.32019567489624023,-0.2604091167449951,-0.20386648178100586
1684108872343896600,0.697896484375,0.948218822479248,-0.198988676071167,-0.5709609985351562
1684108872353938000,0.70793798828125,-0.05141878128051758,-0.5265069007873535,-0.8735051155090332
1684108872363979000,0.71797900390625,-0.7293210029602051,-0.2402489185333252,-1.9235787391662598
1684108872374020400,0.728020263671875,0.06971406936645508,-0.4629638195037842,-1.9263114929199219
1684108872384061400,0.7380615234375,1.0850324630737305,-0.514113187789917,-1.8093948364257812
1684108872394102800,0.748102783203125,1.6611871719360352,-0.5253987312316895,-1.5042548179626465
1684108872404144000,0.75814404296875,1.2033376693725586,-0.49703526496887207,-1.425126552581787
1684108872414185200,0.768185302734375,0.5949344635009766,0.009024381637573242,-1.4475159645080566
1684108872424226600,0.7782265625,-0.18665456771850586,0.46410155296325684,-0.5592432022094727
1684108872434268000,0.788267822265625,-0.5273566246032715,0.4487802982330322,0.7067928314208984
1684108872444309000,0.79830908203125,-1.1204354763031006,0.4731719493865967,0.7955951690673828
1684108872454350300,0.808350341796875,-1.2523791790008545,0.7709546089172363,0.6660747528076172
1684108872464391700,0.8183916015625,-0.7012939453125,0.4881807565689087,0.42031192779541016
1684108872474432800,0.828432861328125,-0.6996316909790039,0.27510643005371094,0.0065174102783203125
1684108872484474000,0.83847412109375,-0.3806600570678711,0.32442784309387207,-0.3868732452392578
1684108872494515200,0.84851513671875,0.014230489730834961,0.01412200927734375,-0.3235616683959961
1684108872504556500,0.858556640625,0.06304168701171875,-0.44419312477111816,0.021826744079589844
1684108872514598000,0.868597900390625,0.2603116035461426,-0.4900338649749756,0.1293935775756836
1684108872524639000,0.878638916015625,0.242018461227417,-0.5005059242248535,0.14033126831054688
1684108872534680300,0.888680419921875,0.04142403602600098,-0.4007439613342285,0.2171459197998047
1684108872544721700,0.8987216796875,-0.22283649444580078,-0.22049784660339355,0.5516881942749023
1684108872554762800,0.9087626953125,-0.5108875036239624,0.155303955078125,0.6191129684448242
1684108872564804000,0.91880419921875,-0.44317638874053955,0.30423569679260254,0.48322200775146484
1684108872574845400,0.928845458984375,-0.21410083770751953,0.22198271751403809,0.4238319396972656
1684108872584886500,0.938886474609375,0.24699127674102783,-0.10843324661254883,0.2232370376586914
1684108872594927900,0.948927978515625,0.8106187582015991,-0.6031169891357422,-0.0633840560913086
1684108872604969200,0.95896923828125,1.2475107908248901,-0.9094910621643066,-0.19429588317871094
1684108872615010300,0.96901025390625,1.0172576904296875,-0.7128417491912842,0.14068031311035156
1684108872625051600,0.9790517578125,0.6845393180847168,-0.48995208740234375,0.66937255859375
1684108872635093000,0.989093017578125,0.19126355648040771,-0.322554349899292,0.8231954574584961
1684108872645134000,0.999134033203125,-0.18950790166854858,-0.04079627990722656,0.5376739501953125
1684108872655175400,1.009175537109375,-0.5297113656997681,-0.15525102615356445,0.4178895950317383
1684108872665216500,1.019216552734375,-0.9416166543960571,-0.3859672546386719,0.22381114959716797
1684108872675257900,1.0292578125,-1.4081873893737793,-0.704909086227417,0.6607160568237305
1684108872685299200,1.03929931640625,-1.826217532157898,-0.3578155040740967,0.5944385528564453
1684108872695340300,1.04934033203125,-1.3155262470245361,-0.16132426261901855,0.813054084777832
1684108872705381600,1.059381591796875,-0.3882034122943878,-0.08588814735412598,0.7215185165405273
1684108872715423000,1.069423095703125,0.41496339440345764,-0.4221816062927246,0.7497148513793945
1684108872725464000,1.079464111328125,0.7608073353767395,-0.4521007537841797,0.020589828491210938
1684108872735505400,1.08950537109375,0.8309212923049927,-0.47173309326171875,-0.5711488723754883
1684108872745546800,1.099546630859375,0.6894787549972534,-0.5253443717956543,-0.709101676940918
1684108872755587800,1.109587890625,0.6090468168258667,-0.6382944583892822,-0.6229009628295898
1684108872765629200,1.119629150390625,0.331926167011261,-0.8303399085998535,0.21035099029541016
1684108872775670500,1.12967041015625,-0.13670483231544495,-0.647188663482666,0.21813201904296875
1684108872785711600,1.139711669921875,-0.37067359685897827,-0.6626343727111816,0.1294565200805664
1684108872795753000,1.1497529296875,-0.2986941933631897,-0.6487550735473633,0.33092784881591797
1684108872805794300,1.159794189453125,-0.08814610540866852,-0.4567999839782715,0.3095417022705078
1684108872815835400,1.16983544921875,-0.11587266623973846,-0.4502296447753906,0.3311176300048828
1684108872825876700,1.179876708984375,-0.06870388984680176,-0.29710912704467773,0.031151771545410156
1684108872835918000,1.18991796875,-0.06732413172721863,-0.19401931762695312,-0.008877754211425781
1684108872845959200,1.199959228515625,-0.05720895528793335,0.06115531921386719,-0.7024707794189453
1684108872856000500,1.21000048828125,0.08252982795238495,0.12218904495239258,-0.34713077545166016
1684108872866041900,1.220041748046875,0.14555057883262634,0.2832808494567871,-0.013574600219726562
1684108872876083000,1.2300830078125,0.19332283735275269,0.48595190048217773,-0.14926433563232422
1684108872886124300,1.240124267578125,0.2453342080116272,0.4753751754760742,0.010308265686035156
1684108872896165600,1.25016552734375,0.2410089671611786,0.40966129302978516,0.0827779769897461
1684108872906206700,1.260206787109375,0.06762480735778809,0.28647327423095703,0.04729652404785156
1684108872916248000,1.270248046875,-0.006307661533355713,0.3927593231201172,-0.11577415466308594
1684108872926289400,1.280289306640625,-0.024913549423217773,0.40286684036254883,-0.13135051727294922
1684108872936330500,1.29033056640625,0.13227474689483643,0.1941394805908203,0.30196380615234375
1684108872946371800,1.300371826171875,0.055726706981658936,0.5916652679443359,0.0417938232421875
1684108872956413200,1.3104130859375,-0.14341425895690918,0.06454277038574219,0.9402217864990234
1684108872966454300,1.320454345703125,0.012939780950546265,-0.015935897827148438,1.3794317245483398
1684108872976495600,1.33049560546875,-0.10693952441215515,0.15934371948242188,1.3515625
1684108872986537000,1.340536865234375,-0.38203755021095276,0.39679670333862305,0.8138923645019531
1684108872996578000,1.350578125,-0.40642502903938293,0.2385845184326172,0.4917573928833008
1684108873006619400,1.360619384765625,-0.0876610279083252,0.21957635879516602,0.22591686248779297
1684108873016660700,1.37066064453125,0.22593706846237183,0.1434626579284668,0.08696460723876953
1684108873026701800,1.380701904296875,0.3079410493373871,-0.2025761604309082,0.09539604187011719
1684108873036743200,1.3907431640625,0.3996396064758301,-0.26291942596435547,0.10271167755126953
1684108873046784500,1.400784423828125,0.19355374574661255,-0.22174882888793945,0.16212224960327148
1684108873056825900,1.410825927734375,0.10004067420959473,-0.12395095825195312,0.23614072799682617
1684108873066867000,1.420866943359375,0.15433144569396973,-0.06167888641357422,0.5804142951965332
1684108873076908300,1.430908203125,0.04982423782348633,-0.21515607833862305,0.7034726142883301
1684108873086949600,1.44094970703125,1.0399154424667358,-0.536501407623291,1.1158390045166016
1684108873096990700,1.45099072265625,1.2458138465881348,-0.13743257522583008,1.277432918548584
1684108873107032000,1.461031982421875,1.2623568773269653,0.08329439163208008,1.4905486106872559
1684108873117073400,1.471073486328125,0.9604460000991821,0.02327108383178711,1.169755458831787
1684108873127114500,1.481114501953125,0.9123015999794006,-0.9745903015136719,1.3110556602478027
1684108873137155800,1.49115576171875,0.9706023931503296,0.061860084533691406,-0.5560903549194336
1684108873147197200,1.501197265625,0.24983373284339905,0.16239213943481445,0.044460296630859375
1684108873157238300,1.51123828125,0.25896894931793213,1.0436339378356934,-0.09714794158935547
1684108873167279600,1.521279541015625,-0.07260996103286743,-0.16245269775390625,1.3484997749328613
1684108873177321000,1.531321044921875,0.8237106204032898,0.6177091598510742,1.4765057563781738
1684108873187362300,1.5413623046875,0.3060127794742584,0.4249453544616699,1.6606435775756836
1684108873197403400,1.5514033203125,0.030980348587036133,0.3394007682800293,1.421950340270996
1684108873207444700,1.56144482421875,0.5317023992538452,0.30469751358032227,1.0326242446899414
1684108873217486000,1.571486083984375,0.252515584230423,-0.21657848358154297,0.5801916122436523
1684108873227527200,1.581527099609375,0.41871756315231323,0.4718589782714844,0.1712665557861328
1684108873237568500,1.591568603515625,0.28936856985092163,0.9127788543701172,0.38033437728881836
1684108873247609900,1.60160986328125,-0.054180920124053955,0.32314634323120117,0.5767021179199219
1684108873257651000,1.61165087890625,-0.09491363167762756,0.29966211318969727,0.5440244674682617
1684108873267692300,1.6216923828125,0.15344804525375366,0.5702180862426758,0.22696399688720703
1684108873277733600,1.631733642578125,0.4308161735534668,0.6534152030944824,-0.006828784942626953
1684108873287774700,1.641774658203125,0.5927181243896484,0.656890869140625,-0.6631202697753906
1684108873297816000,1.651816162109375,0.9246644377708435,0.3591480255126953,-1.2764716148376465
1684108873307857400,1.661857421875,2.058241605758667,-0.3920111656188965,-1.4089107513427734
1684108873317898800,1.671898681640625,2.2316832542419434,-0.5112118721008301,-1.775423526763916
1684108873327939800,1.68193994140625,2.3936591148376465,-0.7858524322509766,-1.570436954498291
1684108873337981200,1.691981201171875,1.7840487957000732,-0.5178194046020508,-2.01809024810791
1684108873348022500,1.7020224609375,0.6468249559402466,0.20837783813476562,-2.5520262718200684
1684108873358063900,1.71206396484375,-0.4146263599395752,0.7019968032836914,-2.3645434379577637
1684108873368105000,1.72210498046875,-0.922649085521698,1.2362513542175293,-2.000439167022705
1684108873378146300,1.732146240234375,-0.6311131715774536,2.3728671073913574,-1.6061811447143555
1684108873388187600,1.742187744140625,-0.18249475955963135,2.195711135864258,-1.3497610092163086
1684108873398228700,1.752228759765625,0.324161171913147,1.5751996040344238,-0.7261128425598145
1684108873408270000,1.76227001953125,0.5419051647186279,0.8399910926818848,-0.9849424362182617
1684108873418311400,1.7723115234375,0.43734610080718994,1.3669557571411133,-0.3373126983642578
1684108873428352500,1.7823525390625,0.17230302095413208,1.7873902320861816,-0.17286157608032227
1684108873438393900,1.792393798828125,0.1325283646583557,0.7469439506530762,-1.020047664642334
1684108873448435200,1.802435302734375,0.1334604024887085,-0.51544189453125,-1.033698558807373
1684108873458476500,1.8124765625,-0.03954505920410156,-2.3299765586853027,-0.3748760223388672
1684108873468517600,1.822517578125,-0.07028210163116455,-3.4046664237976074,0.588531494140625
1684108873478559000,1.83255908203125,0.2565158009529114,-3.20147705078125,0.9960212707519531
1684108873488600300,1.842600341796875,0.5508299469947815,-1.7202858924865723,0.6077852249145508
1684108873498641700,1.8526416015625,0.4271823763847351,0.06426239013671875,0.18450117111206055
1684108873508682800,1.862682861328125,0.03377807140350342,1.106363296508789,0.01947498321533203
1684108873518724000,1.87272412109375,-0.40711140632629395,1.1337099075317383,-0.1414661407470703
1684108873528765400,1.882765380859375,-0.49355900287628174,1.3323211669921875,0.0427093505859375
1684108873538806500,1.892806640625,-0.6569722890853882,0.5431265830993652,0.08729743957519531
1684108873548847900,1.902847900390625,-0.4564756155014038,-0.03839540481567383,-0.1971592903137207
1684108873558889200,1.91288916015625,0.04884815216064453,-0.251340389251709,-0.0030879974365234375
1684108873568930600,1.9229306640625,0.5121396780014038,0.019176483154296875,0.3502011299133301
1684108873578971600,1.9329716796875,0.9276526570320129,0.037477970123291016,1.0915746688842773
1684108873589013000,1.943012939453125,0.9262197017669678,0.18368911743164062,1.6977734565734863
1684108873599054300,1.953054443359375,0.5547671318054199,0.2392115592956543,1.6946229934692383
1684108873609095700,1.963095703125,0.11802029609680176,0.551116943359375,1.2257046699523926
1684108873619136800,1.97313671875,-0.47180473804473877,0.6557316780090332,0.5298962593078613
1684108873629178000,1.98317822265625,-1.0228781700134277,0.5396509170532227,0.13617515563964844
1684108873639219500,1.993219482421875,-1.1394269466400146,0.6338133811950684,0.1308441162109375
1684108873649260800,2.0032607421875,-0.9010846614837646,0.11703634262084961,0.14661073684692383
1684108873659302000,2.013302001953125,-0.8635247945785522,-0.31522130966186523,-0.1189265251159668
1684108873669343200,2.02334326171875,-0.9134060144424438,-0.5590581893920898,-0.42565155029296875
1684108873679384600,2.033384521484375,-0.8366004228591919,-0.8337526321411133,-0.7286930084228516
1684108873689425700,2.04342578125,-0.8633127212524414,-0.8263540267944336,-0.6484475135803223
1684108873699467000,2.053467041015625,-1.0411399602890015,-0.5849719047546387,-0.625248908996582
1684108873709508400,2.06350830078125,-1.5511764287948608,-0.5612368583679199,-0.46218204498291016
1684108873719549700,2.0735498046875,-1.8682615756988525,-0.46157026290893555,-0.2987504005432129
1684108873729590800,2.0835908203125,-2.2080907821655273,-0.4354557991027832,0.009892463684082031
1684108873739632000,2.093632080078125,-2.328047513961792,-0.5636758804321289,0.4560203552246094
1684108873749673500,2.103673583984375,-1.7265548706054688,-1.0153508186340332,0.29850101470947266
1684108873759714800,2.11371484375,-1.3391938209533691,-0.9759783744812012,-0.18737459182739258
1684108873769756000,2.123755859375,-1.0815105438232422,-1.177107810974121,-0.24716615676879883
1684108873779797200,2.13379736328125,-0.6687414646148682,-1.2786755561828613,-0.26206302642822266
1684108873789838600,2.143838623046875,-0.3066575527191162,-1.1224899291992188,-0.017441749572753906
1684108873799880000,2.1538798828125,-0.205369234085083,-1.2052545547485352,0.3832688331604004
1684108873809921000,2.163921142578125,-0.21024727821350098,-1.7140941619873047,0.6781115531921387
1684108873819962400,2.17396240234375,-0.20511078834533691,-1.7098498344421387,0.9710922241210938
1684108873830003700,2.184003662109375,-0.2164158821105957,-1.6102676391601562,0.4113154411315918
1684108873840045000,2.194045166015625,-0.03358101844787598,-0.7626032829284668,-0.010373115539550781
1684108873850086100,2.204086181640625,0.20652985572814941,-0.19313430786132812,-0.1524810791015625
1684108873860127500,2.21412744140625,0.35213303565979004,-0.3357682228088379,0.3005537986755371
1684108873870168800,2.2241689453125,0.6491715908050537,-0.12114524841308594,0.569727897644043
1684108873880210200,2.234210205078125,0.9625880718231201,0.06395673751831055,0.5251975059509277
1684108873890251300,2.244251220703125,1.0459365844726562,-0.07320451736450195,0.06569910049438477
1684108873900292600,2.254292724609375,1.034316062927246,-0.38358354568481445,-0.5315403938293457
1684108873910334000,2.264333984375,1.1578423976898193,-0.11745452880859375,-1.3458495140075684
1684108873920375300,2.274375244140625,1.3452856540679932,-0.17993497848510742,-2.1115193367004395
1684108873930416400,2.28441650390625,1.5407373905181885,0.1997389793395996,-2.328876495361328
1684108873940457700,2.294457763671875,1.7748990058898926,0.2767467498779297,-2.265166759490967
1684108873950499000,2.3044990234375,1.9148768186569214,0.41858530044555664,-2.1541643142700195
1684108873960540400,2.31454052734375,1.741409420967102,0.41902923583984375,-1.910961627960205
1684108873970581500,2.32458154296875,1.410301923751831,0.3344292640686035,-1.6041698455810547
1684108873980622800,2.334622802734375,0.9717404842376709,0.010342597961425781,-1.2077465057373047
1684108873990664200,2.344664306640625,0.5583815574645996,-0.36663389205932617,-0.8233051300048828
1684108874000705500,2.35470556640625,0.17638063430786133,-0.7569184303283691,-0.17793512344360352
1684108874010746600,2.36474658203125,-0.23663997650146484,-0.8535470962524414,0.6331815719604492
1684108874020788000,2.3747880859375,-0.49512267112731934,-1.3601441383361816,0.7217159271240234
1684108874030829300,2.384829345703125,-0.6278822422027588,-1.4464669227600098,0.9079923629760742
1684108874040870700,2.39487060546875,-0.8878605365753174,-1.6013507843017578,0.9238519668579102
1684108874050912000,2.404912109375,-1.2601945400238037,-1.9806857109069824,1.040468692779541
1684108874060953000,2.414953125,-1.356909990310669,-2.6107001304626465,1.1995148658752441
1684108874070994400,2.424994384765625,-0.48438072204589844,-1.2535414695739746,0.6766915321350098
1684108874081035800,2.435035888671875,-0.3894686698913574,-0.4951515197753906,0.25299596786499023
1684108874091077000,2.4450771484375,-1.4266729354858398,-1.4106078147888184,-0.5891780853271484
1684108874101118200,2.4551181640625,-0.6757745742797852,-1.5184135437011719,-1.6384015083312988
1684108874111159600,2.46515966796875,0.27158474922180176,-0.2404036521911621,-2.342210292816162
1684108874121201000,2.475200927734375,-0.032938241958618164,-0.032759666442871094,-2.5714452266693115
1684108874131242200,2.4852421875,-0.18970346450805664,0.14964628219604492,-2.169743061065674
1684108874141283300,2.495283447265625,-0.19405817985534668,0.08094453811645508,-1.5562734603881836
1684108874151324700,2.50532470703125,0.22777652740478516,0.11861467361450195,-0.8984055519104004
1684108874161366000,2.515365966796875,1.0836663246154785,0.3814091682434082,-0.3741035461425781
1684108874171407400,2.525407470703125,1.5966451168060303,0.3722672462463379,-0.3089871406555176
1684108874181448700,2.53544873046875,1.5307761430740356,0.7158217430114746,-0.4741344451904297
1684108874191489800,2.54548974609375,1.151315689086914,0.8587207794189453,-0.543510913848877
1684108874201531100,2.55553125,0.7031776905059814,0.9492082595825195,-0.700045108795166
1684108874211572500,2.565572509765625,0.621586799621582,1.031036376953125,-0.5404191017150879
1684108874221613800,2.57561376953125,0.49634695053100586,1.0648961067199707,-0.09896039962768555
1684108874231655000,2.585655029296875,0.05795478820800781,0.8697524070739746,0.2622652053833008
1684108874241696300,2.5956962890625,-0.11990714073181152,0.9425711631774902,0.5431327819824219
1684108874251737600,2.605737548828125,-0.5870130062103271,0.9118313789367676,0.5107941627502441
1684108874261779000,2.615779052734375,-1.1365251541137695,0.5772790908813477,0.31940555572509766
1684108874271820300,2.6258203125,-1.240748643875122,0.4921302795410156,0.07608795166015625
1684108874281861400,2.635861328125,-0.9733438491821289,0.7333483695983887,-0.15114259719848633
1684108874291902700,2.64590283203125,-0.801443338394165,-0.17660903930664062,-0.03834724426269531
1684108874301944000,2.655944091796875,-0.03150153160095215,0.0988616943359375,0.054411888122558594
1684108874311985400,2.6659853515625,0.44758105278015137,-0.01677417755126953,-0.1792616844177246
1684108874322026500,2.676026611328125,0.452681303024292,0.04043388366699219,-0.23718881607055664
1684108874332067800,2.68606787109375,0.01833653450012207,-0.16953802108764648,-0.1966261863708496
1684108874342109200,2.696109130859375,-0.05116748809814453,-0.05974864959716797,0.20850038528442383
1684108874352150500,2.706150634765625,-0.0316011905670166,0.044560909271240234,0.5908379554748535
1684108874362192000,2.71619189453125,-0.020452260971069336,0.04912900924682617,0.7377657890319824
1684108874372233000,2.72623291015625,0.22899103164672852,1.1396632194519043,0.49910497665405273
1684108874382274300,2.7362744140625,0.014101028442382812,0.8375916481018066,-0.18882322311401367
1684108874392315600,2.746315673828125,-0.4950544834136963,0.8761177062988281,-0.7719106674194336
1684108874402357000,2.75635693359375,-1.0595881938934326,0.6908702850341797,-1.0791351795196533
1684108874412398300,2.7663984375,-1.3464982509613037,0.806248664855957,-1.1132521629333496
1684108874422439400,2.776439453125,-0.799109697341919,2.5724339485168457,-0.20131874084472656
1684108874432480800,2.786480712890625,-1.2590882778167725,1.6747932434082031,-0.6683211326599121
1684108874442522000,2.796522216796875,-0.784092903137207,3.316131114959717,-0.5010032653808594
1684108874452563500,2.8065634765625,-0.7322220802307129,3.156141757965088,-0.7613816261291504
1684108874462604800,2.816604736328125,-0.5761313438415527,2.017155170440674,-0.8711040019989014
1684108874472646000,2.82664599609375,-0.6051759719848633,-1.0883617401123047,-0.8998172283172607
1684108874482687200,2.836687255859375,-0.8385641574859619,-4.339130401611328,-1.015054702758789
1684108874492728600,2.846728515625,-1.0138795375823975,-7.348911285400391,-0.35296082496643066
1684108874502770000,2.85677001953125,-0.4045107364654541,-5.83650016784668,-0.0712442398071289
1684108874512811300,2.866811279296875,-0.24948859214782715,-1.4816303253173828,0.11421871185302734
1684108874522852400,2.876852294921875,-1.297347068786621,0.8767437934875488,0.36177706718444824
1684108874532893700,2.886893798828125,-2.5875966548919678,0.6597433090209961,0.3913435935974121
1684108874542935000,2.89693505859375,-2.62754487991333,-0.6366558074951172,0.6962575912475586
1684108874552976400,2.906976318359375,-1.6588773727416992,-1.094064712524414,1.0380768775939941
1684108874563017700,2.917017822265625,-0.4715003967285156,-0.8552427291870117,1.152350902557373
1684108874573058800,2.927058837890625,0.849526047706604,-0.9060258865356445,1.2413668632507324
1684108874583100200,2.93710009765625,2.0279242992401123,-0.8556270599365234,1.2253241539001465
1684108874593141500,2.9471416015625,3.3138294219970703,-0.6962270736694336,0.8203065395355225
1684108874603182800,2.957182861328125,4.271339416503906,-0.5549087524414062,0.4462261199951172
1684108874613224200,2.96722412109375,4.676198959350586,-0.5775051116943359,0.14161276817321777
1684108874623265300,2.977265380859375,4.48118782043457,-0.618168830871582,-0.00301361083984375
1684108874633306600,2.987306640625,3.81184720993042,-0.4336376190185547,-0.07937169075012207
1684108874643348000,2.997347900390625,2.7438011169433594,-0.3768749237060547,-0.2184925079345703
1684108874653389300,3.007389404296875,1.557556390762329,-0.25502872467041016,-0.2692711353302002
1684108874663430700,3.0174306640625,0.3911170959472656,-0.2943134307861328,-0.22507095336914062
1684108874673472000,3.027471923828125,-0.4175868034362793,-0.14198970794677734,-0.09026980400085449
1684108874683513000,3.03751318359375,-0.7839388847351074,0.10624122619628906,-0.01708364486694336
1684108874693554400,3.047554443359375,-0.786236047744751,0.3227357864379883,-0.14847946166992188
1684108874703595800,3.057595703125,-0.6963536739349365,0.4549522399902344,-0.2975192070007324
1684108874713637000,3.06763720703125,-0.6496376991271973,0.36861515045166016,-0.49912381172180176
1684108874723678500,3.077678466796875,-0.5807316303253174,0.12155914306640625,-0.745042085647583
1684108874733719600,3.087719482421875,-0.46099114418029785,-0.2697153091430664,-0.8793890476226807
1684108874743761000,3.097760986328125,-0.31134581565856934,-0.6145572662353516,-0.9777185916900635
1684108874753802200,3.10780224609375,-0.08239197731018066,-0.771235466003418,-0.87994384765625
1684108874763843600,3.117843505859375,0.2623612880706787,-0.7760286331176758,-0.5872433185577393
1684108874773884700,3.127884765625,0.686476469039917,-0.730555534362793,-0.15227580070495605
1684108874783926000,3.137926025390625,1.0274271965026855,-0.647700309753418,0.0006530284881591797
1684108874793967400,3.14796728515625,1.3870105743408203,-0.3555116653442383,-0.07503819465637207
1684108874804008700,3.1580087890625,1.5899837017059326,-0.3134803771972656,-0.5832967758178711
1684108874814050000,3.168050048828125,1.559478759765625,-0.03240394592285156,-1.028784990310669
1684108874824091400,3.17809130859375,1.4759202003479004,-0.047565460205078125,-1.2137746810913086
1684108874834132700,3.1881328125,1.3622245788574219,-0.4374885559082031,-1.2586392164230347
1684108874844173800,3.198173828125,1.2326107025146484,-0.6435146331787109,-1.0162453651428223
1684108874854215200,3.208215087890625,1.0639346837997437,-0.5315208435058594,-0.6039936542510986
1684108874864256500,3.218256591796875,1.0003533363342285,-0.739598274230957,-0.08941817283630371
1684108874874297900,3.2282978515625,1.0998311042785645,0.2018880844116211,0.1752777099609375
1684108874884339000,3.2383388671875,0.9666494131088257,0.011729240417480469,0.3202965259552002
1684108874894380300,3.24838037109375,0.9446340799331665,-0.4991016387939453,0.47901034355163574
1684108874904421600,3.258421630859375,0.9586447477340698,-0.7098455429077148,0.5983104705810547
1684108874914463000,3.268462890625,1.071808099746704,-0.8668079376220703,0.6503643989562988
1684108874924504300,3.27850439453125,1.1496587991714478,-0.8694667816162109,0.6007940769195557
1684108874934545700,3.288545654296875,1.0818994045257568,-0.7108278274536133,0.3743319511413574
1684108874944586800,3.298586669921875,0.8813453912734985,-0.7564382553100586,0.11792802810668945
1684108874954628000,3.308628173828125,0.7252169847488403,-0.719029426574707,-0.10283017158508301
1684108874964669400,3.31866943359375,0.5599547028541565,-0.6227092742919922,-0.2775099277496338
1684108874974710800,3.328710693359375,0.4933694005012512,-0.5413351058959961,-0.5195209980010986
1684108874984752000,3.338752197265625,0.3918893337249756,-0.5027141571044922,-0.8068156242370605
1684108874994793500,3.34879345703125,0.31604892015457153,-0.3890085220336914,-0.9336600303649902
1684108875004834800,3.358834716796875,0.28899747133255005,-0.25301647186279297,-0.9047622680664062
1684108875014876000,3.3688759765625,0.2836180329322815,-0.12363815307617188,-0.8136699199676514
1684108875024917200,3.378917236328125,0.30571627616882324,0.025343894958496094,-0.7225120067596436
1684108875034958600,3.38895849609375,0.4242582321166992,0.5749416351318359,-0.7969925403594971
1684108875045000000,3.399,0.39602357149124146,0.49193763732910156,-0.5052392482757568
1684108875055041300,3.409041259765625,0.23804742097854614,0.3771247863769531,-0.33070898056030273
1684108875065082600,3.41908251953125,0.05701303482055664,0.1317453384399414,-0.34597301483154297
1684108875075123700,3.429123779296875,0.1971125602722168,0.18202781677246094,-0.22775697708129883
1684108875085165000,3.4391650390625,0.474076509475708,0.26793384552001953,-0.010566234588623047
1684108875095206400,3.449206298828125,0.7757468223571777,0.28234291076660156,0.2336125373840332
1684108875105247700,3.459247802734375,1.107740879058838,0.39275455474853516,0.46845293045043945
1684108875115289000,3.4692890625,1.2983570098876953,0.3339214324951172,0.5885567665100098
1684108875125330400,3.479330322265625,1.219139575958252,0.0032968521118164062,0.5748229026794434
1684108875135371500,3.48937158203125,1.0365138053894043,-0.39115142822265625,0.46339941024780273
1684108875145412900,3.499412841796875,0.9092218279838562,-0.3863801956176758,0.34754276275634766
1684108875155454200,3.5094541015625,0.6986416578292847,-0.18138790130615234,0.3038976192474365
1684108875165495600,3.51949560546875,0.36014696955680847,0.21408557891845703,0.418010950088501
1684108875175537000,3.529536865234375,-0.14996612071990967,0.45291614532470703,0.6783406734466553
1684108875185578200,3.539578125,-0.5939043760299683,0.6395158767700195,0.9745097160339355
1684108875195619300,3.549619384765625,-0.8317337036132812,0.6371002197265625,1.1352391242980957
1684108875205660700,3.55966064453125,-0.6995293498039246,0.6203622817993164,1.1444857120513916
1684108875215702000,3.569701904296875,-0.13004916906356812,0.7216730117797852,1.063060998916626
1684108875225743400,3.579743408203125,0.30554312467575073,0.7697763442993164,1.0541799068450928
1684108875235784700,3.58978466796875,0.6275455951690674,0.7983779907226562,0.9882471561431885
1684108875245826000,3.599825927734375,0.7150135040283203,0.5900936126708984,0.9894485473632812
1684108875255867100,3.6098671875,0.4750185012817383,0.3625459671020508,0.9764986038208008
1684108875265908500,3.619908447265625,0.2612299919128418,0.2947978973388672,0.915471076965332
1684108875275949800,3.62994970703125,0.13737812638282776,0.35073089599609375,0.7264032363891602
1684108875285991200,3.6399912109375,0.15179279446601868,0.3751411437988281,0.49317002296447754
1684108875296032500,3.650032470703125,0.20726028084754944,0.10339736938476562,0.34917473793029785
1684108875306073900,3.660073974609375,0.2564556300640106,0.030710220336914062,0.264141321182251
1684108875316115000,3.670114990234375,0.30066707730293274,0.18763351440429688,0.17370891571044922
1684108875326156300,3.68015625,0.24396570026874542,0.26059913635253906,0.22775745391845703
1684108875336197600,3.69019775390625,0.17172852158546448,0.21173954010009766,0.17309355735778809
1684108875346239000,3.700239013671875,0.2448856234550476,0.07778549194335938,0.10731101036071777
1684108875356280300,3.7102802734375,0.34462064504623413,0.022092819213867188,0.10674500465393066
1684108875366321700,3.72032177734375,0.347282350063324,0.028120994567871094,0.26053667068481445
1684108875376363000,3.730363037109375,0.335637629032135,0.01903820037841797,0.4908638000488281
1684108875386404000,3.740404052734375,0.2961912751197815,0.003998756408691406,0.6098556518554688
1684108875396445400,3.750445556640625,0.24826370179653168,0.011401176452636719,0.6457178592681885
1684108875406486800,3.76048681640625,0.2414434850215912,-0.0019998550415039062,0.6578505039215088
1684108875416528100,3.770528076171875,0.3153049647808075,-0.02194976806640625,0.595869779586792
1684108875426569500,3.780569580078125,0.2971106171607971,-0.05550384521484375,0.46035122871398926
1684108875436610800,3.79061083984375,0.30746278166770935,0.026549339294433594,0.3335244655609131
1684108875446652200,3.800652099609375,0.3537345230579376,0.05428791046142578,0.29392290115356445
1684108875456693200,3.810693359375,0.414931058883667,0.10840511322021484,0.374920129776001
1684108875466734600,3.820734619140625,0.4946242570877075,0.2120504379272461,0.46640777587890625
1684108875476776000,3.83077587890625,0.5062323808670044,0.1807699203491211,0.571368932723999
1684108875486817300,3.8408173828125,0.5222785472869873,0.09612274169921875,0.6156775951385498
1684108875496858600,3.850858642578125,0.5606892108917236,0.04703235626220703,0.6559417247772217
1684108875506900000,3.86089990234375,0.5573506355285645,-0.01640033721923828,0.693488597869873
1684108875516941300,3.87094140625,0.5829304456710815,-0.12024211883544922,0.6716935634613037
1684108875526982400,3.880982421875,0.6102219820022583,-0.10223197937011719,0.6568477153778076
1684108875537023700,3.891023681640625,0.6119489669799805,-0.28396129608154297,0.5834572315216064
1684108875547065000,3.901065185546875,0.6136801242828369,-0.3244781494140625,0.5229930877685547
1684108875557106400,3.9111064453125,0.6291050910949707,-0.2629718780517578,0.5300214290618896
1684108875567147800,3.921147705078125,0.6823301315307617,-0.06976890563964844,0.7051386833190918
1684108875577189000,3.931189208984375,0.7107893228530884,-0.0012903213500976562,1.1445858478546143
1684108875587230500,3.94123046875,0.7318439483642578,-0.009190559387207031,1.7046916484832764
1684108875597271600,3.951271484375,0.831697940826416,-0.08968639373779297,2.178342580795288
1684108875607313000,3.96131298828125,0.7307634353637695,-0.2650175094604492,2.51346492767334
1684108875617354200,3.971354248046875,0.663967490196228,-0.43976497650146484,2.7083513736724854
1684108875627395600,3.9813955078125,0.6326804161071777,-0.6299877166748047,2.8297271728515625
1684108875637437000,3.99143701171875,0.6030439734458923,-0.6724033355712891,2.8902275562286377
1684108875647478300,4.001478271484375,0.6154118180274963,-0.4139575958251953,2.868398427963257
1684108875657519400,4.011519287109375,0.5484018325805664,-0.10604381561279297,2.736510992050171
1684108875667561000,4.02156103515625,0.35024505853652954,-0.13411426544189453,2.6303842067718506
1684108875677602000,4.03160205078125,0.059368252754211426,0.033486366271972656,2.3127756118774414
1684108875687643400,4.041643310546875,-0.49229130148887634,0.17488670349121094,1.8279008865356445
1684108875697684700,4.051684814453125,-1.3356313705444336,0.32117652893066406,1.0214850902557373
1684108875707726000,4.06172607421875,-1.8781640529632568,0.45465564727783203,0.3593127727508545
1684108875717767400,4.071767333984375,-2.232745885848999,0.42485809326171875,-0.12389063835144043
1684108875727808800,4.081808837890625,-2.3069658279418945,0.36557769775390625,-0.42318129539489746
1684108875737850000,4.09185009765625,-2.323209047317505,0.30126380920410156,-0.706421971321106
1684108875747891200,4.10189111328125,-2.6039175987243652,0.1574268341064453,-1.101453423500061
1684108875757932500,4.1119326171875,-2.909606456756592,0.07727909088134766,-1.2309657335281372
1684108875767974000,4.121973876953125,-3.164712905883789,-0.14383411407470703,-1.2137861251831055
1684108875778015200,4.13201513671875,-3.142371654510498,-0.22929096221923828,-1.1427797079086304
1684108875788056600,4.142056640625,-2.6982173919677734,-0.1920022964477539,-0.9713109731674194
1684108875798098000,4.152097900390625,-2.039355993270874,-0.11753082275390625,-0.7754335403442383
1684108875808139300,4.16213916015625,-1.4370369911193848,-0.06827926635742188,-0.5181372165679932
1684108875818180400,4.172180419921875,-0.9712553024291992,-0.07693862915039062,-0.21634411811828613
1684108875828221700,4.1822216796875,-0.5676692128181458,-0.08287429809570312,0.05453753471374512
1684108875838263000,4.192262939453125,-0.12026575207710266,-0.05753326416015625,0.418255090713501
1684108875848304400,4.202304443359375,0.1984209418296814,0.0006074905395507812,0.7947952747344971
1684108875858345700,4.212345703125,0.3288223147392273,0.014392852783203125,0.9925661087036133
1684108875868387000,4.222386962890625,0.4138219356536865,-0.07377243041992188,1.0271873474121094
1684108875878428400,4.232428466796875,0.4391554594039917,-0.11049079895019531,0.7903726100921631
1684108875888469800,4.2424697265625,0.5169957876205444,-0.2530364990234375,0.502061128616333
1684108875898511000,4.252510986328125,0.5496768951416016,-0.5350103378295898,0.3604238033294678
1684108875908552200,4.26255224609375,0.7522194981575012,-0.9374961853027344,0.1978445053100586
1684108875918593500,4.272593505859375,1.103596806526184,-1.1901750564575195,-0.09855318069458008
1684108875928635000,4.282634765625,1.5353823900222778,-1.4439277648925781,-0.21772384643554688
1684108875938676200,4.29267626953125,1.9552491903305054,-1.6704177856445312,-0.3554110527038574
1684108875948717600,4.302717529296875,2.310945749282837,-1.8763093948364258,-0.48941826820373535
1684108875958759000,4.312759033203125,2.5723843574523926,-2.219970703125,-0.5705900192260742
1684108875968800300,4.32280029296875,2.71201229095459,-2.5929670333862305,-0.574099063873291
1684108875978841300,4.33284130859375,2.7423207759857178,-2.697964668273926,-0.512101411819458
1684108875988882700,4.342882568359375,2.679152250289917,-2.4658241271972656,-0.41314244270324707
1684108875998924000,4.352924072265625,2.340884208679199,-1.8581514358520508,-0.2335038185119629
1684108876008965400,4.36296533203125,1.8663480281829834,-1.0591964721679688,-0.012426137924194336
1684108876019006700,4.3730068359375,1.5741331577301025,-0.41870594024658203,0.09948492050170898
1684108876029048000,4.383048095703125,1.4085922241210938,0.1257925033569336,0.028077125549316406
1684108876039089400,4.39308935546875,1.357140302658081,0.5950736999511719,-0.19733858108520508
1684108876049130800,4.403130859375,1.455739974975586,0.9822006225585938,-0.45914459228515625
1684108876059172000,4.413172119140625,1.4796785116195679,1.254157543182373,-0.7628350257873535
1684108876069213200,4.423213134765625,1.4573769569396973,1.3966279029846191,-0.9671235084533691
1684108876079254500,4.433254638671875,1.4956847429275513,1.3755826950073242,-1.106884479522705
1684108876089296000,4.4432958984375,1.6916553974151611,1.2720098495483398,-1.0777521133422852
1684108876099337200,4.453337158203125,1.9204579591751099,1.0669188499450684,-1.1158146858215332
1684108876109378600,4.463378662109375,2.024895668029785,0.8536238670349121,-1.0668230056762695
1684108876119420000,4.473419921875,2.0158143043518066,0.5488862991333008,-1.069542407989502
1684108876129461200,4.483461181640625,1.9507428407669067,0.31153202056884766,-1.0860257148742676
1684108876139502600,4.493502685546875,1.7764679193496704,0.1424417495727539,-1.108515739440918
1684108876149543700,4.503543701171875,1.545571208000183,-0.039292335510253906,-1.0609197616577148
1684108876159585000,4.5135849609375,1.2514188289642334,-0.20722007751464844,-1.0157477855682373
1684108876169626400,4.52362646484375,0.9099229574203491,-0.4143533706665039,-0.9098072052001953
1684108876179667700,4.533667724609375,0.4973471164703369,-0.6090869903564453,-0.7642338275909424
1684108876189709000,4.543708984375,0.1536726951599121,-0.7373027801513672,-0.6766195297241211
1684108876199750400,4.55375048828125,0.15478229522705078,-0.7455606460571289,-0.7768168449401855
1684108876209791700,4.563791748046875,0.39294004440307617,-0.6769075393676758,-1.027409553527832
1684108876219833000,4.5738330078125,0.6581153869628906,-0.6243619918823242,-1.237060546875
1684108876229874400,4.58387451171875,0.8437972068786621,-0.5269565582275391,-1.4406275749206543
1684108876239915500,4.59391552734375,0.909064531326294,-0.33037281036376953,-1.6274468898773193
1684108876249956900,4.603956787109375,0.9436510801315308,-0.17975521087646484,-1.8343403339385986
1684108876259998200,4.613998291015625,0.9348713159561157,-0.06215858459472656,-1.9566524028778076
1684108876270039600,4.62403955078125,0.948333740234375,0.09309864044189453,-1.9850337505340576
1684108876280081000,4.634080810546875,0.8891552686691284,0.1880636215209961,-1.980147361755371
1684108876290122200,4.644122314453125,0.8277109861373901,0.1760396957397461,-1.9400243759155273
1684108876300163600,4.65416357421875,0.8144458532333374,0.06532955169677734,-1.8427681922912598
1684108876310205000,4.664204833984375,0.6938414573669434,-0.09864997863769531,-1.5658454895019531
1684108876320246300,4.674246337890625,0.45211243629455566,-0.20976924896240234,-1.233781099319458
1684108876330287600,4.68428759765625,0.07030439376831055,-0.3015022277832031,-0.8197369575500488
1684108876340328700,4.69432861328125,-0.3651692867279053,-0.38107967376708984,-0.36402130126953125
1684108876350370000,4.7043701171875,-0.920842170715332,-0.4624919891357422,0.054404258728027344
1684108876360411400,4.714411376953125,-1.290520191192627,-0.4344301223754883,0.5593442916870117
1684108876370452700,4.72445263671875,-1.0544090270996094,-0.23091888427734375,0.8300857543945312
1684108876380494000,4.734494140625,-0.5153255462646484,-0.08312320709228516,0.8597769737243652
1684108876390535400,4.744535400390625,0.17391133308410645,-0.029562950134277344,0.8833374977111816
1684108876400576800,4.75457666015625,0.6736671924591064,-0.08394432067871094,0.681765079498291
1684108876410618000,4.7646181640625,0.8896485567092896,-0.2683277130126953,0.600804328918457
1684108876420659200,4.7746591796875,0.8708173036575317,-0.43825340270996094,0.5528287887573242
1684108876430700800,4.78470068359375,0.7030216455459595,-0.4924640655517578,0.5539283752441406
1684108876440742000,4.794741943359375,0.4806327819824219,-0.44884586334228516,0.4093160629272461
1684108876450783200,4.804783203125,0.32689106464385986,-0.4772148132324219,0.18442535400390625
1684108876460824600,4.814824462890625,0.43330371379852295,-0.49768829345703125,-0.17946195602416992
1684108876470866000,4.824865966796875,0.578650712966919,-0.4112529754638672,-0.7495729923248291
1684108876480907300,4.8349072265625,0.6123275756835938,-0.31475257873535156,-1.3007807731628418
1684108876490948600,4.844948486328125,0.7792881727218628,-0.34534645080566406,-1.696260929107666
1684108876500990000,4.854989990234375,1.0466411113739014,-0.5730323791503906,-1.8570353984832764
1684108876511031300,4.86503125,1.0728243589401245,-0.9154329299926758,-1.823946237564087
1684108876521072600,4.87507275390625,0.7640888690948486,-1.3198251724243164,-1.725665807723999
1684108876531114000,4.885114013671875,0.17570877075195312,-1.7052984237670898,-1.691969633102417
1684108876541155000,4.895155029296875,-0.6135451793670654,-2.036257743835449,-1.780543565750122
1684108876551196400,4.905196533203125,-1.523432970046997,-2.3128414154052734,-1.8846795558929443
1684108876561237800,4.91523779296875,-2.2523252964019775,-2.6256589889526367,-1.9532995223999023
1684108876571279000,4.925279052734375,-2.627335548400879,-2.9511709213256836,-1.7311537265777588
1684108876581320400,4.935320556640625,-2.2706003189086914,-3.0481481552124023,-1.1046628952026367
1684108876591361800,4.94536181640625,-1.235686182975769,-2.673704147338867,-0.40380024909973145
1684108876601403100,4.955403076171875,0.1262362003326416,-1.6906852722167969,-0.02219676971435547
1684108876611444500,4.965444580078125,1.4411135911941528,-0.4269580841064453,0.25156211853027344
1684108876621485800,4.97548583984375,2.3908743858337402,0.4713401794433594,0.5113682746887207
1684108876631527000,4.98552685546875,2.970275640487671,1.0636606216430664,0.5948905944824219
1684108876641568300,4.995568359375,3.2324328422546387,1.5349698066711426,0.46808433532714844
1684108876651609600,5.005609619140625,3.070909023284912,1.843388557434082,0.2750391960144043
1684108876661651000,5.01565087890625,2.6770129203796387,2.049954414367676,0.03273415565490723
1684108876671692300,5.0256923828125,2.2804083824157715,2.002835273742676,-0.08513808250427246
1684108876681733600,5.035733642578125,1.905454397201538,1.7411108016967773,-0.07987737655639648
1684108876691775000,5.04577490234375,1.6448192596435547,1.3556337356567383,0.05388927459716797
1684108876701816300,5.05581640625,1.3946583271026611,0.9392080307006836,0.14255714416503906
1684108876711857700,5.065857666015625,1.1260160207748413,0.5009365081787109,0.06431961059570312
1684108876721899000,5.07589892578125,0.7895589470863342,0.002582550048828125,-0.18639278411865234
1684108876731940000,5.085940185546875,0.37586021423339844,-0.6030340194702148,-0.36228251457214355
1684108876741981400,5.0959814453125,-0.007734537124633789,-1.1576271057128906,-0.44846510887145996
1684108876752022800,5.106022705078125,-0.3424253463745117,-1.5036401748657227,-0.4826068878173828
1684108876762064100,5.116064208984375,-0.5700663328170776,-1.6204004287719727,-0.5046417713165283
1684108876772105500,5.12610546875,-0.6979612112045288,-1.3583173751831055,-0.5950007438659668
1684108876782146800,5.136146728515625,-0.6063796281814575,-0.8379907608032227,-0.6841762065887451
1684108876792188200,5.146188232421875,-0.20017671585083008,-0.38274574279785156,-0.6134729385375977
1684108876802229500,5.1562294921875,0.35884761810302734,-0.10896492004394531,-0.48912811279296875
1684108876812270800,5.166270751953125,0.8548663258552551,-0.02732372283935547,-0.39505481719970703
1684108876822312200,5.176312255859375,1.23893141746521,0.10242271423339844,-0.41171813011169434
1684108876832353500,5.186353515625,1.448457956314087,0.10831069946289062,-0.3268764019012451
1684108876842394600,5.19639453125,1.47547447681427,0.10028743743896484,-0.2586181163787842
1684108876852436200,5.206436279296875,1.412851333618164,0.08275222778320312,-0.14119219779968262
1684108876862477300,5.216477294921875,1.3366165161132812,0.095977783203125,-0.07361030578613281
1684108876872518700,5.2265185546875,1.3047025203704834,0.06080341339111328,-0.008491039276123047
1684108876882560000,5.23656005859375,1.3615343570709229,-0.07300186157226562,0.0803682804107666
1684108876892601300,5.246601318359375,1.4922170639038086,-0.14983558654785156,0.09343147277832031
1684108876902642700,5.256642578125,1.6137504577636719,-0.11688804626464844,0.05355715751647949
1684108876912684000,5.26668408203125,1.7418901920318604,-0.022069931030273438,0.03975653648376465
1684108876922725400,5.276725341796875,1.7581274509429932,0.07216548919677734,-0.05157041549682617
1684108876932766700,5.2867666015625,1.6699333190917969,0.020374298095703125,-0.1718730926513672
1684108876942808000,5.29680810546875,1.5038297176361084,-0.07181644439697266,-0.2441866397857666
1684108876952849200,5.30684912109375,1.2935576438903809,-0.12537479400634766,-0.32558512687683105
1684108876962890800,5.316890869140625,1.1331089735031128,-0.1259002685546875,-0.40828704833984375
1684108876972931800,5.326931884765625,1.081493854522705,-0.030467987060546875,-0.4821903705596924
1684108876982973200,5.33697314453125,1.1191067695617676,0.024367332458496094,-0.444699764251709
1684108876993014500,5.3470146484375,1.198767066001892,0.017026901245117188,-0.3489964008331299
1684108877003055900,5.357055908203125,1.2848811149597168,-0.049880027770996094,-0.12144875526428223
1684108877013097200,5.36709716796875,1.3387525081634521,-0.07579612731933594,0.09884953498840332
1684108877023138600,5.377138671875,1.3529354333877563,-0.03235149383544922,0.28035950660705566
1684108877033180000,5.387179931640625,1.3148586750030518,0.02991199493408203,0.4062166213989258
1684108877043221200,5.39722119140625,1.2640010118484497,0.07024383544921875,0.46691179275512695
1684108877053262600,5.4072626953125,1.2193180322647095,0.07425689697265625,0.44794178009033203
1684108877063304000,5.417303955078125,1.1650373935699463,0.03969764709472656,0.3684818744659424
1684108877073345300,5.42734521484375,1.0397586822509766,0.0024862289428710938,0.28096485137939453
1684108877083386400,5.437386474609375,0.8817754983901978,0.0031833648681640625,0.17098164558410645
1684108877093427700,5.447427734375,0.7430447340011597,0.08701419830322266,0.08168959617614746
1684108877103469000,5.457468994140625,0.6620638966560364,0.1200876235961914,0.06607508659362793
1684108877113510400,5.467510498046875,0.6522526741027832,0.07864189147949219,0.11933326721191406
1684108877123551700,5.4775517578125,0.6602197289466858,0.06317138671875,0.16475939750671387
1684108877133593000,5.487593017578125,0.6696334481239319,0.06648826599121094,0.17116689682006836
1684108877143634400,5.497634521484375,0.7150083780288696,0.11963653564453125,0.20067763328552246
1684108877153675800,5.50767578125,0.7774454355239868,0.08410835266113281,0.26554322242736816
1684108877163717000,5.517717041015625,0.744900107383728,-0.07782459259033203,0.35918736457824707
1684108877173758500,5.527758544921875,0.7338841557502747,-0.18427085876464844,0.4338951110839844
1684108877183799800,5.5377998046875,0.7057852745056152,-0.16855239868164062,0.3653523921966553
1684108877193841200,5.547841064453125,0.6677563786506653,-0.08832550048828125,0.3114490509033203
1684108877203882200,5.55788232421875,0.641525387763977,0.051423072814941406,0.21711015701293945
1684108877213923600,5.567923583984375,0.5890714526176453,0.1670246124267578,0.14472198486328125
1684108877223965000,5.57796484375,0.5680006146430969,0.1773509979248047,0.1014406681060791
1684108877234006300,5.58800634765625,0.5658653378486633,0.1305370330810547,0.08742499351501465
1684108877244047600,5.598047607421875,0.5845992565155029,0.08158302307128906,0.14775443077087402
1684108877254089000,5.6080888671875,0.6153812408447266,0.09256935119628906,0.14139485359191895
1684108877264130300,5.61813037109375,0.6452966928482056,0.11642932891845703,0.1974794864654541
1684108877274171600,5.628171630859375,0.6201906800270081,0.14713001251220703,0.269775390625
1684108877284213000,5.638212890625,0.55162113904953,0.20334529876708984,0.32716846466064453
1684108877294254300,5.64825439453125,0.4483403265476227,0.23046016693115234,0.3790762424468994
1684108877304295700,5.658295654296875,0.3481477200984955,0.20064735412597656,0.44657111167907715
1684108877314337000,5.6683369140625,0.2586982846260071,0.19023609161376953,0.4848501682281494
1684108877324378000,5.678378173828125,0.19350996613502502,0.20125389099121094,0.47101426124572754
1684108877334419700,5.688419677734375,0.26025357842445374,0.28283214569091797,0.5192286968231201
1684108877344460800,5.698460693359375,0.39625775814056396,0.3019390106201172,0.5390143394470215
1684108877354502100,5.708502197265625,0.4882282018661499,0.15845012664794922,0.5661866664886475
1684108877364543500,5.71854345703125,0.5202270150184631,0.04124736785888672,0.5702998638153076
1684108877374584800,5.728584716796875,0.565204381942749,-0.010103225708007812,0.55161452293396
1684108877384626200,5.738626220703125,0.6520698070526123,-0.02506256103515625,0.5832738876342773
1684108877394667500,5.74866748046875,0.7272605895996094,-0.05374908447265625,0.5772535800933838
1684108877404708900,5.758708984375,0.8272945880889893,-0.058325767517089844,0.5341176986694336
1684108877414750200,5.768750244140625,0.9445561766624451,-0.08400630950927734,0.5107779502868652
1684108877424791600,5.77879150390625,1.0140475034713745,-0.0928792953491211,0.48062753677368164
1684108877434833000,5.7888330078125,1.065758228302002,-0.059449195861816406,0.41511082649230957
1684108877444874200,5.798874267578125,1.0895321369171143,-0.02927398681640625,0.34735679626464844
1684108877454915600,5.80891552734375,1.054497480392456,0.02612781524658203,0.2401130199432373
1684108877464956700,5.818956787109375,1.001713514328003,0.03334331512451172,0.15758180618286133
1684108877474998000,5.828998046875,0.9274427890777588,0.04262256622314453,0.07353687286376953
1684108877485039400,5.839039306640625,0.8822259902954102,0.10352039337158203,0.019057273864746094
1684108877495080700,5.849080810546875,0.8877204060554504,0.14214134216308594,0.04302787780761719
1684108877505122000,5.8591220703125,0.8909845352172852,0.1800556182861328,-0.006522655487060547
1684108877515163400,5.869163330078125,0.8960675001144409,0.15157699584960938,-0.010141134262084961
1684108877525204700,5.879204833984375,0.9147073030471802,0.10968303680419922,-0.027240753173828125
1684108877535246000,5.88924609375,0.9399579763412476,0.05229759216308594,-0.04800820350646973
1684108877545287400,5.899287353515625,0.96978759765625,0.0057220458984375,-0.06017732620239258
1684108877555328800,5.909328857421875,0.9883143901824951,-0.04673576354980469,0.009060144424438477
1684108877565370000,5.9193701171875,0.9180527329444885,-0.11925983428955078,-0.018621206283569336
1684108877575411500,5.929411376953125,0.8375834226608276,-0.1808490753173828,0.046872854232788086
1684108877585452800,5.939452880859375,0.7934539318084717,-0.22215843200683594,0.00885009765625
1684108877595494000,5.949493896484375,0.7070778608322144,-0.18942928314208984,0.043112754821777344
1684108877605535500,5.959535400390625,0.6332471370697021,-0.17333698272705078,0.0896596908569336
1684108877615576600,5.96957666015625,0.5509588718414307,-0.1453685760498047,0.1388840675354004
1684108877625618000,5.979617919921875,0.5061113834381104,-0.06807994842529297,0.22135710716247559
1684108877635659300,5.9896591796875,0.48023635149002075,0.019868850708007812,0.322021484375
1684108877645700600,5.99970068359375,0.5065051317214966,0.1087789535522461,0.5203850269317627
1684108877655742000,6.009741943359375,0.5867594480514526,0.19604969024658203,0.691779613494873
1684108877665783300,6.019783203125,0.7066752314567566,0.30748844146728516,0.7469439506530762
1684108877675824600,6.02982470703125,0.7992721796035767,0.4050130844116211,0.7159984111785889
1684108877685866000,6.039865966796875,0.8682364225387573,0.44169139862060547,0.6330034732818604
1684108877695907300,6.0499072265625,0.8697958588600159,0.43264102935791016,0.5433402061462402
1684108877705948700,6.05994873046875,0.8505910634994507,0.34101295471191406,0.42827534675598145
1684108877715990000,6.069989990234375,0.8294641971588135,0.2881584167480469,0.3161799907684326
1684108877726031400,6.08003125,0.7785418033599854,0.24032306671142578,0.21129870414733887
1684108877736072700,6.09007275390625,0.6224585771560669,0.24687862396240234,0.12290310859680176
1684108877746113800,6.10011376953125,0.45650750398635864,0.2247142791748047,0.07471680641174316
1684108877756155400,6.1101552734375,0.2980992794036865,0.14604568481445312,0.08022856712341309
1684108877766196500,6.120196533203125,0.12598305940628052,0.044769287109375,0.1693863868713379
1684108877776237800,6.13023779296875,0.05842483043670654,0.010903358459472656,0.19800853729248047
1684108877786279200,6.140279052734375,0.09604674577713013,0.09064865112304688,0.23168540000915527
1684108877796320500,6.150320556640625,0.26458412408828735,0.11740303039550781,0.41212964057922363
1684108877806361900,6.16036181640625,0.4799157977104187,0.16034412384033203,0.614729642868042
1684108877816403200,6.1704033203125,0.7385674118995667,0.36763668060302734,0.7618839740753174
1684108877826444500,6.180444580078125,1.0197880268096924,0.5694503784179688,0.9017436504364014
1684108877836486000,6.19048583984375,1.2854233980178833,0.7823247909545898,1.0646495819091797
1684108877846527200,6.20052734375,1.4233040809631348,0.9896726608276367,1.0661067962646484
1684108877856568600,6.210568603515625,1.4151158332824707,1.080836296081543,1.1219425201416016
1684108877866610000,6.22060986328125,1.2128586769104004,1.1088142395019531,1.1153864860534668
1684108877876651300,6.2306513671875,0.9090697765350342,1.0407953262329102,0.9712953567504883
1684108877886692600,6.240692626953125,0.43379056453704834,0.9558210372924805,0.7851583957672119
1684108877896734000,6.25073388671875,-0.07689148187637329,0.7154655456542969,0.5067043304443359
1684108877906775000,6.260775146484375,-0.6392439007759094,0.39750194549560547,0.1991117000579834
1684108877916816400,6.27081640625,-1.2156624794006348,0.08897018432617188,-0.004788875579833984
1684108877926857700,6.280857666015625,-1.738205909729004,-0.36670780181884766,-0.16723060607910156
1684108877936899000,6.290899169921875,-2.1591007709503174,-0.7470588684082031,-0.5398492813110352
1684108877946940400,6.3009404296875,-2.3182458877563477,-1.106581687927246,-0.8519184589385986
1684108877956981800,6.310981689453125,-2.5039665699005127,-1.394871711730957,-1.0997753143310547
1684108877967023000,6.321023193359375,-2.5645246505737305,-1.6167373657226562,-1.421532392501831
1684108877977064400,6.331064453125,-2.303067207336426,-1.7597990036010742,-1.7251954078674316
1684108877987105800,6.341105712890625,-1.7291330099105835,-1.8524150848388672,-1.9080489873886108
1684108877997147100,6.351147216796875,-1.0296014547348022,-1.9924736022949219,-1.7516599893569946
1684108878007188500,6.3611884765625,-0.3864169120788574,-2.2417001724243164,-1.527177333831787
1684108878017229800,6.371229736328125,0.051812052726745605,-2.535970687866211,-0.9242479801177979
1684108878027271200,6.381271240234375,0.27361488342285156,-2.739410400390625,-0.27950286865234375
1684108878037312500,6.3913125,0.21640515327453613,-2.6696786880493164,0.16069459915161133
1684108878047353900,6.401353759765625,-0.06291687488555908,-2.214827537536621,0.5236270427703857
1684108878057395000,6.41139501953125,-0.2810540199279785,-1.694685935974121,0.8492434024810791
1684108878067436300,6.421436279296875,-0.3982752561569214,-1.227494239807129,0.9729924201965332
1684108878077477600,6.4314775390625,-0.3840435743331909,-0.8493471145629883,0.9740512371063232
1684108878087519000,6.44151904296875,-0.25090456008911133,-0.5197725296020508,0.9030258655548096
1684108878097560300,6.451560302734375,-0.0024619102478027344,-0.29629039764404297,0.8532578945159912
1684108878107601700,6.4616015625,0.19645297527313232,-0.013457298278808594,0.63498854637146
1684108878117643000,6.47164306640625,0.13319385051727295,0.18145465850830078,0.24627971649169922
1684108878127684400,6.481684326171875,0.3342244625091553,0.3802070617675781,-0.18601226806640625
1684108878137725700,6.4917255859375,0.9547897577285767,0.46856021881103516,-0.4884953498840332
1684108878147767000,6.50176708984375,1.607856273651123,0.43021678924560547,-0.7442703247070312
1684108878157808400,6.511808349609375,2.0186688899993896,0.5594043731689453,-1.0342464447021484
1684108878167849700,6.521849609375,2.2868094444274902,0.7726001739501953,-1.4701545238494873
1684108878177891000,6.53189111328125,2.430284023284912,1.0009479522705078,-1.8576183319091797
1684108878187932400,6.541932373046875,2.5427067279815674,1.1899452209472656,-2.0585389137268066
1684108878197973800,6.551973876953125,2.6653404235839844,1.2972235679626465,-2.1082229614257812
1684108878208015000,6.56201513671875,2.763174057006836,1.1630582809448242,-1.9463977813720703
1684108878218056400,6.572056396484375,2.4146981239318848,0.9163084030151367,-1.5828790664672852
1684108878228097500,6.58209765625,1.7340772151947021,0.5422172546386719,-1.173971176147461
1684108878238139100,6.59213916015625,0.951093316078186,0.24175453186035156,-1.0010089874267578
1684108878248180200,6.60218017578125,0.18543541431427002,-0.10318660736083984,-0.7020270824432373
1684108878258221600,6.6122216796875,-0.6087832450866699,-0.4234495162963867,-0.3903491497039795
1684108878268263000,6.622262939453125,-1.4470689296722412,-0.722503662109375,-0.1965785026550293
1684108878278304300,6.63230419921875,-1.5594511032104492,-1.0041046142578125,-0.30025148391723633
1684108878288345600,6.642345703125,-0.5968337059020996,-1.2755937576293945,-0.718883752822876
1684108878298387000,6.652386962890625,0.5158917903900146,-1.5528631210327148,-1.1437327861785889
1684108878308428300,6.66242822265625,0.9965342283248901,-1.7285594940185547,-1.4653513431549072
1684108878318469600,6.6724697265625,1.023187279701233,-1.7007055282592773,-1.8561468124389648
1684108878328511000,6.682510986328125,0.8403048515319824,-1.5711860656738281,-2.1766529083251953
1684108878338552300,6.69255224609375,0.6784390211105347,-1.325963020324707,-2.308816909790039
1684108878348593700,6.70259375,0.5639958381652832,-0.9545316696166992,-2.221900701522827
1684108878358635000,6.712635009765625,0.5156075954437256,-0.5755548477172852,-2.0075466632843018
1684108878368676400,6.72267626953125,0.573764443397522,-0.2805604934692383,-1.737952709197998
1684108878378717700,6.7327177734375,0.6891076564788818,-0.13132476806640625,-1.4459853172302246
1684108878388759000,6.742759033203125,0.8136975765228271,-0.09153270721435547,-1.0431530475616455
1684108878398800400,6.75280029296875,0.999618649482727,-0.16100215911865234,-0.6041848659515381
1684108878408841700,6.762841796875,1.0507701635360718,-0.1794147491455078,-0.2676825523376465
1684108878418882800,6.7728828125,1.0280985832214355,-0.1538705825805664,-0.01592540740966797
1684108878428924200,6.782924072265625,0.928467869758606,-0.1746997833251953,0.021548748016357422
1684108878438965500,6.792965576171875,0.7727879285812378,-0.21532535552978516,0.09705877304077148
1684108878449006800,6.8030068359375,0.6245425939559937,-0.23772907257080078,0.12226104736328125
1684108878459048200,6.813048095703125,0.5418813228607178,-0.1875591278076172,0.05613136291503906
1684108878469089500,6.823089599609375,0.47954344749450684,-0.15855693817138672,-0.08736658096313477
1684108878479131000,6.833130859375,0.4534832239151001,-0.20351886749267578,-0.21812772750854492
1684108878489172200,6.843172119140625,0.4250577688217163,-0.20269107818603516,-0.3538951873779297
1684108878499213600,6.853213623046875,0.45688533782958984,-0.2700328826904297,-0.5288033485412598
1684108878509255000,6.8632548828125,0.46896302700042725,-0.3685264587402344,-0.6901898384094238
1684108878519296300,6.873296142578125,0.43110132217407227,-0.4168987274169922,-0.7577724456787109
1684108878529337600,6.883337646484375,0.3710479736328125,-0.4661426544189453,-0.7276272773742676
1684108878539379000,6.89337890625,0.3591780662536621,-0.4763059616088867,-0.8000092506408691
1684108878549420300,6.903420166015625,0.28466010093688965,-0.5076894760131836,-0.8756308555603027
1684108878559461600,6.913461669921875,0.23743152618408203,-0.5823688507080078,-0.9166455268859863
1684108878569503000,6.9235029296875,0.278548002243042,-0.5837993621826172,-0.9891116619110107
1684108878579544300,6.93354443359375,0.30323195457458496,-0.6055202484130859,-1.1038267612457275
1684108878589585400,6.94358544921875,0.1959238052368164,-0.6522684097290039,-1.196737289428711
1684108878599626800,6.953626708984375,0.058834075927734375,-0.6997518539428711,-1.2271113395690918
1684108878609668400,6.96366845703125,0.10360574722290039,-0.6208820343017578,-1.3308453559875488
1684108878619709400,6.97370947265625,0.2286362648010254,-0.5105838775634766,-1.5448212623596191
1684108878629750800,6.983750732421875,0.3993985652923584,-0.37276554107666016,-1.6622283458709717
1684108878639792000,6.993792236328125,0.46715807914733887,-0.31682872772216797,-1.7089736461639404
1684108878649833500,7.00383349609375,0.47995781898498535,-0.35430049896240234,-1.6346960067749023
1684108878659874800,7.013874755859375,0.43845295906066895,-0.3823251724243164,-1.5087833404541016
1684108878669916200,7.023916259765625,0.46358954906463623,-0.398651123046875,-1.445427417755127
1684108878679957500,7.03395751953125,0.4973926544189453,-0.32709598541259766,-1.3554649353027344
1684108878689998800,7.043998779296875,0.5219231843948364,-0.19899654388427734,-1.307703971862793
1684108878700040200,7.054040283203125,0.4701530933380127,-0.0741434097290039,-1.230377197265625
1684108878710081500,7.06408154296875,0.39407050609588623,0.057071685791015625,-1.087996006011963
1684108878720123000,7.074122802734375,0.3801121711730957,0.07972908020019531,-0.93827223777771
1684108878730164200,7.084164306640625,0.3766767978668213,0.03909111022949219,-0.8242931365966797
1684108878740205600,7.09420556640625,0.4054611921310425,-0.0054225921630859375,-0.6940701007843018
1684108878750247000,7.104246826171875,0.4996403455734253,-0.11384201049804688,-0.5817513465881348
1684108878760288300,7.114288330078125,0.5816419124603271,-0.13304710388183594,-0.5591897964477539
1684108878770329600,7.12432958984375,0.63969886302948,-0.11794662475585938,-0.5719015598297119
1684108878780371000,7.134370849609375,0.655052661895752,-0.054073333740234375,-0.6132218837738037
1684108878790412000,7.144412109375,0.6857681274414062,0.07767963409423828,-0.6048402786254883
1684108878800453400,7.154453369140625,0.6202850341796875,0.13376903533935547,-0.5095479488372803
1684108878810495000,7.164494873046875,0.4624950885772705,0.08993148803710938,-0.36246156692504883
1684108878820536000,7.1745361328125,0.2435448169708252,-0.020768165588378906,-0.15039730072021484
1684108878830577400,7.184577392578125,0.05514705181121826,-0.3159475326538086,0.07789087295532227
1684108878840618800,7.19461865234375,-0.08255720138549805,-0.7717552185058594,0.41294431686401367
1684108878850660000,7.20466015625,-0.25156235694885254,-1.3308629989624023,0.732975959777832
1684108878860701400,7.214701416015625,-0.5473473072052002,-1.7636137008666992,0.9750285148620605
1684108878870742800,7.22474267578125,-0.910143256187439,-1.9002494812011719,1.0204448699951172
1684108878880784100,7.2347841796875,-1.2592476606369019,-1.863016128540039,0.9466943740844727
1684108878890825500,7.244825439453125,-1.5295038223266602,-2.212026596069336,0.8615632057189941
1684108878900866800,7.25486669921875,-2.1132309436798096,-2.9141130447387695,0.7199277877807617
1684108878910908200,7.264908203125,-3.2041192054748535,-3.395263671875,0.5673842430114746
1684108878920949500,7.274949462890625,-4.307653903961182,-3.1480464935302734,0.4156022071838379
1684108878930990800,7.284990966796875,-3.361356258392334,-1.9523658752441406,0.2669248580932617
1684108878941032200,7.2950322265625,-1.402064323425293,-0.6366596221923828,-0.06399726867675781
1684108878951073500,7.305073486328125,0.39879119396209717,0.3241300582885742,-0.48034191131591797
1684108878961115000,7.315114990234375,1.953607439994812,0.6665482521057129,-1.1039915084838867
1684108878971156200,7.32515625,2.8401734828948975,0.8154444694519043,-1.7472729682922363
1684108878981197600,7.335197509765625,3.171661376953125,1.0050945281982422,-2.000732660293579
1684108878991239000,7.345239013671875,3.131539821624756,1.067610740661621,-1.965458869934082
1684108879001280300,7.3552802734375,2.942963123321533,0.9897642135620117,-1.712550401687622
1684108879011321300,7.3653212890625,2.639294385910034,0.7316112518310547,-1.4221844673156738
1684108879021363000,7.375363037109375,2.216257095336914,0.26525306701660156,-1.1425681114196777
1684108879031404000,7.385404052734375,1.7131119966506958,-0.2173166275024414,-0.9781181812286377
1684108879041445400,7.3954453125,1.2040929794311523,-0.4702625274658203,-0.9587922096252441
1684108879051486700,7.40548681640625,0.6639976501464844,-0.5317296981811523,-0.8225245475769043
1684108879061528000,7.415528076171875,0.17802250385284424,-0.5477237701416016,-0.5866923332214355
1684108879071569400,7.4255693359375,-0.20837366580963135,-0.5035505294799805,-0.34864115715026855
1684108879081610800,7.43561083984375,-0.366422176361084,-0.5012245178222656,-0.11781716346740723
1684108879091652000,7.445652099609375,-0.2049347162246704,-0.5319118499755859,-0.09460139274597168
1684108879101693400,7.455693359375,0.15798711776733398,-0.5784492492675781,-0.39723849296569824
1684108879111734800,7.46573486328125,0.5716465711593628,-0.5705928802490234,-0.7839648723602295
1684108879121776000,7.475776123046875,1.0436503887176514,-0.5688190460205078,-1.1731679439544678
1684108879131817500,7.4858173828125,1.531144142150879,-0.5833959579467773,-1.3854639530181885
1684108879141858800,7.49585888671875,1.9145290851593018,-0.4917726516723633,-1.4360895156860352
1684108879151900200,7.505900146484375,2.1175332069396973,-0.351409912109375,-1.4165558815002441
1684108879161941500,7.51594140625,2.1070237159729004,-0.2799100875854492,-1.308241367340088
1684108879171982800,7.52598291015625,1.9764364957809448,-0.28261566162109375,-1.1475365161895752
1684108879182024200,7.536024169921875,1.8389867544174194,-0.35488128662109375,-1.0132982730865479
1684108879192065500,7.5460654296875,1.6705443859100342,-0.5038032531738281,-0.853278636932373
1684108879202107000,7.55610693359375,1.4723440408706665,-0.5572805404663086,-0.737858772277832
1684108879212148000,7.56614794921875,1.2226276397705078,-0.4534168243408203,-0.7397446632385254
1684108879222189300,7.576189208984375,1.0152987241744995,-0.29802894592285156,-0.7117173671722412
1684108879232231000,7.58623095703125,0.9809622168540955,-0.2040252685546875,-0.6969742774963379
1684108879242272000,7.59627197265625,1.0727266073226929,-0.11882781982421875,-0.7014799118041992
1684108879252313300,7.606313232421875,1.2201011180877686,-0.11853313446044922,-0.7093989849090576
1684108879262354700,7.616354736328125,1.4132473468780518,-0.14764785766601562,-0.6770720481872559
1684108879272396000,7.62639599609375,1.576784610748291,-0.23910999298095703,-0.6283071041107178
1684108879282437400,7.636437255859375,1.6968903541564941,-0.25402069091796875,-0.6446516513824463
1684108879292478700,7.646478759765625,1.6829845905303955,-0.2664957046508789,-0.6376774311065674
1684108879302520000,7.65652001953125,1.4733688831329346,-0.27417469024658203,-0.6145291328430176
1684108879312561400,7.6665615234375,1.251830816268921,-0.27496910095214844,-0.6065669059753418
1684108879322602800,7.676602783203125,1.04889976978302,-0.319366455078125,-0.6237127780914307
1684108879332644000,7.68664404296875,0.911267876625061,-0.3474893569946289,-0.7085306644439697
1684108879342685400,7.696685546875,0.7989914417266846,-0.3950920104980469,-0.7363150119781494
1684108879352726800,7.706726806640625,0.6762024164199829,-0.531285285949707,-0.7452249526977539
1684108879362768100,7.71676806640625,0.5613306760787964,-0.5692577362060547,-0.7680866718292236
1684108879372809500,7.7268095703125,0.45623332262039185,-0.506709098815918,-0.7281155586242676
1684108879382850800,7.736850830078125,0.3737592399120331,-0.3916921615600586,-0.6923642158508301
1684108879392892200,7.74689208984375,0.37057533860206604,-0.3055753707885742,-0.5581207275390625
1684108879402933500,7.75693359375,0.3909222185611725,-0.2458353042602539,-0.42096495628356934
1684108879412974800,7.766974853515625,0.4468137323856354,-0.24328041076660156,-0.31639742851257324
1684108879423016200,7.77701611328125,0.5319356322288513,-0.2044973373413086,-0.21074652671813965
1684108879433057300,7.787057373046875,0.6476446390151978,-0.1486196517944336,-0.09439826011657715
1684108879443099000,7.797098876953125,0.7248580455780029,-0.020814895629882812,0.013364553451538086
1684108879453140200,7.80714013671875,0.8165946006774902,0.054511070251464844,0.0957334041595459
1684108879463181300,7.817181396484375,0.8937543630599976,0.07028579711914062,0.2171158790588379
1684108879473222700,7.82722265625,0.9983793497085571,0.0863027572631836,0.29841160774230957
1684108879483264000,7.837263916015625,1.04116690158844,0.09774208068847656,0.382565975189209
1684108879493305300,7.847305419921875,1.047922134399414,0.1426849365234375,0.4262230396270752
1684108879503346700,7.8573466796875,1.0424444675445557,0.1897268295288086,0.47655296325683594
1684108879513388000,7.867387939453125,1.026619791984558,0.20046520233154297,0.46619629859924316
1684108879523429400,7.877429443359375,0.9947732090950012,0.22743606567382812,0.44281530380249023
1684108879533470700,7.887470703125,0.9292459487915039,0.18680858612060547,0.34861040115356445
1684108879543512000,7.897511962890625,0.8519894480705261,0.18143177032470703,0.20048022270202637
1684108879553553400,7.907553466796875,0.771722674369812,0.10160064697265625,0.020677804946899414
1684108879563594800,7.9175947265625,0.7229095101356506,0.0049285888671875,-0.07102465629577637
1684108879573636000,7.927635986328125,0.6578318476676941,-0.1394948959350586,-0.17969632148742676
1684108879583677400,7.937677490234375,0.6020342111587524,-0.2932300567626953,-0.2667984962463379
1684108879593718800,7.94771875,0.5306335687637329,-0.3812894821166992,-0.4424610137939453
1684108879603760000,7.957760009765625,0.4521578550338745,-0.4465751647949219,-0.5699641704559326
1684108879613801500,7.967801513671875,0.34811484813690186,-0.45884037017822266,-0.7135939598083496
1684108879623842800,7.9778427734375,0.2144155353307724,-0.44716358184814453,-0.8282043933868408
1684108879633884200,7.98788427734375,0.07994638383388519,-0.42357635498046875,-0.8644628524780273
1684108879643925500,7.997925537109375,-0.012163043022155762,-0.3574562072753906,-0.8631711006164551
1684108879653966800,8.007966796875,-0.06560297310352325,-0.25868892669677734,-0.8173656463623047
1684108879664008200,8.01800830078125,-0.05964727699756622,-0.18190574645996094,-0.6783740520477295
1684108879674049500,8.028049560546876,0.0011251866817474365,-0.05845165252685547,-0.45018625259399414
1684108879684091000,8.0380908203125,0.13112208247184753,-0.009386062622070312,-0.16305232048034668
1684108879694132000,8.048132080078124,0.2512207627296448,-0.038466453552246094,0.1461467742919922
1684108879704173600,8.058173583984376,0.3710572123527527,-0.019721031188964844,0.34511470794677734
1684108879714214700,8.068214599609375,0.46172896027565,-0.008119583129882812,0.5039479732513428
1684108879724256000,8.078256103515624,0.4629291892051697,0.04088020324707031,0.6624636650085449
1684108879734297300,8.08829736328125,0.47818559408187866,0.0793466567993164,0.7516868114471436
1684108879744338700,8.098338623046875,0.47427961230278015,0.14742565155029297,0.7702574729919434
1684108879754380000,8.108380126953126,0.4408952295780182,0.17394065856933594,0.7734675407409668
1684108879764421400,8.11842138671875,0.4176889955997467,0.23734474182128906,0.7030253410339355
1684108879774462700,8.128462646484374,0.3527860641479492,0.2382974624633789,0.6994969844818115
1684108879784504000,8.138504150390625,0.27399638295173645,0.17780494689941406,0.7003269195556641
1684108879794545400,8.14854541015625,0.1901424527168274,0.12041187286376953,0.709829568862915
1684108879804586800,8.158586669921876,0.1275169849395752,0.06379508972167969,0.6668193340301514
1684108879814628000,8.168628173828125,0.047519028186798096,0.005621910095214844,0.6735644340515137
1684108879824669400,8.17866943359375,-0.03394344449043274,-0.06354236602783203,0.6374211311340332
1684108879834710800,8.188710693359376,-0.13882401585578918,-0.04931831359863281,0.4933748245239258
1684108879844752100,8.198752197265625,-0.22375807166099548,0.00464630126953125,0.32117795944213867
1684108879854793500,8.20879345703125,-0.2845271825790405,0.06959247589111328,0.15433931350708008
1684108879864834800,8.218834716796875,-0.2956196069717407,0.09381389617919922,0.040224313735961914
1684108879874876200,8.228876220703125,-0.31063586473464966,0.09932518005371094,0.03699922561645508
1684108879884917500,8.23891748046875,-0.24304011464118958,0.06999015808105469,0.09828329086303711
1684108879894958800,8.248958740234375,-0.17608141899108887,0.07689952850341797,0.19238734245300293
1684108879905000200,8.259000244140625,-0.09464460611343384,0.07464599609375,0.2999553680419922
1684108879915041500,8.26904150390625,-0.017670780420303345,0.12216472625732422,0.42290592193603516
1684108879925083000,8.279082763671875,0.07450458407402039,0.17853641510009766,0.5206410884857178
1684108879935124200,8.289124267578124,0.1515234410762787,0.23406410217285156,0.6025600433349609
1684108879945165300,8.299165283203125,0.25829893350601196,0.3474769592285156,0.6332230567932129
1684108879955206700,8.30920654296875,0.35153117775917053,0.4307289123535156,0.5783159732818604
1684108879965248300,8.319248291015626,0.42830759286880493,0.3737220764160156,0.5831451416015625
1684108879975289300,8.329289306640625,0.5021894574165344,0.33876991271972656,0.575885534286499
1684108879985330700,8.33933056640625,0.5222693681716919,0.3112001419067383,0.5375874042510986
1684108879995372000,8.3493720703125,0.5210386514663696,0.2461099624633789,0.5229232311248779
1684108880005413400,8.359413330078125,0.5437095165252686,0.1394634246826172,0.5410189628601074
1684108880015454700,8.369454833984374,0.5823656320571899,-0.024415969848632812,0.5772578716278076
1684108880025496000,8.37949609375,0.625005841255188,-0.1386270523071289,0.6616742610931396
1684108880035537400,8.389537353515625,0.7360581159591675,-0.18088340759277344,0.7497084140777588
1684108880045578800,8.399578857421876,0.839970052242279,-0.11524200439453125,0.7504673004150391
1684108880055620000,8.4096201171875,0.8923907279968262,-0.056527137756347656,0.6537978649139404
1684108880065661400,8.419661376953124,0.9336252212524414,-0.046611785888671875,0.6390948295593262
1684108880075702800,8.429702880859375,0.9691342115402222,-0.15988636016845703,0.7194247245788574
1684108880085744000,8.439744140625,1.0330291986465454,-0.3143138885498047,0.8340775966644287
1684108880095785500,8.449785400390626,1.0890146493911743,-0.34195899963378906,0.8792576789855957
1684108880105826800,8.459826904296875,1.1327508687973022,-0.3412771224975586,0.8663015365600586
1684108880115868200,8.4698681640625,1.1098203659057617,-0.4257993698120117,0.7939357757568359
1684108880125909500,8.479909423828126,1.032604455947876,-0.5471658706665039,0.68424391746521
1684108880135950800,8.489950927734375,0.8490232229232788,-0.6316051483154297,0.5102753639221191
1684108880145992200,8.4999921875,0.6621717214584351,-0.6558685302734375,0.25527095794677734
1684108880156033500,8.510033447265625,0.3577856421470642,-0.6326570510864258,-0.010946035385131836
1684108880166075000,8.520074951171875,-0.03268355131149292,-0.5721912384033203,-0.3353452682495117
1684108880176116200,8.5301162109375,-0.40227431058883667,-0.5690393447875977,-0.7141585350036621
1684108880186157600,8.540157470703125,-0.7313199043273926,-0.5302228927612305,-1.0357208251953125
1684108880196199000,8.550198974609375,-0.9897617101669312,-0.5175437927246094,-1.3220603466033936
1684108880206240300,8.560240234375,-1.1806004047393799,-0.47576141357421875,-1.4548763036727905
1684108880216281300,8.57028125,-1.2613346576690674,-0.3599977493286133,-1.5083030462265015
1684108880226323000,8.580322998046874,-1.2453861236572266,-0.1519012451171875,-1.5249933004379272
1684108880236364000,8.590364013671875,-1.0932002067565918,0.20346641540527344,-1.3893742561340332
1684108880246405400,8.6004052734375,-0.788620114326477,0.5393218994140625,-0.9173767566680908
1684108880256446700,8.61044677734375,-0.4269474148750305,0.7480993270874023,-0.15230846405029297
1684108880266488000,8.620488037109375,-0.18504448235034943,0.9268693923950195,0.5777978897094727
1684108880276529400,8.630529296875,-0.17283785343170166,1.0172452926635742,1.12943696975708
1684108880286570800,8.64057080078125,-0.41028523445129395,1.0142736434936523,1.4711501598358154
1684108880296612000,8.650612060546875,-0.7556896805763245,0.9378376007080078,1.5165283679962158
1684108880306653400,8.6606533203125,-1.1139380931854248,0.7268543243408203,1.337583303451538
1684108880316694800,8.67069482421875,-1.4163355827331543,0.43651485443115234,1.0967841148376465
1684108880326736100,8.680736083984375,-1.5361895561218262,0.19554710388183594,0.7549490928649902
1684108880336777500,8.690777587890626,-1.4229909181594849,0.001201629638671875,0.35054779052734375
1684108880346818800,8.70081884765625,-1.1312466859817505,-0.23747539520263672,-0.06034135818481445
1684108880356860200,8.710860107421874,-0.8628649115562439,-0.4986553192138672,-0.47097301483154297
1684108880366901500,8.720901611328125,-0.7146270275115967,-0.765070915222168,-0.8433651924133301
1684108880376942800,8.73094287109375,-0.560915470123291,-0.8735866546630859,-1.1827242374420166
1684108880386984200,8.740984130859376,-0.5461911559104919,-0.878931999206543,-1.440159797668457
1684108880397025500,8.751025634765625,-0.38261914253234863,-0.7454195022583008,-1.617893934249878
1684108880407067000,8.76106689453125,0.03816032409667969,-0.5068340301513672,-1.7631555795669556
1684108880417108200,8.771108154296876,0.4911877512931824,-0.33802223205566406,-1.7634583711624146
1684108880427149600,8.781149658203125,0.9900655746459961,-0.21764278411865234,-1.743687629699707
1684108880437191000,8.79119091796875,1.536779522895813,-0.12166404724121094,-1.58463454246521
1684108880447232300,8.801232177734375,1.9570893049240112,-0.17133235931396484,-1.410860538482666
1684108880457273600,8.811273681640625,2.2449231147766113,-0.2777395248413086,-1.155308723449707
1684108880467315000,8.82131494140625,2.4037415981292725,-0.49825191497802734,-0.8460750579833984
1684108880477356000,8.83135595703125,2.478846311569214,-0.6747922897338867,-0.596351146697998
1684108880487397600,8.841397705078125,2.5209643840789795,-0.7925615310668945,-0.4690685272216797
1684108880497439000,8.85143896484375,2.50356388092041,-0.8490705490112305,-0.41342878341674805
1684108880507480000,8.86147998046875,2.42897629737854,-0.7134799957275391,-0.428722620010376
1684108880517521400,8.871521484375,2.22588849067688,-0.5253219604492188,-0.5164744853973389
1684108880527562800,8.881562744140625,1.9337828159332275,-0.3282442092895508,-0.6811022758483887
1684108880537604000,8.89160400390625,1.6665024757385254,-0.1368389129638672,-0.8149261474609375
1684108880547645400,8.9016455078125,1.4644811153411865,-0.015611648559570312,-0.8656606674194336
1684108880557686800,8.911686767578125,1.319759488105774,0.0738515853881836,-0.8695974349975586
1684108880567728000,8.92172802734375,1.2293224334716797,0.024537086486816406,-0.8930423259735107
1684108880577769500,8.93176953125,1.1283613443374634,-0.03371715545654297,-0.8320469856262207
1684108880587810800,8.941810791015625,1.0385661125183105,-0.0025281906127929688,-0.7716231346130371
1684108880597852200,8.95185205078125,0.9601795077323914,-0.010652542114257812,-0.7225475311279297
1684108880607893500,8.9618935546875,0.8793447017669678,0.016199111938476562,-0.6220676898956299
1684108880617934800,8.971934814453125,0.7826515436172485,0.037322998046875,-0.5510973930358887
1684108880627976200,8.98197607421875,0.7514578104019165,0.04052734375,-0.5209152698516846
1684108880638017500,8.992017578125,0.8914809226989746,0.07106781005859375,-0.6163227558135986
1684108880648059000,9.002058837890624,1.0465656518936157,0.01877593994140625,-0.600372314453125
1684108880658100200,9.012100341796875,0.9851526021957397,-0.11690521240234375,-0.5801799297332764
1684108880668141600,9.0221416015625,0.7637909650802612,-0.2722587585449219,-0.5872476100921631
1684108880678183000,9.032182861328126,0.5195982456207275,-0.4094085693359375,-0.6804823875427246
1684108880688224300,9.042224365234375,0.3584754467010498,-0.4636878967285156,-0.7523505687713623
1684108880698265600,9.052265625,0.1549544334411621,-0.5496482849121094,-0.8695526123046875
1684108880708307000,9.062306884765626,-0.026156902313232422,-0.5836935043334961,-0.9865944385528564
1684108880718348300,9.072348388671875,-0.1409921646118164,-0.589900016784668,-1.1222617626190186
1684108880728389600,9.0823896484375,-0.008375287055969238,-0.6015195846557617,-1.3036470413208008
1684108880738431000,9.092430908203125,0.1752488613128662,-0.5892276763916016,-1.5449638366699219
1684108880748472300,9.102472412109375,0.21747124195098877,-0.6504621505737305,-1.7465910911560059
1684108880758513700,9.112513671875,-0.0499570369720459,-0.6345624923706055,-1.7325129508972168
1684108880768555000,9.122554931640625,-0.6482915878295898,-0.6425256729125977,-1.577190637588501
1684108880778596000,9.13259619140625,-1.3633358478546143,-0.7271671295166016,-1.5497870445251465
1684108880788637400,9.142637451171876,-1.7140963077545166,-0.8424797058105469,-1.7958786487579346
1684108880798678800,9.1526787109375,-1.4467366933822632,-0.8778324127197266,-2.0409350395202637
1684108880808720100,9.16272021484375,-0.677068829536438,-0.8166561126708984,-2.0439605712890625
1684108880818761500,9.172761474609375,0.22078311443328857,-0.6802301406860352,-1.8833684921264648
1684108880828802800,9.182802734375,0.9313086271286011,-0.5443487167358398,-1.681337594985962
1684108880838844200,9.19284423828125,1.3367283344268799,-0.5113344192504883,-1.5087897777557373
1684108880848885500,9.202885498046875,1.4582552909851074,-0.4021434783935547,-1.297154188156128
1684108880858926800,9.2129267578125,1.4184989929199219,-0.32991504669189453,-1.2030694484710693
1684108880868968200,9.22296826171875,1.1980066299438477,-0.18816757202148438,-1.1083965301513672
1684108880879009500,9.233009521484375,0.9609235525131226,0.005448341369628906,-0.9868419170379639
1684108880889051000,9.24305078125,0.8932076692581177,0.08787727355957031,-0.8769948482513428
1684108880899092200,9.25309228515625,1.0753421783447266,0.053992271423339844,-0.7613954544067383
1684108880909133600,9.263133544921875,1.352617859840393,0.04303169250488281,-0.7663960456848145
1684108880919175000,9.2731748046875,1.6201863288879395,0.025403976440429688,-0.7998440265655518
1684108880929216300,9.28321630859375,1.7085473537445068,-0.04042243957519531,-0.7784271240234375
1684108880939257600,9.293257568359374,1.4394481182098389,-0.0774068832397461,-0.7593464851379395
1684108880949299000,9.303298828125,0.9529801607131958,-0.07908916473388672,-0.6790757179260254
1684108880959340300,9.31334033203125,0.43248558044433594,-0.0103607177734375,-0.6411242485046387
1684108880969381600,9.323381591796876,0.054316043853759766,0.04699516296386719,-0.6740150451660156
1684108880979423000,9.333423095703125,-0.17390096187591553,0.1141653060913086,-0.7004983425140381
1684108880989464300,9.34346435546875,-0.28670966625213623,0.1435403823852539,-0.9096179008483887
1684108880999505700,9.353505615234376,-0.28561699390411377,0.018314361572265625,-1.0843660831451416
1684108881009547000,9.363547119140625,-0.23706889152526855,-0.06033897399902344,-1.1429963111877441
1684108881019588400,9.37358837890625,-0.12125587463378906,-0.14242076873779297,-1.1407420635223389
1684108881029629700,9.383629638671875,0.020734548568725586,-0.2065410614013672,-1.0503628253936768
1684108881039671000,9.393671142578125,0.150185227394104,-0.2364826202392578,-0.9338572025299072
1684108881049712400,9.40371240234375,0.25262558460235596,-0.2591400146484375,-0.8341395854949951
1684108881059753500,9.41375341796875,0.29048943519592285,-0.2584190368652344,-0.7795858383178711
1684108881069795000,9.423795166015625,0.4451347589492798,-0.2321319580078125,-0.8446311950683594
1684108881079836200,9.433836181640626,0.6116907596588135,-0.2711210250854492,-0.9118716716766357
1684108881089877500,9.44387744140625,0.723421037197113,-0.3941049575805664,-0.9831404685974121
1684108881099918800,9.4539189453125,0.7178083658218384,-0.47861289978027344,-1.0504348278045654
1684108881109960200,9.463960205078125,0.6631485223770142,-0.49088573455810547,-1.0607571601867676
1684108881120001500,9.47400146484375,0.5679328441619873,-0.42412567138671875,-0.972196102142334
1684108881130043000,9.48404296875,0.476825475692749,-0.3052558898925781,-0.8270163536071777
1684108881140084200,9.494084228515625,0.3901873826980591,-0.17565250396728516,-0.5192556381225586
1684108881150125600,9.50412548828125,0.318406343460083,-0.12426376342773438,-0.22700238227844238
1684108881160167000,9.5141669921875,0.19780337810516357,-0.13689517974853516,0.04221844673156738
1684108881170208300,9.524208251953125,0.08007001876831055,-0.18444538116455078,0.18950152397155762
1684108881180249600,9.53424951171875,-0.023663759231567383,-0.2136373519897461,0.1887526512145996
1684108881190291000,9.544291015625,-0.1600055694580078,-0.27166748046875,0.07811975479125977
1684108881200332300,9.554332275390625,-0.23232078552246094,-0.31031322479248047,-0.1145620346069336
1684108881210373600,9.56437353515625,-0.24353671073913574,-0.3532886505126953,-0.2804224491119385
1684108881220415000,9.5744150390625,-0.24398183822631836,-0.33594226837158203,-0.5067634582519531
1684108881230456300,9.584456298828124,-0.29902923107147217,-0.27772045135498047,-0.5809423923492432
1684108881240497700,9.59449755859375,-0.42395031452178955,-0.179290771484375,-0.5457730293273926
1684108881250539000,9.6045390625,-0.5203781127929688,-0.06752490997314453,-0.5205538272857666
1684108881260580400,9.614580322265626,-0.48317408561706543,0.016687393188476562,-0.36579251289367676
1684108881270621700,9.62462158203125,-0.4590797424316406,0.05417919158935547,-0.2018139362335205
1684108881280663000,9.6346630859375,-0.43979835510253906,0.06623554229736328,-0.021915912628173828
1684108881290704400,9.644704345703126,-0.35742342472076416,0.024007797241210938,0.06612586975097656
1684108881300745700,9.654745849609375,-0.1525965929031372,-0.041152000427246094,0.1345539093017578
1684108881310787000,9.664787109375,0.06914496421813965,-0.15972328186035156,0.03344392776489258
1684108881320828400,9.674828369140625,0.18121767044067383,-0.3283672332763672,-0.2125546932220459
1684108881330869800,9.684869873046875,0.03470742702484131,-0.6286840438842773,-0.40575480461120605
1684108881340911000,9.6949111328125,-0.27733314037323,-0.8232917785644531,-0.7353775501251221
1684108881350952400,9.704952392578125,-0.5261135101318359,-0.8456487655639648,-1.0192968845367432
1684108881360993500,9.71499365234375,-0.5895167589187622,-0.68646240234375,-1.2852325439453125
1684108881371035000,9.725034912109376,-0.43403029441833496,-0.5035638809204102,-1.504127025604248
1684108881381076500,9.735076416015625,-0.2727392911911011,-0.34668827056884766,-1.5219240188598633
1684108881391117600,9.74511767578125,-0.2286233901977539,-0.28090667724609375,-1.4010233879089355
1684108881401159000,9.755158935546875,-0.3767029047012329,-0.25394535064697266,-1.1337482929229736
1684108881411200300,9.7652001953125,-0.5391311645507812,-0.2641878128051758,-0.7653815746307373
1684108881421241600,9.77524169921875,-0.5216156244277954,-0.2746868133544922,-0.4060709476470947
1684108881431283000,9.785282958984375,-0.4075359106063843,-0.30316734313964844,-0.11780166625976562
1684108881441324300,9.79532421875,-0.28965699672698975,-0.2944059371948242,0.07226753234863281
1684108881451365600,9.80536572265625,-0.11059415340423584,-0.2763051986694336,0.16389870643615723
1684108881461407000,9.815406982421875,0.0844583511352539,-0.2340850830078125,0.1750950813293457
1684108881471448300,9.8254482421875,0.2457371950149536,-0.17708110809326172,0.16248846054077148
1684108881481489700,9.83548974609375,0.2624995708465576,-0.08461284637451172,0.08079743385314941
1684108881491531000,9.845531005859375,0.2250880002975464,-0.019067764282226562,-0.009707212448120117
1684108881501572400,9.855572265625,0.20580410957336426,0.030930519104003906,-0.02219367027282715
1684108881511613700,9.86561376953125,0.1797652244567871,0.025112152099609375,-0.06563377380371094
1684108881521655000,9.875655029296874,0.11407053470611572,0.004372596740722656,-0.11850357055664062
1684108881531696400,9.8856962890625,0.06225180625915527,0.03505134582519531,-0.22918152809143066
1684108881541737700,9.89573779296875,0.004454374313354492,0.050624847412109375,-0.3247196674346924
1684108881551779000,9.905779052734376,-0.019935965538024902,0.10338878631591797,-0.380429744720459
1684108881561820400,9.9158203125,-0.04343855381011963,0.18106842041015625,-0.38675618171691895
1684108881571861800,9.92586181640625,-0.03278493881225586,0.2904338836669922,-0.4028468132019043
1684108881581903000,9.935903076171876,-0.08744096755981445,0.3440275192260742,-0.3809797763824463
1684108881591944400,9.9459443359375,-0.10297989845275879,0.3381156921386719,-0.3005232810974121
1684108881601985800,9.95598583984375,-0.10178399085998535,0.3065481185913086,-0.2782480716705322
1684108881612027100,9.966027099609375,-0.09882569313049316,0.25672340393066406,-0.20534086227416992
1684108881622068500,9.976068359375,-0.06685400009155273,0.2406148910522461,-0.2081928253173828
1684108881632109600,9.986109619140626,-0.07773756980895996,0.2575263977050781,-0.18738794326782227
1684108881642151200,9.996151123046875,-0.06063199043273926,0.27614593505859375,-0.18870115280151367
1684108881652192500,10.006192626953125,-0.05364370346069336,0.3128843307495117,-0.2048046588897705
1684108881662233600,10.016233642578126,-0.017038583755493164,0.37926292419433594,-0.19794082641601562
1684108881672275000,10.02627490234375,0.08965849876403809,0.4349517822265625,-0.09361577033996582
1684108881682316300,10.03631640625,0.26596593856811523,0.42183780670166016,-0.05333971977233887
1684108881692357600,10.046357666015625,0.49300360679626465,0.45020103454589844,-0.011426448822021484
1684108881702399000,10.05639892578125,0.6378707885742188,0.458251953125,0.003028392791748047
1684108881712440300,10.0664404296875,0.7258861064910889,0.4493427276611328,0.0034232139587402344
1684108881722481700,10.076481689453125,0.7387583255767822,0.44493865966796875,-0.04344630241394043
1684108881732523000,10.08652294921875,0.7031104564666748,0.4446754455566406,-0.028363704681396484
1684108881742564400,10.096564453125,0.6191884279251099,0.45767974853515625,-0.07419848442077637
1684108881752605700,10.106605712890625,0.4898897409439087,0.4002037048339844,-0.180861234664917
1684108881762647000,10.11664697265625,0.3729832172393799,0.36786746978759766,-0.2669858932495117
1684108881772688400,10.1266884765625,0.2230677604675293,0.38913726806640625,-0.29709649085998535
1684108881782729700,10.136729736328125,0.10028743743896484,0.35370349884033203,-0.29096508026123047
1684108881792771000,10.14677099609375,-0.0063326358795166016,0.2829713821411133,-0.3177833557128906
1684108881802812400,10.1568125,-0.12024331092834473,0.21515846252441406,-0.3439168930053711
1684108881812853800,10.166853759765624,-0.3191337585449219,0.1115865707397461,-0.24315524101257324
1684108881822895000,10.17689501953125,-0.6361610889434814,-0.07108116149902344,-0.23253536224365234
1684108881832936400,10.1869365234375,-0.8733577728271484,-0.18496036529541016,-0.20399928092956543
1684108881842977800,10.196977783203126,-1.0476710796356201,-0.20431232452392578,-0.12259912490844727
1684108881853019100,10.20701904296875,-0.9991879463195801,-0.1054849624633789,-0.04492640495300293
1684108881863060500,10.217060546875,-0.7259294986724854,0.1262655258178711,-0.08470463752746582
1684108881873101800,10.227101806640626,-0.4816596508026123,0.43918800354003906,-0.14684414863586426
1684108881883143200,10.23714306640625,-0.3637125492095947,0.6189193725585938,-0.16872477531433105
1684108881893184500,10.2471845703125,-0.4298710823059082,0.7447910308837891,-0.22289228439331055
1684108881903225900,10.257225830078125,-0.441253662109375,0.7526092529296875,-0.2572975158691406
1684108881913267200,10.26726708984375,-0.3807234764099121,0.7499713897705078,-0.20985674858093262
1684108881923308500,10.27730859375,-0.3565511703491211,0.7174758911132812,-0.19178009033203125
1684108881933350000,10.287349853515625,-0.27856898307800293,0.6981630325317383,-0.17236590385437012
1684108881943391000,10.297390869140624,-0.1992943286895752,0.749420166015625,-0.13678598403930664
1684108881953432600,10.3074326171875,-0.14487171173095703,0.8398838043212891,-0.04218649864196777
1684108881963473700,10.3174736328125,-0.10283136367797852,0.9216141700744629,0.11875009536743164
1684108881973515000,10.327514892578124,-0.07681679725646973,0.7522420883178711,0.3908045291900635
1684108881983556400,10.337556396484375,-0.06656312942504883,0.3776273727416992,0.6023826599121094
1684108881993597700,10.34759765625,-0.13576865196228027,-0.17526626586914062,0.7451450824737549
1684108882003639000,10.35763916015625,-0.339280366897583,-0.6638898849487305,0.8688614368438721
1684108882013680400,10.367680419921875,-0.7328338623046875,-0.9673938751220703,0.8198952674865723
1684108882023721700,10.3777216796875,-1.1540156602859497,-1.1372737884521484,0.6319019794464111
1684108882033763000,10.38776318359375,-1.628831386566162,-1.2819795608520508,0.42801618576049805
1684108882043804400,10.397804443359375,-2.2856979370117188,-1.4497480392456055,0.3385646343231201
1684108882053845800,10.407845703125,-3.170426607131958,-1.5584821701049805,0.7537345886230469
1684108882063887000,10.41788720703125,-3.5718536376953125,-1.7002944946289062,1.3815884590148926
1684108882073928400,10.427928466796875,-2.921220302581787,-1.7510814666748047,1.7452285289764404
1684108882083969800,10.4379697265625,-1.661743402481079,-1.6519079208374023,1.8934235572814941
1684108882094011100,10.44801123046875,-0.5777544975280762,-1.430145263671875,2.044896364212036
1684108882104052500,10.458052490234374,0.2535353899002075,-0.9679336547851562,2.005045175552368
1684108882114093800,10.46809375,0.9996089339256287,-0.4177837371826172,1.6595616340637207
1684108882124135200,10.47813525390625,1.5396510362625122,0.033181190490722656,1.0055181980133057
1684108882134176500,10.488176513671876,1.750505805015564,0.32506561279296875,0.29702043533325195
1684108882144217900,10.4982177734375,1.6902906894683838,0.5654220581054688,-0.5144073963165283
1684108882154259200,10.50825927734375,1.4276130199432373,0.7564306259155273,-1.1087608337402344
1684108882164300500,10.518300537109376,1.0209898948669434,0.9362955093383789,-1.5473679304122925
1684108882174342000,10.528341796875,0.6995442509651184,1.0862722396850586,-1.878890872001648
1684108882184383200,10.53838330078125,0.4382138252258301,1.0918331146240234,-1.9247897863388062
1684108882194424600,10.548424560546875,0.39809322357177734,0.9004507064819336,-1.830275535583496
1684108882204466000,10.5584658203125,0.461014986038208,0.5896120071411133,-1.6395121812820435
1684108882214507300,10.56850732421875,0.5469194054603577,0.40706443786621094,-1.453136682510376
1684108882224548600,10.578548583984375,0.6803332567214966,0.1809864044189453,-1.0859308242797852
1684108882234590000,10.58858984375,0.9384961724281311,-0.03641700744628906,-0.7903735637664795
1684108882244631000,10.598631103515626,1.2374845743179321,-0.20512962341308594,-0.4873323440551758
1684108882254672400,10.60867236328125,1.5236995220184326,-0.15613460540771484,-0.24936890602111816
1684108882264714000,10.6187138671875,1.7337815761566162,0.042830467224121094,-0.08361363410949707
1684108882274755000,10.628755126953125,1.8635430335998535,0.13800334930419922,0.03784799575805664
1684108882284796400,10.63879638671875,1.8549394607543945,0.11064624786376953,0.1013648509979248
1684108882294837800,10.648837646484376,1.7718671560287476,-0.057849884033203125,0.12320423126220703
1684108882304879000,10.658879150390625,1.5836129188537598,-0.22829055786132812,0.10618805885314941
1684108882314920400,10.66892041015625,1.3382399082183838,-0.30478477478027344,0.07487273216247559
1684108882324961800,10.6789619140625,1.1012073755264282,-0.33042430877685547,0.013033866882324219
1684108882335003100,10.689003173828125,0.8077272176742554,-0.2507133483886719,-0.10559511184692383
1684108882345044500,10.69904443359375,0.4523225426673889,-0.17877483367919922,-0.2214369773864746
1684108882355085800,10.7090859375,0.09052485227584839,-0.10538673400878906,-0.4388759136199951
1684108882365127200,10.719127197265625,-0.27090996503829956,-0.013945579528808594,-0.7443571090698242
1684108882375168500,10.72916845703125,-0.5915813446044922,-0.0072345733642578125,-1.0072839260101318
1684108882385209900,10.7392099609375,-0.8366527557373047,-0.05651092529296875,-1.2510559558868408
1684108882395251200,10.749251220703124,-0.9592263698577881,-0.10198593139648438,-1.461475133895874
1684108882405292500,10.75929248046875,-0.9147052764892578,-0.22493362426757812,-1.5128873586654663
1684108882415334000,10.769333984375,-0.6156743168830872,-0.32483577728271484,-1.4877701997756958
1684108882425375200,10.779375244140626,-0.19649240374565125,-0.3584413528442383,-1.395949125289917
1684108882435416600,10.78941650390625,0.3124534785747528,-0.37775611877441406,-1.3010077476501465
1684108882445458000,10.7994580078125,0.7914865016937256,-0.45656394958496094,-1.0785517692565918
1684108882455499300,10.809499267578126,1.1646779775619507,-0.4778165817260742,-0.8704569339752197
1684108882465540600,10.81954052734375,1.4347362518310547,-0.5160665512084961,-0.6946160793304443
1684108882475582000,10.82958203125,1.6049585342407227,-0.48779296875,-0.613518238067627
1684108882485623300,10.839623291015625,1.7308517694473267,-0.3190803527832031,-0.524388313293457
1684108882495664600,10.84966455078125,1.9014227390289307,-0.18448543548583984,-0.44628310203552246
1684108882505706000,10.8597060546875,2.0125575065612793,-0.13881206512451172,-0.31481170654296875
1684108882515747000,10.8697470703125,2.048574686050415,-0.11259078979492188,-0.1542220115661621
1684108882525788700,10.87978857421875,2.039776563644409,-0.09124183654785156,-0.07158684730529785
1684108882535830000,10.889830078125,1.9834320545196533,-0.07213211059570312,0.007980585098266602
1684108882545871000,10.89987109375,1.9233739376068115,-0.05996417999267578,0.0944666862487793
1684108882555912400,10.909912353515624,1.8207342624664307,-0.05010414123535156,0.15198874473571777
1684108882565953800,10.919953857421875,1.6590139865875244,0.012135505676269531,0.18516945838928223
1684108882575995100,10.9299951171875,1.4598547220230103,0.07640933990478516,0.1536118984222412
1684108882586036500,10.940036376953126,1.2246220111846924,0.17395973205566406,0.07247185707092285
1684108882596077800,10.950077880859375,0.9502373337745667,0.1997528076171875,-0.0005009174346923828
1684108882606119200,10.960119140625,0.6875655651092529,0.11823272705078125,-0.1080937385559082
1684108882616160500,10.970160400390625,0.47436702251434326,0.1206808090209961,-0.20244526863098145
1684108882626201900,10.980201904296875,0.283957302570343,0.011080741882324219,-0.331157922744751
1684108882636243200,10.9902431640625,0.14655621349811554,-0.06208038330078125,-0.4221339225769043
1684108882646284500,11.000284423828125,0.07757971435785294,-0.11785030364990234,-0.4967920780181885
1684108882656326000,11.010325927734375,0.05484108626842499,-0.20628070831298828,-0.6123991012573242
1684108882666367200,11.0203671875,0.04948402941226959,-0.23177146911621094,-0.6616322994232178
1684108882676408600,11.03040869140625,0.10974112153053284,-0.24929141998291016,-0.6898174285888672
1684108882686450000,11.040449951171874,0.17858213186264038,-0.20862674713134766,-0.694387674331665
1684108882696491300,11.0504912109375,0.2264631986618042,-0.14583778381347656,-0.6565265655517578
1684108882706532600,11.06053271484375,0.24647025763988495,-0.15662384033203125,-0.54087233543396
1684108882716574000,11.070573974609376,0.2526591122150421,-0.13573932647705078,-0.4622805118560791
1684108882726615300,11.080615234375,0.3012411594390869,-0.13114452362060547,-0.37552356719970703
1684108882736656600,11.09065673828125,0.36937540769577026,-0.15721893310546875,-0.2855517864227295
1684108882746698000,11.100697998046876,0.43233591318130493,-0.14001750946044922,-0.24288582801818848
1684108882756739300,11.1107392578125,0.49676942825317383,-0.12041473388671875,-0.21915602684020996
1684108882766780700,11.12078076171875,0.5358598828315735,-0.08166217803955078,-0.21893978118896484
1684108882776822000,11.130822021484375,0.48711055517196655,-0.033402442932128906,-0.2255234718322754
1684108882786863400,11.14086328125,0.4797983467578888,-0.040042877197265625,-0.1908564567565918
1684108882796904700,11.15090478515625,0.41884005069732666,-0.10622692108154297,-0.15327930450439453
1684108882806946000,11.160946044921875,0.3570173382759094,-0.10999393463134766,-0.11035561561584473
1684108882816987100,11.170987060546874,0.2727602422237396,-0.1017904281616211,-0.07439994812011719
1684108882827028500,11.181028564453126,0.15687373280525208,-0.08166790008544922,-0.07889938354492188
1684108882837069800,11.19106982421875,0.055407553911209106,-0.07109832763671875,-0.04723811149597168
1684108882847111200,11.201111083984374,-0.021446526050567627,-0.07725334167480469,0.04421353340148926
1684108882857152500,11.211152587890625,-0.05179798603057861,-0.07623481750488281,0.1426398754119873
1684108882867193900,11.22119384765625,-0.05442824959754944,-0.048995018005371094,0.20963454246520996
1684108882877235200,11.231235107421876,-0.03834891319274902,0.006749153137207031,0.24984073638916016
1684108882887276500,11.241276611328125,0.018339484930038452,0.06707096099853516,0.26809048652648926
1684108882897318000,11.25131787109375,0.07450392842292786,0.1319408416748047,0.27875447273254395
1684108882907359200,11.261359130859375,0.09292760491371155,0.17041397094726562,0.3301053047180176
1684108882917400600,11.271400634765625,0.14421910047531128,0.1493234634399414,0.40671825408935547
1684108882927442000,11.28144189453125,0.133802592754364,0.18045997619628906,0.40731310844421387
1684108882937483300,11.291483154296875,0.06691229343414307,0.20198726654052734,0.4351966381072998
1684108882947524600,11.301524658203125,0.026720315217971802,0.244598388671875,0.4521057605743408
1684108882957566000,11.31156591796875,-0.03888586163520813,0.30089378356933594,0.4771263599395752
1684108882967607300,11.321607177734375,-0.11754405498504639,0.2623329162597656,0.5383360385894775
1684108882977648600,11.331648681640624,-0.1564723253250122,0.20580101013183594,0.6326069831848145
1684108882987690000,11.34168994140625,-0.1782437562942505,0.22823810577392578,0.7006325721740723
1684108882997731300,11.3517314453125,-0.17453348636627197,0.26247215270996094,0.7851476669311523
1684108883007772700,11.361772705078126,-0.14509788155555725,0.27297306060791016,0.8856618404388428
1684108883017814000,11.37181396484375,-0.14492321014404297,0.318817138671875,0.9967336654663086
1684108883027855400,11.38185546875,-0.09275907278060913,0.3804750442504883,1.0969533920288086
1684108883037896700,11.391896728515626,-0.1326305866241455,0.46706485748291016,1.1067252159118652
1684108883047938000,11.40193798828125,-0.1720879077911377,0.5829172134399414,1.1455967426300049
1684108883057979400,11.4119794921875,-0.22967875003814697,0.6309022903442383,1.1750202178955078
1684108883068020700,11.422020751953125,-0.27874740958213806,0.5224552154541016,1.3120665550231934
1684108883078061800,11.432061767578125,-0.371286004781723,0.36600685119628906,1.4015886783599854
1684108883088103200,11.442103271484376,-0.4615534245967865,0.32259368896484375,1.4330224990844727
1684108883098144800,11.452144775390625,-0.5166374444961548,0.4067115783691406,1.4464995861053467
1684108883108185900,11.462185791015624,-0.5544542074203491,0.4984111785888672,1.370347261428833
1684108883118227200,11.472227294921876,-0.5564612150192261,0.5009984970092773,1.2311451435089111
1684108883128268500,11.4822685546875,-0.49513381719589233,0.47939395904541016,1.1024959087371826
1684108883138310000,11.492309814453124,-0.43004390597343445,0.3798513412475586,0.9328956604003906
1684108883148351200,11.502351318359375,-0.3822762370109558,0.24154090881347656,0.738330602645874
1684108883158392600,11.512392578125,-0.31726735830307007,0.0816640853881836,0.5573961734771729
1684108883168434000,11.522433837890626,-0.2899106740951538,-0.01209259033203125,0.36713671684265137
1684108883178475300,11.532475341796875,-0.2336735725402832,-0.04528522491455078,0.21560335159301758
1684108883188516600,11.5425166015625,-0.15746968984603882,-0.016469955444335938,0.09519314765930176
1684108883198558000,11.552557861328125,-0.02010953426361084,0.0026302337646484375,0.037842750549316406
1684108883208599300,11.562599365234375,0.13968127965927124,0.07788848876953125,0.006572723388671875
1684108883218640600,11.572640625,0.28846752643585205,0.1940298080444336,-0.0956871509552002
1684108883228682000,11.582681884765625,0.4184802174568176,0.2231616973876953,-0.14962124824523926
1684108883238723300,11.592723388671875,0.5048503279685974,0.2610807418823242,-0.17632555961608887
1684108883248764700,11.6027646484375,0.5303160548210144,0.19701099395751953,-0.06339573860168457
1684108883258806000,11.612805908203125,0.524445116519928,0.07719993591308594,0.19037103652954102
1684108883268847400,11.622847412109374,0.44430047273635864,-0.09289741516113281,0.4611508846282959
1684108883278888700,11.632888671875,0.36597806215286255,-0.2774362564086914,0.824411153793335
1684108883288930000,11.642929931640625,0.4928550720214844,0.05343341827392578,0.9133443832397461
1684108883298971400,11.652971435546876,0.6820122599601746,0.4109535217285156,0.8324863910675049
1684108883309012700,11.6630126953125,0.8107266426086426,0.34668922424316406,0.8729479312896729
1684108883319054000,11.67305419921875,0.8736855983734131,0.07842254638671875,0.801666259765625
1684108883329095400,11.683095458984376,0.876069188117981,-0.3108091354370117,0.6317028999328613
1684108883339136500,11.693136474609375,0.8544692397117615,-0.6445550918579102,0.4082961082458496
1684108883349177900,11.703177734375,0.7729184031486511,-0.7698850631713867,0.06454229354858398
1684108883359219200,11.71321923828125,0.5964673161506653,-0.90203857421875,-0.3137960433959961
1684108883369260500,11.723260498046875,0.36780524253845215,-1.1219444274902344,-0.7220518589019775
1684108883379302000,11.733302001953126,0.1495678424835205,-1.3806028366088867,-1.1167168617248535
1684108883389343200,11.74334326171875,-0.07471352815628052,-1.691131591796875,-1.4803951978683472
1684108883399384600,11.753384521484374,-0.29437580704689026,-1.9093513488769531,-1.7801731824874878
1684108883409426000,11.763426025390626,-0.43054765462875366,-2.0304746627807617,-2.0637216567993164
1684108883419467300,11.77346728515625,-0.5252823829650879,-1.9235591888427734,-2.198460817337036
1684108883429508600,11.783508544921874,-0.5838948488235474,-1.5799503326416016,-2.391406297683716
1684108883439550000,11.793550048828125,-0.6589553356170654,-1.0795173645019531,-2.5481619834899902
1684108883449591300,11.80359130859375,-0.7936562895774841,-0.497802734375,-2.430744171142578
1684108883459632600,11.813632568359376,-0.9193084239959717,0.0996408462524414,-2.128796100616455
1684108883469674000,11.823674072265625,-0.9272875785827637,0.6147956848144531,-1.6917001008987427
1684108883479715300,11.83371533203125,-0.9246854186058044,0.9261989593505859,-1.1322277784347534
1684108883489756700,11.843756591796875,-0.8270540237426758,1.1172313690185547,-0.6394476890563965
1684108883499798000,11.853798095703125,-0.6287381649017334,1.1702241897583008,-0.16904902458190918
1684108883509839400,11.86383935546875,-0.4042406380176544,1.1298761367797852,0.1403515338897705
1684108883519880700,11.873880615234375,-0.278290331363678,1.1516036987304688,0.15844058990478516
1684108883529922000,11.883922119140625,-0.2620478868484497,0.8799571990966797,0.14133501052856445
1684108883539963400,11.89396337890625,-0.2998056411743164,0.44040393829345703,0.03168821334838867
1684108883550004700,11.904004638671875,-0.44687533378601074,0.07041645050048828,-0.179581880569458
1684108883560046000,11.914046142578124,-0.5298071503639221,-0.24384403228759766,-0.5544648170471191
1684108883570087400,11.92408740234375,-0.5867887735366821,-0.49480628967285156,-0.8692712783813477
1684108883580128800,11.934128662109375,-0.664096474647522,-0.6704416275024414,-1.0189478397369385
1684108883590170000,11.944170166015626,-0.7023941278457642,-0.7854318618774414,-1.059493899345398
1684108883600211200,11.954211181640625,-0.7167447209358215,-0.8353681564331055,-1.0679783821105957
1684108883610252500,11.96425244140625,-0.5979777574539185,-0.7418251037597656,-1.0042890310287476
1684108883620294000,11.9742939453125,-0.38039129972457886,-0.636906623840332,-0.7979583740234375
1684108883630335200,11.984335205078125,-0.2896822392940521,-0.43993091583251953,-0.44822049140930176
1684108883640376600,11.99437646484375,-0.3531954288482666,-0.21367835998535156,0.06005716323852539
1684108883650418000,12.00441796875,-0.44323253631591797,-0.03533363342285156,0.6241209506988525
1684108883660459300,12.014459228515625,-0.6954936981201172,0.10144710540771484,1.1049880981445312
1684108883670500600,12.02450048828125,-1.0750130414962769,0.1218719482421875,1.4578227996826172
1684108883680542000,12.0345419921875,-1.3668328523635864,0.07818031311035156,1.5891118049621582
1684108883690583300,12.044583251953124,-1.5660443305969238,0.0038671493530273438,1.5004849433898926
1684108883700624600,12.054624755859376,-1.6704425811767578,-0.1607990264892578,1.3656561374664307
1684108883710666000,12.064666015625,-1.6433309316635132,-0.38224029541015625,1.1170032024383545
1684108883720707300,12.074707275390624,-1.4714221954345703,-0.645843505859375,0.8002383708953857
1684108883730748700,12.084748779296875,-1.2242019176483154,-0.9461240768432617,0.34264659881591797
1684108883740790000,12.0947900390625,-0.9782691597938538,-1.2103633880615234,-0.11316061019897461
1684108883750831400,12.104831298828126,-0.6274813413619995,-1.3587570190429688,-0.4359476566314697
1684108883760872700,12.114872802734375,-0.13516712188720703,-1.3689556121826172,-0.7736787796020508
1684108883770914000,12.1249140625,0.4341506361961365,-1.168344497680664,-1.0690441131591797
1684108883780955400,12.134955322265625,0.9227216243743896,-0.9330606460571289,-1.2512226104736328
1684108883790996700,12.144996826171875,1.3100996017456055,-0.6556253433227539,-1.3602185249328613
1684108883801038000,12.1550380859375,1.5925817489624023,-0.39800453186035156,-1.3921804428100586
1684108883811079400,12.165079345703125,1.774347186088562,-0.337799072265625,-1.2688918113708496
1684108883821120800,12.175120849609375,1.796085238456726,-0.3949899673461914,-1.0133886337280273
1684108883831161900,12.185161865234376,1.6562957763671875,-0.46227264404296875,-0.9747810363769531
1684108883841203500,12.195203369140625,1.702679991722107,-0.39067745208740234,-0.904350996017456
1684108883851244800,12.205244873046874,2.056201934814453,-0.2225799560546875,-0.7050011157989502
1684108883861286000,12.215285888671875,2.3045287132263184,-0.06299114227294922,-0.4033808708190918
1684108883871327200,12.2253271484375,2.2420427799224854,0.08556175231933594,-0.14389276504516602
1684108883881368600,12.23536865234375,2.0490403175354004,0.17511367797851562,0.034905433654785156
1684108883891410000,12.245409912109375,1.7365412712097168,0.23638343811035156,0.14944076538085938
1684108883901451300,12.255451171875,1.5082409381866455,0.3287477493286133,0.249420166015625
1684108883911492600,12.26549267578125,1.4086594581604004,0.37554073333740234,0.3080263137817383
1684108883921534000,12.275533935546875,1.2612395286560059,0.4408540725708008,0.38922643661499023
1684108883931575300,12.2855751953125,1.0452364683151245,0.43808555603027344,0.38838768005371094
1684108883941616600,12.29561669921875,0.8299820423126221,0.3838949203491211,0.26462507247924805
1684108883951658000,12.305657958984375,0.5829503536224365,0.3194131851196289,0.09563827514648438
1684108883961699300,12.31569921875,0.48258769512176514,0.18857669830322266,-0.21486568450927734
1684108883971740700,12.32574072265625,0.47232353687286377,0.023786544799804688,-0.5351715087890625
1684108883981782000,12.335781982421874,0.45741748809814453,-0.15237712860107422,-0.9239935874938965
1684108883991823400,12.3458232421875,0.4809771776199341,-0.2576723098754883,-1.3662097454071045
1684108884001864700,12.35586474609375,0.531867504119873,-0.33205699920654297,-1.757025957107544
1684108884011906000,12.365906005859374,0.6009377241134644,-0.3803234100341797,-2.0268800258636475
1684108884021947400,12.375947509765625,0.6515951156616211,-0.36008739471435547,-2.252591371536255
1684108884031988700,12.38598876953125,0.6709524393081665,-0.3609457015991211,-2.2981884479522705
1684108884042030000,12.396030029296876,0.6593225002288818,-0.33614635467529297,-2.2614669799804688
1684108884052071400,12.406071533203125,0.6050140857696533,-0.2715301513671875,-2.2096683979034424
1684108884062112800,12.41611279296875,0.5065333843231201,-0.11829280853271484,-2.183502197265625
1684108884072154000,12.426154052734375,0.33145618438720703,0.059246063232421875,-1.9836091995239258
1684108884082195200,12.4361953125,0.16436195373535156,0.13609027862548828,-1.7020909786224365
1684108884092236500,12.446236572265626,-0.008899927139282227,0.2383251190185547,-1.5194370746612549
1684108884102278100,12.456278076171875,-0.14677762985229492,0.3205146789550781,-1.3501229286193848
1684108884112319200,12.4663193359375,-0.2748572826385498,0.38289403915405273,-1.1086015701293945
1684108884122360600,12.476360595703126,-0.357785701751709,0.4159369468688965,-0.8120079040527344
1684108884132402000,12.48640185546875,-0.3875162601470947,0.3739614486694336,-0.47735071182250977
1684108884142443300,12.496443359375,-0.4128861427307129,0.2570781707763672,-0.1255960464477539
1684108884152484600,12.506484619140625,-0.3723418712615967,0.16621017456054688,0.18764638900756836
1684108884162526000,12.51652587890625,-0.25064921379089355,0.01535797119140625,0.5908646583557129
1684108884172567300,12.5265673828125,-0.12009978294372559,-0.1751079559326172,1.1386380195617676
