time,seconds_elapsed,z,y,x
1684114703249468000,0.029468017578125,0,0,0
1684114703259507500,0.039507568359375,-0.29201698303222656,-0.5753107070922852,0.36463403701782227
1684114703269547000,0.049547119140625,-1.0680246353149414,-0.2890305519104004,-0.7619450092315674
1684114703279586800,0.0595869140625,-0.6204051971435547,0.1094975471496582,-0.42560696601867676
1684114703289626400,0.06962646484375,-0.7142124176025391,-0.14073705673217773,0.29356908798217773
1684114703299666000,0.079666015625,-0.2984323501586914,0.3192460536956787,0.27208590507507324
1684114703309705500,0.08970556640625,-0.5875406265258789,0.41582298278808594,0.4743070602416992
1684114703319745000,0.0997451171875,-0.5580339431762695,0.3257453441619873,0.26438331604003906
1684114703329784600,0.10978466796875,-0.39919376373291016,0.22105741500854492,0.2167515754699707
1684114703339824000,0.11982421875,-0.1675281524658203,0.18545913696289062,0.02173900604248047
1684114703349864000,0.129864013671875,0.23433160781860352,0.21672534942626953,-0.2161571979522705
1684114703359903500,0.139903564453125,0.39157629013061523,-0.3556075096130371,-0.3503124713897705
1684114703369943000,0.149943115234375,0.4313192367553711,-0.30811405181884766,-0.1683664321899414
1684114703379982600,0.159982666015625,0.3289942741394043,0.0034613609313964844,-0.4798851013183594
1684114703390022100,0.170022216796875,-0.1809554100036621,0.9480962753295898,0.10580968856811523
1684114703400061700,0.180061767578125,-0.04922819137573242,-0.48556089401245117,0.9567728042602539
1684114703410101500,0.1901015625,-0.1134195327758789,-0.05163431167602539,0.21536731719970703
1684114703420141000,0.20014111328125,0.025289535522460938,0.2031419277191162,0.17308855056762695
1684114703430180600,0.2101806640625,0.039788246154785156,0.3138399124145508,0.18442869186401367
1684114703440220200,0.22022021484375,0.04590320587158203,-0.3138613700866699,0.3449735641479492
1684114703450259700,0.230259765625,0.3668217658996582,-0.09574604034423828,0.22424936294555664
1684114703460299300,0.24029931640625,0.4178133010864258,0.3070337772369385,0.05224180221557617
1684114703470338800,0.2503388671875,0.4857187271118164,0.5047616958618164,-0.03781747817993164
1684114703480378600,0.260378662109375,0.9475350379943848,1.0783085823059082,1.393972396850586
1684114703490418200,0.270418212890625,-0.11666393280029297,1.127443790435791,-0.04343223571777344
1684114703500457700,0.280457763671875,0.13216495513916016,1.048750877380371,0.022429466247558594
1684114703510497300,0.290497314453125,0.30796003341674805,0.7334697246551514,-0.9400639533996582
1684114703520536800,0.300536865234375,0.48210954666137695,0.189131498336792,-1.2281999588012695
1684114703530576400,0.310576416015625,1.3835439682006836,0.8147964477539062,-2.113466739654541
1684114703540616200,0.3206162109375,0.9036421775817871,0.9572782516479492,-1.6485888957977295
1684114703550655700,0.33065576171875,0.216644287109375,0.8320646286010742,-0.6932892799377441
1684114703560695300,0.3406953125,0.11726188659667969,0.7266397476196289,-0.24111652374267578
1684114703570734800,0.35073486328125,0.6288619041442871,0.8561065196990967,-0.805717945098877
1684114703580774400,0.3607744140625,0.5708103179931641,0.6165018081665039,-1.4559392929077148
1684114703590814200,0.370814208984375,0.028971195220947266,0.5106086730957031,0.07231473922729492
1684114703600853800,0.380853759765625,0.1974196434020996,0.707026481628418,0.6520533561706543
1684114703610893300,0.390893310546875,0.7230887413024902,0.6883032321929932,0.40576839447021484
1684114703620932900,0.400932861328125,0.9219746589660645,0.2971076965332031,0.2062978744506836
1684114703630972400,0.410972412109375,0.9726576805114746,0.2862553596496582,-0.4728727340698242
1684114703641012200,0.42101220703125,0.8412890434265137,-0.1566920280456543,-0.5374255180358887
1684114703651051800,0.4310517578125,0.9786176681518555,-0.49281978607177734,-0.24985074996948242
1684114703661091300,0.44109130859375,0.5318496227264404,-0.5605716705322266,-0.26317501068115234
1684114703671131000,0.451130859375,-0.21200871467590332,-0.4308481216430664,-0.4627213478088379
1684114703681170400,0.46117041015625,-1.1207780838012695,-0.05445241928100586,-0.24836158752441406
1684114703691210000,0.4712099609375,-1.2691848278045654,0.2071208953857422,-0.12638568878173828
1684114703701249500,0.48124951171875,-1.7759642601013184,0.26612281799316406,0.05845069885253906
1684114703711289300,0.491289306640625,-2.4796853065490723,0.11398601531982422,0.5368003845214844
1684114703721329000,0.501328857421875,-2.666574001312256,0.07890129089355469,0.3884315490722656
1684114703731368400,0.511368408203125,-2.4612672328948975,-0.38771629333496094,0.8569126129150391
1684114703741408000,0.521407958984375,-2.178971290588379,-0.5184869766235352,0.8669595718383789
1684114703751447600,0.531447509765625,-1.8875213861465454,-0.42193078994750977,0.711308479309082
1684114703761487400,0.5414873046875,-1.4980292320251465,-0.2164449691772461,-0.05322074890136719
1684114703771527000,0.55152685546875,-0.5941957235336304,0.0027723312377929688,-0.41260242462158203
1684114703781566500,0.56156640625,0.33259689807891846,-0.09239006042480469,-0.2451496124267578
1684114703791606000,0.57160595703125,0.5024152994155884,-0.3724632263183594,0.18889236450195312
1684114703801645800,0.581645751953125,0.5471213459968567,-0.14339399337768555,0.3935670852661133
1684114703811685400,0.591685302734375,0.33246034383773804,-0.11900806427001953,0.7678012847900391
1684114703821725000,0.601724853515625,0.2118627429008484,0.01123809814453125,1.076146125793457
1684114703831764500,0.611764404296875,0.20434963703155518,0.18941783905029297,1.1956491470336914
1684114703841804000,0.621803955078125,0.16283631324768066,0.26572751998901367,1.253732681274414
1684114703851843800,0.63184375,0.13462668657302856,0.1396484375,1.595245361328125
1684114703861883400,0.64188330078125,0.02827209234237671,0.033858299255371094,1.675424575805664
1684114703871923000,0.6519228515625,-0.008323907852172852,-0.025895118713378906,1.6437206268310547
1684114703881962500,0.66196240234375,0.008002936840057373,0.12973642349243164,0.9191923141479492
1684114703892002000,0.672001953125,-0.14291530847549438,0.026844501495361328,0.06609821319580078
1684114703902041900,0.682041748046875,-0.09549948573112488,-0.21781015396118164,-0.6526823043823242
1684114703912081400,0.692081298828125,0.16327601671218872,-0.4659261703491211,-1.021763801574707
1684114703922121000,0.702120849609375,0.3296310603618622,-0.47678518295288086,-0.96197509765625
1684114703932160500,0.712160400390625,0.486676961183548,-0.29585838317871094,-0.30121803283691406
1684114703942200000,0.722199951171875,0.49185797572135925,-0.12267732620239258,0.131256103515625
1684114703952239900,0.732239990234375,0.34084975719451904,-0.02901315689086914,0.2691974639892578
1684114703962279400,0.742279541015625,0.33701375126838684,-0.12449884414672852,0.3307685852050781
1684114703972319000,0.752319091796875,0.3011206090450287,-0.18442392349243164,0.052237510681152344
1684114703982358500,0.762358642578125,0.34307700395584106,0.08569812774658203,-0.8103089332580566
1684114703992398000,0.772398193359375,0.15251591801643372,0.0893406867980957,-1.3131284713745117
1684114704002438000,0.78243798828125,0.07942512631416321,0.33221864700317383,-2.2913331985473633
1684114704012477400,0.7924775390625,-0.04873058199882507,0.33263254165649414,-2.410686492919922
1684114704022517000,0.80251708984375,-0.0937270075082779,0.37352561950683594,-2.2338919639587402
1684114704032556500,0.812556640625,-0.17850500345230103,0.2067556381225586,-1.2719216346740723
1684114704042596000,0.82259619140625,-0.25726795196533203,0.30566835403442383,-0.30511474609375
1684114704052636000,0.832635986328125,0.12729695439338684,0.13812971115112305,0.7170915603637695
1684114704062675500,0.842675537109375,0.4236990809440613,-0.28911256790161133,1.828385829925537
1684114704072715000,0.852715087890625,0.6338744163513184,-0.14715194702148438,2.3471479415893555
1684114704082754600,0.862754638671875,0.6125763654708862,0.0893096923828125,2.385082721710205
1684114704092794400,0.87279443359375,0.5487468838691711,-0.061923980712890625,2.5416717529296875
1684114704102834000,0.882833984375,0.48868685960769653,-0.20920467376708984,2.931981086730957
1684114704112873500,0.89287353515625,0.3372843563556671,0.26578283309936523,2.6257553100585938
1684114704122913000,0.9029130859375,-0.06445401906967163,0.5355496406555176,1.8798017501831055
1684114704132952800,0.912952880859375,-0.5708271861076355,0.21347665786743164,0.9703183174133301
1684114704142992400,0.922992431640625,-0.8516110777854919,-0.11381101608276367,0.4814462661743164
1684114704153032000,0.933031982421875,-0.7162705063819885,-0.009051799774169922,0.033721923828125
1684114704163071500,0.943071533203125,-0.21328431367874146,0.11083316802978516,-0.020717620849609375
1684114704173111300,0.953111328125,0.4084745943546295,-0.027260780334472656,0.10956287384033203
1684114704183150800,0.96315087890625,0.7852810025215149,-0.17330217361450195,0.4993433952331543
1684114704193190400,0.9731904296875,0.9262129068374634,-0.11513090133666992,0.8651504516601562
1684114704203230000,0.98322998046875,0.9245666861534119,-0.16669273376464844,1.027991771697998
1684114704213269500,0.99326953125,0.6967250108718872,-0.320157527923584,0.9919543266296387
1684114704223309300,1.003309326171875,0.5733011960983276,-0.0697164535522461,0.7166962623596191
1684114704233348900,1.013348876953125,0.47800764441490173,0.06585311889648438,0.5740022659301758
1684114704243388400,1.023388427734375,0.7485661506652832,-0.029008865356445312,0.7894225120544434
1684114704253428200,1.03342822265625,1.534651756286621,0.1581864356994629,1.0375299453735352
1684114704263467800,1.0434677734375,0.6637139916419983,0.517672061920166,0.0023598670959472656
1684114704273507300,1.05350732421875,0.8761834502220154,0.5916018486022949,0.5333251953125
1684114704283547000,1.063546875,1.1414239406585693,0.6428914070129395,0.48532915115356445
1684114704293586400,1.07358642578125,0.8731433153152466,0.2175583839416504,0.3695793151855469
1684114704303626200,1.083626220703125,0.684222400188446,0.020768165588378906,-0.05416154861450195
1684114704313665800,1.093665771484375,0.4281432032585144,0.526792049407959,-0.4014573097229004
1684114704323705300,1.103705322265625,-0.2737526297569275,0.4874105453491211,-0.4159688949584961
1684114704333745000,1.113744873046875,-0.08940242975950241,0.16410350799560547,-0.28961658477783203
1684114704343784700,1.12378466796875,-0.4316023588180542,0.849184513092041,-0.3524169921875
1684114704353824300,1.13382421875,-0.48333975672721863,0.6502690315246582,0.04465627670288086
1684114704363863800,1.14386376953125,-0.3551281988620758,0.4920229911804199,0.16070318222045898
1684114704373903400,1.1539033203125,-0.3197629153728485,0.5406227111816406,0.18909168243408203
1684114704383943200,1.163943115234375,-0.49262577295303345,0.5665154457092285,0.2678060531616211
1684114704393982700,1.173982666015625,-0.6013920307159424,0.4376087188720703,0.32016992568969727
1684114704404022300,1.184022216796875,-0.6991787552833557,1.1630311012268066,-0.1829814910888672
1684114704414061800,1.194061767578125,-0.5855023264884949,0.33284997940063477,0.1259784698486328
1684114704424101600,1.2041015625,-0.498489648103714,0.2592005729675293,0.32511043548583984
1684114704434141200,1.21414111328125,-0.5979655385017395,0.4547891616821289,0.07901477813720703
1684114704444180700,1.2241806640625,-0.8777344226837158,0.07778596878051758,0.4051938056945801
1684114704454220300,1.23422021484375,-0.9468730688095093,-0.049160003662109375,-0.17637395858764648
1684114704464260000,1.244260009765625,-0.5154043436050415,-0.37648439407348633,-0.21593284606933594
1684114704474299600,1.254299560546875,0.005360662937164307,-0.8942389488220215,0.35241222381591797
1684114704484339200,1.264339111328125,-0.49235326051712036,-0.9834842681884766,0.7733292579650879
1684114704494378800,1.274378662109375,-1.0465173721313477,-0.6501789093017578,0.4846372604370117
1684114704504418600,1.28441845703125,-1.0297273397445679,-0.6112618446350098,0.41954565048217773
1684114704514458000,1.2944580078125,-0.6242028474807739,-0.7483949661254883,0.44167184829711914
1684114704524497700,1.30449755859375,-0.48789018392562866,-0.9413790702819824,0.5625309944152832
1684114704534537500,1.314537353515625,-0.24098193645477295,-1.0703997611999512,0.5058903694152832
1684114704544577000,1.324576904296875,-0.0887840986251831,-1.0333304405212402,0.19471454620361328
1684114704554616600,1.334616455078125,-0.044072866439819336,-1.0835814476013184,0.10328865051269531
1684114704564656000,1.34465625,-0.06412196159362793,-1.187281608581543,0.1583390235900879
1684114704574696000,1.354696044921875,-0.16313934326171875,-1.1886258125305176,0.1673736572265625
1684114704584735500,1.364735595703125,-0.34090685844421387,-1.137657642364502,0.11293840408325195
1684114704594775000,1.374775146484375,-0.2546807527542114,-0.5019049644470215,0.2361745834350586
1684114704604814600,1.384814697265625,-0.1657085418701172,0.30010986328125,0.08832502365112305
1684114704614854400,1.3948544921875,-0.4032021760940552,0.37652158737182617,0.11697673797607422
1684114704624894000,1.40489404296875,-0.3892143964767456,0.38602733612060547,0.2661752700805664
1684114704634933500,1.41493359375,-0.3545914888381958,0.5563654899597168,0.35817861557006836
1684114704644973300,1.424973388671875,-0.23125243186950684,0.7033367156982422,0.13374567031860352
1684114704655012900,1.435012939453125,-0.14909851551055908,0.6664414405822754,-0.1074986457824707
1684114704665052400,1.445052490234375,-0.05596005916595459,0.44032764434814453,-0.25634288787841797
1684114704675092000,1.455092041015625,0.1217116117477417,0.08913469314575195,-0.8029026985168457
1684114704685131800,1.4651318359375,0.4318201541900635,-0.4359745979309082,-1.0458011627197266
1684114704695171300,1.47517138671875,0.4322347640991211,-1.0872735977172852,-1.239509105682373
1684114704705211000,1.4852109375,0.3086930513381958,-1.2629051208496094,-1.462165355682373
1684114704715250400,1.49525048828125,0.20249545574188232,-0.8832550048828125,-1.5964059829711914
1684114704725290200,1.505290283203125,0.17421233654022217,-0.03893232345581055,-1.406844139099121
1684114704735329800,1.515329833984375,-0.03465545177459717,0.5102696418762207,-0.7929978370666504
1684114704745369300,1.525369384765625,-0.35906946659088135,0.3684854507446289,-0.2059950828552246
1684114704755409200,1.5354091796875,-0.4857208728790283,0.14575576782226562,0.17313718795776367
1684114704765448700,1.54544873046875,-0.2762693166732788,-0.015825748443603516,0.3992805480957031
1684114704775488300,1.55548828125,0.01853954792022705,-0.14820480346679688,0.3521738052368164
1684114704785528000,1.565528076171875,0.0013086795806884766,-0.5290517807006836,-0.0420684814453125
1684114704795567600,1.575567626953125,0.0736246109008789,-0.5355081558227539,-0.33535289764404297
1684114704805607200,1.585607177734375,0.11814260482788086,-0.28659725189208984,-0.3480844497680664
1684114704815646700,1.595646728515625,0.32743513584136963,0.2757740020751953,-0.6617379188537598
1684114704825686500,1.6056865234375,0.5721782445907593,1.0718398094177246,-0.41467905044555664
1684114704835726000,1.61572607421875,0.677406907081604,0.25763607025146484,-0.39324235916137695
1684114704845765600,1.625765625,0.7786315679550171,-0.5783700942993164,-0.19542884826660156
1684114704855805400,1.635805419921875,0.6306618452072144,-0.9689574241638184,-0.09818172454833984
1684114704865845000,1.645844970703125,0.522209882736206,-0.9506139755249023,-0.42304325103759766
1684114704875884500,1.655884521484375,0.1810511350631714,-1.7017364501953125,-0.4401087760925293
1684114704885924000,1.665924072265625,0.11326014995574951,-1.213353157043457,-0.5962138175964355
1684114704895964000,1.6759638671875,-0.07726705074310303,-0.5896482467651367,-0.7290821075439453
1684114704906003500,1.68600341796875,-0.3146120309829712,-0.3897881507873535,-0.7502179145812988
1684114704916043000,1.69604296875,-0.3736189603805542,-0.15754079818725586,-0.5345778465270996
1684114704926082600,1.70608251953125,-0.15037333965301514,0.04185342788696289,-0.38660669326782227
1684114704936122400,1.716122314453125,-0.044173598289489746,-0.08997440338134766,-0.22377681732177734
1684114704946162000,1.726161865234375,0.02050340175628662,-0.22496318817138672,-0.09462547302246094
1684114704956201500,1.736201416015625,0.10848701000213623,-0.3140988349914551,0.04733705520629883
1684114704966241300,1.7462412109375,0.180680513381958,-0.3059959411621094,0.20315217971801758
1684114704976280800,1.75628076171875,0.15084385871887207,-0.10859298706054688,-0.0005774497985839844
1684114704986320400,1.7663203125,0.144187331199646,-0.09968042373657227,0.028149127960205078
1684114704996360200,1.776360107421875,0.3308018445968628,0.10647869110107422,-0.19821739196777344
1684114705006399700,1.786399658203125,0.21242475509643555,0.14508914947509766,-0.12585926055908203
1684114705016439300,1.796439208984375,0.10529804229736328,-0.018694400787353516,-0.029282093048095703
1684114705026479000,1.80647900390625,-0.001180410385131836,0.08895492553710938,-0.19918012619018555
1684114705036518700,1.8165185546875,0.025563836097717285,-0.608665943145752,-0.3842010498046875
1684114705046558200,1.82655810546875,0.23626554012298584,-0.4855537414550781,-0.4608888626098633
1684114705056598000,1.836597900390625,0.36430901288986206,-0.45743656158447266,-0.48456764221191406
1684114705066637600,1.846637451171875,0.47271573543548584,-0.09579944610595703,-0.3526177406311035
1684114705076677000,1.856677001953125,0.30978459119796753,-0.466005802154541,-0.4409961700439453
1684114705086716700,1.866716552734375,0.3297392725944519,-0.39200687408447266,-0.24930191040039062
1684114705096756500,1.876756591796875,0.45824527740478516,-0.5253429412841797,-0.5459294319152832
1684114705106796000,1.886796142578125,0.3869171142578125,0.6957712173461914,-0.44426727294921875
1684114705116835600,1.896835693359375,0.09145903587341309,-0.10501813888549805,-0.9014053344726562
1684114705126875400,1.90687548828125,0.04401421546936035,0.10913515090942383,-0.8603754043579102
1684114705136915000,1.9169150390625,-0.0079880952835083,-0.05979108810424805,-0.8433313369750977
1684114705146954500,1.92695458984375,0.08898866176605225,-0.3220992088317871,-0.5087428092956543
1684114705156994300,1.936994384765625,0.1020975112915039,-0.4067063331604004,-0.3843412399291992
1684114705167033900,1.947033935546875,-0.037015318870544434,-0.2608513832092285,-0.34352731704711914
1684114705177073400,1.957073486328125,-0.09170007705688477,-0.1073451042175293,-0.27216625213623047
1684114705187113200,1.96711328125,-0.05579519271850586,-0.010703563690185547,-0.19361114501953125
1684114705197152800,1.97715283203125,0.060804128646850586,-0.029204368591308594,-0.1605081558227539
1684114705207192300,1.9871923828125,0.16067934036254883,-0.04909038543701172,-0.17103338241577148
1684114705217232100,1.997232177734375,0.2012333869934082,0.03622293472290039,-0.17061185836791992
1684114705227271700,2.007271728515625,0.15800070762634277,0.053008079528808594,-0.26871156692504883
1684114705237311200,2.017311279296875,-0.008558392524719238,0.04429817199707031,-0.26874876022338867
1684114705247350800,2.027350830078125,-0.36293280124664307,0.09509086608886719,-0.2553577423095703
1684114705257390600,2.037390625,-0.6954936981201172,0.19809484481811523,-0.0661935806274414
1684114705267430100,2.04743017578125,-0.7765066623687744,0.22574329376220703,-0.19639968872070312
1684114705277470000,2.057469970703125,-0.5496261119842529,0.005736827850341797,-0.480710506439209
1684114705287509500,2.067509521484375,-0.4072391986846924,-0.3149895668029785,-0.4914841651916504
1684114705297549000,2.077549072265625,-0.29122424125671387,-0.5912775993347168,-0.1930837631225586
1684114705307588900,2.0875888671875,-0.010316610336303711,-0.7284250259399414,0.18556547164916992
1684114705317628400,2.09762841796875,0.3788740634918213,-0.8001999855041504,0.3319220542907715
1684114705327668000,2.10766796875,0.7639675140380859,-0.7209882736206055,0.2906036376953125
1684114705337707800,2.117707763671875,0.9123550653457642,-0.873438835144043,0.25878000259399414
1684114705347747300,2.127747314453125,0.8993352651596069,-0.8029465675354004,0.21917390823364258
1684114705357787000,2.137786865234375,0.9087308645248413,-0.41124916076660156,0.14993906021118164
1684114705367826700,2.14782666015625,0.9862883687019348,0.02249288558959961,-0.12285900115966797
1684114705377866200,2.1578662109375,1.6102287769317627,1.1499109268188477,-0.22463417053222656
1684114705387905800,2.16790576171875,0.7612431049346924,0.7315387725830078,-0.6336150169372559
1684114705397945600,2.177945556640625,0.3605782985687256,0.4083271026611328,-0.8366255760192871
1684114705407985200,2.187985107421875,-0.062116026878356934,0.41899681091308594,-0.791384220123291
1684114705418024700,2.198024658203125,-0.5084196329116821,0.41020631790161133,-0.7492866516113281
1684114705428064500,2.208064453125,-0.7677803039550781,0.6501369476318359,-0.870396614074707
1684114705438104000,2.21810400390625,-0.8733961582183838,0.9890923500061035,-1.1791672706604004
1684114705448143600,2.2281435546875,-0.7300653457641602,1.0914645195007324,-1.3186249732971191
1684114705458183400,2.238183349609375,-0.5745207071304321,1.007164478302002,-1.2339062690734863
1684114705468223000,2.248222900390625,-0.7068185806274414,0.5941305160522461,-0.7929596900939941
1684114705478262500,2.258262451171875,-0.8395193815231323,0.05511808395385742,-0.05540180206298828
1684114705488302300,2.26830224609375,-0.7632138729095459,-0.5446405410766602,0.6497683525085449
1684114705498342000,2.278341796875,-0.42990922927856445,-1.0347280502319336,1.1026015281677246
1684114705508381400,2.28838134765625,-0.09792876243591309,-1.3757891654968262,1.5978970527648926
1684114705518421200,2.298421142578125,0.053734421730041504,-0.1377544403076172,2.4375367164611816
1684114705528460800,2.308460693359375,-0.6931203603744507,-0.9029884338378906,2.643099308013916
1684114705538500400,2.318500244140625,-0.6878206729888916,-1.3700690269470215,1.5181260108947754
1684114705548540200,2.3285400390625,-0.08635282516479492,-0.9396448135375977,0.5317907333374023
1684114705558579700,2.338579833984375,0.30767524242401123,-0.5748262405395508,-0.23441743850708008
1684114705568619500,2.34861962890625,0.5774699449539185,-0.5502495765686035,-0.48078203201293945
1684114705578659000,2.3586591796875,0.9393032789230347,-0.33129453659057617,-0.4839620590209961
1684114705588698600,2.36869873046875,1.275439977645874,-0.8052916526794434,-0.4281120300292969
1684114705598738400,2.378738525390625,1.5889098644256592,-0.6850485801696777,-0.28550243377685547
1684114705608778000,2.388778076171875,1.548909306526184,-0.531888484954834,-0.4109039306640625
1684114705618817500,2.398817626953125,1.3197115659713745,-0.26877546310424805,-0.6783890724182129
1684114705628857300,2.408857421875,1.003083348274231,-0.23585224151611328,-1.0668044090270996
1684114705638897000,2.41889697265625,0.9869814515113831,-0.03734016418457031,-1.1326866149902344
1684114705648936400,2.4289365234375,1.086750864982605,0.053279876708984375,-0.9953188896179199
1684114705658976300,2.438976318359375,1.2878204584121704,0.24231719970703125,-0.9666342735290527
1684114705669015800,2.449015869140625,1.1890270709991455,0.16270875930786133,-0.8346223831176758
1684114705679055400,2.459055419921875,1.1434872150421143,0.07788848876953125,-0.7113156318664551
1684114705689095200,2.46909521484375,1.0298125743865967,-0.18439054489135742,-0.5232672691345215
1684114705699134700,2.479134765625,1.1074192523956299,1.2978439331054688,-0.2607135772705078
1684114705709174300,2.48917431640625,0.43468737602233887,0.07678556442260742,-0.8361506462097168
1684114705719214000,2.499214111328125,0.4225372076034546,-0.32489824295043945,-0.4317646026611328
1684114705729253600,2.509253662109375,0.4586072564125061,-0.01463174819946289,0.27692270278930664
1684114705739293200,2.519293212890625,0.09763747453689575,-0.22178888320922852,0.6885113716125488
1684114705749333000,2.5293330078125,0.03813004493713379,-0.4310297966003418,0.6492376327514648
1684114705759372500,2.53937255859375,0.3989153206348419,-0.4282870292663574,0.4958958625793457
1684114705769412400,2.549412353515625,0.9141528010368347,-0.14317989349365234,0.09998130798339844
1684114705779452000,2.559451904296875,1.089753270149231,-0.6921811103820801,-0.16476202011108398
1684114705789491500,2.569491455078125,1.4284433126449585,-1.1533565521240234,-0.33466482162475586
1684114705799531300,2.57953125,1.8184754848480225,-0.7745428085327148,-0.44289588928222656
1684114705809570800,2.58957080078125,2.035839080810547,-0.639124870300293,-0.705543041229248
1684114705819610400,2.5996103515625,2.134817361831665,-0.5038576126098633,-0.8099308013916016
1684114705829650200,2.609650146484375,2.251655340194702,-0.5675010681152344,-0.8832526206970215
1684114705839689700,2.619689697265625,2.386749744415283,-0.592041015625,-0.840491771697998
1684114705849729500,2.6297294921875,2.1821048259735107,-0.4752035140991211,-0.8086934089660645
1684114705859769000,2.63976904296875,1.8880094289779663,-0.519740104675293,-0.7653279304504395
1684114705869808600,2.64980859375,1.5523464679718018,-0.7320337295532227,-0.8175320625305176
1684114705879848400,2.659848388671875,1.2882304191589355,-0.8518037796020508,-0.8175907135009766
1684114705889888000,2.669887939453125,0.852850079536438,-0.9249582290649414,-0.842414379119873
1684114705899927600,2.679927490234375,0.684573233127594,-0.60369873046875,-0.7776408195495605
1684114705909967400,2.68996728515625,0.7992628812789917,-0.02941608428955078,-0.8225679397583008
1684114705920007000,2.7000068359375,0.6307556629180908,0.23902130126953125,-1.0847911834716797
1684114705930046700,2.710046630859375,0.3758961856365204,-0.050871849060058594,-1.2044501304626465
1684114705940086300,2.720086181640625,0.2607632875442505,-0.2923707962036133,-1.2458219528198242
1684114705950125800,2.730125732421875,0.28532102704048157,-0.011132240295410156,-1.1733956336975098
1684114705960165600,2.74016552734375,0.39899444580078125,0.4689340591430664,-1.1043219566345215
1684114705970205200,2.750205078125,0.39736664295196533,0.26739025115966797,-1.1100599765777588
1684114705980245000,2.760244873046875,0.5293569564819336,0.7276253700256348,-0.8478808403015137
1684114705990284500,2.770284423828125,1.0257375240325928,2.0282859802246094,-0.19431257247924805
1684114706000324000,2.780323974609375,0.26907920837402344,0.2909269332885742,-0.02358722686767578
1684114706010364000,2.790364013671875,0.3630480468273163,0.21610641479492188,-0.16306447982788086
1684114706020403500,2.800403564453125,0.7915613055229187,1.606358528137207,-0.25943994522094727
1684114706030443300,2.810443359375,0.3497222661972046,1.2142720222473145,-0.776252269744873
1684114706040482800,2.82048291015625,0.14638221263885498,0.7004823684692383,-1.0559113025665283
1684114706050522400,2.8305224609375,0.24132311344146729,-1.6478185653686523,-0.6265115737915039
1684114706060562200,2.840562255859375,0.6315025687217712,-2.4626359939575195,-0.6901552677154541
1684114706070601700,2.850601806640625,1.2648000717163086,-1.5045385360717773,-0.13164186477661133
1684114706080641500,2.8606416015625,1.413178563117981,-0.15699195861816406,0.4769301414489746
1684114706090681000,2.87068115234375,0.8598055839538574,0.2676715850830078,1.1378483772277832
1684114706100720600,2.880720703125,0.21760059893131256,0.16117191314697266,1.4875030517578125
1684114706110760400,2.890760498046875,-0.12469062209129333,0.3078632354736328,1.7103843688964844
1684114706120800000,2.900800048828125,-0.28372734785079956,0.3291912078857422,1.6432628631591797
1684114706130839600,2.910839599609375,-0.283277302980423,0.3010120391845703,1.4740304946899414
1684114706140879400,2.92087939453125,-0.17227619886398315,0.027036666870117188,1.2378733158111572
1684114706150919000,2.9309189453125,0.12996691465377808,0.046904563903808594,1.052215814590454
1684114706160958700,2.940958740234375,0.5018506050109863,0.12935543060302734,0.8102362155914307
1684114706170998300,2.950998291015625,0.7535365223884583,-0.07517623901367188,1.0133106708526611
1684114706181037800,2.961037841796875,0.765883207321167,-0.3108692169189453,1.4620490074157715
1684114706191077600,2.97107763671875,0.7989391088485718,-0.17366695404052734,1.7596092224121094
1684114706201117200,2.9811171875,0.7605555057525635,-0.2182912826538086,1.6484243869781494
1684114706211157000,2.991156982421875,0.8663581609725952,-0.17288494110107422,1.7238318920135498
1684114706221196500,3.001196533203125,0.9991258978843689,-0.1215810775756836,1.5828185081481934
1684114706231236000,3.011236083984375,1.1036086082458496,-0.11343765258789062,1.3093948364257812
1684114706241276000,3.02127587890625,1.0161895751953125,-0.14270591735839844,1.185039758682251
1684114706251315500,3.0313154296875,0.6839019060134888,-0.4339447021484375,1.031822681427002
1684114706261355300,3.041355224609375,0.5597416758537292,-0.5950145721435547,0.9907965660095215
1684114706271394800,3.051394775390625,0.5744152069091797,-0.4193735122680664,1.0141067504882812
1684114706281434600,3.0614345703125,0.5865811109542847,-0.4089317321777344,0.7633533477783203
1684114706291474200,3.07147412109375,0.7869139909744263,-0.19246387481689453,0.497222900390625
1684114706301513700,3.081513671875,0.9656298160552979,0.0031690597534179688,0.1883690357208252
1684114706311553500,3.091553466796875,1.0148018598556519,-0.16950416564941406,0.004266023635864258
1684114706321593000,3.101593017578125,1.1384748220443726,-0.05740547180175781,-0.10161614418029785
1684114706331633000,3.1116328125,1.2109253406524658,-0.036090850830078125,-0.14167118072509766
1684114706341672400,3.12167236328125,1.1099728345870972,-0.1384258270263672,-0.21321439743041992
1684114706351712000,3.1317119140625,1.0130993127822876,-0.10151290893554688,-0.2539494037628174
1684114706361751800,3.141751708984375,0.8584540486335754,-0.14706039428710938,-0.46431803703308105
1684114706371791400,3.151791259765625,0.7090883255004883,-0.13641357421875,-0.5075514316558838
1684114706381831200,3.1618310546875,0.4244498014450073,-0.13039207458496094,-0.35175228118896484
1684114706391870700,3.17187060546875,0.531674861907959,0.9647636413574219,0.2633826732635498
1684114706401910300,3.18191015625,0.301813006401062,-0.7080402374267578,0.47313547134399414
1684114706411950000,3.1919501953125,0.6141698956489563,-0.09107398986816406,0.31429576873779297
1684114706421989600,3.20198974609375,0.40436652302742004,-0.21398162841796875,0.5305595397949219
1684114706432029400,3.212029541015625,0.41645169258117676,0.0686025619506836,0.8240792751312256
1684114706442069000,3.222069091796875,0.5055941343307495,0.06571769714355469,0.9485604763031006
1684114706452108500,3.232108642578125,0.5731438994407654,-0.0019807815551757812,1.0650219917297363
1684114706462148400,3.2421484375,0.5350459218025208,-0.012973785400390625,1.15566086769104
1684114706472188000,3.25218798828125,0.5050719976425171,-0.013125419616699219,1.229583501815796
1684114706482227700,3.262227783203125,0.37435710430145264,-0.09868144989013672,1.301682472229004
1684114706492267300,3.272267333984375,0.2930041551589966,-0.42193031311035156,1.2034738063812256
1684114706502307000,3.28230712890625,0.2708371877670288,-0.6207275390625,0.9468848705291748
1684114706512346600,3.2923466796875,0.3477630317211151,-0.8643627166748047,0.8090376853942871
1684114706522386200,3.30238623046875,0.4626314043998718,-0.9685459136962891,0.6739301681518555
1684114706532426000,3.312426025390625,0.408319890499115,-1.3246078491210938,0.4628779888153076
1684114706542465500,3.322465576171875,0.4718480408191681,-0.9655189514160156,0.45384883880615234
1684114706552505300,3.33250537109375,0.571498453617096,-0.7623786926269531,0.6076130867004395
1684114706562545000,3.342544921875,0.7239535450935364,-0.628870964050293,0.7033126354217529
1684114706572584400,3.35258447265625,0.8038835525512695,-0.5673236846923828,0.8047475814819336
1684114706582624300,3.362624267578125,0.8961191177368164,-0.4892387390136719,0.887598991394043
1684114706592663800,3.372663818359375,0.9960691332817078,-0.4187021255493164,1.1892435550689697
1684114706602703600,3.38270361328125,1.022728443145752,-0.4009990692138672,1.3671252727508545
1684114706612743200,3.3927431640625,0.8854612112045288,-0.6700162887573242,1.534717321395874
1684114706622783000,3.402782958984375,0.6360950469970703,-0.8576593399047852,1.5131962299346924
1684114706632822500,3.412822509765625,0.1065828800201416,-0.9145269393920898,1.2946057319641113
1684114706642862300,3.4228623046875,-0.3086169958114624,-0.5065326690673828,0.8010826110839844
1684114706652902000,3.43290185546875,-0.7348181009292603,-0.33872222900390625,0.5765095949172974
1684114706662941400,3.44294140625,-1.0043647289276123,-0.2935056686401367,0.46554267406463623
1684114706672981200,3.452981201171875,-1.125697135925293,-0.015349388122558594,0.5329285860061646
1684114706683020800,3.463020751953125,-1.2366876602172852,0.1318340301513672,0.5429503917694092
1684114706693060600,3.473060546875,-1.1967788934707642,0.3489046096801758,0.4959801435470581
1684114706703100200,3.48310009765625,-1.0342299938201904,0.43062400817871094,0.4077500104904175
1684114706713140000,3.493139892578125,-0.7920877933502197,0.5541324615478516,0.3048064708709717
1684114706723179500,3.503179443359375,-0.5586393475532532,0.7381772994995117,0.29777097702026367
1684114706733219000,3.513218994140625,-0.39745622873306274,0.8578605651855469,0.5286903381347656
1684114706743259000,3.5232587890625,-0.14099633693695068,0.927464485168457,0.6535519361495972
1684114706753298400,3.53329833984375,-0.06005096435546875,0.7871828079223633,0.6962606906890869
1684114706763338200,3.543338134765625,-0.005616188049316406,0.7024259567260742,0.723602294921875
1684114706773377800,3.553377685546875,-0.06957709789276123,0.6059341430664062,0.7617738246917725
1684114706783417600,3.56341748046875,-0.1995619535446167,0.5704097747802734,0.7928018569946289
1684114706793457200,3.57345703125,-0.15751945972442627,1.5190043449401855,0.913520097732544
1684114706803497000,3.5834970703125,-0.8230454921722412,0.307159423828125,1.2958929538726807
1684114706813536500,3.59353662109375,-0.6984341144561768,-0.06917572021484375,1.340543270111084
1684114706823576000,3.603576171875,-0.364726185798645,-0.12998485565185547,1.1647522449493408
1684114706833616000,3.613615966796875,-0.026938199996948242,-0.27123451232910156,1.0119431018829346
1684114706843655400,3.623655517578125,0.09512698650360107,-0.508519172668457,0.7623577117919922
1684114706853695200,3.6336953125,0.35444343090057373,-0.6505975723266602,0.7331404685974121
1684114706863734800,3.64373486328125,0.8047826290130615,-0.7476882934570312,0.621300220489502
1684114706873774600,3.653774658203125,1.2939659357070923,-0.7140932083129883,0.28739094734191895
1684114706883814100,3.663814208984375,1.393451452255249,-1.119119644165039,0.10665345191955566
1684114706893854000,3.67385400390625,1.4052927494049072,-1.3403444290161133,-0.11176633834838867
1684114706903893500,3.6838935546875,1.5213029384613037,-1.4472522735595703,-0.2887098789215088
1684114706913933000,3.69393310546875,1.8130276203155518,-1.2599735260009766,-0.4140157699584961
1684114706923972900,3.703972900390625,2.08929443359375,-0.9659595489501953,-0.40067481994628906
1684114706934012400,3.714012451171875,2.3076980113983154,-0.6543588638305664,-0.3031730651855469
1684114706944052200,3.72405224609375,2.311772584915161,-0.70672607421875,-0.38335680961608887
1684114706954091800,3.734091796875,2.2239878177642822,-0.7938919067382812,-0.7207963466644287
1684114706964131600,3.744131591796875,2.270204544067383,-0.7509441375732422,-0.7129924297332764
1684114706974171100,3.754171142578125,2.271277666091919,-0.46976470947265625,-0.7752161026000977
1684114706984210700,3.764210693359375,2.201336145401001,-0.3999805450439453,-0.8591001033782959
1684114706994250500,3.77425048828125,2.021304130554199,-0.3703441619873047,-0.93111252784729
1684114707004290300,3.784290283203125,1.936812400817871,-0.3109407424926758,-1.045086145401001
1684114707014329900,3.794329833984375,1.8787522315979004,-0.1387767791748047,-1.1762504577636719
1684114707024369400,3.804369384765625,1.8161433935165405,0.4696464538574219,-1.280454158782959
1684114707034409200,3.8144091796875,1.5868659019470215,0.6355447769165039,-0.9416167736053467
1684114707044448800,3.82444873046875,1.268186092376709,0.44783782958984375,-0.6285650730133057
1684114707054488600,3.834488525390625,1.0630663633346558,0.18273639678955078,-0.4808785915374756
1684114707064528100,3.844528076171875,0.7699503898620605,-0.08354663848876953,-0.5660483837127686
1684114707074568000,3.85456787109375,0.888471245765686,-0.13936614990234375,-0.4792442321777344
1684114707084607500,3.864607421875,0.9987598657608032,-0.12085247039794922,-0.30506062507629395
1684114707094647300,3.874647216796875,0.9073413610458374,-0.02516460418701172,-0.12669086456298828
1684114707104686800,3.884686767578125,0.8507583141326904,0.10335254669189453,-0.09816884994506836
1684114707114726700,3.8947265625,0.8080625534057617,0.2489004135131836,0.13552522659301758
1684114707124766200,3.90476611328125,0.645575761795044,0.32592010498046875,0.3860795497894287
1684114707134805800,3.9148056640625,0.4854785203933716,0.3425111770629883,0.5901997089385986
1684114707144845600,3.924845458984375,0.26521825790405273,0.2062692642211914,0.6802024841308594
1684114707154885000,3.934885009765625,0.13408327102661133,-0.0773019790649414,0.5765261650085449
1684114707164925000,3.944925048828125,0.2135908603668213,-0.41246795654296875,0.34340953826904297
1684114707174964500,3.954964599609375,0.3983900547027588,-0.766057014465332,-0.028338909149169922
1684114707185004300,3.96500439453125,0.7010865211486816,-1.1998176574707031,-0.5461287498474121
1684114707195043800,3.9750439453125,1.1457622051239014,-1.3488101959228516,-1.1143550872802734
1684114707205083600,3.985083740234375,1.509338140487671,-1.332961082458496,-1.5626115798950195
1684114707215123200,3.995123291015625,1.7150038480758667,-0.9908647537231445,-1.8406152725219727
1684114707225163000,4.0051630859375,1.60247802734375,-0.721684455871582,-1.9890735149383545
1684114707235202600,4.01520263671875,1.5016186237335205,-0.37725067138671875,-1.99210524559021
1684114707245242400,4.025242431640625,1.3028658628463745,-0.14474964141845703,-1.9455797672271729
1684114707255282000,4.035281982421875,1.167801022529602,-0.18128681182861328,-1.9019591808319092
1684114707265321500,4.045321533203125,1.1560665369033813,-0.11567401885986328,-1.768310546875
1684114707275361300,4.055361328125,1.1913751363754272,0.0053081512451171875,-1.5970048904418945
1684114707285401000,4.065401123046875,1.1775500774383545,0.13531494140625,-1.4139268398284912
1684114707295440600,4.075440673828125,1.0978864431381226,0.1637420654296875,-1.2397394180297852
1684114707305480200,4.085480224609375,1.0035051107406616,0.2216033935546875,-1.0776011943817139
1684114707315520000,4.09552001953125,0.863121747970581,0.15151214599609375,-1.017805576324463
1684114707325559600,4.1055595703125,0.6760251522064209,0.043517112731933594,-0.9754278659820557
1684114707335599400,4.115599365234375,0.6702959537506104,-0.06660938262939453,-0.9060013294219971
1684114707345639000,4.125638916015625,0.6470351219177246,-0.16986560821533203,-0.8345623016357422
1684114707355678700,4.1356787109375,0.4841831922531128,-0.3432788848876953,-0.7478399276733398
1684114707365718300,4.14571826171875,0.26205921173095703,-0.4621915817260742,-0.6957826614379883
1684114707375758000,4.155758056640625,0.20060741901397705,-0.5671319961547852,-0.5344932079315186
1684114707385797600,4.165797607421875,0.1912682056427002,-0.616358757019043,-0.4414372444152832
1684114707395837400,4.17583740234375,0.37984907627105713,-0.35745906829833984,-0.22414326667785645
1684114707405877000,4.185876953125,0.3491450548171997,-0.6369867324829102,-0.1544208526611328
1684114707415916800,4.195916748046875,0.2487163543701172,-0.8946027755737305,-0.1851811408996582
1684114707425956400,4.205956298828125,0.3536717891693115,-0.8571891784667969,-0.050736427307128906
1684114707435996200,4.21599609375,0.4075726270675659,-0.7084035873413086,0.18938493728637695
1684114707446035700,4.22603564453125,0.32349562644958496,-0.6340713500976562,0.4383387565612793
1684114707456075300,4.2360751953125,0.29132378101348877,-0.5662708282470703,0.5209355354309082
1684114707466115000,4.246114990234375,0.21369421482086182,-0.47818660736083984,0.6089558601379395
1684114707476155000,4.25615478515625,0.09595596790313721,-0.3608722686767578,0.8294425010681152
1684114707486194400,4.2661943359375,0.03307998180389404,-0.2572908401489258,1.216163158416748
1684114707496234000,4.27623388671875,-0.0343858003616333,-0.1552591323852539,1.350649356842041
1684114707506273800,4.286273681640625,0.021823644638061523,-0.10081195831298828,1.3493013381958008
1684114707516313300,4.296313232421875,0.16351628303527832,-0.2292499542236328,1.0773983001708984
1684114707526353200,4.306353271484375,0.41692423820495605,-0.235015869140625,0.580070972442627
1684114707536393000,4.31639306640625,0.8421478271484375,-0.20470619201660156,0.03884172439575195
1684114707546432500,4.3264326171875,1.2809959650039673,0.026033401489257812,-0.5098414421081543
1684114707556472000,4.33647216796875,1.6510454416275024,0.2606067657470703,-1.0781793594360352
1684114707566511900,4.346511962890625,1.6965047121047974,0.47377586364746094,-1.4610350131988525
1684114707576551400,4.356551513671875,1.462615966796875,0.7392921447753906,-1.6794016361236572
1684114707586591200,4.36659130859375,1.1622133255004883,1.0491557121276855,-1.7309067249298096
1684114707596630800,4.376630859375,0.858315646648407,1.2422847747802734,-1.6811108589172363
1684114707606670600,4.386670654296875,0.5912899971008301,1.3058958053588867,-1.5460636615753174
1684114707616710100,4.396710205078125,0.40284037590026855,1.279897689819336,-1.415971040725708
1684114707626750000,4.40675,0.27888667583465576,1.2255430221557617,-1.264270544052124
1684114707636789500,4.41678955078125,0.19224894046783447,0.9565181732177734,-1.2109079360961914
1684114707646829300,4.426829345703125,0.057671546936035156,0.4526100158691406,-1.2377111911773682
1684114707656868900,4.436868896484375,-0.04410135746002197,-0.29883575439453125,-1.1518056392669678
1684114707666908700,4.44690869140625,-0.16513967514038086,-1.2058448791503906,-0.9413526058197021
1684114707676948200,4.4569482421875,-0.32138144969940186,-2.0889501571655273,-0.5505256652832031
1684114707686988000,4.466988037109375,-0.49137234687805176,-2.977635383605957,-0.02036142349243164
1684114707697027600,4.477027587890625,-0.45656657218933105,-3.6826820373535156,0.7070589065551758
1684114707707067400,4.4870673828125,-0.19064748287200928,-4.118950843811035,1.5123634338378906
1684114707717107000,4.49710693359375,0.14660251140594482,-3.879570960998535,2.198974370956421
1684114707727146800,4.507146728515625,0.46361976861953735,-2.188748359680176,2.147143602371216
1684114707737186300,4.517186279296875,0.6308898329734802,-0.6283369064331055,1.458174467086792
1684114707747226000,4.52722607421875,0.6359629034996033,-0.0244598388671875,0.9709165096282959
1684114707757265700,4.537265625,0.48467445373535156,0.20659828186035156,0.6184453964233398
1684114707767305500,4.547305419921875,0.20945894718170166,0.4508247375488281,0.1164865493774414
1684114707777345000,4.557344970703125,-0.09068095684051514,0.8808174133300781,-0.4209740161895752
1684114707787384800,4.567384765625,-0.29644477367401123,1.396188735961914,-0.8112978935241699
1684114707797424400,4.57742431640625,-0.2960556745529175,1.6117277145385742,-1.0157208442687988
1684114707807464200,4.587464111328125,-0.08311581611633301,1.5369820594787598,-1.1252517700195312
1684114707817503700,4.597503662109375,0.25887203216552734,1.3253374099731445,-1.0424776077270508
1684114707827543600,4.60754345703125,0.61367267370224,0.8748044967651367,-0.8421075344085693
1684114707837583000,4.6175830078125,0.878792405128479,0.32036590576171875,-0.6476104259490967
1684114707847623000,4.627622802734375,1.0518643856048584,-0.09568309783935547,-0.46242713928222656
1684114707857662500,4.637662353515625,1.2070459127426147,-0.3562641143798828,-0.26712560653686523
1684114707867702300,4.647702392578125,1.2932922840118408,-0.5596914291381836,-0.10253143310546875
1684114707877741800,4.657741943359375,1.3208458423614502,-0.6256484985351562,0.03296542167663574
1684114707887781600,4.66778173828125,1.3221607208251953,-0.5623788833618164,0.09974050521850586
1684114707897821200,4.6778212890625,1.2794582843780518,-0.4039011001586914,0.011760234832763672
1684114707907861000,4.687861083984375,1.2429089546203613,-0.22930908203125,-0.09383440017700195
1684114707917900500,4.697900634765625,1.2286734580993652,-0.043567657470703125,-0.09660959243774414
1684114707927940400,4.7079404296875,1.184049129486084,0.01928997039794922,-0.10500764846801758
1684114707937980000,4.71797998046875,1.0997642278671265,0.08132171630859375,-0.1323869228363037
1684114707948019700,4.728019775390625,0.9988855123519897,0.15914249420166016,-0.11069202423095703
1684114707958059300,4.738059326171875,0.897689938545227,0.16895771026611328,-0.05593585968017578
1684114707968099000,4.74809912109375,0.8191064596176147,0.149169921875,-0.07698869705200195
1684114707978138600,4.758138671875,0.8111058473587036,0.2051525115966797,-0.1079704761505127
1684114707988178400,4.768178466796875,0.8288887739181519,0.2700634002685547,-0.24373793601989746
1684114707998218000,4.778218017578125,0.8236528038978577,0.26069068908691406,-0.4687767028808594
1684114708008257800,4.7882578125,0.7918395400047302,0.24216461181640625,-0.6693949699401855
1684114708018297300,4.79829736328125,0.7396199703216553,0.1598062515258789,-0.8140596151351929
1684114708028337200,4.808337158203125,0.7167148590087891,0.01628875732421875,-0.9120824337005615
1684114708038377000,4.818376953125,0.7470928430557251,-0.15960693359375,-0.913460373878479
1684114708048416500,4.82841650390625,0.8113892078399658,-0.30368804931640625,-0.8530913591384888
1684114708058456300,4.838456298828125,0.8878066539764404,-0.4095029830932617,-0.695131778717041
1684114708068496000,4.848495849609375,0.9191694855690002,-0.4466228485107422,-0.6088552474975586
1684114708078535400,4.858535400390625,0.946816623210907,-0.4921083450317383,-0.49550485610961914
1684114708088575200,4.8685751953125,0.8983683586120605,-0.49358367919921875,-0.4370896816253662
1684114708098615000,4.878614990234375,0.8359695076942444,-0.32158565521240234,-0.43851470947265625
1684114708108654600,4.888654541015625,0.8185969591140747,-0.08760929107666016,-0.42864131927490234
1684114708118694400,4.8986943359375,0.8882954120635986,0.0506439208984375,-0.24980473518371582
1684114708128734000,4.90873388671875,0.9824832677841187,0.1572856903076172,-0.12211322784423828
1684114708138773800,4.918773681640625,1.0573947429656982,0.19392681121826172,-0.02977132797241211
1684114708148813300,4.928813232421875,1.0938228368759155,0.15355491638183594,0.003294229507446289
1684114708158853000,4.93885302734375,1.130948781967163,0.036479949951171875,0.03743696212768555
1684114708168892700,4.948892578125,1.0777629613876343,-0.07112884521484375,0.08230710029602051
1684114708178932500,4.958932373046875,1.025910496711731,-0.16456127166748047,0.09244227409362793
1684114708188972000,4.968971923828125,0.9531329274177551,-0.17703819274902344,0.08686542510986328
1684114708199011800,4.97901171875,0.8705930113792419,-0.14692020416259766,0.044307708740234375
1684114708209051400,4.989051513671875,0.8228418231010437,-0.1219797134399414,0.03674602508544922
1684114708219091200,4.99909130859375,0.7988077998161316,-0.05918693542480469,0.013947248458862305
1684114708229130800,5.009130859375,0.8084447383880615,-0.020681381225585938,-0.009669065475463867
1684114708239170600,5.019170654296875,0.8273220658302307,0.01509857177734375,-0.050818681716918945
1684114708249210000,5.029210205078125,0.8643500804901123,0.033878326416015625,-0.06867694854736328
1684114708259250000,5.03925,0.890048623085022,0.07395553588867188,-0.14188480377197266
1684114708269289700,5.049289794921875,0.9304072856903076,0.08515739440917969,-0.12209415435791016
1684114708279329300,5.059329345703125,0.9565856456756592,0.08908367156982422,-0.12164545059204102
1684114708289369000,5.069369140625,0.9950475692749023,0.04275703430175781,-0.06173276901245117
1684114708299408600,5.07940869140625,1.0291285514831543,-0.01309967041015625,-0.009401559829711914
1684114708309448400,5.089448486328125,1.0397552251815796,-0.06647777557373047,0.0211794376373291
1684114708319488000,5.099488037109375,1.0310431718826294,-0.049732208251953125,0.046404361724853516
1684114708329527800,5.10952783203125,1.0392521619796753,-0.012108802795410156,0.08070540428161621
1684114708339567400,5.1195673828125,1.0170338153839111,-0.010538101196289062,0.1212320327758789
1684114708349607200,5.129607177734375,1.0049129724502563,-0.018571853637695312,0.16534852981567383
1684114708359646700,5.139646728515625,0.9552496671676636,0.008486747741699219,0.1511225700378418
1684114708369686500,5.1496865234375,0.8846248388290405,-0.012388229370117188,0.08653926849365234
1684114708379726000,5.15972607421875,0.8029828071594238,0.04001903533935547,0.0161287784576416
1684114708389766000,5.169765869140625,0.760017454624176,0.08938121795654297,-0.03797316551208496
1684114708399805400,5.179805419921875,0.7007743120193481,0.15689754486083984,-0.05260443687438965
1684114708409845200,5.18984521484375,0.632534921169281,0.2185659408569336,-0.09961605072021484
1684114708419884800,5.199884765625,0.550513744354248,0.28371143341064453,-0.1414344310760498
1684114708429924600,5.209924560546875,0.4318169951438904,0.2885856628417969,-0.15284490585327148
1684114708439964400,5.21996435546875,0.23234355449676514,0.245758056640625,-0.13278865814208984
1684114708450004000,5.23000390625,0.0038202404975891113,-0.0650930404663086,-0.09792327880859375
1684114708460043800,5.240043701171875,-0.23052674531936646,-0.4717445373535156,-0.17154932022094727
1684114708470083300,5.250083251953125,-0.3993074297904968,-0.6421728134155273,-0.212479829788208
1684114708480123100,5.260123046875,-0.4503832459449768,-0.5421648025512695,-0.25293827056884766
1684114708490162700,5.27016259765625,-0.38882872462272644,-0.2872447967529297,-0.11361503601074219
1684114708500202500,5.280202392578125,-0.23995071649551392,-0.12119007110595703,0.10425734519958496
1684114708510242000,5.290241943359375,-0.06804567575454712,0.15680408477783203,0.18978404998779297
1684114708520281900,5.30028173828125,0.023282229900360107,0.394287109375,0.3086421489715576
1684114708530321400,5.3103212890625,-0.0007578730583190918,0.31880950927734375,0.5334193706512451
1684114708540361200,5.320361328125,-0.008425354957580566,0.12877750396728516,0.6957051753997803
1684114708550401000,5.330401123046875,0.019228994846343994,-0.018077850341796875,0.7793145179748535
1684114708560440600,5.340440673828125,0.11645132303237915,-0.05136871337890625,0.7733936309814453
1684114708570480400,5.35048046875,0.26656562089920044,0.02721405029296875,0.7159097194671631
1684114708580520000,5.36052001953125,0.42915457487106323,0.11915779113769531,0.6313028335571289
1684114708590559700,5.370559814453125,0.5716221332550049,0.17908000946044922,0.5471792221069336
1684114708600599300,5.380599365234375,0.6390798687934875,-0.01881885528564453,0.500269889831543
1684114708610639000,5.39063916015625,0.6304797530174255,-0.3501319885253906,0.417128324508667
1684114708620678700,5.4006787109375,0.5377411246299744,-0.45685768127441406,0.23585081100463867
1684114708630718500,5.410718505859375,0.45598459243774414,-0.27184295654296875,0.003953456878662109
1684114708640758000,5.420758056640625,0.4108942151069641,0.1105203628540039,-0.16487884521484375
1684114708650797800,5.4307978515625,0.41933292150497437,0.35451316833496094,-0.21245837211608887
1684114708660837600,5.440837646484375,0.3423570394515991,0.14927005767822266,-0.2244110107421875
1684114708670877200,5.450877197265625,0.23169922828674316,-0.134674072265625,-0.2688722610473633
1684114708680917000,5.4609169921875,0.10768473148345947,-0.2908182144165039,-0.3231186866760254
1684114708690956500,5.47095654296875,0.019572198390960693,-0.27910614013671875,-0.3663907051086426
1684114708700996400,5.480996337890625,-0.05993390083312988,-0.10720443725585938,-0.4297935962677002
1684114708711036000,5.491035888671875,-0.05163484811782837,0.1232767105102539,-0.43764805793762207
1684114708721075700,5.50107568359375,-0.08664512634277344,0.23459339141845703,-0.33980584144592285
1684114708731115300,5.511115234375,-0.10559052228927612,0.26636219024658203,-0.20401215553283691
1684114708741155000,5.521155029296875,-0.09996819496154785,0.3117637634277344,-0.03994417190551758
1684114708751194600,5.531194580078125,-0.10101968050003052,0.2342205047607422,0.09860110282897949
1684114708761234400,5.541234375,-0.09629970788955688,0.12780380249023438,0.2503163814544678
1684114708771274200,5.551274169921875,-0.048235416412353516,0.14577388763427734,0.41640329360961914
1684114708781313800,5.561313720703125,0.014019429683685303,0.27159595489501953,0.5271034240722656
1684114708791353600,5.571353515625,0.06236666440963745,0.2868833541870117,0.5407924652099609
1684114708801393200,5.58139306640625,0.11153137683868408,0.20761966705322266,0.6120433807373047
1684114708811433000,5.591432861328125,0.08565402030944824,0.22127342224121094,0.570235013961792
1684114708821472500,5.601472412109375,0.06999772787094116,0.312164306640625,0.45751285552978516
1684114708831512300,5.61151220703125,-0.009521126747131348,0.26476478576660156,0.38837528228759766
1684114708841552100,5.62155224609375,-0.07674378156661987,0.19226455688476562,0.2336122989654541
1684114708851591700,5.631591796875,-0.0836186408996582,0.038992881774902344,0.14887714385986328
1684114708861631500,5.641631591796875,-0.05073237419128418,-0.14643573760986328,0.1332094669342041
1684114708871671000,5.651671142578125,-0.016795337200164795,-0.1847848892211914,0.14475345611572266
1684114708881710800,5.6617109375,0.04304635524749756,-0.19644737243652344,0.18253707885742188
1684114708891750400,5.67175048828125,0.09992021322250366,-0.22199344635009766,0.23163151741027832
1684114708901790200,5.681790283203125,0.16099542379379272,-0.1553173065185547,0.2445073127746582
1684114708911829800,5.691829833984375,0.17105859518051147,-0.1276254653930664,0.30371642112731934
1684114708921869600,5.70186962890625,0.1625768542289734,-0.16198062896728516,0.3234565258026123
1684114708931909000,5.7119091796875,0.12336254119873047,-0.02178955078125,0.26042652130126953
1684114708941949000,5.721948974609375,0.07097166776657104,-0.15711593627929688,0.3023548126220703
1684114708951988700,5.73198876953125,-0.010760366916656494,-0.23828506469726562,0.29759812355041504
1684114708962028300,5.7420283203125,-0.09079736471176147,-0.2541666030883789,0.2786531448364258
1684114708972068000,5.752068115234375,-0.15618455410003662,-0.24808216094970703,0.3024790287017822
1684114708982107600,5.762107666015625,-0.20319122076034546,-0.11694049835205078,0.3673558235168457
1684114708992147500,5.7721474609375,-0.2783394455909729,0.031145095825195312,0.44374728202819824
1684114709002187000,5.78218701171875,-0.42671507596969604,0.06872272491455078,0.6233482360839844
1684114709012226800,5.792226806640625,-0.5299959182739258,0.16723155975341797,0.7755692005157471
1684114709022266600,5.8022666015625,-0.45313647389411926,0.24823951721191406,0.9674398899078369
1684114709032306200,5.81230615234375,-0.24243658781051636,0.4017934799194336,1.0925254821777344
1684114709042346000,5.822345947265625,0.10267412662506104,0.47818565368652344,1.256427526473999
1684114709052385500,5.832385498046875,0.4638180732727051,0.5723066329956055,1.4258842468261719
1684114709062425300,5.84242529296875,0.7349814176559448,0.7187232971191406,1.4777703285217285
1684114709072465000,5.85246484375,0.8509454131126404,0.7398138046264648,1.5794494152069092
1684114709082504700,5.862504638671875,0.9121917486190796,0.7318296432495117,1.6813347339630127
1684114709092544500,5.87254443359375,0.8618846535682678,0.7165021896362305,1.750899076461792
1684114709102584000,5.882583984375,0.7660402059555054,0.7244396209716797,1.853879690170288
1684114709112623900,5.892623779296875,0.7056183218955994,0.756251335144043,1.9878365993499756
1684114709122663400,5.902663330078125,0.5642759799957275,0.7963838577270508,2.0337295532226562
1684114709132703200,5.912703125,0.4447243809700012,0.8399009704589844,1.9547438621520996
1684114709142742800,5.92274267578125,0.3197405934333801,0.8223028182983398,1.8414709568023682
1684114709152782600,5.932782470703125,0.14910799264907837,0.6936988830566406,1.6752595901489258
1684114709162822100,5.942822265625,-0.035967886447906494,0.4618520736694336,1.4122412204742432
1684114709172862000,5.952862060546875,-0.19181174039840698,0.2253131866455078,1.1568408012390137
1684114709182901800,5.96290185546875,-0.32649925351142883,-0.0921478271484375,1.062333106994629
1684114709192941300,5.97294140625,-0.27831947803497314,-0.2537879943847656,1.042572021484375
1684114709202981000,5.982981201171875,-0.12334606051445007,-0.19997215270996094,0.9339289665222168
1684114709213021000,5.99302099609375,0.10562020540237427,-0.021945953369140625,0.9331340789794922
1684114709223060500,6.003060546875,0.36239054799079895,0.26311779022216797,0.8036222457885742
1684114709233100300,6.013100341796875,0.5125985145568848,0.4254646301269531,0.6169934272766113
1684114709243139800,6.023139892578125,0.3845254182815552,0.5198812484741211,0.4909789562225342
1684114709253179600,6.0331796875,0.14273607730865479,0.6060447692871094,0.2573072910308838
1684114709263219200,6.04321923828125,-0.11233823001384735,0.6050300598144531,0.11165332794189453
1684114709273259000,6.053259033203125,-0.4580797553062439,0.6723546981811523,-0.17735791206359863
1684114709283298600,6.063298583984375,-0.7202805876731873,0.6862058639526367,-0.46779966354370117
1684114709293338400,6.07333837890625,-0.8500630855560303,0.6036911010742188,-0.6523984670639038
1684114709303378200,6.083378173828125,-0.6902791857719421,0.4321718215942383,-0.7889161109924316
1684114709313417700,6.093417724609375,-0.4135734736919403,0.2791128158569336,-0.7850415706634521
1684114709323457500,6.10345751953125,-0.1165347546339035,-0.06885242462158203,-0.6603246927261353
1684114709333497000,6.1134970703125,0.11629409343004227,-0.5587911605834961,-0.6392636299133301
1684114709343537000,6.123536865234375,0.2128565013408661,-1.1705303192138672,-0.6230449676513672
1684114709353576700,6.13357666015625,0.129469633102417,-1.776392936706543,-0.5036900043487549
1684114709363616300,6.1436162109375,-0.04317733645439148,-2.358950614929199,-0.49417710304260254
1684114709373656000,6.153656005859375,-0.18502648174762726,-2.5977249145507812,-0.4472692012786865
1684114709383695600,6.163695556640625,-0.3839908242225647,-2.5914134979248047,-0.4038054943084717
1684114709393735400,6.1737353515625,-0.5655391216278076,-2.443157196044922,-0.5185465812683105
1684114709403775000,6.18377490234375,-0.9714967012405396,-2.1440858840942383,-0.5721805095672607
1684114709413814800,6.193814697265625,-1.460014820098877,-1.647512435913086,-0.4039924144744873
1684114709423854600,6.2038544921875,-1.8061552047729492,-1.109940528869629,-0.1496131420135498
1684114709433894100,6.21389404296875,-1.9674761295318604,-0.7185831069946289,0.15349292755126953
1684114709443934000,6.223933837890625,-1.934148907661438,-0.4474210739135742,0.2366640567779541
1684114709453973500,6.233973388671875,-1.722442626953125,-0.21007537841796875,0.17987704277038574
1684114709464013300,6.244013427734375,-1.340152621269226,-0.09676933288574219,-0.010843515396118164
1684114709474053000,6.25405322265625,-1.0326542854309082,-0.0422515869140625,-0.26290130615234375
1684114709484092700,6.2640927734375,-0.7731891870498657,-0.0029611587524414062,-0.5564591884613037
1684114709494132500,6.274132568359375,-0.3791145086288452,-0.011682510375976562,-0.8497412204742432
1684114709504172000,6.284172119140625,0.02650594711303711,-0.0774068832397461,-1.084902286529541
1684114709514211800,6.2942119140625,0.3164970874786377,-0.24545669555664062,-1.3084046840667725
1684114709524251600,6.304251708984375,0.5354843139648438,-0.4129915237426758,-1.6193838119506836
1684114709534291200,6.314291259765625,0.7618305683135986,-0.4700813293457031,-1.9560514688491821
1684114709544331000,6.3243310546875,0.9101546406745911,-0.53875732421875,-2.183411121368408
1684114709554370600,6.33437060546875,0.9861670136451721,-0.6145439147949219,-2.2609405517578125
1684114709564410400,6.344410400390625,1.0080740451812744,-0.6096181869506836,-2.232077121734619
1684114709574450200,6.3544501953125,1.0755971670150757,-0.4905261993408203,-2.1878461837768555
1684114709584489700,6.36448974609375,1.07954740524292,-0.31529998779296875,-2.230266809463501
1684114709594529500,6.374529541015625,1.0666927099227905,-0.12773990631103516,-2.1559672355651855
1684114709604569000,6.384569091796875,1.0329570770263672,-0.07345008850097656,-1.981633186340332
1684114709614609000,6.39460888671875,1.0124486684799194,-0.03597736358642578,-1.8004577159881592
1684114709624648400,6.4046484375,1.0180165767669678,-0.044460296630859375,-1.790112018585205
1684114709634688300,6.414688232421875,1.0483276844024658,-0.11085224151611328,-1.8090330362319946
1684114709644728000,6.42472802734375,0.9519248604774475,-0.24279403686523438,-1.8365135192871094
1684114709654767600,6.434767578125,0.6713237762451172,-0.24295997619628906,-1.6808260679244995
1684114709664807400,6.444807373046875,0.38416993618011475,-0.246185302734375,-1.6463121175765991
1684114709674847200,6.45484716796875,-0.03070235252380371,-0.22682857513427734,-1.472628116607666
1684114709684886800,6.46488671875,-0.27942609786987305,-0.08488273620605469,-1.305455207824707
1684114709694926600,6.474926513671875,-0.39187192916870117,0.12041568756103516,-1.1923961639404297
1684114709704966100,6.484966064453125,-0.5971912145614624,0.27292728424072266,-0.9945459365844727
1684114709715006000,6.495005859375,-0.8235360383987427,0.2558765411376953,-0.7621016502380371
1684114709725045800,6.505045654296875,-0.9808766841888428,0.23395919799804688,-0.41553306579589844
1684114709735085300,6.515085205078125,-1.0846017599105835,0.2761964797973633,-0.2521786689758301
1684114709745125000,6.525125,-1.118209719657898,0.28722667694091797,-0.12613487243652344
1684114709755164700,6.53516455078125,-1.0995384454727173,0.3103771209716797,-0.2076282501220703
1684114709765204500,6.54520458984375,-1.1003533601760864,0.25701236724853516,-0.297168493270874
1684114709775244000,6.555244140625,-1.0134609937667847,0.13849639892578125,-0.4158029556274414
1684114709785283800,6.565283935546875,-0.9263615608215332,0.07629776000976562,-0.5665020942687988
1684114709795323600,6.57532373046875,-0.7970532178878784,0.07527446746826172,-0.7527821063995361
1684114709805363200,6.58536328125,-0.6537857055664062,0.1719369888305664,-0.9007055759429932
1684114709815403000,6.595403076171875,-0.5088342428207397,0.2786245346069336,-0.9486432075500488
1684114709825442600,6.605442626953125,-0.3748011589050293,0.3720273971557617,-0.9794015884399414
1684114709835482400,6.615482421875,-0.3328680992126465,0.37576866149902344,-0.9620296955108643
1684114709845522200,6.625522216796875,-0.33144640922546387,0.3973731994628906,-0.9323556423187256
1684114709855561700,6.635561767578125,-0.3256058692932129,0.3841524124145508,-0.9376335144042969
1684114709865601500,6.6456015625,-0.3211822509765625,0.3552064895629883,-0.9368124008178711
1684114709875641300,6.655641357421875,-0.2774777412414551,0.303375244140625,-0.9060478210449219
1684114709885681000,6.665680908203125,-0.184195876121521,0.2673683166503906,-0.9262950420379639
1684114709895720700,6.675720703125,-0.04154050350189209,0.31471824645996094,-0.9157638549804688
1684114709905760300,6.68576025390625,0.04125010967254639,0.3593778610229492,-0.8248462677001953
1684114709915800000,6.695800048828125,0.023210763931274414,0.38408946990966797,-0.6958081722259521
1684114709925840000,6.70583984375,-0.10691297054290771,0.3331460952758789,-0.5304079055786133
1684114709935879400,6.71587939453125,-0.3449505567550659,0.17007064819335938,-0.3944272994995117
1684114709945919200,6.725919189453125,-0.583704948425293,-0.03641033172607422,-0.19082283973693848
1684114709955958800,6.735958740234375,-0.7342034578323364,-0.06233501434326172,-0.0474698543548584
1684114709965998600,6.74599853515625,-0.6620134115219116,0.06308460235595703,0.061112165451049805
1684114709976038400,6.756038330078125,-0.4232771396636963,0.21374988555908203,0.07572031021118164
1684114709986078000,6.766077880859375,-0.2616708278656006,0.3624134063720703,0.08486080169677734
1684114709996117800,6.77611767578125,-0.24890398979187012,0.4697122573852539,0.06969428062438965
1684114710006157300,6.7861572265625,-0.35151851177215576,0.5171966552734375,0.008656978607177734
1684114710016197000,6.796197021484375,-0.46601569652557373,0.43772411346435547,0.026541948318481445
1684114710026237000,6.80623681640625,-0.5812556743621826,0.40270519256591797,0.07665634155273438
1684114710036276500,6.8162763671875,-0.6286329030990601,0.4426565170288086,0.10752582550048828
1684114710046316300,6.82631640625,-0.5960334539413452,0.4455270767211914,0.0474395751953125
1684114710056355800,6.83635595703125,-0.5716785192489624,0.41918468475341797,-0.028909683227539062
1684114710066395600,6.846395751953125,-0.5238652229309082,0.36910343170166016,-0.08977031707763672
1684114710076435500,6.856435546875,-0.4326505661010742,0.27884578704833984,-0.030204296112060547
1684114710086475000,6.86647509765625,-0.36496734619140625,0.23894691467285156,0.031946420669555664
1684114710096514800,6.876514892578125,-0.32634997367858887,0.15073680877685547,0.16779351234436035
1684114710106554600,6.8865546875,-0.3862037658691406,0.0729970932006836,0.2708010673522949
1684114710116594200,6.89659423828125,-0.5457072257995605,0.02650928497314453,0.39485692977905273
1684114710126634000,6.906634033203125,-0.714679479598999,-0.03197956085205078,0.43639492988586426
1684114710136673800,6.916673828125,-0.7543200254440308,-0.3072929382324219,0.3529965877532959
1684114710146713300,6.92671337890625,-0.6827980279922485,-0.8702859878540039,0.24076461791992188
1684114710156753200,6.936753173828125,-0.7779128551483154,-1.4409046173095703,0.1760103702545166
1684114710166792700,6.946792724609375,-1.106759786605835,-1.847062110900879,0.006125926971435547
1684114710176832500,6.95683251953125,-1.4020063877105713,-2.0271310806274414,-0.2867898941040039
1684114710186872300,6.966872314453125,-1.310204267501831,-1.8940086364746094,-0.4511854648590088
1684114710196911900,6.976911865234375,-1.2034393548965454,-1.8532285690307617,-0.4139423370361328
1684114710206951700,6.98695166015625,-1.4520621299743652,-2.0011959075927734,-0.012358665466308594
1684114710216991200,6.9969912109375,-2.023810625076294,-2.168715476989746,0.5382876396179199
1684114710227031000,7.007031005859375,-2.34260630607605,-2.062127113342285,0.9046318531036377
1684114710237070800,7.01707080078125,-1.9236325025558472,-1.6479902267456055,1.039363145828247
1684114710247110400,7.0271103515625,-0.9936376810073853,-1.0191068649291992,0.8031344413757324
1684114710257150200,7.037150146484375,-0.048397183418273926,-0.1488037109375,0.2606043815612793
1684114710267190000,7.04718994140625,0.7431091070175171,0.4803304672241211,-0.37111639976501465
1684114710277229600,7.0572294921875,1.2900772094726562,0.6423120498657227,-0.9732356071472168
1684114710287269400,7.067269287109375,1.4745829105377197,0.615696907043457,-1.5133492946624756
1684114710297309000,7.077308837890625,1.3979851007461548,0.6615800857543945,-1.8624846935272217
1684114710307348700,7.0873486328125,1.2707515954971313,1.043283462524414,-2.128000497817993
1684114710317388500,7.097388427734375,1.0655934810638428,1.5431256294250488,-2.2247791290283203
1684114710327428000,7.107427978515625,0.8110761642456055,1.8621406555175781,-2.3129701614379883
1684114710337468000,7.117468017578125,0.5021836161613464,1.9597654342651367,-2.34429931640625
1684114710347507700,7.1275078125,0.3601980209350586,1.6968693733215332,-2.1040585041046143
1684114710357547300,7.13754736328125,0.34203678369522095,1.2305364608764648,-1.7478801012039185
1684114710367587000,7.147587158203125,0.4007699191570282,0.6893606185913086,-1.4508497714996338
1684114710377626600,7.157626708984375,0.4408443570137024,0.10172462463378906,-1.0432108640670776
1684114710387666400,7.16766650390625,0.5064316987991333,-0.3502950668334961,-0.5993926525115967
1684114710397706200,7.177706298828125,0.5871157646179199,-0.49850940704345703,-0.2797400951385498
1684114710407745800,7.187745849609375,0.6641468405723572,-0.62689208984375,-0.00934600830078125
1684114710417785600,7.19778564453125,0.7275155782699585,-0.7353410720825195,0.25978541374206543
1684114710427825400,7.207825439453125,0.7691391706466675,-0.8171586990356445,0.46373677253723145
1684114710437865000,7.217864990234375,0.7189540863037109,-0.7129859924316406,0.5143792629241943
1684114710447904800,7.22790478515625,0.6788610816001892,-0.526397705078125,0.46760058403015137
1684114710457944600,7.237944580078125,0.6171103715896606,-0.3389711380004883,0.3800625801086426
1684114710467984100,7.247984130859375,0.5769566893577576,-0.19836711883544922,0.23777985572814941
1684114710478024000,7.25802392578125,0.5693913698196411,-0.10210895538330078,0.12916135787963867
1684114710488063700,7.268063720703125,0.6125819683074951,-0.0191650390625,0.03455805778503418
1684114710498103300,7.278103271484375,0.7143820524215698,0.06963825225830078,-0.1344435214996338
1684114710508143000,7.28814306640625,0.8241851925849915,0.23608779907226562,-0.31281495094299316
1684114710518182700,7.2981826171875,0.9430862665176392,0.3678922653198242,-0.4524807929992676
1684114710528222500,7.308222412109375,1.0449986457824707,0.3505716323852539,-0.560734748840332
1684114710538262300,7.31826220703125,1.0919189453125,0.23242950439453125,-0.6802390813827515
1684114710548301800,7.3283017578125,1.120194673538208,0.04520988464355469,-0.8071377277374268
1684114710558341600,7.338341552734375,1.0902626514434814,-0.17951202392578125,-0.8184065818786621
1684114710568381400,7.34838134765625,0.985051155090332,-0.3413057327270508,-0.7906044721603394
1684114710578421000,7.3584208984375,0.9238429665565491,-0.4619579315185547,-0.7457444667816162
1684114710588460800,7.368460693359375,0.8728646039962769,-0.5035181045532227,-0.7607622146606445
1684114710598500600,7.37850048828125,0.8010793328285217,-0.45452213287353516,-0.7718994617462158
1684114710608540200,7.3885400390625,0.7139113545417786,-0.2558927536010742,-0.761336088180542
1684114710618580000,7.398580078125,0.6273455619812012,-0.37102317810058594,-0.8999550342559814
1684114710628619500,7.40861962890625,0.5053225159645081,-0.740203857421875,-1.2173722982406616
1684114710638659300,7.418659423828125,0.38289839029312134,-1.1768226623535156,-1.6244535446166992
1684114710648699100,7.42869921875,0.2519899010658264,-1.5424737930297852,-2.0319159030914307
1684114710658738700,7.43873876953125,0.11351782828569412,-1.7383689880371094,-2.265474319458008
1684114710668778500,7.448778564453125,0.12401469051837921,-1.3454551696777344,-2.2361180782318115
1684114710678818300,7.458818359375,0.1566741168498993,-0.31992340087890625,-1.9805057048797607
1684114710688857900,7.46885791015625,0.1813536435365677,0.45986366271972656,-1.6829710006713867
1684114710698897700,7.478897705078125,0.2357921004295349,0.7751274108886719,-1.2922693490982056
1684114710708937500,7.4889375,0.30869972705841064,0.7096309661865234,-0.9641726016998291
1684114710718977000,7.49897705078125,0.35581791400909424,0.5718898773193359,-0.6521333456039429
1684114710729016800,7.509016845703125,0.40983933210372925,0.4477853775024414,-0.3187769651412964
1684114710739056400,7.519056396484375,0.4577774405479431,0.1346273422241211,-0.12442219257354736
1684114710749096200,7.52909619140625,0.5805643796920776,-0.20181941986083984,0.09735167026519775
1684114710759136000,7.539135986328125,0.7221331596374512,-0.3501253128051758,0.20193266868591309
1684114710769175600,7.549175537109375,0.7647557258605957,-0.33783435821533203,0.2985955476760864
1684114710779215400,7.55921533203125,0.7212506532669067,-0.1819314956665039,0.5725225210189819
1684114710789255200,7.569255126953125,0.6492683291435242,0.13347339630126953,0.8349157571792603
1684114710799294700,7.579294677734375,0.5413962602615356,0.23525714874267578,1.12788724899292
1684114710809334500,7.58933447265625,0.4312494397163391,0.19048500061035156,1.3752286434173584
1684114710819374300,7.599374267578125,0.28019577264785767,0.09254932403564453,1.5739710330963135
1684114710829414000,7.609413818359375,0.03151628375053406,0.013228416442871094,1.669066309928894
1684114710839453700,7.61945361328125,-0.17721420526504517,-0.011616706848144531,1.6513081789016724
1684114710849493500,7.629493408203125,-0.3894408941268921,0.06570243835449219,1.599339246749878
1684114710859533000,7.639532958984375,-0.5684962868690491,0.09695816040039062,1.498091697692871
1684114710869572900,7.64957275390625,-0.7009178996086121,0.08255290985107422,1.2904555797576904
1684114710879612700,7.65961279296875,-0.7243714928627014,0.1112508773803711,1.0035964250564575
1684114710889652200,7.66965234375,-0.5941532254219055,0.1710987091064453,0.7172561883926392
1684114710899692000,7.679692138671875,-0.34305131435394287,0.15694236755371094,0.5405149459838867
1684114710909731800,7.68973193359375,-0.10046252608299255,0.13807201385498047,0.45492303371429443
1684114710919771400,7.699771484375,0.09690666198730469,0.12158775329589844,0.37498950958251953
1684114710929811200,7.709811279296875,0.18602603673934937,0.1027212142944336,0.33456897735595703
1684114710939850800,7.719850830078125,0.20635831356048584,0.11979198455810547,0.29818201065063477
1684114710949890600,7.729890625,0.21000313758850098,0.1560811996459961,0.28976356983184814
1684114710959930400,7.739930419921875,0.23905020952224731,0.1399850845336914,0.2904623746871948
1684114710969970000,7.749969970703125,0.26770415902137756,0.1385946273803711,0.3367879390716553
1684114710980009700,7.760009765625,0.32208046317100525,0.06591224670410156,0.43623554706573486
1684114710990049500,7.770049560546875,0.40165582299232483,0.015238761901855469,0.5507700443267822
1684114711000089000,7.780089111328125,0.48443740606307983,-0.006348609924316406,0.6089284420013428
1684114711010129000,7.79012890625,0.593722403049469,0.048736572265625,0.6630538702011108
1684114711020168700,7.800168701171875,0.6762532591819763,0.13245296478271484,0.7343584299087524
1684114711030208300,7.810208251953125,0.7836057543754578,0.2231121063232422,0.8365438580513
1684114711040248000,7.820248046875,0.876102089881897,0.3134431838989258,0.9263289570808411
1684114711050287900,7.830287841796875,0.8911980390548706,0.37712574005126953,1.0058507919311523
1684114711060327400,7.840327392578125,0.8531495928764343,0.44283199310302734,1.0866265296936035
1684114711070367200,7.8503671875,0.8249857425689697,0.5009880065917969,1.204113483428955
1684114711080407000,7.860406982421875,0.7786177396774292,0.4966154098510742,1.2998661994934082
1684114711090446600,7.870446533203125,0.666650652885437,0.4752073287963867,1.3302421569824219
1684114711100486400,7.880486328125,0.5683795213699341,0.4248676300048828,1.3261799812316895
1684114711110526200,7.890526123046875,0.4384181499481201,0.3242053985595703,1.36204195022583
1684114711120565800,7.900565673828125,0.3170353174209595,0.1398906707763672,1.339416742324829
1684114711130605600,7.91060546875,0.1401911973953247,0.010667800903320312,1.1891343593597412
1684114711140645400,7.920645263671875,-0.018272653222084045,-0.08736324310302734,0.9794837236404419
1684114711150685000,7.930684814453125,-0.14352276921272278,-0.13026714324951172,0.78608238697052
1684114711160724700,7.940724853515625,-0.1750989854335785,-0.10378837585449219,0.7287449240684509
1684114711170764500,7.9507646484375,-0.10429896414279938,-0.23501014709472656,0.7158000469207764
1684114711180804000,7.96080419921875,0.1542072594165802,-0.3350515365600586,0.7646147012710571
1684114711190844000,7.970843994140625,0.3738201856613159,-0.15821456909179688,0.7415228486061096
1684114711200883700,7.9808837890625,0.4420298933982849,0.2589387893676758,0.6096177101135254
1684114711210923300,7.99092333984375,0.413266658782959,0.7319974899291992,0.4077867567539215
1684114711220963000,8.000963134765625,0.34115493297576904,1.1463031768798828,0.28431522846221924
1684114711231003000,8.0110029296875,0.26009756326675415,1.3707523345947266,0.2933875024318695
1684114711241042400,8.02104248046875,0.26185372471809387,1.331843376159668,0.36472225189208984
1684114711251082200,8.031082275390625,0.4263852536678314,1.1329059600830078,0.42244091629981995
1684114711261122000,8.0411220703125,0.5729656219482422,0.8745613098144531,0.2678418755531311
1684114711271161600,8.05116162109375,0.6390205025672913,0.6500167846679688,-0.018077045679092407
1684114711281201400,8.061201416015624,0.6150485873222351,0.4041786193847656,-0.2479439228773117
1684114711291241200,8.0712412109375,0.5500838160514832,0.16801071166992188,-0.44918978214263916
1684114711301280800,8.08128076171875,0.4559895694255829,-0.0897970199584961,-0.5292232036590576
1684114711311320600,8.091320556640625,0.34284529089927673,-0.2955589294433594,-0.7661082148551941
1684114711321360400,8.1013603515625,0.17860987782478333,-0.48581790924072266,-0.989181637763977
1684114711331400000,8.11139990234375,-0.10703927278518677,-0.49176883697509766,-1.1520503759384155
1684114711341439700,8.121439697265625,-0.4774247407913208,-0.340667724609375,-1.2384276390075684
1684114711351479600,8.1314794921875,-0.9682689905166626,-0.09994888305664062,-1.240626573562622
1684114711361519000,8.14151904296875,-1.536900281906128,0.04909801483154297,-1.1478155851364136
1684114711371559000,8.151558837890626,-2.0966827869415283,0.1724262237548828,-0.9676775932312012
1684114711381598700,8.1615986328125,-2.4011588096618652,0.29076480865478516,-0.8226717710494995
1684114711391638300,8.17163818359375,-2.275998830795288,0.3165159225463867,-0.9110747575759888
1684114711401678000,8.181677978515625,-1.7669601440429688,0.2852363586425781,-1.1013823747634888
1684114711411718000,8.1917177734375,-1.0795717239379883,0.1195230484008789,-1.1865769624710083
1684114711421757400,8.20175732421875,-0.4494418203830719,-0.03318595886230469,-1.077380657196045
1684114711431797200,8.21179736328125,0.04044565558433533,-0.11850738525390625,-0.8528993129730225
1684114711441837000,8.221837158203124,0.3613448739051819,-0.14387130737304688,-0.5993754863739014
1684114711451876900,8.231876953125,0.5206125378608704,-0.09007549285888672,-0.40207624435424805
1684114711461916400,8.24191650390625,0.599098265171051,-0.06661796569824219,-0.22292280197143555
1684114711471956200,8.251956298828125,0.5554339289665222,-0.0941781997680664,-0.2034463882446289
1684114711481996000,8.26199609375,0.4121875464916229,-0.1053924560546875,-0.2612650394439697
1684114711492035600,8.27203564453125,0.19116030633449554,-0.19366073608398438,-0.43169069290161133
1684114711502075400,8.282075439453125,-0.12217909097671509,-0.39728546142578125,-0.5973484516143799
1684114711512115200,8.292115234375,-0.5426462292671204,-0.6708173751831055,-0.7990381717681885
1684114711522154800,8.30215478515625,-1.0252366065979004,-0.8234872817993164,-0.9687612056732178
1684114711532194600,8.312194580078126,-1.5183746814727783,-0.8750619888305664,-1.1528589725494385
1684114711542234400,8.322234375,-1.8965638875961304,-0.8521404266357422,-1.2448267936706543
1684114711552274000,8.33227392578125,-2.0813260078430176,-0.7162637710571289,-1.2111687660217285
1684114711562313700,8.342313720703125,-1.9944655895233154,-0.48120784759521484,-1.098466396331787
1684114711572353500,8.352353515625,-1.6955486536026,-0.20626163482666016,-0.9795525074005127
1684114711582393000,8.36239306640625,-1.3189812898635864,-0.07245063781738281,-0.8773932456970215
1684114711592433000,8.372432861328125,-0.9300899505615234,0.018752098083496094,-0.8265659809112549
1684114711602472700,8.38247265625,-0.5598175525665283,-0.01809978485107422,-0.6853668689727783
1684114711612512300,8.39251220703125,-0.2337917685508728,-0.0666656494140625,-0.438579797744751
1684114711622552000,8.402552001953126,0.00829082727432251,-0.044333457946777344,-0.28300952911376953
1684114711632592000,8.412591796875,0.22129136323928833,0.0331878662109375,-0.0702047348022461
1684114711642631400,8.42263134765625,0.35940104722976685,0.1634693145751953,0.1284637451171875
1684114711652671200,8.432671142578124,0.45254215598106384,0.4352273941040039,0.08896970748901367
1684114711662711000,8.4427109375,0.4484326243400574,0.39846038818359375,0.3872199058532715
1684114711672750600,8.45275048828125,0.3852589726448059,0.2082805633544922,0.9117691516876221
1684114711682790400,8.462790283203125,0.33828163146972656,-0.02283191680908203,1.2897093296051025
1684114711692830200,8.472830322265626,0.2479698657989502,-0.18407726287841797,1.3408820629119873
1684114711702869800,8.482869873046875,0.1046120822429657,-0.2588081359863281,1.2787973880767822
1684114711712909600,8.49290966796875,-0.06318742036819458,-0.2544107437133789,1.0850727558135986
1684114711722949400,8.502949462890625,-0.26080745458602905,-0.19243526458740234,0.8054831027984619
1684114711732989200,8.5129892578125,-0.4305143654346466,-0.10029792785644531,0.4114556312561035
1684114711743028700,8.52302880859375,-0.5642960667610168,0.0769948959350586,0.00809335708618164
1684114711753068500,8.533068603515625,-0.7154616117477417,0.08151531219482422,-0.12327909469604492
1684114711763108400,8.5431083984375,-0.7858700752258301,0.050914764404296875,-0.20286893844604492
1684114711773148000,8.55314794921875,-0.7801758050918579,-0.0024347305297851562,-0.32697200775146484
1684114711783187700,8.563187744140626,-0.6887827515602112,-0.10239028930664062,-0.39267635345458984
1684114711793227500,8.5732275390625,-0.5211508870124817,-0.16271591186523438,-0.36458778381347656
1684114711803267000,8.58326708984375,-0.308912992477417,-0.23378562927246094,-0.2905125617980957
1684114711813307000,8.593306884765624,-0.14416980743408203,-0.27567577362060547,-0.2863483428955078
1684114711823346700,8.6033466796875,-0.01205819845199585,-0.26964378356933594,-0.21067333221435547
1684114711833386200,8.61338623046875,0.07082295417785645,-0.19416141510009766,-0.21942758560180664
1684114711843426000,8.623426025390625,0.07410019636154175,-0.0874032974243164,-0.24369287490844727
1684114711853465900,8.6334658203125,0.0440538227558136,0.0983123779296875,-0.25724315643310547
1684114711863505700,8.643505615234375,-0.07319098711013794,0.3221282958984375,-0.252896785736084
1684114711873545200,8.653545166015626,-0.21322382986545563,0.5287227630615234,-0.24203014373779297
1684114711883585000,8.6635849609375,-0.31092822551727295,0.6820201873779297,-0.15955018997192383
1684114711893624800,8.673624755859375,-0.39587172865867615,0.6938142776489258,-0.00795125961303711
1684114711903664400,8.683664306640624,-0.4487542510032654,0.6292610168457031,0.16201448440551758
1684114711913704200,8.6937041015625,-0.4866330921649933,0.4890909194946289,0.3040504455566406
1684114711923744000,8.703743896484376,-0.5384541749954224,0.3122730255126953,0.3862733840942383
1684114711933783600,8.713783447265625,-0.539923906326294,0.0801239013671875,0.41794681549072266
1684114711943823400,8.7238232421875,-0.4913783073425293,-0.13303184509277344,0.42297887802124023
1684114711953863200,8.73386328125,-0.3962229788303375,-0.28705310821533203,0.3545665740966797
1684114711963902700,8.74390283203125,-0.1792619228363037,-0.2824821472167969,0.12321805953979492
1684114711973942500,8.753942626953124,-0.0497814416885376,-0.45756053924560547,0.08478832244873047
1684114711983982300,8.763982421875,0.08072593808174133,-0.5383110046386719,0.07138872146606445
1684114711994022000,8.77402197265625,0.13067540526390076,-0.5525321960449219,0.009005546569824219
1684114712004061700,8.784061767578125,0.1566331535577774,-0.46582508087158203,-0.056865692138671875
1684114712014101500,8.7941015625,0.17326785624027252,-0.21108627319335938,-0.1631927490234375
1684114712024141300,8.804141357421875,0.14650827646255493,0.08239936828613281,-0.2528986930847168
1684114712034180900,8.814180908203125,0.13209295272827148,0.3453483581542969,-0.37636470794677734
1684114712044220700,8.824220703125,0.09472312033176422,0.45874977111816406,-0.4982304573059082
1684114712054260500,8.834260498046875,0.060882408171892166,0.43541431427001953,-0.6145305633544922
1684114712064300000,8.844300048828124,0.06038089096546173,0.2784442901611328,-0.7640748023986816
1684114712074339800,8.85433984375,0.05766269937157631,0.091094970703125,-0.8349385261535645
1684114712084379600,8.864379638671876,0.071116141974926,0.020173072814941406,-0.9799675941467285
1684114712094419500,8.87441943359375,0.08572313189506531,0.024721145629882812,-1.010303020477295
1684114712104459000,8.884458984375,0.16396000981330872,0.0022792816162109375,-0.805290699005127
1684114712114498800,8.894498779296875,0.22682325541973114,-0.012562751770019531,-0.6925125122070312
1684114712124538600,8.90453857421875,0.18321484327316284,0.020926475524902344,-0.6481966972351074
1684114712134578200,8.914578125,0.0361974835395813,0.12158489227294922,-0.571570873260498
1684114712144618000,8.924617919921875,-0.13390161097049713,0.2533426284790039,-0.45535945892333984
1684114712154657800,8.93465771484375,-0.3773387670516968,0.3277873992919922,-0.3164072036743164
1684114712164697300,8.944697265625,-0.6027826070785522,0.44327640533447266,-0.08852815628051758
1684114712174737200,8.954737060546876,-0.783385157585144,0.5901956558227539,0.16823148727416992
1684114712184777000,8.96477685546875,-0.8566452860832214,0.6442232131958008,0.45865821838378906
1684114712194816500,8.97481640625,-0.862680196762085,0.5316009521484375,0.6678788661956787
1684114712204856300,8.984856201171874,-0.7863187789916992,0.3670673370361328,0.7775321006774902
1684114712214896000,8.994896240234375,-0.6289362907409668,0.19329547882080078,0.8483877182006836
1684114712224936000,9.00493603515625,-0.43756237626075745,0.05786323547363281,0.9405789375305176
1684114712234975500,9.0149755859375,-0.23784339427947998,-0.036873817443847656,1.025144338607788
1684114712245015300,9.025015380859376,-0.0368502140045166,-0.1673126220703125,1.0850045680999756
1684114712255055000,9.03505517578125,0.09785878658294678,-0.24239635467529297,1.0862605571746826
1684114712265094700,9.0450947265625,0.2317497879266739,-0.26687145233154297,1.0693302154541016
1684114712275134500,9.055134521484375,0.35940873622894287,-0.29035186767578125,1.023467779159546
1684114712285174300,9.06517431640625,0.45116379857063293,-0.24518203735351562,0.9592695236206055
1684114712295214000,9.075214111328124,0.5688292384147644,-0.14557838439941406,0.8119862079620361
1684114712305253600,9.085253662109375,0.5946616530418396,-0.060784339904785156,0.6173484325408936
1684114712315293400,9.09529345703125,0.5187460780143738,-0.033962249755859375,0.4042694568634033
1684114712325333200,9.105333251953125,0.3674010634422302,-0.06070423126220703,0.21653056144714355
1684114712335372800,9.115372802734376,0.14735299348831177,-0.11522674560546875,0.05753755569458008
1684114712345412600,9.12541259765625,-0.0897487998008728,-0.14313602447509766,-0.04532265663146973
1684114712355452400,9.135452392578125,-0.2811262011528015,-0.14973831176757812,-0.11267423629760742
1684114712365492200,9.1454921875,-0.3500394821166992,-0.03977203369140625,-0.11548757553100586
1684114712375531800,9.15553173828125,-0.25148487091064453,0.14078712463378906,-0.20589876174926758
1684114712385571600,9.165571533203124,-0.06505846977233887,0.3005666732788086,-0.28441572189331055
1684114712395611400,9.175611328125,0.17669981718063354,0.4980907440185547,-0.4928927421569824
1684114712405651000,9.18565087890625,0.38164347410202026,0.4976806640625,-0.4053459167480469
1684114712415690800,9.195690673828125,0.5308591723442078,0.4282798767089844,-0.34063100814819336
1684114712425730600,9.20573046875,0.6340179443359375,0.43992137908935547,-0.4952235221862793
1684114712435770400,9.215770263671875,0.6340622901916504,0.4215717315673828,-0.4620366096496582
1684114712445810000,9.225809814453125,0.5791085362434387,0.4284553527832031,-0.2755270004272461
1684114712455849700,9.235849609375,0.5458751320838928,0.5109272003173828,-0.12787342071533203
1684114712465889500,9.2458896484375,0.5265799760818481,0.5995550155639648,-0.06422019004821777
1684114712475929000,9.25592919921875,0.45861589908599854,0.5800514221191406,0.019716978073120117
1684114712485969000,9.265968994140625,0.3115350008010864,0.5437936782836914,0.03904914855957031
1684114712496008700,9.2760087890625,0.10644474625587463,0.5195589065551758,0.05303192138671875
1684114712506048500,9.286048583984375,-0.05873936414718628,0.5477418899536133,-0.0909874439239502
1684114712516088000,9.296088134765625,-0.17513883113861084,0.6566762924194336,-0.20355892181396484
1684114712526127900,9.3061279296875,-0.23231816291809082,0.7219057083129883,-0.3418917655944824
1684114712536167700,9.316167724609375,-0.27829477190971375,0.7961454391479492,-0.5275585651397705
1684114712546207500,9.32620751953125,-0.2689424753189087,0.9151239395141602,-0.7981605529785156
1684114712556247000,9.3362470703125,-0.26352545619010925,0.9376697540283203,-1.0164375305175781
1684114712566286800,9.346286865234376,-0.24205023050308228,0.954716682434082,-1.246504306793213
1684114712576326700,9.35632666015625,-0.18107932806015015,0.9136343002319336,-1.4639229774475098
1684114712586366200,9.3663662109375,-0.07269653677940369,0.8168249130249023,-1.6276590824127197
1684114712596406000,9.376406005859375,0.04843369126319885,0.7456150054931641,-1.7593915462493896
1684114712606445800,9.38644580078125,0.1807750016450882,0.6570806503295898,-1.7283546924591064
1684114712616485400,9.3964853515625,0.3053332567214966,0.5251703262329102,-1.7027294635772705
1684114712626525200,9.406525146484375,0.3690178394317627,0.2569293975830078,-1.6516032218933105
1684114712636565000,9.41656494140625,0.37772154808044434,0.012651443481445312,-1.7465474605560303
1684114712646604800,9.426604736328125,0.34144899249076843,-0.2604398727416992,-1.82379150390625
1684114712656644400,9.436644287109376,0.2549547553062439,-0.5383682250976562,-1.9379565715789795
1684114712666684200,9.44668408203125,0.1513637751340866,-0.8780069351196289,-1.9565608501434326
1684114712676724000,9.456723876953125,0.03909572958946228,-1.188018798828125,-1.9293057918548584
1684114712686763800,9.466763671875,-0.04194428026676178,-1.3850822448730469,-1.6625866889953613
1684114712696803300,9.47680322265625,-0.18941546976566315,-1.3552770614624023,-1.1417336463928223
1684114712706843100,9.486843017578124,-0.37306511402130127,-1.0655632019042969,-0.5047292709350586
1684114712716883000,9.496883056640625,-0.5361049175262451,-0.7070960998535156,0.10976600646972656
1684114712726922800,9.5069228515625,-0.6457465887069702,-0.33445072174072266,0.6305837631225586
1684114712736962300,9.51696240234375,-0.6710934042930603,-0.03118133544921875,0.9718054533004761
1684114712747002000,9.527002197265626,-0.5134929418563843,0.19776248931884766,1.1257573366165161
1684114712757042000,9.5370419921875,-0.22184357047080994,0.40238475799560547,1.156428575515747
1684114712767081500,9.54708154296875,0.18465285003185272,0.6135969161987305,1.1296566724777222
1684114712777121300,9.557121337890624,0.5975650548934937,0.8313837051391602,1.0436266660690308
1684114712787161000,9.5671611328125,0.9398714303970337,1.0342159271240234,1.0160667896270752
1684114712797200600,9.57720068359375,1.1081831455230713,1.0671577453613281,1.108067512512207
1684114712807240400,9.587240478515625,1.0136041641235352,0.9935121536254883,1.2893011569976807
1684114712817280300,9.5972802734375,0.740006685256958,0.6945228576660156,1.246556282043457
1684114712827320000,9.607320068359375,0.54774409532547,0.2326984405517578,1.0472224950790405
1684114712837359600,9.617359619140625,0.4527393877506256,-0.2533531188964844,0.7739816904067993
1684114712847399400,9.6273994140625,0.45126327872276306,-0.7137508392333984,0.46186912059783936
1684114712857439200,9.637439208984375,0.4816786050796509,-0.9793529510498047,0.2009507417678833
1684114712867479000,9.64747900390625,0.4875013828277588,-1.1608953475952148,-0.07388758659362793
1684114712877518600,9.6575185546875,0.45320719480514526,-1.1180524826049805,-0.24379706382751465
1684114712887558400,9.667558349609376,0.35743680596351624,-0.8946294784545898,-0.36738121509552
1684114712897598200,9.67759814453125,0.2139669507741928,-0.46965694427490234,-0.444307804107666
1684114712907637800,9.6876376953125,0.0025150254368782043,-0.053707122802734375,-0.5657882690429688
1684114712917677600,9.697677490234375,-0.1849082112312317,0.21478652954101562,-0.7102735042572021
1684114712927717400,9.70771728515625,-0.23413994908332825,0.4793882369995117,-0.7453892230987549
1684114712937757200,9.717757080078124,-0.12521234154701233,0.6207561492919922,-0.6137950420379639
1684114712947796700,9.727796630859375,0.15480123460292816,0.4723024368286133,-0.3575674295425415
1684114712957836500,9.73783642578125,0.48175135254859924,0.25226593017578125,-0.08794903755187988
1684114712967876400,9.74787646484375,0.7963608503341675,0.04198646545410156,0.1519317626953125
1684114712977916200,9.757916259765626,1.0387790203094482,-0.10108375549316406,0.3441680669784546
1684114712987955700,9.767955810546875,1.1507092714309692,-0.11437606811523438,0.5159298181533813
1684114712997995500,9.77799560546875,1.1615313291549683,0.04274463653564453,0.4809000492095947
1684114713008035300,9.788035400390624,1.055418848991394,0.24525165557861328,0.29879558086395264
1684114713018075100,9.7980751953125,0.8721469640731812,0.22725772857666016,0.15496957302093506
1684114713028114700,9.80811474609375,0.6691898107528687,0.15609169006347656,0.0033365488052368164
1684114713038154500,9.818154541015625,0.3562239706516266,0.14603710174560547,-0.1819542646408081
1684114713048194300,9.8281943359375,0.0354427695274353,0.15630626678466797,-0.2969423532485962
1684114713058233900,9.83823388671875,-0.18396680057048798,0.18249130249023438,-0.30927515029907227
1684114713068273700,9.848273681640626,-0.3121315836906433,0.26333045959472656,-0.27831006050109863
1684114713078313500,9.8583134765625,-0.26408034563064575,0.17220783233642578,-0.20547664165496826
1684114713088353300,9.868353271484375,-0.16961541771888733,0.0026922225952148438,-0.18122804164886475
1684114713098393000,9.87839306640625,-0.011727631092071533,-0.14005565643310547,-0.11665189266204834
1684114713108432600,9.8884326171875,0.1678590476512909,-0.237152099609375,0.01685333251953125
1684114713118472400,9.898472412109374,0.3115071952342987,-0.2027301788330078,0.18955767154693604
1684114713128512300,9.90851220703125,0.4656815528869629,-0.1253528594970703,0.33560383319854736
1684114713138552000,9.918552001953126,0.6324765682220459,-0.08377361297607422,0.44198083877563477
1684114713148591600,9.928591552734375,0.7778257131576538,-0.09932708740234375,0.5128805637359619
1684114713158631400,9.93863134765625,0.962462306022644,-0.07636547088623047,0.5241970419883728
1684114713168671200,9.948671142578124,1.0908396244049072,-0.010297775268554688,0.46875709295272827
1684114713178710800,9.958710693359375,1.1828129291534424,0.12740325927734375,0.35819220542907715
1684114713188750600,9.96875048828125,1.2188005447387695,0.18128585815429688,0.2427964210510254
1684114713198790400,9.978790283203125,1.2210544347763062,0.1942291259765625,0.024468183517456055
1684114713208830200,9.988830322265626,1.1828489303588867,0.14932727813720703,-0.11305046081542969
1684114713218869800,9.998869873046875,1.1370160579681396,0.06093883514404297,-0.17434906959533691
1684114713228909600,10.00890966796875,1.0183069705963135,0.055687904357910156,-0.2386307716369629
1684114713238949400,10.018949462890625,0.8034580945968628,0.16676807403564453,-0.26048755645751953
1684114713248989200,10.0289892578125,0.5372813940048218,0.4082193374633789,-0.33044958114624023
1684114713259028700,10.03902880859375,0.2851957678794861,0.5291128158569336,-0.3335331678390503
1684114713269068500,10.049068603515625,0.06963413953781128,0.4822521209716797,-0.30581414699554443
1684114713279108400,10.0591083984375,-0.04285693168640137,0.3112173080444336,-0.30690550804138184
1684114713289148200,10.069148193359375,-0.08147090673446655,0.13573837280273438,-0.2530674934387207
1684114713299187700,10.079187744140626,-0.06947815418243408,0.04168224334716797,-0.08459913730621338
1684114713309227500,10.0892275390625,-0.06118851900100708,-0.02603912353515625,0.17076265811920166
1684114713319267300,10.099267333984375,-0.08389431238174438,-0.0625772476196289,0.37032556533813477
1684114713329307100,10.10930712890625,-0.12099534273147583,-0.09891128540039062,0.4629530906677246
1684114713339346700,10.1193466796875,-0.18743085861206055,-0.10854339599609375,0.5058017373085022
1684114713349386500,10.129386474609374,-0.20965492725372314,-0.1701507568359375,0.4798445701599121
1684114713359426300,10.13942626953125,-0.2300184965133667,-0.13068771362304688,0.39970552921295166
1684114713369466000,10.149466064453126,-0.21615928411483765,-0.10514450073242188,0.2704654932022095
1684114713379505700,10.159505615234375,-0.21991658210754395,-0.11760425567626953,0.07614576816558838
1684114713389545500,10.16954541015625,-0.23064512014389038,-0.149139404296875,-0.07705152034759521
1684114713399585300,10.179585205078125,-0.32037609815597534,-0.20469951629638672,-0.16885900497436523
1684114713409625000,10.189625,-0.4145684838294983,-0.2447977066040039,-0.18189454078674316
1684114713419664600,10.19966455078125,-0.4989856481552124,-0.23230457305908203,-0.10128414630889893
1684114713429704400,10.209704345703125,-0.5204336643218994,-0.1443767547607422,-0.004012346267700195
1684114713439744300,10.219744140625,-0.4769512414932251,-0.0810546875,0.08584880828857422
1684114713449784000,10.2297841796875,-0.36532527208328247,0.005125999450683594,0.19647705554962158
1684114713459823600,10.23982373046875,-0.21818703413009644,0.04771995544433594,0.36072707176208496
1684114713469863400,10.249863525390625,-0.04212671518325806,0.08970451354980469,0.4881395101547241
1684114713479903200,10.2599033203125,0.08021968603134155,0.07912158966064453,0.6308546662330627
1684114713489943000,10.269943115234375,0.19913136959075928,0.05205249786376953,0.7713630795478821
1684114713499982600,10.279982666015625,0.25419938564300537,-0.04304313659667969,0.8806589841842651
1684114713510022400,10.2900224609375,0.3123267889022827,-0.047286033630371094,0.9191974401473999
1684114713520062200,10.300062255859375,0.3251860737800598,-0.058562278747558594,0.9090760946273804
1684114713530102000,10.31010205078125,0.3256579637527466,-0.09546279907226562,0.8959665298461914
1684114713540141600,10.3201416015625,0.3753219246864319,-0.10333442687988281,0.8699998259544373
1684114713550181400,10.330181396484376,0.4229920506477356,-0.05205821990966797,0.8025814294815063
1684114713560221200,10.34022119140625,0.3807838559150696,-0.08625984191894531,0.6164014339447021
1684114713570261000,10.350260986328125,0.31150925159454346,-0.1103963851928711,0.4268292784690857
1684114713580300500,10.360300537109374,0.19073718786239624,-0.14580535888671875,0.25562500953674316
1684114713590340400,10.37034033203125,0.11728447675704956,-0.1993112564086914,0.14308977127075195
1684114713600380200,10.380380126953124,0.07932394742965698,-0.24234771728515625,0.006202816963195801
1684114713610420000,10.390419921875,0.0863637924194336,-0.23037147521972656,-0.09288382530212402
1684114713620459800,10.400459716796876,0.14320576190948486,-0.17132282257080078,-0.1427847146987915
1684114713630499300,10.410499267578125,0.26086658239364624,-0.09425830841064453,-0.17004311084747314
1684114713640539100,10.4205390625,0.3475467562675476,-0.03254985809326172,-0.20570266246795654
1684114713650579000,10.430578857421875,0.4158529043197632,0.018607139587402344,-0.25682640075683594
1684114713660618500,10.440618408203125,0.43835747241973877,0.045050621032714844,-0.301550030708313
1684114713670658300,10.450658203125,0.3779473304748535,0.018857955932617188,-0.3512270450592041
1684114713680698000,10.460697998046875,0.30080467462539673,0.0634164810180664,-0.3068159818649292
1684114713690738000,10.470738037109374,0.22282475233078003,0.1047201156616211,-0.26188158988952637
1684114713700777700,10.48077783203125,0.20846843719482422,0.11942672729492188,-0.23111391067504883
1684114713710817300,10.4908173828125,0.22159594297409058,0.0986013412475586,-0.22383320331573486
1684114713720857000,10.500857177734375,0.2590112090110779,0.05922126770019531,-0.27925217151641846
1684114713730897000,10.51089697265625,0.29400283098220825,0.05095100402832031,-0.290111780166626
1684114713740936700,10.520936767578124,0.34958428144454956,0.07563209533691406,-0.22458040714263916
1684114713750976300,10.530976318359375,0.36781859397888184,0.09029674530029297,-0.18549704551696777
1684114713761016000,10.54101611328125,0.3343421220779419,0.02677154541015625,-0.1465240716934204
1684114713771055900,10.551055908203125,0.2076318860054016,-0.06654739379882812,-0.09830105304718018
1684114713781095700,10.561095703125,0.05892664194107056,-0.10194015502929688,0.01548302173614502
1684114713791135200,10.57113525390625,-0.04814857244491577,-0.05664634704589844,0.1253645420074463
1684114713801175000,10.581175048828126,-0.06357711553573608,0.032876014709472656,0.261340856552124
1684114713811214800,10.59121484375,-0.036481499671936035,0.01993274688720703,0.31672120094299316
1684114713821254700,10.601254638671875,0.04764759540557861,0.01916217803955078,0.3773767948150635
1684114713831294500,10.61129443359375,0.10186886787414551,-0.014423370361328125,0.4241454601287842
1684114713841334000,10.621333984375,0.1377306580543518,-0.06853580474853516,0.4312361478805542
1684114713851373800,10.631373779296876,0.1504783034324646,-0.0863637924194336,0.42055439949035645
1684114713861413600,10.64141357421875,0.1495276689529419,-0.05911731719970703,0.41123533248901367
1684114713871453200,10.651453125,0.13010090589523315,0.11364555358886719,0.37746143341064453
1684114713881493000,10.661492919921875,0.08539104461669922,0.2764091491699219,0.2753709554672241
1684114713891532800,10.67153271484375,-0.006967067718505859,0.3516387939453125,0.14184784889221191
1684114713901572600,10.681572509765624,-0.0345768928527832,0.3055591583251953,0.01266181468963623
1684114713911612400,10.6916123046875,-0.06402719020843506,0.18730545043945312,-0.1946491003036499
1684114713921652000,10.70165185546875,-0.10005033016204834,0.014513015747070312,-0.40552520751953125
1684114713931691800,10.71169189453125,-0.12361752986907959,-0.0729818344116211,-0.5423715114593506
1684114713941731600,10.721731689453126,-0.1295199990272522,-0.036528587341308594,-0.6912028789520264
1684114713951771400,10.731771484375,-0.13583767414093018,0.02772045135498047,-0.7553428411483765
1684114713961811000,10.74181103515625,-0.10194540023803711,0.08156394958496094,-0.8296959400177002
1684114713971850800,10.751850830078125,-0.06336444616317749,0.1743917465209961,-0.8231068849563599
1684114713981890600,10.761890625,0.015011131763458252,0.09366798400878906,-0.6829051971435547
1684114713991930400,10.771930419921874,0.1431591510772705,0.01893901824951172,-0.5536485910415649
1684114714001970200,10.78197021484375,0.22745227813720703,0.02086925506591797,-0.40578901767730713
1684114714012009700,10.792009765625,0.2687534689903259,0.039211273193359375,-0.3424863815307617
1684114714022049500,10.802049560546875,0.2493487000465393,0.045205116271972656,-0.23600733280181885
1684114714032089300,10.81208935546875,0.28938597440719604,0.06010723114013672,-0.09138250350952148
1684114714042129200,10.822129150390625,0.2899816632270813,0.07437610626220703,0.07599925994873047
1684114714052168700,10.832168701171875,0.29366225004196167,0.18257617950439453,0.2610337734222412
1684114714062208500,10.84220849609375,0.3519797921180725,0.2354745864868164,0.25490689277648926
1684114714072248300,10.852248291015625,0.3587464690208435,0.20594024658203125,0.0152357816696167
1684114714082288000,10.8622880859375,0.372053325176239,0.3164682388305664,-0.3280675411224365
1684114714092327700,10.87232763671875,0.40807056427001953,0.4044628143310547,-0.6569442749023438
1684114714102367500,10.882367431640626,0.42755889892578125,0.4325752258300781,-0.9645875692367554
1684114714112407300,10.8924072265625,0.36691588163375854,0.1946706771850586,-1.2539541721343994
1684114714122447000,10.902447021484376,0.25237077474594116,-0.16821670532226562,-1.4310438632965088
1684114714132487000,10.91248681640625,0.12100237607955933,-0.19300556182861328,-1.523305892944336
1684114714142526500,10.9225263671875,0.027444660663604736,0.06667137145996094,-1.5229430198669434
1684114714152566300,10.932566162109374,-0.09651914238929749,0.2645072937011719,-1.3672651052474976
1684114714162606000,10.942606201171875,-0.27299195528030396,0.3288097381591797,-1.2672773599624634
1684114714172646000,10.95264599609375,-0.4272927939891815,0.3779029846191406,-1.1559730768203735
1684114714182685400,10.962685546875,-0.5267267823219299,0.33786582946777344,-1.062403917312622
1684114714192725200,10.972725341796876,-0.5522885322570801,0.3282814025878906,-0.9116228818893433
1684114714202765000,10.98276513671875,-0.4949182868003845,0.30852794647216797,-0.6558833122253418
1684114714212804900,10.992804931640626,-0.3672958016395569,0.1859569549560547,-0.3358488082885742
1684114714222844700,11.0028447265625,-0.1507945954799652,0.049591064453125,-0.12374567985534668
1684114714232884200,11.01288427734375,0.1296120285987854,-0.00263214111328125,0.03223145008087158
1684114714242924000,11.022924072265624,0.3637378513813019,0.002582550048828125,0.12026321887969971
1684114714252963800,11.0329638671875,0.5235450267791748,-0.004197120666503906,0.2665344476699829
1684114714263003600,11.043003662109374,0.4884214401245117,-0.10184764862060547,0.44989073276519775
1684114714273043200,11.053043212890625,0.32697993516921997,-0.1253643035888672,0.7422903776168823
1684114714283083000,11.0630830078125,0.16316652297973633,-0.14890480041503906,1.0623812675476074
1684114714293122800,11.073122802734375,-0.02616971731185913,-0.12215900421142578,1.402302861213684
1684114714303162600,11.08316259765625,-0.11888127028942108,-0.061767578125,1.6441094875335693
1684114714313202400,11.093202392578124,-0.1989559382200241,-0.03689765930175781,1.825437307357788
1684114714323242000,11.103241943359375,-0.2521076500415802,-0.030656814575195312,1.8505414724349976
1684114714333281800,11.11328173828125,-0.2494017779827118,-0.016668319702148438,1.8007774353027344
1684114714343321600,11.123321533203125,-0.2429162561893463,-0.07370948791503906,1.5591627359390259
1684114714353361400,11.133361328125,-0.19432803988456726,-0.12765216827392578,1.148064136505127
1684114714363401200,11.143401123046875,-0.09628908336162567,-0.14295196533203125,0.6480709314346313
1684114714373440800,11.153440673828126,-0.0013137757778167725,-0.10074615478515625,0.19149160385131836
1684114714383480600,11.16348046875,0.09310120344161987,-0.07536602020263672,-0.21623623371124268
1684114714393520400,11.173520263671875,0.16074146330356598,-0.06212043762207031,-0.5005584955215454
1684114714403560200,11.183560302734374,0.13507436215877533,-0.08249282836914062,-0.6449006795883179
1684114714413599700,11.193599853515625,0.10512925684452057,-0.11236572265625,-0.7410937547683716
1684114714423639600,11.2036396484375,0.013856887817382812,-0.09928226470947266,-0.8937501907348633
1684114714433679400,11.213679443359375,-0.0720304399728775,0.004160881042480469,-0.9462848901748657
1684114714443719200,11.22371923828125,-0.15568000078201294,0.24783039093017578,-0.8700923919677734
1684114714453759000,11.233759033203125,-0.28467732667922974,0.34502506256103516,-0.6856921911239624
1684114714463798500,11.243798583984375,-0.35696446895599365,0.3295879364013672,-0.5438239574432373
1684114714473838300,11.25383837890625,-0.3663111627101898,0.3139228820800781,-0.3863288164138794
1684114714483878100,11.263878173828125,-0.28095129132270813,0.2502918243408203,-0.17031049728393555
1684114714493918000,11.27391796875,-0.11832377314567566,0.2201395034790039,0.05079054832458496
1684114714503957500,11.28395751953125,0.07189567387104034,0.22832870483398438,0.22095024585723877
1684114714513997300,11.293997314453126,0.26619160175323486,0.20807456970214844,0.3344353437423706
1684114714524037000,11.304037109375,0.4361118674278259,0.20735645294189453,0.37143754959106445
1684114714534077000,11.314076904296876,0.5398958325386047,0.18558979034423828,0.3246270418167114
1684114714544116700,11.32411669921875,0.5750190019607544,0.14279556274414062,0.21588826179504395
1684114714554156500,11.334156494140625,0.5348624587059021,0.13407421112060547,0.08065056800842285
1684114714564196000,11.344196044921874,0.4629695415496826,0.14035987854003906,-0.1509075164794922
1684114714574236000,11.35423583984375,0.34594205021858215,0.0874948501586914,-0.4446507692337036
1684114714584275700,11.364275634765624,0.2140984982252121,0.006481170654296875,-0.6943264007568359
1684114714594315500,11.3743154296875,0.08496125042438507,0.018945693969726562,-0.9394237995147705
1684114714604355000,11.38435498046875,-0.05340917408466339,0.043259620666503906,-1.1264137029647827
1684114714614395000,11.394394775390625,-0.19252263009548187,0.07677841186523438,-1.3044973611831665
1684114714624434700,11.4044345703125,-0.36184099316596985,0.09051990509033203,-1.4602478742599487
1684114714634474500,11.414474609375,-0.5753689408302307,0.08923053741455078,-1.5049020051956177
1684114714644514300,11.424514404296875,-0.7626174688339233,0.08487129211425781,-1.6152499914169312
1684114714654553900,11.434553955078124,-0.9071905612945557,0.13959121704101562,-1.535631537437439
1684114714664593700,11.44459375,-0.9730916023254395,0.1100931167602539,-1.434111475944519
1684114714674633500,11.454633544921874,-0.9987960457801819,0.08968830108642578,-1.3485331535339355
1684114714684673300,11.46467333984375,-0.9379066228866577,0.044887542724609375,-1.1401658058166504
1684114714694713000,11.474713134765626,-0.7625719308853149,0.02352428436279297,-0.8168085813522339
1684114714704752600,11.484752685546875,-0.5230720639228821,-0.012514114379882812,-0.4372597932815552
1684114714714792400,11.49479248046875,-0.263016939163208,-0.08439254760742188,-0.05124378204345703
1684114714724832300,11.504832275390624,-0.02799364924430847,-0.15114307403564453,0.2656334638595581
1684114714734872000,11.5148720703125,0.12142635881900787,-0.18649673461914062,0.4967942237854004
1684114714744911600,11.52491162109375,0.17424620687961578,-0.17152023315429688,0.728979229927063
1684114714754951400,11.534951416015625,0.1859751045703888,-0.11591529846191406,0.9790550470352173
1684114714764991200,11.5449912109375,0.22542084753513336,-0.05074787139892578,1.1940807104110718
1684114714775031000,11.555031005859375,0.2387683093547821,-0.025979042053222656,1.3659968376159668
1684114714785070800,11.56507080078125,0.25411444902420044,-0.06537628173828125,1.5283833742141724
1684114714795110700,11.575110595703125,0.23756606876850128,-0.07563591003417969,1.6502668857574463
1684114714805150200,11.585150146484375,0.21259360015392303,-0.1165008544921875,1.7627229690551758
1684114714815190000,11.59518994140625,0.22692668437957764,-0.11387443542480469,1.8204962015151978
1684114714825229800,11.605229736328125,0.23976191878318787,-0.11564826965332031,1.7402722835540771
1684114714835269600,11.61526953125,0.26780223846435547,-0.06693267822265625,1.5632145404815674
1684114714845309400,11.625309326171875,0.24436303973197937,-0.037082672119140625,1.2679057121276855
1684114714855349000,11.635348876953126,0.22552081942558289,-0.07865524291992188,0.9241445064544678
1684114714865388800,11.645388916015625,0.13154566287994385,-0.06995296478271484,0.5930331945419312
1684114714875428600,11.6554287109375,0.09028581529855728,-0.10911369323730469,0.34187793731689453
1684114714885468400,11.665468505859375,0.06124443560838699,-0.11960029602050781,0.12988102436065674
1684114714895508000,11.675508056640625,0.02263973280787468,-0.06326007843017578,-0.05983614921569824
1684114714905547800,11.6855478515625,-0.06126637011766434,-0.021509170532226562,-0.21271443367004395
1684114714915587600,11.695587646484375,-0.1250828504562378,0.032016754150390625,-0.34347009658813477
1684114714925627400,11.70562744140625,-0.1607808619737625,0.07831478118896484,-0.47428739070892334
1684114714935667200,11.715667236328125,-0.2038242369890213,0.12210941314697266,-0.6859860420227051
1684114714945707000,11.72570703125,-0.22774893045425415,0.09641361236572266,-0.8153014183044434
1684114714955746600,11.73574658203125,-0.2423061728477478,0.11361503601074219,-0.9458926916122437
1684114714965786400,11.745786376953125,-0.2718473970890045,0.14008045196533203,-0.9817643165588379
1684114714975826200,11.755826171875,-0.3051131069660187,0.19234275817871094,-0.8793610334396362
1684114714985866000,11.765865966796875,-0.2672697603702545,0.17238807678222656,-0.6985694169998169
1684114714995905800,11.77590576171875,-0.20787912607192993,0.12350654602050781,-0.47844576835632324
1684114715005945300,11.7859453125,-0.2249656468629837,0.0936737060546875,-0.24607014656066895
1684114715015985200,11.795985107421876,-0.2667810916900635,0.030443191528320312,-0.10009098052978516
1684114715026025000,11.80602490234375,-0.2648404836654663,-0.04213428497314453,-0.016810178756713867
1684114715036064800,11.816064697265626,-0.21998438239097595,-0.07395458221435547,-0.03867936134338379
1684114715046104600,11.8261044921875,-0.15036526322364807,-0.06264781951904297,-0.022540807723999023
1684114715056144100,11.83614404296875,0.0035430938005447388,-0.07022857666015625,-0.04106903076171875
1684114715066184000,11.846183837890624,0.14922305941581726,-0.05108833312988281,-0.06886482238769531
1684114715076223700,11.8562236328125,0.2703348398208618,0.006541252136230469,-0.258237361907959
1684114715086263600,11.866263671875,0.31300294399261475,0.06666183471679688,-0.30031561851501465
1684114715096303400,11.876303466796875,0.29140031337738037,0.11730289459228516,-0.431774377822876
1684114715106343200,11.88634326171875,0.2158692330121994,0.15119457244873047,-0.4439743757247925
1684114715116382700,11.8963828125,0.13299915194511414,0.1945056915283203,-0.42008936405181885
1684114715126422500,11.906422607421876,0.06260861456394196,0.12531375885009766,-0.2617666721343994
1684114715136462300,11.91646240234375,0.036056142300367355,0.06816291809082031,-0.034233808517456055
1684114715146502100,11.926502197265625,0.057810526341199875,0.020694732666015625,0.13069570064544678
1684114715156542000,11.9365419921875,0.0866599902510643,0.05457592010498047,0.22816669940948486
1684114715166581500,11.94658154296875,0.07189454138278961,0.021552085876464844,0.27978038787841797
1684114715176621300,11.956621337890626,0.06358309090137482,-0.032776832580566406,0.2901327610015869
1684114715186661000,11.9666611328125,0.02606179565191269,-0.08928680419921875,0.24278724193572998
1684114715196701000,11.976700927734376,-0.05466720834374428,-0.13129138946533203,0.1834392547607422
1684114715206740700,11.98674072265625,-0.1043572947382927,-0.11112689971923828,0.09092247486114502
1684114715216780300,11.9967802734375,-0.17759838700294495,-0.01705169677734375,-0.017727375030517578
1684114715226820000,12.006820068359374,-0.22101223468780518,0.055129051208496094,-0.09423673152923584
1684114715236860000,12.01685986328125,-0.20553258061408997,0.0649099349975586,-0.14125335216522217
1684114715246899700,12.026899658203124,-0.1365438997745514,0.057852745056152344,-0.12082231044769287
1684114715256939500,12.036939453125,-0.06510961800813675,0.043498992919921875,-0.10207641124725342
1684114715266979000,12.04697900390625,-0.0276339091360569,0.014713287353515625,-0.0205918550491333
1684114715277019000,12.057018798828125,-0.01225385069847107,-0.014078140258789062,0.08497154712677002
1684114715287058700,12.06705859375,0.02876773476600647,-0.002231597900390625,0.1522301435470581
1684114715297098500,12.077098388671875,0.06796634197235107,0.009463310241699219,0.22085189819335938
1684114715307138300,12.08713818359375,0.07274748384952545,0.060997962951660156,0.25296127796173096
1684114715317178000,12.09717822265625,0.100173719227314,0.0693368911743164,0.24669837951660156
1684114715327217700,12.1072177734375,0.10965116322040558,0.054065704345703125,0.200178861618042
1684114715337257500,12.117257568359374,0.08734433352947235,0.017896652221679688,0.13779115676879883
1684114715347297300,12.12729736328125,0.02928488329052925,0.0035390853881835938,0.09517014026641846
1684114715357337000,12.137337158203126,-0.04487829655408859,-0.027034759521484375,0.09081768989562988
1684114715367377000,12.147376953125,-0.12939561903476715,-0.06415367126464844,0.10296130180358887
1684114715377416700,12.157416748046876,-0.1718531996011734,-0.07234764099121094,0.11225640773773193
1684114715387456300,12.167456298828125,-0.184270977973938,-0.06620311737060547,0.12334024906158447
1684114715397496000,12.17749609375,-0.17202995717525482,-0.08129405975341797,0.13394415378570557
1684114715407535900,12.187535888671874,-0.1288108229637146,-0.032550811767578125,0.09245944023132324
1684114715417575700,12.19757568359375,-0.07676735520362854,0.0177459716796875,0.05160653591156006
1684114715427615500,12.207615478515624,-0.01861100271344185,0.013035774230957031,0.020966053009033203
1684114715437655000,12.217655029296875,0.0218147374689579,0.07191181182861328,-0.018290996551513672
1684114715447694800,12.22769482421875,0.05411909520626068,0.06379985809326172,-0.014053106307983398
1684114715457734700,12.237734619140625,0.05495210736989975,0.04631996154785156,-0.02119135856628418
1684114715467774500,12.2477744140625,0.045843757688999176,0.014893531799316406,-0.00879371166229248
1684114715477814300,12.257814208984374,0.0061544254422187805,-0.011389732360839844,0.048593997955322266
1684114715487854000,12.26785400390625,0.002471134066581726,-0.041988372802734375,0.08407044410705566
1684114715497893600,12.2778935546875,0.017876721918582916,-0.020363807678222656,0.13819670677185059
1684114715507933400,12.287933349609375,0.028411703184247017,-0.03682422637939453,0.1775890588760376
1684114715517973200,12.29797314453125,0.07649161666631699,-0.010646820068359375,0.2022634744644165
1684114715528013000,12.308012939453125,0.09554186463356018,0.00801849365234375,0.23600876331329346
1684114715538052900,12.318052978515626,0.1397639662027359,0.016979217529296875,0.2172907590866089
1684114715548092400,12.328092529296875,0.1661316305398941,0.04463386535644531,0.21531367301940918
1684114715558132200,12.33813232421875,0.14387205243110657,0.012937545776367188,0.18529975414276123
1684114715568172000,12.348172119140624,0.0880689024925232,0.033538818359375,0.1888662576675415
1684114715578211800,12.3582119140625,0.02546340972185135,0.02316761016845703,0.20191025733947754
1684114715588251600,12.368251708984374,-0.031377073377370834,-0.02233600616455078,0.2193901538848877
1684114715598291200,12.378291259765625,-0.0657438188791275,-0.02700519561767578,0.24335336685180664
1684114715608331000,12.3883310546875,-0.06145806610584259,-0.03858375549316406,0.268865704536438
1684114715618370800,12.398370849609375,-0.040578536689281464,-0.038086891174316406,0.24157893657684326
1684114715628410600,12.40841064453125,-0.020114509388804436,-0.0892801284790039,0.16237223148345947
1684114715638450400,12.418450439453125,-0.009845409542322159,-0.07126140594482422,0.09578907489776611
1684114715648490200,12.428490234375,-0.019056260585784912,-0.05816841125488281,0.01572239398956299
1684114715658529800,12.43852978515625,-0.07538805902004242,-0.054645538330078125,-0.05629873275756836
1684114715668569600,12.448569580078125,-0.08799934387207031,-0.09824275970458984,-0.0848609209060669
1684114715678609400,12.458609375,-0.13232830166816711,-0.12698745727539062,-0.10588431358337402
1684114715688649200,12.468649169921875,-0.13701283931732178,-0.09404850006103516,-0.14768588542938232
