time,seconds_elapsed,z,y,x
1684108350766999800,0.044999755859375,0,0,0
1684108350777040100,0.0550400390625,-0.18982362747192383,0.15435123443603516,-0.022049427032470703
1684108350787080200,0.065080078125,-0.12741518020629883,0.24556875228881836,-0.05098271369934082
1684108350797120500,0.07512060546875,-0.1894063949584961,0.43943023681640625,-0.004518747329711914
1684108350807160800,0.085160888671875,-0.0440526008605957,0.30278778076171875,-0.10010361671447754
1684108350817201000,0.095200927734375,0.3835759162902832,-0.2863140106201172,-0.49683356285095215
1684108350827241200,0.1052412109375,0.8542180061340332,-0.8415505886077881,-0.5119915008544922
1684108350837281500,0.115281494140625,0.8741140365600586,-0.9692173004150391,-0.29093360900878906
1684108350847321600,0.125321533203125,0.7959156036376953,-0.7019476890563965,-0.30224132537841797
1684108350857362000,0.13536181640625,0.7017168998718262,-0.5028219223022461,0.39823246002197266
1684108350867402200,0.14540234375,0.42859411239624023,-0.11969280242919922,1.3124566078186035
1684108350877442300,0.1554423828125,0.06159257888793945,0.49027490615844727,1.26401948928833
1684108350887482600,0.165482666015625,-0.035816192626953125,0.71323561668396,1.2175531387329102
1684108350897523000,0.17552294921875,-0.1941213607788086,0.5261178016662598,1.1731128692626953
1684108350907563000,0.18556298828125,-0.3403153419494629,0.5220379829406738,0.22114324569702148
1684108350917603300,0.195603271484375,-0.47203588485717773,0.08203744888305664,-0.15847301483154297
1684108350927643600,0.2056435546875,-0.3110494613647461,-0.2331387996673584,-1.2294459342956543
1684108350937683700,0.21568359375,0.1452336311340332,-0.6971170902252197,-1.2597999572753906
1684108350947724000,0.22572412109375,0.493257999420166,-0.6568944454193115,-0.8577375411987305
1684108350957764400,0.235764404296875,0.4918394088745117,-0.5632624626159668,-0.5715126991271973
1684108350967804400,0.245804443359375,0.19478321075439453,-0.12310266494750977,-0.25283241271972656
1684108350977844700,0.2558447265625,-0.1729893684387207,0.056913137435913086,0.13941574096679688
1684108350987885000,0.265885009765625,-0.1454167366027832,0.4040672779083252,0.24073362350463867
1684108350997925000,0.275925048828125,-0.9802999496459961,0.6249034404754639,0.5452728271484375
1684108351007965400,0.28596533203125,-1.112724781036377,0.43440675735473633,0.4824814796447754
1684108351018005500,0.296005615234375,-0.7187623977661133,0.2642817497253418,-0.05132246017456055
1684108351028045800,0.3060458984375,0.38292980194091797,1.2024421691894531,-0.48059892654418945
1684108351038086100,0.316086181640625,0.8798942565917969,0.4947965145111084,-0.131927490234375
1684108351048126200,0.326126220703125,0.8754777908325195,-0.2029716968536377,0.15509796142578125
1684108351058166500,0.33616650390625,0.6058282852172852,-0.6596207618713379,0.31090545654296875
1684108351068206800,0.346206787109375,0.6551527976989746,-0.682706356048584,0.267946720123291
1684108351078247000,0.356246826171875,0.7586278915405273,-0.5172715187072754,0.15846776962280273
1684108351088287200,0.366287353515625,0.8195877075195312,-0.5977063179016113,0.20719146728515625
1684108351098327600,0.37632763671875,0.9646005630493164,-1.136216640472412,0.1983323097229004
1684108351108367600,0.38636767578125,1.2997360229492188,-0.9133667945861816,0.011841297149658203
1684108351118408000,0.396407958984375,1.1442914009094238,-0.4929943084716797,-0.045513153076171875
1684108351128448300,0.4064482421875,0.8286149501800537,-0.21789979934692383,-0.10344886779785156
1684108351138488300,0.41648828125,0.4669923782348633,0.10039043426513672,-0.058606624603271484
1684108351148528600,0.426528564453125,0.2231447696685791,0.26311635971069336,-0.3538856506347656
1684108351158569000,0.43656884765625,0.6350123882293701,0.5116391181945801,0.3002896308898926
1684108351168609000,0.446609130859375,0.2973959445953369,0.9465680122375488,0.7907018661499023
1684108351178649300,0.4566494140625,-0.5938267707824707,0.5338530540466309,1.34519624710083
1684108351188689700,0.466689697265625,-0.9106428623199463,0.630885124206543,0.34864234924316406
1684108351198729700,0.476729736328125,-0.8069596290588379,0.07401514053344727,-0.7441740036010742
1684108351208770000,0.48677001953125,-0.9897663593292236,-1.178410530090332,-1.0040578842163086
1684108351218810400,0.496810302734375,-0.24791693687438965,-1.7279596328735352,-0.20431852340698242
1684108351228850400,0.506850341796875,0.47971105575561523,-1.3723225593566895,-0.25145816802978516
1684108351238890800,0.516890869140625,1.5274205207824707,-0.6827411651611328,-0.15399169921875
1684108351248931000,0.52693115234375,2.1616969108581543,-0.08911514282226562,0.11291980743408203
1684108351258971100,0.53697119140625,1.1525189876556396,0.3460426330566406,0.3873100280761719
1684108351269011500,0.547011474609375,-0.4060025215148926,0.5346503257751465,0.4926152229309082
1684108351279051500,0.557051513671875,-1.630115270614624,0.682227611541748,0.20372247695922852
1684108351289091800,0.567091796875,-2.349106788635254,1.227175235748291,-0.8436412811279297
1684108351299132200,0.577132080078125,-2.345008611679077,1.153759479522705,-1.234724521636963
1684108351309172500,0.58717236328125,-2.183070659637451,0.20598220825195312,-0.8378143310546875
1684108351319212500,0.597212646484375,-1.9712190628051758,0.36418771743774414,-1.5452747344970703
1684108351329252900,0.6072529296875,-1.3907653093338013,0.9200310707092285,-1.9734625816345215
1684108351339293000,0.61729296875,-0.7523719668388367,1.0285396575927734,-1.7720856666564941
1684108351349333200,0.627333251953125,-0.20580518245697021,0.3327188491821289,-0.692563533782959
1684108351359373600,0.63737353515625,0.7362741827964783,-0.4264192581176758,0.7350735664367676
1684108351369413600,0.64741357421875,1.9725079536437988,-1.1556882858276367,2.0545096397399902
1684108351379454000,0.657453857421875,2.4509782791137695,-1.3349204063415527,2.0462021827697754
1684108351389494300,0.667494384765625,2.177337169647217,-1.2819123268127441,1.7791061401367188
1684108351399534300,0.677534423828125,1.5688741207122803,-0.5195417404174805,0.5190544128417969
1684108351409574700,0.68757470703125,0.5154720544815063,0.21111106872558594,-0.7002310752868652
1684108351419615000,0.697614990234375,-0.5109958648681641,0.699404239654541,-1.555464744567871
1684108351429655000,0.707655029296875,-0.9168272018432617,0.8500270843505859,-1.7526068687438965
1684108351439695400,0.7176953125,-0.5148423910140991,0.6522116661071777,-1.0161266326904297
1684108351449735700,0.727735595703125,-0.06542527675628662,-0.047493934631347656,0.012787342071533203
1684108351459775700,0.737775634765625,0.32722318172454834,-0.7714486122131348,1.1844425201416016
1684108351469816000,0.747816162109375,0.6978534460067749,-1.1654577255249023,1.8953542709350586
1684108351479856400,0.7578564453125,0.6981245875358582,-1.135828971862793,2.37630558013916
1684108351489896400,0.767896484375,0.5878658890724182,-1.179539680480957,2.414212226867676
1684108351499936800,0.777936767578125,0.5044403672218323,-1.1059656143188477,1.760411262512207
1684108351509977000,0.78797705078125,0.7557857632637024,-0.8732466697692871,0.78326416015625
1684108351520017200,0.79801708984375,0.8678402900695801,-0.921870231628418,-0.21913623809814453
1684108351530057500,0.808057373046875,-0.3678252100944519,-1.06660795211792,-1.3379487991333008
1684108351540097800,0.818097900390625,-1.778223991394043,-1.092088222503662,-0.9405708312988281
1684108351550137900,0.828137939453125,-1.61528480052948,-0.10047101974487305,-0.11910009384155273
1684108351560178200,0.83817822265625,-1.2291392087936401,0.8493466377258301,0.14425134658813477
1684108351570218500,0.848218505859375,-0.8365247249603271,1.0041942596435547,0.505551815032959
1684108351580258600,0.858258544921875,-0.48096105456352234,0.5878052711486816,1.0687298774719238
1684108351590299000,0.868298828125,-0.2105611264705658,0.20763731002807617,2.089059829711914
1684108351600339200,0.878339111328125,-0.02136322855949402,0.06860160827636719,2.7535853385925293
1684108351610379300,0.888379150390625,0.4515472948551178,-0.07010984420776367,3.079695224761963
1684108351620419600,0.898419677734375,1.7646639347076416,0.3134622573852539,3.391643524169922
1684108351630460000,0.9084599609375,0.9345642328262329,1.8254337310791016,1.2948722839355469
1684108351640500000,0.9185,1.1334540843963623,2.7357277870178223,0.5238056182861328
1684108351650540300,0.928540283203125,0.6743526458740234,1.900259017944336,0.24152755737304688
1684108351660580600,0.93858056640625,0.033684104681015015,1.4972763061523438,-0.06766605377197266
1684108351670620700,0.94862060546875,-0.5518122911453247,0.5828857421875,-0.47211122512817383
1684108351680661000,0.958660888671875,-1.2033387422561646,-1.1413617134094238,-0.9013099670410156
1684108351690701300,0.968701416015625,-0.5995132923126221,-1.5347418785095215,-1.1696739196777344
1684108351700741400,0.978741455078125,0.7042899131774902,-0.4748387336730957,-0.9850034713745117
1684108351710781700,0.98878173828125,1.5019984245300293,-0.04050111770629883,-0.23878955841064453
1684108351720822000,0.998822021484375,1.9747282266616821,-0.6604585647583008,0.7575092315673828
1684108351730862000,1.008862060546875,1.5402116775512695,-1.158501148223877,0.9852347373962402
1684108351740902400,1.01890234375,0.9460855722427368,-0.9078412055969238,0.8965482711791992
1684108351750942700,1.028942626953125,-0.0921274721622467,-0.4768404960632324,0.8867740631103516
1684108351760982800,1.038982666015625,-1.8150893449783325,-0.42296409606933594,0.8079204559326172
1684108351771023000,1.049023193359375,-2.635361671447754,-0.07292366027832031,0.6151833534240723
1684108351781063400,1.0590634765625,-2.200831413269043,0.7348489761352539,0.0071868896484375
1684108351791103500,1.069103515625,-1.4037789106369019,0.6375784873962402,-0.17473793029785156
1684108351801143800,1.079143798828125,-0.5806992053985596,0.10160493850708008,0.01587677001953125
1684108351811184000,1.08918408203125,0.12447613477706909,-0.1858057975769043,0.38027238845825195
1684108351821224200,1.09922412109375,0.6926970481872559,-0.4549679756164551,0.7377157211303711
1684108351831264500,1.109264404296875,0.8460584878921509,-0.5047049522399902,0.8698239326477051
1684108351841304800,1.119304931640625,0.6243489980697632,-0.2509593963623047,0.6808323860168457
1684108351851345000,1.129344970703125,0.14135366678237915,-0.6786174774169922,0.9133939743041992
1684108351861385200,1.13938525390625,-0.14673399925231934,-0.8921847343444824,1.263840675354004
1684108351871425500,1.149425537109375,-0.30507904291152954,-0.810401439666748,1.5344061851501465
1684108351881465600,1.159465576171875,-0.46754515171051025,-0.9724135398864746,1.8492350578308105
1684108351891506000,1.169505859375,-0.6207106709480286,-0.7609720230102539,2.022843360900879
1684108351901546200,1.179546142578125,-0.7395663857460022,-0.20878314971923828,1.8446602821350098
1684108351911586300,1.18958642578125,-0.9089475274085999,0.36671924591064453,1.247668743133545
1684108351921626600,1.199626708984375,-0.68897944688797,0.4007530212402344,0.24805402755737305
1684108351931667000,1.2096669921875,-0.21805673837661743,-0.3237624168395996,-0.5143890380859375
1684108351941707000,1.21970703125,0.3771038055419922,-0.5713114738464355,-1.103442668914795
1684108351951747300,1.229747314453125,0.7735155820846558,-0.5776262283325195,-1.1788530349731445
1684108351961787600,1.23978759765625,0.8853627443313599,-0.3636469841003418,-0.8469786643981934
1684108351971827700,1.24982763671875,1.0761144161224365,-0.4810004234313965,-0.47729969024658203
1684108351981868000,1.259867919921875,1.2231054306030273,-0.3311896324157715,-0.21587514877319336
1684108351991908400,1.269908447265625,1.1730823516845703,0.33820533752441406,-0.5077910423278809
1684108352001948400,1.279948486328125,0.9894378185272217,0.3535122871398926,-1.5966029167175293
1684108352011988700,1.28998876953125,0.607882559299469,-0.005982875823974609,-3.059783697128296
1684108352022029000,1.300029052734375,0.17406809329986572,-0.3381667137145996,-3.912992238998413
1684108352032069000,1.310069091796875,-0.17811477184295654,-0.21369600296020508,-4.246768474578857
1684108352042109400,1.320109375,-0.6189141273498535,-0.282073974609375,-3.6392245292663574
1684108352052149800,1.330149658203125,-0.9098857641220093,-0.41391706466674805,-2.8409855365753174
1684108352062189800,1.34018994140625,-0.853498101234436,-0.16541147232055664,-2.440251588821411
1684108352072230100,1.350230224609375,-0.5803097486495972,0.05157136917114258,-2.448413372039795
1684108352082270500,1.3602705078125,-0.15246474742889404,0.42779541015625,-2.775324583053589
1684108352092310500,1.370310546875,0.027248144149780273,0.09361457824707031,-2.681199550628662
1684108352102350800,1.380350830078125,-0.03784799575805664,-0.0043315887451171875,-2.6146702766418457
1684108352112391200,1.39039111328125,-0.2032468318939209,-0.20090293884277344,-2.298236608505249
1684108352122431200,1.40043115234375,-0.3339424133300781,-0.24944400787353516,-1.6481430530548096
1684108352132471600,1.410471435546875,-0.38935065269470215,-0.4451723098754883,-0.9044523239135742
1684108352142511900,1.420511962890625,-0.6673071384429932,-0.8642263412475586,-0.6269497871398926
1684108352152552000,1.430552001953125,-0.9863271713256836,-1.4089632034301758,-0.04742240905761719
1684108352162592300,1.44059228515625,-0.7833647727966309,-1.3598136901855469,0.3750135898590088
1684108352172632600,1.450632568359375,-0.264009952545166,-1.0601959228515625,1.1129217147827148
1684108352182672600,1.460672607421875,-0.09011673927307129,-1.4476242065429688,1.3354783058166504
1684108352192713000,1.470712890625,-0.141448974609375,-2.4861507415771484,1.062182903289795
1684108352202753300,1.480753173828125,-0.23177480697631836,-2.884004592895508,0.8760015964508057
1684108352212793300,1.49079345703125,-0.36208581924438477,-2.533994674682617,0.5897750854492188
1684108352222833700,1.500833740234375,-0.4677255153656006,-2.3804798126220703,-0.14086031913757324
1684108352232874000,1.5108740234375,-0.13263344764709473,0.07083415985107422,-0.3255140781402588
1684108352242914000,1.5209140625,-0.3037867546081543,-2.2341995239257812,-0.7351531982421875
1684108352252954400,1.530954345703125,-0.5087532997131348,-3.4151268005371094,-0.35636210441589355
1684108352262994700,1.54099462890625,-0.5926988124847412,-4.21284294128418,-0.10483169555664062
1684108352273034800,1.55103466796875,-0.25107645988464355,-3.2973670959472656,-0.03702950477600098
1684108352283075000,1.561074951171875,0.15384960174560547,-1.879237174987793,0.875739574432373
1684108352293115400,1.571115478515625,0.5513002872467041,-1.0435590744018555,0.990264892578125
1684108352303155500,1.581155517578125,1.1445512771606445,-0.983393669128418,0.7769980430603027
1684108352313195800,1.59119580078125,1.5337798595428467,-1.3324928283691406,0.33041906356811523
1684108352323236000,1.601236083984375,1.9921317100524902,-1.674696922302246,-0.4170083999633789
1684108352333276200,1.611276123046875,2.36354398727417,-1.2209596633911133,-1.133842945098877
1684108352343316500,1.62131640625,2.1750500202178955,-0.33366870880126953,-1.5385148525238037
1684108352353356800,1.631356689453125,1.7478291988372803,1.736565113067627,-1.4285547733306885
1684108352363396900,1.64139697265625,1.9949641227722168,1.704068660736084,-0.935157060623169
1684108352373437200,1.651437255859375,0.7394592761993408,1.5086822509765625,-0.9806225299835205
1684108352383477500,1.6614775390625,-0.5334718227386475,1.91733980178833,-0.34407782554626465
1684108352393517600,1.671517578125,-1.1600959300994873,2.047999382019043,0.038062334060668945
1684108352403558000,1.681557861328125,-1.7185571193695068,1.8856945037841797,0.25294947624206543
1684108352413598200,1.69159814453125,-1.8827767372131348,0.9925684928894043,0.2656517028808594
1684108352423638300,1.70163818359375,-2.072782039642334,-0.03565406799316406,-0.7410740852355957
1684108352433678600,1.7116787109375,-1.7284371852874756,-0.5148305892944336,-1.806100606918335
1684108352443719000,1.721718994140625,-1.1188204288482666,-0.6543970108032227,-2.339442253112793
1684108352453759000,1.731759033203125,-0.5363099575042725,-0.16571426391601562,-2.7830662727355957
1684108352463799300,1.74179931640625,-0.1008460521697998,0.3769683837890625,-3.0834403038024902
1684108352473839600,1.751839599609375,0.2531862258911133,1.136122703552246,-3.198899745941162
1684108352483880000,1.7618798828125,0.4321615695953369,1.8555679321289062,-3.1164214611053467
1684108352493920000,1.771919921875,0.48099374771118164,2.2126712799072266,-2.8195343017578125
1684108352503960300,1.781960205078125,0.47171783447265625,2.4296703338623047,-2.5362582206726074
1684108352514000400,1.79200048828125,0.3481013774871826,2.273573875427246,-2.068040370941162
1684108352524040700,1.802040771484375,0.17011713981628418,1.7974061965942383,-1.4844176769256592
1684108352534081000,1.8120810546875,-0.14281153678894043,0.633232593536377,-0.7657909393310547
1684108352544121300,1.822121337890625,-0.23422670364379883,-0.6747398376464844,-0.25454187393188477
1684108352554161400,1.832161376953125,-0.2201399803161621,-1.4924297332763672,0.04382061958312988
1684108352564201700,1.84220166015625,-0.2779831886291504,-1.8491382598876953,0.042439937591552734
1684108352574242000,1.852241943359375,-0.28054022789001465,-1.4986228942871094,0.04110312461853027
1684108352584282000,1.8622822265625,-0.23483681678771973,-1.2964706420898438,-0.007415294647216797
1684108352594322400,1.872322509765625,-0.1165614128112793,-1.348149299621582,-0.1387951374053955
1684108352604362800,1.88236279296875,-0.013734102249145508,-1.2028980255126953,-0.23982977867126465
1684108352614402800,1.89240283203125,0.07622146606445312,-0.946711540222168,-0.21015596389770508
1684108352624443100,1.902443115234375,-0.0077931880950927734,-0.6611309051513672,-0.19438672065734863
1684108352634483500,1.9124833984375,-0.20284557342529297,-0.42081737518310547,-0.1679375171661377
1684108352644523500,1.9225234375,-0.48467564582824707,-0.28844451904296875,-0.2148122787475586
1684108352654563800,1.932563720703125,-0.8882243633270264,-0.2766265869140625,-0.34523439407348633
1684108352664604200,1.942604248046875,-1.315612554550171,-0.3714876174926758,-0.4529595375061035
1684108352674644200,1.952644287109375,-1.6241014003753662,-0.4538431167602539,-0.37280988693237305
1684108352684684500,1.9626845703125,-1.6185922622680664,-0.6335620880126953,-0.23863768577575684
1684108352694724900,1.972724853515625,-1.3373465538024902,-0.6856832504272461,-0.33837413787841797
1684108352704765000,1.982764892578125,-0.9230802059173584,-0.9042243957519531,-0.49509501457214355
1684108352714805200,1.99280517578125,-0.6964595317840576,-1.4028234481811523,-0.5507950782775879
1684108352724845600,2.002845458984375,-0.47571682929992676,-0.9253044128417969,-0.7881531715393066
1684108352734886000,2.012885986328125,-0.2641177177429199,-0.8105745315551758,-0.9710698127746582
1684108352744926000,2.022926025390625,0.08977127075195312,-0.3239727020263672,-1.1932530403137207
1684108352754966300,2.03296630859375,0.30434083938598633,0.21077251434326172,-1.3556323051452637
1684108352765006600,2.043006591796875,0.3313009738922119,0.7365055084228516,-1.3746223449707031
1684108352775046700,2.053046630859375,0.08278656005859375,0.8617124557495117,-1.1554946899414062
1684108352785087000,2.0630869140625,-0.16091084480285645,1.0296273231506348,-0.8843629360198975
1684108352795127000,2.073126953125,-0.25985145568847656,1.0427556037902832,-0.7244365215301514
1684108352805167400,2.08316748046875,-0.2596564292907715,1.0113234519958496,-0.4839897155761719
1684108352815207700,2.093207763671875,-0.12129974365234375,0.9510259628295898,-0.23378849029541016
1684108352825248000,2.103248046875,0.08481884002685547,0.9328169822692871,0.09864377975463867
1684108352835288000,2.1132880859375,0.3342926502227783,0.9175419807434082,0.3782227039337158
1684108352845328400,2.123328369140625,0.5350984334945679,0.9723644256591797,0.6948823928833008
1684108352855368700,2.13336865234375,0.6361702680587769,0.9768133163452148,0.871382474899292
1684108352865408800,2.14340869140625,0.5801361799240112,0.9989395141601562,0.9590780735015869
1684108352875449000,2.153448974609375,0.4847524166107178,0.9851059913635254,1.1241223812103271
1684108352885489400,2.163489501953125,0.32864952087402344,1.0230002403259277,1.2297508716583252
1684108352895529500,2.173529541015625,0.13084006309509277,0.9761052131652832,1.2969248294830322
1684108352905569800,2.18356982421875,-0.12446367740631104,0.8325815200805664,1.3551526069641113
1684108352915610000,2.193610107421875,-0.4535562992095947,0.4851665496826172,1.4423913955688477
1684108352925650200,2.203650146484375,-0.7654575109481812,-0.022226333618164062,1.4724948406219482
1684108352935690500,2.2136904296875,-0.9532562494277954,-0.6448965072631836,1.408555030822754
1684108352945730800,2.223730712890625,-1.2755554914474487,-1.3386526107788086,1.2856719493865967
1684108352955771100,2.233771240234375,-1.6977014541625977,-2.02278995513916,1.1156084537506104
1684108352965811200,2.243811279296875,-2.090226650238037,-2.574077606201172,0.8286929130554199
1684108352975851500,2.2538515625,-2.654531955718994,-2.917515754699707,0.6108033657073975
1684108352985891800,2.263891845703125,-3.2633004188537598,-2.844611167907715,0.3279750347137451
1684108352995932000,2.273931884765625,-3.3208823204040527,-2.5744104385375977,0.08180880546569824
1684108353005972200,2.28397216796875,-2.6973509788513184,-2.188786506652832,-0.30881237983703613
1684108353016012500,2.294012451171875,-1.70450758934021,-1.5198230743408203,-0.7911441326141357
1684108353026052600,2.304052490234375,-0.7410961389541626,-0.8384218215942383,-1.212970495223999
1684108353036093000,2.314093017578125,0.16686058044433594,-0.2596607208251953,-1.5386347770690918
1684108353046133200,2.32413330078125,0.9046745300292969,0.1102609634399414,-1.8622303009033203
1684108353056173300,2.33417333984375,1.409661054611206,0.4514493942260742,-2.1262102127075195
1684108353066213600,2.344213623046875,1.5140156745910645,0.6171655654907227,-2.3668947219848633
1684108353076254000,2.35425390625,1.3070653676986694,0.7088918685913086,-2.497720718383789
1684108353086294300,2.364294189453125,0.9050151109695435,0.8349523544311523,-2.302457332611084
1684108353096334300,2.374334228515625,0.3766513466835022,0.8801250457763672,-1.9822874069213867
1684108353106374700,2.384374755859375,-0.10289424657821655,0.8226146697998047,-1.5499200820922852
1684108353116415000,2.3944150390625,-0.32508164644241333,0.620509147644043,-1.043778896331787
1684108353126455000,2.404455078125,-0.21079808473587036,0.41534900665283203,-0.6829562187194824
1684108353136495400,2.414495361328125,0.1935250461101532,0.15632247924804688,-0.4296913146972656
1684108353146535700,2.42453564453125,0.7582444548606873,-0.12360668182373047,-0.2792820930480957
1684108353156575700,2.43457568359375,1.309785008430481,-0.3683662414550781,-0.33562803268432617
1684108353166616000,2.444615966796875,1.6536314487457275,-0.43448638916015625,-0.33893704414367676
1684108353176656400,2.454656494140625,1.784477710723877,-0.3966693878173828,-0.48773813247680664
1684108353186696400,2.464696533203125,1.7729719877243042,-0.3827066421508789,-0.47461628913879395
1684108353196736800,2.47473681640625,1.5883703231811523,-0.35097599029541016,-0.41886138916015625
1684108353206777000,2.484777099609375,1.303869605064392,-0.2738323211669922,-0.3447229862213135
1684108353216817200,2.494817138671875,0.9504296779632568,-0.17516708374023438,-0.32323193550109863
1684108353226857500,2.504857421875,0.5472978353500366,-0.023065567016601562,-0.3557729721069336
1684108353236897800,2.514897705078125,0.20880889892578125,0.09435176849365234,-0.23351573944091797
1684108353246938000,2.524938232421875,0.1095951572060585,0.12916946411132812,-0.12511801719665527
1684108353256978200,2.534978271484375,0.23228734731674194,0.17471981048583984,-0.1383061408996582
1684108353267018500,2.5450185546875,0.5186890363693237,0.16440582275390625,-0.1724700927734375
1684108353277058800,2.555058837890625,0.8127488493919373,0.1631450653076172,-0.2533431053161621
1684108353287099000,2.565098876953125,0.9901339411735535,0.0705718994140625,-0.22165250778198242
1684108353297139200,2.57513916015625,1.1024335622787476,-0.036785125732421875,-0.2617981433868408
1684108353307179500,2.585179443359375,1.1747257709503174,-0.09901905059814453,-0.35830140113830566
1684108353317219800,2.5952197265625,1.2113029956817627,-0.1351757049560547,-0.47431468963623047
1684108353327260000,2.605260009765625,1.2488256692886353,-0.21921253204345703,-0.5783200263977051
1684108353337300200,2.61530029296875,1.241278886795044,-0.26042842864990234,-0.59419846534729
1684108353347340500,2.625340576171875,1.2346134185791016,-0.26393699645996094,-0.5918948650360107
1684108353357380600,2.635380615234375,1.2299225330352783,-0.28024864196777344,-0.534172773361206
1684108353367421000,2.6454208984375,1.2003509998321533,-0.2618293762207031,-0.5150606632232666
1684108353377461200,2.655461181640625,1.1579443216323853,-0.23961353302001953,-0.47455930709838867
1684108353387501300,2.665501220703125,1.0970549583435059,-0.15546894073486328,-0.5320384502410889
1684108353397541600,2.675541748046875,1.048938512802124,-0.10215091705322266,-0.5331687927246094
1684108353407582000,2.68558203125,1.0097657442092896,-0.10592842102050781,-0.49988436698913574
1684108353417622000,2.6956220703125,0.9616250991821289,-0.11400318145751953,-0.46518850326538086
1684108353427662300,2.705662353515625,0.8801141977310181,-0.23580646514892578,-0.44486188888549805
1684108353437702700,2.71570263671875,0.7869365811347961,-0.2893514633178711,-0.39269590377807617
1684108353447742700,2.72574267578125,0.6940653920173645,-0.19376277923583984,-0.3468208312988281
1684108353457783000,2.735782958984375,0.606481671333313,-0.10467910766601562,-0.2477576732635498
1684108353467823400,2.7458232421875,0.5225560665130615,0.02548694610595703,-0.12967848777770996
1684108353477863700,2.75586376953125,0.4452338218688965,0.05085945129394531,-0.02686762809753418
1684108353487903700,2.76590380859375,0.3937942385673523,0.1411428451538086,0.06769537925720215
1684108353497944000,2.775944091796875,0.38503414392471313,0.16002368927001953,0.16794204711914062
1684108353507984400,2.785984375,0.3731648325920105,0.21017742156982422,0.25197649002075195
1684108353518024400,2.7960244140625,0.37438321113586426,0.22206974029541016,0.3311727046966553
1684108353528064800,2.806064697265625,0.3385208249092102,0.2338571548461914,0.46232080459594727
1684108353538105000,2.81610498046875,0.31571364402770996,0.16904354095458984,0.6137049198150635
1684108353548145400,2.8261455078125,0.2557101845741272,0.11612129211425781,0.739795446395874
1684108353558185500,2.836185546875,0.2204040288925171,0.0105743408203125,0.8572289943695068
1684108353568225800,2.846225830078125,0.1857297420501709,-0.059040069580078125,0.9449286460876465
1684108353578266000,2.85626611328125,0.11808252334594727,-0.07593631744384766,0.9679653644561768
1684108353588306200,2.86630615234375,0.05058622360229492,-0.04506492614746094,1.0388543605804443
1684108353598346500,2.876346435546875,-0.040619492530822754,0.023893356323242188,0.9929203987121582
1684108353608386800,2.88638671875,-0.10737234354019165,0.11179542541503906,0.9881377220153809
1684108353618427100,2.89642724609375,-0.17532062530517578,0.12545394897460938,1.0190653800964355
1684108353628467200,2.90646728515625,-0.2102726697921753,0.21741771697998047,1.007936716079712
1684108353638507500,2.916507568359375,-0.21737921237945557,0.3269062042236328,1.0372755527496338
1684108353648547800,2.9265478515625,-0.2136528491973877,0.38522815704345703,1.070688009262085
1684108353658588000,2.936587890625,-0.16178637742996216,0.4592418670654297,1.1131653785705566
1684108353668628200,2.946628173828125,-0.1898430585861206,0.40735530853271484,1.178454875946045
1684108353678668500,2.95666845703125,-0.20515412092208862,0.31142139434814453,1.296001672744751
1684108353688708600,2.96670849609375,-0.27681177854537964,0.33719348907470703,1.2375566959381104
1684108353698749000,2.9767490234375,-0.3502810001373291,0.44779109954833984,1.1396584510803223
1684108353708789200,2.986789306640625,-0.4235844612121582,0.5572052001953125,1.0342888832092285
1684108353718829600,2.99682958984375,-0.471884548664093,0.6287860870361328,1.01389479637146
1684108353728869600,3.00686962890625,-0.5051758289337158,0.5857677459716797,1.0013246536254883
1684108353738910000,3.016909912109375,-0.5242727994918823,0.5313653945922852,0.9966645240783691
1684108353748950300,3.0269501953125,-0.4949412941932678,0.45247936248779297,1.083008050918579
1684108353758990300,3.036990234375,-0.4572191834449768,0.36371803283691406,1.1447114944458008
1684108353769030700,3.04703076171875,-0.37568414211273193,0.30690765380859375,1.3002169132232666
1684108353779071000,3.057071044921875,-0.2896381616592407,0.29568004608154297,1.4322082996368408
1684108353789111300,3.067111328125,-0.16564059257507324,0.348785400390625,1.516235589981079
1684108353799151400,3.0771513671875,-0.006412148475646973,0.45404529571533203,1.5787038803100586
1684108353809191700,3.087191650390625,0.08637559413909912,0.6064367294311523,1.6152145862579346
1684108353819232000,3.09723193359375,0.15154635906219482,0.7362918853759766,1.6827974319458008
1684108353829272000,3.10727197265625,0.19721078872680664,0.752751350402832,1.747593879699707
1684108353839312400,3.1173125,0.19609302282333374,0.7229413986206055,1.785902738571167
1684108353849352700,3.127352783203125,0.19765883684158325,0.6254358291625977,1.8382599353790283
1684108353859393000,3.13739306640625,0.1660168170928955,0.4387798309326172,1.889538288116455
1684108353869433000,3.14743310546875,0.15616238117218018,0.2702035903930664,1.9237582683563232
1684108353879473400,3.157473388671875,0.14956575632095337,0.21169471740722656,1.8445465564727783
1684108353889513700,3.167513671875,0.12742912769317627,0.1283102035522461,1.6719450950622559
1684108353899554000,3.177553955078125,0.11222463846206665,-0.05468559265136719,1.4998838901519775
1684108353909594000,3.187593994140625,0.1285960078239441,-0.34937000274658203,1.3554646968841553
1684108353919634400,3.197634521484375,0.13428378105163574,-0.7393760681152344,1.2324872016906738
1684108353929674800,3.2076748046875,0.16996914148330688,-1.142653465270996,1.1885251998901367
1684108353939714800,3.21771484375,0.2166297435760498,-1.5702199935913086,1.0827991962432861
1684108353949755100,3.227755126953125,0.2541160583496094,-1.9340600967407227,0.8791871070861816
1684108353959795500,3.23779541015625,0.2320287823677063,-2.1471986770629883,0.5475318431854248
1684108353969835800,3.247835693359375,0.16505968570709229,-2.1302366256713867,0.09158706665039062
1684108353979875800,3.257875732421875,0.08960235118865967,-1.9731998443603516,-0.47699475288391113
1684108353989916200,3.267916259765625,-0.08447837829589844,-1.6197824478149414,-1.1115825176239014
1684108353999956500,3.27795654296875,-0.2110474407672882,-1.1238012313842773,-1.7245687246322632
1684108354009996500,3.28799658203125,-1.008693814277649,-0.5133790969848633,-2.533952236175537
1684108354020036900,3.298036865234375,-2.401627540588379,0.057785987854003906,-3.233524799346924
1684108354030077200,3.3080771484375,-2.7611215114593506,0.5607585906982422,-3.1277287006378174
1684108354040117200,3.3181171875,-2.4676504135131836,0.9296550750732422,-2.502476930618286
1684108354050157600,3.328157470703125,-2.287877321243286,1.2232398986816406,-1.884974479675293
1684108354060198000,3.338197998046875,-2.5225861072540283,1.2955284118652344,-1.4931894540786743
1684108354070238200,3.34823828125,-3.3842296600341797,1.0659008026123047,-1.1738933324813843
1684108354080278300,3.3582783203125,-3.6048743724823,0.707275390625,-0.9099535942077637
1684108354090318600,3.368318603515625,-2.3378379344940186,0.38175392150878906,-0.9993138313293457
1684108354100359000,3.37835888671875,-0.920480489730835,0.08948040008544922,-1.5246937274932861
1684108354110399200,3.388399169921875,0.05492180585861206,-0.12199878692626953,-2.1531004905700684
1684108354120439300,3.398439208984375,0.6621259450912476,-0.3560476303100586,-2.441267967224121
1684108354130479600,3.408479736328125,0.9328135251998901,-0.5617380142211914,-2.601962089538574
1684108354140520000,3.41852001953125,0.9591506719589233,-0.8589591979980469,-2.6216797828674316
1684108354150560300,3.428560302734375,0.8918148279190063,-1.304107666015625,-2.5380513668060303
1684108354160600300,3.438600341796875,0.7561346292495728,-1.7518672943115234,-2.260828733444214
1684108354170640600,3.448640625,0.48559239506721497,-2.096835136413574,-1.8593885898590088
1684108354180681000,3.458680908203125,0.26651763916015625,-2.2108869552612305,-1.3917449712753296
1684108354190721000,3.468720947265625,0.21216273307800293,-2.0186004638671875,-0.9021307826042175
1684108354200761300,3.47876123046875,0.18994379043579102,-1.656386375427246,-0.6070071458816528
1684108354210801700,3.4888017578125,0.10235965251922607,-1.3427696228027344,-0.5139507055282593
1684108354220841700,3.498841796875,-0.04283761978149414,-0.9914608001708984,-0.6095762252807617
1684108354230882000,3.508882080078125,-0.24545490741729736,-0.556361198425293,-0.9314936995506287
1684108354240922400,3.51892236328125,-0.342604398727417,-0.015021324157714844,-1.3115501403808594
1684108354250962700,3.528962646484375,-0.27158236503601074,0.5547513961791992,-1.5405720472335815
1684108354261002800,3.539002685546875,-0.28572630882263184,0.9367256164550781,-1.7799954414367676
1684108354271043000,3.54904296875,-0.2741272449493408,1.0866641998291016,-1.8351560831069946
1684108354281083400,3.55908349609375,-0.12836527824401855,1.0556964874267578,-1.8354127407073975
1684108354291123700,3.569123779296875,0.011487364768981934,1.0045433044433594,-1.816943645477295
1684108354301163800,3.579163818359375,0.08207833766937256,0.923614501953125,-1.7293729782104492
1684108354311204000,3.5892041015625,0.21306848526000977,0.9009637832641602,-1.562437653541565
1684108354321244400,3.599244384765625,0.2943023443222046,0.8429670333862305,-1.3851900100708008
1684108354331284700,3.60928466796875,0.3298075199127197,0.7781591415405273,-1.2425483465194702
1684108354341324800,3.61932470703125,0.2875373363494873,0.6540193557739258,-1.145071268081665
1684108354351365000,3.629365234375,0.1428687572479248,0.5756864547729492,-1.0224242210388184
1684108354361405400,3.639405517578125,0.13405334949493408,0.44970703125,-0.7049658894538879
1684108354371445500,3.649445556640625,0.0596773624420166,0.3859748840332031,-0.4831937551498413
1684108354381485800,3.65948583984375,-0.032241106033325195,0.3390016555786133,-0.22060894966125488
1684108354391526100,3.669526123046875,-0.10317039489746094,0.31128406524658203,0.0885324478149414
1684108354401566500,3.67956640625,-0.17686772346496582,0.25769615173339844,0.328926682472229
1684108354411606500,3.6896064453125,-0.2677295207977295,0.24808120727539062,0.4441286325454712
1684108354421646800,3.699646728515625,-0.31649625301361084,0.282928466796875,0.4470881223678589
1684108354431687200,3.709687255859375,-0.36397838592529297,0.32422542572021484,0.35896897315979004
1684108354441727500,3.7197275390625,-0.37161314487457275,0.4195241928100586,0.2844865322113037
1684108354451767600,3.729767578125,-0.3426337242126465,0.48919105529785156,0.1449427604675293
1684108354461807900,3.739807861328125,-0.3999892473220825,0.5704317092895508,-0.04517018795013428
1684108354471848200,3.74984814453125,-0.5492920875549316,0.6001834869384766,-0.15377497673034668
1684108354481888300,3.75988818359375,-0.5941818952560425,0.649846076965332,-0.3000016212463379
1684108354491928600,3.769928466796875,-0.6268155574798584,0.7173776626586914,-0.45187318325042725
1684108354501969000,3.779968994140625,-0.7345104217529297,0.7102479934692383,-0.576362133026123
1684108354512009200,3.79000927734375,-1.0788215398788452,0.6435708999633789,-0.6910628080368042
1684108354522049300,3.80004931640625,-1.655744194984436,0.5031919479370117,-0.7756841778755188
1684108354532089600,3.810089599609375,-2.183298110961914,0.379608154296875,-0.7089701294898987
1684108354542130000,3.8201298828125,-2.630885601043701,0.1863117218017578,-0.5278953313827515
1684108354552170200,3.830170166015625,-2.9002976417541504,-0.02447032928466797,-0.2775287628173828
1684108354562210300,3.840210205078125,-2.6331403255462646,-0.10498905181884766,-0.03712284564971924
1684108354572250600,3.850250732421875,-1.9427903890609741,0.10889339447021484,0.12406635284423828
1684108354582291000,3.860291015625,-1.2602992057800293,0.39629650115966797,0.19551622867584229
1684108354592331300,3.870331298828125,-0.8628253936767578,0.5108852386474609,0.20601236820220947
1684108354602371300,3.880371337890625,-0.5872359275817871,0.3628807067871094,0.2730969190597534
1684108354612411600,3.89041162109375,-0.1652698516845703,0.30290794372558594,0.44255971908569336
1684108354622452000,3.900451904296875,0.4814627170562744,0.43735218048095703,0.7968862056732178
1684108354632492300,3.9104921875,1.2350739240646362,0.7839260101318359,1.1502649784088135
1684108354642532400,3.920532470703125,1.802509069442749,1.1970453262329102,1.448177695274353
1684108354652572700,3.93057275390625,1.8076505661010742,1.4680252075195312,1.534292459487915
1684108354662613000,3.940613037109375,1.5058828592300415,1.605377197265625,1.4560787677764893
1684108354672653300,3.9506533203125,1.095777153968811,1.6414589881896973,1.105884075164795
1684108354682693400,3.960693359375,0.9391664266586304,1.535440444946289,0.6978155374526978
1684108354692733700,3.970733642578125,0.8258723020553589,1.4053030014038086,0.023260831832885742
1684108354702774000,3.98077392578125,0.5844821929931641,1.3026437759399414,-0.6818517446517944
1684108354712814000,3.99081396484375,0.2338700294494629,1.23406982421875,-1.32462739944458
1684108354722854400,4.0008544921875,-0.22796249389648438,1.181565284729004,-1.6297202110290527
1684108354732894700,4.010894775390625,-0.6030194759368896,1.1764307022094727,-1.852510929107666
1684108354742935000,4.02093505859375,-0.8092856407165527,1.163283348083496,-1.9383490085601807
1684108354752975400,4.030975341796875,-0.9237468242645264,1.1173028945922852,-1.8797187805175781
1684108354763015400,4.041015380859375,-0.9773170948028564,0.9679279327392578,-1.7116745710372925
1684108354773055700,4.0510556640625,-0.8483748435974121,0.8048057556152344,-1.3172038793563843
1684108354783096000,4.061095947265625,-0.5531260967254639,0.6174545288085938,-0.8305562138557434
1684108354793136000,4.07113623046875,-0.21882343292236328,0.39598941802978516,-0.39393043518066406
1684108354803176400,4.081176513671875,-0.0884246826171875,0.2647523880004883,-0.07434988021850586
1684108354813216800,4.091216796875,-0.14937162399291992,0.1474609375,0.06713783740997314
1684108354823257000,4.101257080078125,-0.29830169677734375,0.08274555206298828,0.2405714988708496
1684108354833297200,4.111297119140625,-0.42759132385253906,0.10451126098632812,0.3509751558303833
1684108354843337500,4.12133740234375,-0.5727245807647705,0.22992610931396484,0.34602653980255127
1684108354853377800,4.131377685546875,-0.817732572555542,0.3063325881958008,0.2655540704727173
1684108354863418000,4.141418212890625,-1.2367558479309082,0.33377838134765625,0.13513970375061035
1684108354873458400,4.15145849609375,-1.6182416677474976,0.27132129669189453,0.09352588653564453
1684108354883498500,4.16149853515625,-1.7941508293151855,0.20214462280273438,0.18170905113220215
1684108354893538800,4.171538818359375,-1.592223048210144,0.04242992401123047,0.3534715175628662
1684108354903579100,4.1815791015625,-1.1640459299087524,-0.3696174621582031,0.47233831882476807
1684108354913619200,4.191619140625,-0.9454644918441772,-1.1404590606689453,0.4812246561050415
1684108354923659500,4.201659423828125,-1.3353338241577148,-1.911123275756836,0.413535475730896
1684108354933699800,4.211699951171875,-2.330214023590088,-2.6464004516601562,0.275272011756897
1684108354943740200,4.221740234375,-3.2789859771728516,-3.5194883346557617,0.3752603530883789
1684108354953780200,4.2317802734375,-3.9042584896087646,-4.407309532165527,0.711551308631897
1684108354963820500,4.241820556640625,-4.692497730255127,-5.055757522583008,0.9274577498435974
1684108354973860900,4.25186083984375,-5.247110843658447,-5.127414703369141,1.118526577949524
1684108354983901200,4.261901123046875,-4.330152988433838,-4.116968154907227,0.9136521816253662
1684108354993941500,4.27194140625,-2.3291211128234863,-2.598094940185547,0.17555367946624756
1684108355003981600,4.281981689453125,-0.32680177688598633,-1.1714792251586914,-0.5897960662841797
1684108355014022000,4.29202197265625,1.150421380996704,0.057106971740722656,-1.062246561050415
1684108355024062200,4.302062255859375,2.0949716567993164,1.036208152770996,-1.35408353805542
1684108355034102300,4.312102294921875,2.3972394466400146,1.833272933959961,-1.51277756690979
1684108355044142600,4.322142578125,2.205270290374756,2.3933591842651367,-1.506232500076294
1684108355054183000,4.332182861328125,1.829574465751648,2.948460578918457,-1.4934968948364258
1684108355064223200,4.34222314453125,1.2956204414367676,3.264646530151367,-1.5368313789367676
1684108355074263300,4.35226318359375,0.7357165813446045,3.2566232681274414,-1.679205060005188
1684108355084303600,4.3623037109375,0.23402929306030273,2.7839512825012207,-1.8298163414001465
1684108355094344000,4.372343994140625,-0.06555432081222534,1.8062992095947266,-1.8553190231323242
1684108355104384300,4.38238427734375,-0.07962065935134888,0.8778715133666992,-1.621023416519165
1684108355114424600,4.392424560546875,0.07953697443008423,0.25580787658691406,-1.306412696838379
1684108355124464600,4.402464599609375,0.43213021755218506,-0.10366344451904297,-0.9883045554161072
1684108355134505000,4.4125048828125,0.897586464881897,-0.3057594299316406,-0.7667500972747803
1684108355144545300,4.422545166015625,1.3296804428100586,-0.36458396911621094,-0.6055495142936707
1684108355154585600,4.432585693359375,1.6643645763397217,-0.2586250305175781,-0.40529075264930725
1684108355164625700,4.442625732421875,1.8660337924957275,-0.045538902282714844,-0.2283417284488678
1684108355174666000,4.452666015625,1.9608676433563232,0.14545345306396484,-0.2571035921573639
1684108355184706300,4.462706298828125,1.9439209699630737,0.31684207916259766,-0.3911511301994324
1684108355194746400,4.472746337890625,1.767228364944458,0.3516864776611328,-0.6841318607330322
1684108355204786700,4.48278662109375,1.5140728950500488,0.29326820373535156,-0.9298262000083923
1684108355214827000,4.492826904296875,1.2724051475524902,0.32102298736572266,-1.1249394416809082
1684108355224867300,4.502867431640625,1.066756248474121,0.26534557342529297,-1.3525950908660889
1684108355234907600,4.51290771484375,0.9754483103752136,0.18146419525146484,-1.422532081604004
1684108355244947700,4.52294775390625,0.9695127010345459,0.19359207153320312,-1.3667411804199219
1684108355254988000,4.532988037109375,0.9566556215286255,0.19389915466308594,-1.272739291191101
1684108355265028400,4.5430283203125,0.9301011562347412,0.13215160369873047,-1.2366918325424194
1684108355275068700,4.553068603515625,0.9120315909385681,0.027452468872070312,-1.1703691482543945
1684108355285108700,4.563108642578125,0.8702169060707092,-0.06299781799316406,-1.0701329708099365
1684108355295149000,4.573149169921875,0.8232016563415527,-0.1370840072631836,-0.9689279794692993
1684108355305189400,4.583189453125,0.7616002559661865,-0.27623939514160156,-0.9002705812454224
1684108355315229700,4.593229736328125,0.688408374786377,-0.34668827056884766,-0.7441906929016113
1684108355325269800,4.603269775390625,0.5989407300949097,-0.4178352355957031,-0.5856898427009583
1684108355335310000,4.61331005859375,0.5428175330162048,-0.4656085968017578,-0.4828847348690033
1684108355345350400,4.623350341796875,0.4357871115207672,-0.4802436828613281,-0.45393887162208557
1684108355355390700,4.633390625,0.35690104961395264,-0.43528270721435547,-0.45986586809158325
1684108355365431000,4.64343115234375,0.25725317001342773,-0.364105224609375,-0.5714110732078552
1684108355375471000,4.65347119140625,0.23382118344306946,-0.21179962158203125,-0.7321387529373169
1684108355385511400,4.663511474609375,0.3167797923088074,0.10013675689697266,-1.0457961559295654
1684108355395551700,4.6735517578125,0.4510310888290405,0.09837818145751953,-0.8178405165672302
1684108355405592000,4.683592041015625,0.5702337026596069,0.07027626037597656,-0.4429936707019806
1684108355415632100,4.693632080078125,0.6509555578231812,0.11373329162597656,-0.27911412715911865
1684108355425672400,4.70367236328125,0.6989063024520874,0.011139869689941406,-0.1079629510641098
1684108355435712800,4.713712646484375,0.7038178443908691,0.013543128967285156,0.08918938040733337
1684108355445753000,4.723753173828125,0.6750481724739075,-0.02979564666748047,0.3636806309223175
1684108355455793200,4.733793212890625,0.6463818550109863,-0.06621265411376953,0.5448333621025085
1684108355465833500,4.74383349609375,0.6057965159416199,-0.052764892578125,0.7568921446800232
1684108355475873800,4.753873779296875,0.5106276273727417,-0.07315731048583984,0.954073429107666
1684108355485914000,4.7639140625,0.39004427194595337,-0.08430671691894531,1.1243561506271362
1684108355495954200,4.7739541015625,0.261665403842926,-0.07186412811279297,1.3013689517974854
1684108355505994500,4.783994384765625,0.06684917211532593,-0.08118057250976562,1.504170298576355
1684108355516034800,4.794034912109375,-0.1404668688774109,-0.10730934143066406,1.6516540050506592
1684108355526075100,4.8040751953125,-0.3347128629684448,-0.16199779510498047,1.7705934047698975
1684108355536115500,4.814115478515625,-0.4641340970993042,-0.24495601654052734,1.8774763345718384
1684108355546155500,4.824155517578125,-0.5617803335189819,-0.25089073181152344,1.9045078754425049
1684108355556195800,4.83419580078125,-0.5852063894271851,-0.2467670440673828,1.9005056619644165
1684108355566236200,4.844236083984375,-0.6071850061416626,-0.1753101348876953,1.821845293045044
1684108355576276500,4.8542763671875,-0.6362862586975098,-0.10124969482421875,1.6706476211547852
1684108355586316500,4.864316650390625,-0.6377454996109009,0.0016050338745117188,1.5589946508407593
1684108355596356900,4.87435693359375,-0.6526169180870056,-0.029279708862304688,1.3729345798492432
1684108355606397200,4.884397216796875,-0.6738756895065308,-0.07425308227539062,1.2262015342712402
1684108355616437500,4.8944375,-0.7252377271652222,-0.04259300231933594,1.0985476970672607
1684108355626477600,4.9044775390625,-0.775047242641449,0.0010576248168945312,1.0788744688034058
1684108355636518000,4.914517822265625,-0.8009278178215027,0.09020328521728516,1.057098627090454
1684108355646558200,4.92455810546875,-0.811560869216919,0.21524333953857422,0.9814277291297913
1684108355656598500,4.9345986328125,-0.7545155882835388,0.29966163635253906,0.9832924604415894
1684108355666638800,4.944638916015625,-0.6904758214950562,0.4222688674926758,0.9145550727844238
1684108355676679000,4.954678955078125,-0.5489629507064819,0.5326623916625977,0.8831605911254883
1684108355686719200,4.96471923828125,-0.4383430480957031,0.5806188583374023,0.8725224137306213
1684108355696759600,4.974759521484375,-0.3162955641746521,0.5876579284667969,0.8043333888053894
1684108355706799900,4.9847998046875,-0.21221226453781128,0.46784019470214844,0.8217370510101318
1684108355716840200,4.994840087890625,-0.16951525211334229,0.33602237701416016,0.776813805103302
1684108355726880300,5.00488037109375,-0.10494911670684814,0.15869903564453125,0.7895150780677795
1684108355736920600,5.014920654296875,-0.06172013282775879,0.019533157348632812,0.8429320454597473
1684108355746961000,5.0249609375,0.022832155227661133,-0.06237316131591797,0.8861498236656189
1684108355757001200,5.035001220703125,0.07514190673828125,-0.06075763702392578,0.9372619390487671
1684108355767041300,5.045041259765625,0.13577508926391602,-0.09765052795410156,0.981968879699707
1684108355777081600,5.05508154296875,0.0736229419708252,-0.3615865707397461,1.0464322566986084
1684108355787122000,5.065121826171875,-0.1042940616607666,-0.8638086318969727,1.1596195697784424
1684108355797162200,5.075162353515625,-0.3115342855453491,-0.8489761352539062,1.2418787479400635
1684108355807202300,5.085202392578125,-0.42968738079071045,-0.3587627410888672,1.3620681762695312
1684108355817242600,5.09524267578125,-0.5254404544830322,0.01603412628173828,1.3826267719268799
1684108355827283000,5.105282958984375,-0.5673547387123108,0.10149860382080078,1.3347280025482178
1684108355837323300,5.1153232421875,-0.5115488171577454,0.15146446228027344,1.2820966243743896
1684108355847363600,5.125363525390625,-0.4761413335800171,0.13479232788085938,1.3135402202606201
1684108355857404000,5.13540380859375,-0.4272761344909668,0.13500213623046875,1.3758466243743896
1684108355867444000,5.14544384765625,-0.42477136850357056,0.04443168640136719,1.5056757926940918
1684108355877484300,5.155484375,-0.40178442001342773,-0.08187198638916016,1.6199753284454346
1684108355887524600,5.165524658203125,-0.3457323908805847,-0.2945871353149414,1.6863365173339844
1684108355897565000,5.17556494140625,-0.3014497756958008,-0.572296142578125,1.7077085971832275
1684108355907605000,5.18560498046875,-0.26347410678863525,-0.9631290435791016,1.7872343063354492
1684108355917645300,5.195645263671875,-0.27320241928100586,-1.2530994415283203,1.7676773071289062
1684108355927685600,5.205685546875,-0.3047298789024353,-1.4200944900512695,1.770121455192566
1684108355937726000,5.215725830078125,-0.3997355103492737,-1.5200395584106445,1.716651201248169
1684108355947766300,5.225766357421875,-0.44768577814102173,-1.7291011810302734,1.7064143419265747
1684108355957806300,5.235806396484375,-0.4413676857948303,-1.9581842422485352,1.7008001804351807
1684108355967846700,5.2458466796875,-0.40031862258911133,-2.133296012878418,1.6594752073287964
1684108355977887000,5.255886962890625,-0.3924790620803833,-2.1449623107910156,1.5213837623596191
1684108355987927300,5.26592724609375,-0.440151572227478,-1.7981071472167969,1.2671540975570679
1684108355997967400,5.27596728515625,-0.5289691686630249,-1.2586097717285156,0.9342289566993713
1684108356008007700,5.286007568359375,-0.6270778179168701,-0.6869602203369141,0.6734107732772827
1684108356018048000,5.296048095703125,-0.7432398200035095,-0.10945796966552734,0.38380247354507446
1684108356028088300,5.30608837890625,-0.9208582043647766,0.4618806838989258,0.04347121715545654
1684108356038128600,5.316128662109375,-1.185185432434082,0.9959936141967773,-0.3034893274307251
1684108356048168700,5.326168701171875,-1.401649832725525,1.469435691833496,-0.6673052310943604
1684108356058209000,5.336208984375,-1.4584354162216187,1.7731847763061523,-0.9325575828552246
1684108356068249300,5.346249267578125,-1.318164348602295,1.9917736053466797,-1.1154699325561523
1684108356078289700,5.35628955078125,-1.1379142999649048,2.065493583679199,-1.4654064178466797
1684108356088330000,5.366330078125,-1.0042563676834106,1.9342689514160156,-1.9183894395828247
1684108356098370000,5.3763701171875,-1.0109362602233887,1.5929298400878906,-2.449517011642456
1684108356108410400,5.386410400390625,-1.2123138904571533,1.1630582809448242,-3.09751296043396
1684108356118450700,5.39645068359375,-1.506155252456665,0.7948837280273438,-3.7175655364990234
1684108356128491000,5.406490966796875,-1.6630768775939941,0.791569709777832,-3.866234540939331
1684108356138531300,5.41653125,-1.5726635456085205,1.0590553283691406,-3.8116650581359863
1684108356148571400,5.4265712890625,-1.072715163230896,1.1877861022949219,-3.635159969329834
1684108356158611700,5.43661181640625,-0.3033183813095093,1.082169532775879,-3.2192182540893555
1684108356168652000,5.446652099609375,0.4959355592727661,0.4565458297729492,-2.526092767715454
1684108356178692400,5.4566923828125,1.1185506582260132,-0.04437065124511719,-1.5641436576843262
1684108356188732400,5.466732421875,1.5410773754119873,-0.7018098831176758,-0.8502271175384521
1684108356198772700,5.476772705078125,1.662163496017456,-1.3598527908325195,-0.5311583280563354
1684108356208813000,5.48681298828125,1.6149404048919678,-2.04672908782959,-0.30500632524490356
1684108356218853400,5.496853271484375,1.380605697631836,-2.6188459396362305,-0.29401862621307373
1684108356228893700,5.506893798828125,1.0063196420669556,-2.7995500564575195,-0.411685585975647
1684108356238933800,5.516933837890625,0.7464533448219299,-2.699939727783203,-0.6775853633880615
1684108356248974000,5.52697412109375,0.5070446729660034,-2.4690799713134766,-0.9659865498542786
1684108356259014400,5.537014404296875,0.31417834758758545,-1.9976091384887695,-1.2502777576446533
1684108356269054700,5.5470546875,0.06391632556915283,-1.1954612731933594,-1.6147475242614746
1684108356279095000,5.557094970703125,-0.15436744689941406,-0.2687196731567383,-1.903780221939087
1684108356289135400,5.56713525390625,-0.44423699378967285,0.5651397705078125,-2.042651891708374
1684108356299175400,5.577175537109375,-0.727771520614624,1.299056053161621,-2.2029571533203125
1684108356309215700,5.5872158203125,-0.9735218286514282,1.8469457626342773,-2.3340213298797607
1684108356319256000,5.597256103515625,-1.1040611267089844,2.22792387008667,-2.3861498832702637
1684108356329296400,5.60729638671875,-1.0116528272628784,2.420466423034668,-2.388361930847168
1684108356339336700,5.617336669921875,-0.7862892150878906,2.355454444885254,-2.3849925994873047
1684108356349376800,5.627376708984375,-0.47895824909210205,2.1361451148986816,-2.303847312927246
1684108356359417000,5.6374169921875,-0.15416491031646729,1.8994770050048828,-1.9721801280975342
1684108356369457400,5.64745751953125,0.11890101432800293,1.6699562072753906,-1.5768518447875977
1684108356379497700,5.657497802734375,0.36710333824157715,1.5101070404052734,-1.263422966003418
1684108356389537800,5.667537841796875,0.591386079788208,1.2528295516967773,-1.076310634613037
1684108356399578000,5.677578125,0.7839398980140686,1.0728445053100586,-0.8453371524810791
1684108356409618400,5.687618408203125,0.8397301435470581,0.8960952758789062,-0.655769407749176
1684108356419658800,5.69765869140625,0.679115891456604,0.7129449844360352,-0.506486713886261
1684108356429699000,5.707698974609375,0.4377375841140747,0.5542201995849609,-0.35193032026290894
1684108356439739100,5.7177392578125,0.2663087844848633,0.43651294708251953,-0.21043908596038818
1684108356449779500,5.727779541015625,0.282228946685791,0.3433570861816406,0.03300011157989502
1684108356459819800,5.73781982421875,0.33660662174224854,0.35637950897216797,0.21946728229522705
1684108356469860000,5.747860107421875,0.46771466732025146,0.46854496002197266,0.3555649518966675
1684108356479900400,5.757900390625,0.6456881761550903,0.6176977157592773,0.44501346349716187
1684108356489940500,5.7679404296875,0.7419126033782959,0.6699352264404297,0.4715554416179657
1684108356499980800,5.777980712890625,0.8461133241653442,0.7160873413085938,0.4991014003753662
1684108356510021000,5.788021240234375,0.9071371555328369,0.7129621505737305,0.5769258141517639
1684108356520061400,5.7980615234375,0.8626396656036377,0.7080621719360352,0.749691367149353
1684108356530101800,5.808101806640625,0.603486180305481,0.6912345886230469,0.837947428226471
1684108356540142000,5.81814208984375,0.2950323820114136,0.7169246673583984,0.9540266990661621
1684108356550182100,5.82818212890625,-0.0017862319946289062,0.8086709976196289,1.059563159942627
1684108356560222500,5.838222412109375,-0.2295684814453125,0.8778295516967773,1.0983269214630127
1684108356570262800,5.8482626953125,-0.38651132583618164,0.9626131057739258,1.115005373954773
1684108356580303000,5.85830322265625,-0.48804807662963867,0.9460287094116211,1.1277928352355957
1684108356590343400,5.868343505859375,-0.5526442527770996,0.9217805862426758,1.2133777141571045
1684108356600383500,5.878383544921875,-0.7352409362792969,0.8283300399780273,1.4110195636749268
1684108356610423800,5.888423828125,-0.9085838794708252,0.699946403503418,1.58431077003479
1684108356620464000,5.898464111328125,-1.131425380706787,0.4990711212158203,1.8358515501022339
1684108356630504400,5.90850439453125,-1.3762640953063965,0.18111419677734375,2.2100489139556885
1684108356640544800,5.918544677734375,-1.5381786823272705,-0.11961174011230469,2.5919511318206787
1684108356650584800,5.928584716796875,-1.5117504596710205,-0.33642101287841797,2.926668167114258
1684108356660625200,5.938625244140625,-1.3260211944580078,-0.3151731491088867,3.1744675636291504
1684108356670665500,5.94866552734375,-1.0117239952087402,-0.10770893096923828,3.3684966564178467
1684108356680705800,5.958705810546875,-0.6993520259857178,0.21750926971435547,3.3169989585876465
1684108356690746000,5.96874609375,-0.4955875873565674,0.5231266021728516,3.143044948577881
1684108356700786400,5.978786376953125,-0.3733837604522705,0.6084480285644531,2.8236515522003174
1684108356710826500,5.988826416015625,-0.35054516792297363,0.5419349670410156,2.4519598484039307
1684108356720866800,5.99886669921875,-0.47305822372436523,0.43309688568115234,2.0400164127349854
1684108356730907100,6.0089072265625,-0.8236031532287598,0.3142871856689453,1.3510982990264893
1684108356740947500,6.018947509765625,-1.2018568515777588,0.26215648651123047,0.5983650088310242
1684108356750987800,6.02898779296875,-1.5467605590820312,0.14952945709228516,-0.008517265319824219
1684108356761027800,6.03902783203125,-1.7696750164031982,0.03836345672607422,-0.48191648721694946
1684108356771068200,6.049068115234375,-1.7800405025482178,-0.1402273178100586,-0.8589615225791931
1684108356781108500,6.0591083984375,-1.4810879230499268,-0.3521718978881836,-1.2121367454528809
1684108356791148800,6.069148681640625,-1.1138722896575928,-0.6259517669677734,-1.504478096961975
1684108356801189000,6.079189208984375,-0.9611859321594238,-0.8376893997192383,-1.6175944805145264
1684108356811229200,6.089229248046875,-1.002040147781372,-0.852198600769043,-1.7524521350860596
1684108356821269500,6.09926953125,-0.912574052810669,-0.656306266784668,-1.8271327018737793
1684108356831309800,6.109309814453125,-0.535983681678772,-0.5326910018920898,-1.7495629787445068
1684108356841350100,6.11935009765625,-0.1390167474746704,-0.5459842681884766,-1.7083849906921387
1684108356851390500,6.129390380859375,0.21842527389526367,-0.6151208877563477,-1.4734671115875244
1684108356861430800,6.1394306640625,0.40277326107025146,-0.38715076446533203,-1.5225979089736938
1684108356871470800,6.149470947265625,0.42508649826049805,-0.32174205780029297,-1.5391135215759277
1684108356881511200,6.15951123046875,0.2127394676208496,-0.5735445022583008,-1.4576847553253174
1684108356891551500,6.169551513671875,-0.23023450374603271,-1.2486629486083984,-1.1926051378250122
1684108356901591800,6.179591796875,-0.8538562059402466,-2.104050636291504,-0.8316143751144409
1684108356911632100,6.189632080078125,-1.7451566457748413,-2.5846776962280273,-0.4553258419036865
1684108356921672400,6.19967236328125,-2.5490012168884277,-2.2375879287719727,-0.15502393245697021
1684108356931712500,6.20971240234375,-2.68093204498291,-0.8427553176879883,-0.14892756938934326
1684108356941752800,6.2197529296875,-2.1235294342041016,0.6753683090209961,-0.5373427867889404
1684108356951793200,6.229793212890625,-1.2858047485351562,1.8384923934936523,-1.0776978731155396
1684108356961833500,6.23983349609375,-0.28288471698760986,2.401278018951416,-1.6024293899536133
1684108356971873800,6.249873779296875,0.7510839104652405,2.2725071907043457,-1.7205443382263184
1684108356981914000,6.2599140625,1.4942060708999634,1.9654922485351562,-1.8389415740966797
1684108356991954200,6.2699541015625,1.826331615447998,1.5142488479614258,-1.9692912101745605
1684108357001994500,6.279994384765625,1.8612617254257202,1.1700382232666016,-1.849023699760437
1684108357012034800,6.290034912109375,1.7112497091293335,0.9682931900024414,-1.8364840745925903
1684108357022075100,6.3000751953125,1.4890384674072266,0.7005090713500977,-1.7556085586547852
1684108357032115500,6.310115478515625,1.2178184986114502,0.5072717666625977,-1.5534071922302246
1684108357042155500,6.320155517578125,0.8925953507423401,0.5047836303710938,-1.2137960195541382
1684108357052195800,6.33019580078125,0.5251516699790955,0.47448158264160156,-0.6054019927978516
1684108357062236200,6.340236083984375,0.1986062228679657,0.30159759521484375,0.16849946975708008
1684108357072276500,6.3502763671875,-0.01063549518585205,0.19007301330566406,0.9005901217460632
1684108357082316800,6.36031689453125,-0.08168685436248779,0.23583412170410156,1.1815460920333862
1684108357092357000,6.370357177734375,0.12360185384750366,0.2714204788208008,1.1282581090927124
1684108357102397200,6.380397216796875,0.5400591492652893,0.1608123779296875,0.9009029865264893
1684108357112437500,6.3904375,0.9621745347976685,0.038331031799316406,0.6056836247444153
1684108357122477800,6.400477783203125,1.2958217859268188,0.014184951782226562,0.3190303444862366
1684108357132518100,6.41051806640625,1.5073703527450562,0.016733169555664062,0.20078420639038086
1684108357142558500,6.420558349609375,1.660905122756958,0.01491546630859375,0.12658751010894775
1684108357152598800,6.430598876953125,1.6851646900177002,-0.010481834411621094,0.14680707454681396
1684108357162638800,6.440638916015625,1.610212802886963,-0.07392597198486328,0.16332387924194336
1684108357172679200,6.45067919921875,1.5186643600463867,-0.0726776123046875,0.21842849254608154
1684108357182719500,6.460719482421875,1.4672075510025024,0.1028585433959961,0.15010511875152588
1684108357192759800,6.470759765625,1.4324581623077393,0.22775840759277344,0.15223538875579834
1684108357202800000,6.480800048828125,1.4208881855010986,0.2664031982421875,0.13122129440307617
1684108357212840400,6.49084033203125,1.4240479469299316,0.2070913314819336,0.096657395362854
1684108357222880500,6.500880615234375,1.3902846574783325,0.14558124542236328,0.07024550437927246
1684108357232920800,6.5109208984375,1.2638108730316162,-0.061519622802734375,-0.023729443550109863
1684108357242961200,6.520961181640625,1.1022825241088867,-0.0799407958984375,-0.2319645881652832
1684108357253001500,6.53100146484375,0.9314723014831543,-0.14659690856933594,-0.3225759267807007
1684108357263041800,6.541041748046875,0.765009880065918,-0.19391250610351562,-0.3272291421890259
1684108357273081900,6.551081787109375,0.5944327116012573,-0.18831920623779297,-0.3887521028518677
1684108357283122200,6.5611220703125,0.39743945002555847,-0.011000633239746094,-0.5768088102340698
1684108357293162500,6.57116259765625,0.2934490740299225,0.012542724609375,-0.6293584108352661
1684108357303202800,6.581202880859375,0.2849489152431488,0.050201416015625,-0.4214991331100464
1684108357313243100,6.5912431640625,0.42380276322364807,0.16416263580322266,-0.29581499099731445
1684108357323283500,6.601283447265625,0.5705416202545166,0.2298870086669922,-0.13409340381622314
1684108357333323500,6.611323486328125,0.7122849225997925,0.21645832061767578,0.019724130630493164
1684108357343363800,6.62136376953125,0.8223665952682495,0.18143749237060547,0.19064581394195557
1684108357353404200,6.631404052734375,0.865107536315918,0.12966537475585938,0.2822469472885132
1684108357363444500,6.641444580078125,0.8800862431526184,0.1137228012084961,0.39920008182525635
1684108357373484800,6.65148486328125,0.8098454475402832,0.06902503967285156,0.43145692348480225
1684108357383525000,6.661525146484375,0.7293599843978882,0.05054950714111328,0.49405765533447266
1684108357393565400,6.6715654296875,0.5826016664505005,0.015178680419921875,0.5257076025009155
1684108357403605500,6.68160546875,0.4403979182243347,0.02505779266357422,0.5340402722358704
1684108357413645800,6.691645751953125,0.31606608629226685,0.027591705322265625,0.5527461171150208
1684108357423686100,6.70168603515625,0.1990489959716797,0.06585311889648438,0.5605496764183044
1684108357433726500,6.7117265625,0.12122106552124023,0.06819915771484375,0.5454211235046387
1684108357443766800,6.721766845703125,0.07559394836425781,0.02527332305908203,0.5522605776786804
1684108357453807000,6.73180712890625,0.0930490493774414,-0.03175926208496094,0.5142087936401367
1684108357463847200,6.74184716796875,0.1322089433670044,-0.045566558837890625,0.5316362380981445
1684108357473887500,6.751887451171875,0.18968075513839722,-0.040187835693359375,0.5517838597297668
1684108357483927800,6.761927734375,0.22615575790405273,-0.03002452850341797,0.5742930769920349
1684108357493968100,6.771968017578125,0.25507980585098267,0.0063304901123046875,0.5919973254203796
1684108357504008400,6.782008544921875,0.26432323455810547,0.06156444549560547,0.5744060277938843
1684108357514048800,6.792048828125,0.265857994556427,0.00188446044921875,0.6219555735588074
1684108357524088800,6.8020888671875,0.2246004343032837,0.06160259246826172,0.608417272567749
1684108357534129200,6.812129150390625,0.16300487518310547,0.10907554626464844,0.6299476623535156
1684108357544169500,6.82216943359375,0.14086174964904785,0.1538543701171875,0.6795920729637146
1684108357554209800,6.832209716796875,0.11292922496795654,0.1248626708984375,0.7298938632011414
1684108357564250000,6.84225,0.08761006593704224,0.14088726043701172,0.8088024854660034
1684108357574290400,6.85229052734375,0.06462407112121582,0.09762001037597656,0.8589527606964111
1684108357584330800,6.862330810546875,0.03205019235610962,0.0666513442993164,0.9115334749221802
1684108357594370800,6.872370849609375,-0.017053604125976562,0.0571746826171875,0.9242171049118042
1684108357604411100,6.8824111328125,-0.01658642292022705,0.05469036102294922,0.9589183330535889
1684108357614451500,6.892451416015625,-0.0588800311088562,0.01676654815673828,1.0526468753814697
1684108357624491800,6.90249169921875,-0.0697469711303711,-0.011228561401367188,1.0749832391738892
1684108357634532000,6.912531982421875,-0.06796592473983765,0.015237808227539062,1.0959672927856445
1684108357644572400,6.922572509765625,-0.07466214895248413,0.08352851867675781,1.1484941244125366
1684108357654612500,6.932612548828125,-0.05720686912536621,0.18584156036376953,1.1872645616531372
1684108357664652800,6.94265283203125,-0.08724313974380493,0.22507858276367188,1.188586711883545
1684108357674693000,6.952693115234375,-0.21105128526687622,-0.0047588348388671875,1.2346057891845703
1684108357684733400,6.9627333984375,-0.3605496287345886,-0.5293645858764648,1.2560772895812988
1684108357694773800,6.972773681640625,-0.4593154191970825,-0.20008277893066406,1.0967849493026733
1684108357704814000,6.98281396484375,-0.518692135810852,0.26471614837646484,1.0871398448944092
1684108357714854400,6.9928544921875,-0.4671766757965088,0.3383369445800781,1.1017242670059204
1684108357724894500,7.00289453125,-0.38650184869766235,0.2205524444580078,1.0633962154388428
1684108357734934800,7.012934814453125,-0.2828415632247925,0.08865165710449219,1.0013823509216309
1684108357744975000,7.02297509765625,-0.1862109899520874,-0.021974563598632812,0.979762852191925
1684108357755015400,7.033015380859375,-0.10700249671936035,-0.1823740005493164,0.917510986328125
1684108357765055700,7.0430556640625,-0.0454440712928772,-0.26703739166259766,0.8862550258636475
1684108357775096000,7.053095947265625,-0.023040354251861572,-0.399688720703125,0.7935552000999451
1684108357785136400,7.063136474609375,-0.05350440740585327,-0.43348026275634766,0.769182026386261
1684108357795176400,7.073176513671875,-0.08353137969970703,-0.43833160400390625,0.8242197036743164
1684108357805216800,7.083216796875,-0.11389929056167603,-0.4170827865600586,0.9843159317970276
1684108357815257000,7.093257080078125,-0.09142988920211792,-0.5395174026489258,1.1486949920654297
1684108357825297400,7.10329736328125,-0.04226869344711304,-0.6429176330566406,1.3443320989608765
1684108357835337700,7.113337646484375,0.0467759370803833,-0.9322500228881836,1.4727333784103394
1684108357845378000,7.1233779296875,0.13475972414016724,-1.223318099975586,1.5793222188949585
1684108357855418400,7.13341845703125,0.23869550228118896,-1.5895910263061523,1.5548189878463745
1684108357865458400,7.14345849609375,0.2692415714263916,-1.9432430267333984,1.5555602312088013
1684108357875498800,7.153498779296875,0.12523841857910156,-2.1173038482666016,1.511953592300415
1684108357885539000,7.1635390625,-0.17969459295272827,-2.094594955444336,1.372454285621643
1684108357895579400,7.173579345703125,-0.45841193199157715,-2.143095016479492,1.271309494972229
1684108357905619700,7.18361962890625,-0.6318014860153198,-2.178622245788574,1.2183560132980347
1684108357915660000,7.193659912109375,-0.7501453757286072,-2.191267967224121,1.300681710243225
1684108357925700400,7.203700439453125,-0.8641815185546875,-1.9445915222167969,1.3234479427337646
1684108357935740400,7.213740478515625,-0.9792463183403015,-1.4517183303833008,1.2024993896484375
1684108357945780700,7.22378076171875,-1.1416137218475342,-0.8835468292236328,0.9555449485778809
1684108357955821000,7.233821044921875,-1.3837727308273315,-0.2929830551147461,0.7016007304191589
1684108357965861400,7.243861328125,-1.479772686958313,0.28697872161865234,0.6527627110481262
1684108357975901700,7.253901611328125,-1.5045952796936035,0.7732257843017578,0.608322024345398
1684108357985942000,7.26394189453125,-1.5105023384094238,1.2016363143920898,0.45714569091796875
1684108357995982300,7.273982421875,-1.614603042602539,1.4764127731323242,0.21317839622497559
1684108358006022700,7.284022705078125,-1.6447515487670898,1.5714178085327148,-0.07577180862426758
1684108358016062700,7.294062744140625,-1.5745937824249268,1.5945053100585938,-0.3255819082260132
1684108358026103000,7.30410302734375,-1.345300316810608,1.5554237365722656,-0.4533921480178833
1684108358036143400,7.314143310546875,-1.0398306846618652,1.5760650634765625,-0.48547840118408203
1684108358046183700,7.32418359375,-0.7525357007980347,1.6560802459716797,-0.5507208108901978
1684108358056224000,7.33422412109375,-0.5456595420837402,1.795013427734375,-0.792535662651062
1684108358066264300,7.344264404296875,-0.36025214195251465,1.7178983688354492,-0.9666534662246704
1684108358076304400,7.354304443359375,-0.17182642221450806,1.5996322631835938,-1.069140076637268
1684108358086344700,7.3643447265625,0.11418360471725464,1.523819923400879,-1.2453176975250244
1684108358096385000,7.374385009765625,0.3946768343448639,1.301497459411621,-1.5122649669647217
1684108358106425300,7.38442529296875,0.6675273180007935,0.9375753402709961,-1.800478458404541
1684108358116465700,7.394465576171875,0.9424824714660645,0.38213348388671875,-2.0437116622924805
1684108358126506000,7.404506103515625,1.2281415462493896,-0.25691699981689453,-2.3736581802368164
1684108358136546300,7.41454638671875,1.5127899646759033,-0.8287944793701172,-2.696341037750244
1684108358146586400,7.42458642578125,1.6956634521484375,-1.3643388748168945,-2.992725372314453
1684108358156626700,7.434626708984375,1.8091349601745605,-1.8772544860839844,-3.1336522102355957
1684108358166667000,7.4446669921875,1.7445814609527588,-2.3428220748901367,-3.209557056427002
1684108358176707300,7.454707275390625,1.518265724182129,-2.743536949157715,-3.1521482467651367
1684108358186747600,7.46474755859375,1.0928444862365723,-2.758896827697754,-3.051182508468628
1684108358196788000,7.4747880859375,0.521267831325531,-2.0461883544921875,-2.817318916320801
1684108358206828300,7.484828369140625,-0.1825007200241089,-1.0213556289672852,-2.5648622512817383
1684108358216868600,7.49486865234375,-0.8215901851654053,-0.20441246032714844,-2.219606637954712
1684108358226908700,7.50490869140625,-1.2834386825561523,0.40431785583496094,-1.8658719062805176
1684108358236949000,7.514948974609375,-1.4791849851608276,0.9360589981079102,-1.6133508682250977
1684108358246989300,7.5249892578125,-1.3831719160079956,1.3930721282958984,-1.475043535232544
1684108358257029600,7.535029541015625,-1.066048264503479,1.8281402587890625,-1.417839765548706
1684108358267070000,7.545070068359375,-0.6507062911987305,2.0530176162719727,-1.2933166027069092
1684108358277110300,7.5551103515625,-0.17042934894561768,2.085488796234131,-1.3179819583892822
1684108358287150600,7.565150634765625,0.24876737594604492,2.0507445335388184,-1.3367812633514404
1684108358297191000,7.57519091796875,0.5771194696426392,1.9185032844543457,-1.2683374881744385
1684108358307231000,7.58523095703125,0.8242980241775513,1.7516021728515625,-1.199040412902832
1684108358317271300,7.595271240234375,0.9849337339401245,1.5861597061157227,-1.2562443017959595
1684108358327311600,7.6053115234375,1.0035252571105957,1.4554061889648438,-1.3221747875213623
1684108358337352000,7.61535205078125,0.8757184147834778,1.3136091232299805,-1.3674191236495972
1684108358347392300,7.625392333984375,0.635817289352417,1.2058324813842773,-1.4323047399520874
1684108358357432600,7.6354326171875,0.2703343629837036,1.0980396270751953,-1.5628563165664673
1684108358367473000,7.645472900390625,-0.13905620574951172,1.003976821899414,-1.668745994567871
1684108358377513200,7.65551318359375,-0.5935970544815063,0.7943639755249023,-1.5903583765029907
1684108358387553500,7.665553466796875,-1.073325514793396,0.5959491729736328,-1.3321259021759033
1684108358397593600,7.675593505859375,-1.2571264505386353,0.3969573974609375,-0.924569308757782
1684108358407634000,7.685634033203125,-1.0023829936981201,0.3461771011352539,-0.5017426013946533
1684108358417674200,7.69567431640625,-0.675990104675293,0.28412723541259766,-0.13052475452423096
1684108358427714600,7.705714599609375,-0.45973336696624756,0.21375083923339844,0.1671723872423172
1684108358437755000,7.7157548828125,-0.3049161434173584,0.1302175521850586,0.3584984540939331
1684108358447795200,7.725795166015625,-0.1923145055770874,0.2409200668334961,0.5542131662368774
1684108358457835500,7.73583544921875,-0.0717017650604248,0.37299442291259766,0.7548972368240356
1684108358467875600,7.74587548828125,-0.0010747909545898438,0.6072168350219727,0.8210349082946777
1684108358477916000,7.755916015625,0.037750840187072754,0.7280826568603516,0.8120042681694031
1684108358487956200,7.765956298828125,0.09580743312835693,0.7953500747680664,0.8109508752822876
1684108358497996500,7.77599658203125,0.1631544828414917,0.6849584579467773,0.8405793905258179
1684108358508036900,7.786036865234375,0.2286285161972046,0.48836326599121094,0.9154031872749329
1684108358518077200,7.7960771484375,0.1639798879623413,0.23473358154296875,0.9278388023376465
1684108358528117500,7.806117431640625,0.028107643127441406,0.12746047973632812,0.9647336006164551
1684108358538157800,7.81615771484375,-0.09644007682800293,0.2644519805908203,0.9728572368621826
1684108358548198000,7.826197998046875,-0.2294905185699463,0.4710397720336914,0.9880738854408264
1684108358558238200,7.83623828125,-0.41187381744384766,0.6182756423950195,1.0226798057556152
1684108358568278500,7.846278564453125,-0.555840015411377,0.661290168762207,1.1956053972244263
1684108358578318800,7.85631884765625,-0.6142184734344482,0.6364946365356445,1.4607195854187012
1684108358588359200,7.866359130859375,-0.6031930446624756,0.6204357147216797,1.7211661338806152
1684108358598399500,7.8763994140625,-0.5622091293334961,0.6008319854736328,1.9087491035461426
1684108358608439800,7.886439697265625,-0.5120227336883545,0.5605850219726562,1.9054408073425293
1684108358618480000,7.896480224609375,-0.4278104305267334,0.5565481185913086,1.7716898918151855
1684108358628520400,7.9065205078125,-0.3538541793823242,0.6216678619384766,1.472165584564209
1684108358638560500,7.916560546875,-0.2828545570373535,0.5983772277832031,1.189365267753601
1684108358648600800,7.926600830078125,-0.23360931873321533,0.5539417266845703,0.6516690850257874
1684108358658641200,7.93664111328125,-0.37909674644470215,0.46663665771484375,0.04623246192932129
1684108358668681500,7.946681396484375,-0.6221810579299927,0.2956352233886719,-0.5653745532035828
1684108358678721800,7.9567216796875,-0.9555530548095703,0.043425559997558594,-1.137730598449707
1684108358688762000,7.96676220703125,-1.1717311143875122,-0.16280460357666016,-1.6128323078155518
1684108358698802400,7.976802490234375,-1.2950695753097534,-0.16217041015625,-1.7470502853393555
1684108358708842800,7.9868427734375,-1.5267314910888672,0.0024080276489257812,-1.6233925819396973
1684108358718883000,7.996883056640625,-1.728832483291626,0.40166473388671875,-1.4832797050476074
1684108358728923100,8.006923095703126,-1.7334413528442383,0.6974020004272461,-1.2277185916900635
1684108358738963500,8.01696337890625,-1.5218030214309692,0.5478591918945312,-0.9292041063308716
1684108358749003800,8.027003662109376,-1.17069411277771,0.04974365234375,-0.7241693139076233
1684108358759044000,8.037044189453125,-0.887235164642334,-0.5568227767944336,-0.5657327175140381
1684108358769084400,8.04708447265625,-0.8045389652252197,-1.087209701538086,-0.6113944053649902
1684108358779124700,8.057124755859375,-0.8383439779281616,-1.527383804321289,-0.7981727719306946
1684108358789165000,8.0671650390625,-0.8587055206298828,-1.794753074645996,-0.9632443785667419
1684108358799205400,8.077205322265625,-1.0061964988708496,-1.9529390335083008,-1.061071515083313
1684108358809245700,8.08724560546875,-1.4584208726882935,-1.9411659240722656,-1.1890760660171509
1684108358819285800,8.09728564453125,-2.3119606971740723,-1.7007274627685547,-1.1832796335220337
1684108358829326000,8.107326171875,-2.9414567947387695,-1.3346185684204102,-0.5065878629684448
1684108358839366400,8.117366455078125,-2.4445714950561523,-1.216731071472168,0.20215564966201782
1684108358849406700,8.12740673828125,-1.2691147327423096,-1.060140609741211,0.747585117816925
1684108358859447000,8.137447021484375,-0.10154592990875244,-0.5981769561767578,1.205373764038086
1684108358869487400,8.1474873046875,0.9471562504768372,0.14028453826904297,1.6870262622833252
1684108358879527700,8.157527587890625,1.7141661643981934,0.8053665161132812,1.8538291454315186
1684108358889568000,8.167568115234374,2.313202381134033,1.1619758605957031,1.4800467491149902
1684108358899608300,8.1776083984375,2.7602686882019043,1.2072534561157227,0.7190263271331787
1684108358909648600,8.187648681640624,3.0017690658569336,1.022695541381836,-0.0904545783996582
1684108358919688700,8.197688720703125,2.8757376670837402,0.7664985656738281,-0.7308160066604614
1684108358929729000,8.20772900390625,2.6233792304992676,0.653843879699707,-1.2088801860809326
1684108358939769300,8.217769287109375,2.404019832611084,0.6203060150146484,-1.3762671947479248
1684108358949809700,8.2278095703125,2.1571855545043945,0.7332992553710938,-1.5135538578033447
1684108358959850000,8.23785009765625,1.6537002325057983,0.924504280090332,-1.7777490615844727
1684108358969890300,8.247890380859374,0.7132600545883179,1.0041475296020508,-2.1823244094848633
1684108358979930600,8.2579306640625,-0.6610722541809082,0.862248420715332,-2.6898245811462402
1684108358989971000,8.267970947265624,-2.1846208572387695,0.6038570404052734,-2.8018126487731934
1684108359000011000,8.278010986328125,-3.0265259742736816,0.5006694793701172,-2.441080093383789
1684108359010051300,8.28805126953125,-2.6936774253845215,0.41739845275878906,-1.922879934310913
1684108359020091600,8.298091552734375,-1.5429739952087402,0.2520179748535156,-1.4173040390014648
1684108359030132000,8.308132080078124,-0.12089014053344727,-0.010575294494628906,-1.0715490579605103
1684108359040172300,8.31817236328125,1.0191550254821777,0.08235931396484375,-0.9191579818725586
1684108359050212600,8.328212646484374,1.7589755058288574,0.2776050567626953,-0.8289203643798828
1684108359060253000,8.3382529296875,2.1061997413635254,0.5134162902832031,-0.7234944105148315
1684108359070293200,8.348293212890624,2.1926474571228027,0.6706819534301758,-0.5704261064529419
1684108359080333600,8.35833349609375,2.0731451511383057,0.7878379821777344,-0.4544776678085327
1684108359090374000,8.368373779296874,1.7987747192382812,0.7117652893066406,-0.3586161136627197
1684108359100414200,8.378414306640625,1.4871716499328613,0.530735969543457,-0.3197401762008667
1684108359110454500,8.38845458984375,1.1995705366134644,0.36884307861328125,-0.3514366149902344
1684108359120494600,8.39849462890625,0.9349214434623718,0.22829532623291016,-0.2813727855682373
1684108359130535000,8.408534912109374,0.683650553226471,0.030228614807128906,-0.24140465259552002
1684108359140575200,8.4185751953125,0.35134655237197876,-0.1917581558227539,-0.17718863487243652
1684108359150615600,8.428615478515624,0.04980342090129852,-0.3109016418457031,-0.09751713275909424
1684108359160656000,8.43865576171875,-0.17932385206222534,-0.3200550079345703,-0.06134939193725586
1684108359170696200,8.4486962890625,-0.20416982471942902,-0.27662086486816406,-0.047336578369140625
1684108359180736500,8.458736572265625,-0.032172661274671555,-0.22123336791992188,-0.07376694679260254
1684108359190776800,8.46877685546875,0.3605417013168335,-0.10376262664794922,-0.04887557029724121
1684108359200817200,8.478817138671875,0.8218654990196228,-0.06039237976074219,0.0003679990768432617
1684108359210857200,8.488857177734374,1.2490164041519165,-0.047812461853027344,0.04407155513763428
1684108359220897500,8.4988974609375,1.5638704299926758,-0.037227630615234375,0.11269748210906982
1684108359230937900,8.508937744140624,1.7356116771697998,0.0405731201171875,0.13248658180236816
1684108359240978200,8.518978271484375,1.8144800662994385,0.10177326202392578,0.14198803901672363
1684108359251018500,8.5290185546875,1.7453863620758057,0.1367349624633789,0.11289858818054199
1684108359261058800,8.539058837890625,1.575864553451538,0.1357736587524414,0.07002604007720947
1684108359271099100,8.54909912109375,1.2924790382385254,0.1823406219482422,0.06717431545257568
1684108359281139500,8.559139404296875,1.0128096342086792,0.2188405990600586,-0.025963902473449707
1684108359291179800,8.5691796875,0.709918737411499,0.30255126953125,-0.14664411544799805
1684108359301220000,8.57922021484375,0.43039751052856445,0.4189748764038086,-0.29420554637908936
1684108359311260400,8.589260498046874,0.14438393712043762,0.4486103057861328,-0.4585329294204712
1684108359321300500,8.599300537109375,-0.16040480136871338,0.3296184539794922,-0.6031148433685303
1684108359331340800,8.6093408203125,-0.42733439803123474,0.23193836212158203,-0.7316850423812866
1684108359341381000,8.619381103515625,-0.6356617212295532,0.2009725570678711,-0.7790694236755371
1684108359351421400,8.62942138671875,-0.7866027355194092,0.2438526153564453,-0.7620426416397095
1684108359361461800,8.639461669921875,-0.8600643873214722,0.26978302001953125,-0.7500625848770142
1684108359371502000,8.649502197265624,-0.8061939477920532,0.2765321731567383,-0.5670351982116699
1684108359381542400,8.65954248046875,-0.6531577110290527,0.218780517578125,-0.3263200521469116
1684108359391582700,8.669582763671874,-0.4438626766204834,0.17539691925048828,-0.10938048362731934
1684108359401623000,8.679623046875,-0.2589324712753296,0.053154945373535156,0.14300137758255005
1684108359411663400,8.689663330078124,-0.07845240831375122,-0.09280014038085938,0.3698351979255676
1684108359421703700,8.69970361328125,0.04818987846374512,-0.10483264923095703,0.594428300857544
1684108359431744000,8.709743896484374,0.16912978887557983,-0.07885551452636719,0.7849506139755249
1684108359441784300,8.719784423828125,0.2280815839767456,-0.0269317626953125,0.8978637456893921
1684108359451824400,8.729824462890624,0.23484468460083008,-0.07080745697021484,0.9991799592971802
1684108359461864700,8.73986474609375,0.15689468383789062,-0.1361827850341797,1.0579910278320312
1684108359471905000,8.749905029296874,0.04349994659423828,-0.17278289794921875,1.1365524530410767
1684108359481945300,8.7599453125,-0.10858577489852905,-0.21402740478515625,1.1394199132919312
1684108359491985700,8.769985595703124,-0.28166553378105164,-0.20258522033691406,1.1699869632720947
1684108359502026000,8.78002587890625,-0.4987105131149292,-0.20058536529541016,1.192224144935608
1684108359512066300,8.79006640625,-0.6723434925079346,-0.14807891845703125,1.1623497009277344
1684108359522106600,8.800106689453125,-0.8388906717300415,-0.1118154525756836,1.041836142539978
1684108359532147000,8.81014697265625,-0.9226000308990479,-0.06779670715332031,0.8388838768005371
1684108359542187300,8.820187255859375,-0.897292971611023,-0.02569866180419922,0.6502974629402161
1684108359552227600,8.8302275390625,-0.7647926211357117,0.08599281311035156,0.4761148691177368
1684108359562267600,8.840267578125,-0.5941519141197205,0.2071523666381836,0.3217344284057617
1684108359572308000,8.850307861328124,-0.44911980628967285,0.25868797302246094,0.1856858730316162
1684108359582348300,8.860348388671875,-0.2923532724380493,0.2740516662597656,0.15449190139770508
1684108359592388600,8.870388671875,-0.19333243370056152,0.2484750747680664,0.20688557624816895
1684108359602429000,8.880428955078125,-0.07512658834457397,0.23698902130126953,0.29028046131134033
1684108359612469200,8.89046923828125,0.03619426488876343,0.20612335205078125,0.3903696537017822
1684108359622509600,8.900509521484375,0.16427499055862427,0.19412612915039062,0.49023866653442383
1684108359632550000,8.9105498046875,0.2863579988479614,0.20563411712646484,0.5586429834365845
1684108359642590200,8.920590087890625,0.41755253076553345,0.29062461853027344,0.6193227767944336
1684108359652630500,8.930630615234374,0.48019176721572876,0.3317575454711914,0.6867940425872803
1684108359662670800,8.9406708984375,0.5053679943084717,0.3410463333129883,0.7157039642333984
1684108359672711200,8.950711181640624,0.4894547462463379,0.3210582733154297,0.7847080826759338
1684108359682751500,8.96075146484375,0.4480549097061157,0.22420978546142578,0.7979875802993774
1684108359692791600,8.97079150390625,0.42000287771224976,0.12720584869384766,0.8412122130393982
1684108359702831900,8.980831787109375,0.39072567224502563,0.11368370056152344,0.8683772683143616
1684108359712872200,8.9908720703125,0.32621800899505615,0.09505653381347656,0.8958948254585266
1684108359722912500,9.00091259765625,0.28130030632019043,0.11441898345947266,0.8632790446281433
1684108359732952800,9.010952880859374,0.20885097980499268,0.07146072387695312,0.8445445895195007
1684108359742993200,9.0209931640625,0.17188286781311035,-0.07415485382080078,0.8036823272705078
1684108359753033500,9.031033447265624,0.14215576648712158,-0.1907482147216797,0.7429888248443604
1684108359763073800,9.04107373046875,0.11471319198608398,-0.3285255432128906,0.7411768436431885
1684108359773114000,9.051114013671874,0.07698392868041992,-0.4205665588378906,0.6664141416549683
1684108359783154400,9.061154541015625,0.007305741310119629,-0.4240579605102539,0.6218229532241821
1684108359793194800,9.07119482421875,-0.07677894830703735,-0.40128231048583984,0.5550857782363892
1684108359803235000,9.081235107421875,-0.1547846794128418,-0.3641786575317383,0.5288304090499878
1684108359813275400,9.091275390625,-0.19628524780273438,-0.37714195251464844,0.5291274785995483
1684108359823315700,9.101315673828125,-0.21691745519638062,-0.42321014404296875,0.5584748983383179
1684108359833355800,9.111355712890624,-0.15695154666900635,-0.5022487640380859,0.5879852771759033
1684108359843396000,9.12139599609375,-0.08700037002563477,-0.5951070785522461,0.6243642568588257
1684108359853436400,9.1314365234375,-0.055423736572265625,-0.6777029037475586,0.6505059003829956
1684108359863476700,9.141476806640625,-0.05017232894897461,-0.7869749069213867,0.6562545299530029
1684108359873517000,9.15151708984375,-0.058054208755493164,-0.9343700408935547,0.6347002983093262
1684108359883557400,9.161557373046875,-0.1477452516555786,-1.0158405303955078,0.5797609090805054
1684108359893597700,9.17159765625,-0.2436540126800537,-0.978480339050293,0.5617165565490723
1684108359903638000,9.181637939453125,-0.36753368377685547,-0.9509677886962891,0.6932251453399658
1684108359913678300,9.19167822265625,-0.4178435206413269,-1.0006399154663086,0.9235843420028687
1684108359923718700,9.20171875,-0.34002256393432617,-1.003281593322754,1.1647884845733643
1684108359933759000,9.211759033203125,-0.2117248773574829,-0.8827877044677734,1.390584945678711
1684108359943799300,9.22179931640625,-0.062071919441223145,-0.6969480514526367,1.4988772869110107
1684108359953839600,9.231839599609375,0.02615988254547119,-0.5560293197631836,1.4854066371917725
1684108359963880000,9.2418798828125,0.05319416522979736,-0.4817943572998047,1.3066084384918213
1684108359973920300,9.251920166015625,-0.047568440437316895,-0.4153308868408203,1.0534937381744385
1684108359983960600,9.261960693359375,-0.2046058177947998,-0.300201416015625,0.7441713809967041
1684108359994000600,9.272000732421875,-0.3822211027145386,-0.13945484161376953,0.5577601194381714
1684108360004041000,9.282041015625,-0.48770326375961304,0.052214622497558594,0.37505853176116943
1684108360014081300,9.292081298828125,-0.5542140007019043,0.32606029510498047,0.17071986198425293
1684108360024121600,9.30212158203125,-0.6481486558914185,0.522770881652832,-0.11498486995697021
1684108360034162000,9.312161865234375,-0.7594534754753113,0.6693649291992188,-0.350319504737854
1684108360044202200,9.3222021484375,-0.8984819054603577,0.7847251892089844,-0.6435465812683105
1684108360054242600,9.33224267578125,-1.1091301441192627,0.85919189453125,-1.0439704656600952
1684108360064283000,9.342282958984375,-1.4012479782104492,0.77825927734375,-1.4121631383895874
1684108360074323200,9.3523232421875,-1.6193877458572388,0.6977386474609375,-1.711559534072876
1684108360084363500,9.362363525390625,-1.6771409511566162,0.6345129013061523,-1.839072346687317
1684108360094403800,9.37240380859375,-1.4510858058929443,0.6170110702514648,-1.8166148662567139
1684108360104444200,9.382444091796875,-1.0643519163131714,0.5108509063720703,-1.6069340705871582
1684108360114484500,9.392484375,-0.624718964099884,0.3132476806640625,-1.4144699573516846
1684108360124524500,9.402524658203125,-0.2905431389808655,0.1506185531616211,-1.1756880283355713
1684108360134564900,9.41256494140625,-0.12688972055912018,0.03736114501953125,-0.9569270610809326
1684108360144605200,9.422605224609375,-0.037460923194885254,-0.0024013519287109375,-0.831122875213623
1684108360154645500,9.4326455078125,0.0748920887708664,0.07438850402832031,-0.6907877922058105
1684108360164685800,9.442685791015625,0.27248817682266235,0.14109230041503906,-0.5291454792022705
1684108360174726100,9.45272607421875,0.5284944772720337,0.2050304412841797,-0.3919907808303833
1684108360184766500,9.462766357421875,0.804935872554779,0.3069143295288086,-0.3012193441390991
1684108360194806800,9.472806884765625,1.0601356029510498,0.3846597671508789,-0.28091681003570557
1684108360204847000,9.48284716796875,1.2309107780456543,0.3929719924926758,-0.3449881076812744
1684108360214887400,9.492887451171875,1.2211997509002686,0.37981510162353516,-0.4809587001800537
1684108360224927700,9.502927734375,1.086819052696228,0.3524599075317383,-0.6170731782913208
1684108360234968000,9.512968017578125,0.8199647665023804,0.36342620849609375,-0.7866146564483643
1684108360245008400,9.52300830078125,0.47540539503097534,0.42682647705078125,-0.889074444770813
1684108360255048700,9.533048583984375,0.15986838936805725,0.39441585540771484,-0.8438736200332642
1684108360265089000,9.543089111328126,0.023660480976104736,0.41215038299560547,-0.6471878290176392
1684108360275129300,9.55312939453125,0.04631853103637695,0.4083232879638672,-0.3308209180831909
1684108360285169700,9.563169677734376,0.1639842391014099,0.45224857330322266,0.02647531032562256
1684108360295210000,9.5732099609375,0.36065077781677246,0.5318794250488281,0.32010185718536377
1684108360305250300,9.583250244140626,0.4770667552947998,0.5613384246826172,0.5381218194961548
1684108360315290600,9.59329052734375,0.5076054930686951,0.5553512573242188,0.6440634727478027
1684108360325330700,9.60333056640625,0.4279957413673401,0.45696163177490234,0.7326180934906006
1684108360335371000,9.61337109375,0.2648543119430542,0.40251731872558594,0.7274133563041687
1684108360345411300,9.623411376953126,0.20961344242095947,0.3104848861694336,0.5584650039672852
1684108360355451600,9.63345166015625,0.28114187717437744,0.20930767059326172,0.254787802696228
1684108360365492000,9.643491943359376,0.5288448333740234,0.05826568603515625,-0.10248887538909912
1684108360375532300,9.6535322265625,0.9061613082885742,-0.058945655822753906,-0.6094762086868286
1684108360385572600,9.663572509765626,1.2055314779281616,-0.15927791595458984,-1.0993760824203491
1684108360395613000,9.673613037109375,1.2932497262954712,-0.21207141876220703,-1.599636197090149
1684108360405653200,9.6836533203125,1.2300283908843994,-0.21787738800048828,-2.02549409866333
1684108360415693600,9.693693603515625,1.056095004081726,-0.10541057586669922,-2.342947483062744
1684108360425734000,9.70373388671875,0.8647653460502625,0.1227731704711914,-2.51460337638855
1684108360435774200,9.713774169921875,0.7307063341140747,0.4310035705566406,-2.58502197265625
1684108360445814500,9.723814453125,0.5599714517593384,0.7409601211547852,-2.572996139526367
1684108360455854800,9.733854736328125,0.38523316383361816,0.9339971542358398,-2.4713292121887207
1684108360465895200,9.743895263671876,0.2734154462814331,1.1350994110107422,-2.2573986053466797
1684108360475935500,9.753935546875,0.15608954429626465,1.2888975143432617,-2.1193923950195312
1684108360485975800,9.763975830078126,0.02602207660675049,1.198725700378418,-1.8445565700531006
1684108360496016100,9.77401611328125,0.12644684314727783,0.9889135360717773,-1.3760015964508057
1684108360506056400,9.784056396484376,0.336020827293396,0.6884136199951172,-1.0335044860839844
1684108360516096800,9.7940966796875,0.45279955863952637,0.43126583099365234,-0.9136362075805664
1684108360526136800,9.80413671875,0.4181572198867798,0.09093761444091797,-0.8834478855133057
1684108360536177200,9.81417724609375,0.3288705348968506,-0.1435384750366211,-0.98014235496521
1684108360546217500,9.824217529296876,0.36945319175720215,-0.1503772735595703,-1.2436541318893433
1684108360556257800,9.8342578125,0.3501988649368286,0.37320995330810547,-1.5038576126098633
1684108360566298000,9.844298095703126,0.2705497741699219,1.0627832412719727,-1.375757098197937
1684108360576338400,9.85433837890625,0.3149535655975342,1.2518129348754883,-0.6922535300254822
1684108360586378800,9.864378662109376,0.19865655899047852,0.7294216156005859,0.022388339042663574
1684108360596419000,9.874419189453125,0.17962467670440674,0.0039348602294921875,0.4104650616645813
1684108360606459400,9.88445947265625,0.5874373912811279,-0.4515190124511719,0.13177388906478882
1684108360616499700,9.894499755859375,1.2237389087677002,-0.4113130569458008,-0.39356768131256104
1684108360626540000,9.9045400390625,1.5850294828414917,-0.13041973114013672,-0.7830538153648376
1684108360636580400,9.914580322265625,1.3996347188949585,0.13942337036132812,-1.0244994163513184
1684108360646620700,9.92462060546875,0.5391097664833069,0.36944103240966797,-0.9422393441200256
1684108360656661000,9.934660888671875,-0.6518661975860596,0.8055486679077148,-1.3734382390975952
1684108360666701300,9.944701416015626,-1.0902113914489746,1.1920337677001953,-2.1001181602478027
1684108360676741600,9.95474169921875,-0.7949622869491577,1.2883119583129883,-2.6465821266174316
1684108360686782000,9.964781982421876,-0.12281525135040283,1.0547971725463867,-2.7321910858154297
1684108360696822300,9.974822265625,0.3752096891403198,0.681401252746582,-2.080112934112549
1684108360706862600,9.984862548828126,0.676941990852356,0.21175861358642578,-1.1102145910263062
1684108360716903000,9.99490283203125,0.8034785389900208,-0.2750082015991211,-0.2318894863128662
1684108360726943200,10.004943115234376,0.6511113047599792,-0.604731559753418,0.3812524080276489
1684108360736983600,10.014983642578125,0.24014908075332642,-0.7471685409545898,0.7735608816146851
1684108360747024000,10.02502392578125,-0.28292036056518555,-0.6649999618530273,0.8302116990089417
1684108360757064200,10.035064208984375,-0.7242889404296875,-0.41401195526123047,0.5264697670936584
1684108360767104500,10.0451044921875,-0.83701491355896,-0.18582439422607422,-0.2605891227722168
1684108360777144800,10.055144775390625,-0.7690433263778687,0.03870677947998047,-1.0435439348220825
1684108360787185200,10.06518505859375,-0.611190915107727,0.2716207504272461,-1.7664076089859009
1684108360797225500,10.0752255859375,-0.41221296787261963,0.43180274963378906,-2.2099103927612305
1684108360807265500,10.085265625,-0.2765082120895386,0.4384727478027344,-2.4300694465637207
1684108360817305900,10.095305908203125,-0.24927842617034912,0.3088092803955078,-2.4354329109191895
1684108360827346200,10.10534619140625,-0.24999237060546875,0.14347362518310547,-2.1422195434570312
1684108360837386500,10.115386474609375,-0.22230255603790283,-0.0022268295288085938,-1.5856678485870361
1684108360847426800,10.1254267578125,-0.14606785774230957,-0.06856441497802734,-1.0448862314224243
1684108360857467100,10.135467041015625,-0.04032540321350098,-0.09150028228759766,-0.5537234544754028
1684108360867507500,10.145507568359376,0.08766961097717285,-0.06153297424316406,-0.12904596328735352
1684108360877547800,10.1555478515625,0.16403913497924805,0.023616790771484375,0.19083070755004883
1684108360887588000,10.165588134765626,0.16848862171173096,0.13980770111083984,0.42529308795928955
1684108360897628400,10.17562841796875,0.12106084823608398,0.22715377807617188,0.4910731315612793
1684108360907668700,10.185668701171876,0.06214606761932373,0.27613258361816406,0.4560093283653259
1684108360917709000,10.195708984375,0.05906474590301514,0.2439708709716797,0.28294122219085693
1684108360927749400,10.205749267578126,0.0447765588760376,0.2360515594482422,0.026099324226379395
1684108360937789700,10.215789794921875,0.06822443008422852,0.24749088287353516,-0.22686028480529785
1684108360947830000,10.225830078125,0.06735467910766602,0.2853078842163086,-0.3774528503417969
1684108360957870300,10.235870361328125,0.10003113746643066,0.3397865295410156,-0.4590640068054199
1684108360967910700,10.24591064453125,0.12878167629241943,0.32483577728271484,-0.4672929048538208
1684108360977951000,10.255950927734375,0.185028076171875,0.3194704055786133,-0.4028664827346802
1684108360987991300,10.2659912109375,0.24955356121063232,0.2759542465209961,-0.29494941234588623
1684108360998031600,10.276031494140625,0.3008880615234375,0.2326183319091797,-0.19166266918182373
1684108361008072000,10.286072021484374,0.30825144052505493,0.1679544448852539,-0.07876837253570557
1684108361018112300,10.2961123046875,0.25315356254577637,0.10586071014404297,-0.01620316505432129
1684108361028152600,10.306152587890624,0.18899810314178467,0.05101966857910156,0.022460103034973145
1684108361038193000,10.31619287109375,0.11394095420837402,0.07260322570800781,-0.0319514274597168
1684108361048233200,10.326233154296874,0.011405348777770996,0.08677959442138672,-0.09531378746032715
1684108361058273500,10.3362734375,-0.07328379154205322,0.06964778900146484,-0.22931814193725586
1684108361068313900,10.34631396484375,-0.1855257749557495,0.06425094604492188,-0.3596503734588623
1684108361078354200,10.356354248046875,-0.27728116512298584,0.10638236999511719,-0.5127567052841187
1684108361088394500,10.36639453125,-0.32230067253112793,0.15064620971679688,-0.577032208442688
1684108361098434800,10.376434814453125,-0.33233642578125,0.2615242004394531,-0.6748065948486328
1684108361108475100,10.38647509765625,-0.3046354055404663,0.30022144317626953,-0.7482649087905884
1684108361118515500,10.396515380859375,-0.2038205862045288,0.34093379974365234,-0.8066142797470093
1684108361128555800,10.4065556640625,-0.10429537296295166,0.3478431701660156,-0.8570032119750977
1684108361138596000,10.41659619140625,-0.008617758750915527,0.36883544921875,-0.8661905527114868
1684108361148636200,10.42663623046875,0.09015202522277832,0.3800010681152344,-0.9033974409103394
1684108361158676500,10.436676513671875,0.09209012985229492,0.32411766052246094,-0.8761945962905884
1684108361168716800,10.446716796875,-0.027695894241333008,0.20852947235107422,-0.8478683233261108
1684108361178757000,10.456757080078125,-0.19377648830413818,0.22912311553955078,-0.8020502328872681
1684108361188797400,10.46679736328125,-0.40299439430236816,0.1038360595703125,-0.7040921449661255
1684108361198837800,10.476837646484375,-0.4717644453048706,0.07668113708496094,-0.6164206266403198
1684108361208878300,10.48687841796875,-0.421220064163208,-0.005274772644042969,-0.4025912284851074
1684108361218918400,10.49691845703125,-0.30876314640045166,-0.060509681701660156,-0.21280229091644287
1684108361228958700,10.506958740234374,-0.2105712890625,-0.11294174194335938,-0.02867114543914795
1684108361238999000,10.5169990234375,-0.13680410385131836,-0.18656635284423828,0.1344594955444336
1684108361249039400,10.527039306640624,-0.11536908149719238,-0.1860666275024414,0.23008668422698975
1684108361259079700,10.53707958984375,-0.10855400562286377,-0.114410400390625,0.2354731559753418
1684108361269120000,10.5471201171875,-0.12846684455871582,-0.0629568099975586,0.1635044813156128
1684108361279160300,10.557160400390625,-0.11171019077301025,-0.019931793212890625,0.08372557163238525
1684108361289200600,10.56720068359375,-0.1088414192199707,-0.009115219116210938,-0.004281282424926758
1684108361299241000,10.577240966796875,-0.139487624168396,-0.030321121215820312,-0.0769885778427124
1684108361309281300,10.58728125,-0.21089255809783936,-0.03039073944091797,-0.1726059913635254
1684108361319321600,10.597321533203125,-0.2734791040420532,-0.02892017364501953,-0.25136590003967285
1684108361329362000,10.60736181640625,-0.3408471345901489,0.0048999786376953125,-0.30171799659729004
1684108361339402200,10.61740234375,-0.3625379800796509,0.035465240478515625,-0.2796146869659424
1684108361349442600,10.627442626953124,-0.3305777311325073,0.13604259490966797,-0.2505403757095337
1684108361359483000,10.63748291015625,-0.2760787010192871,0.26543521881103516,-0.16787028312683105
1684108361369523200,10.647523193359374,-0.18675899505615234,0.371368408203125,0.004311203956604004
1684108361379563500,10.6575634765625,-0.10205364227294922,0.47292518615722656,0.16060376167297363
1684108361389603800,10.667603759765624,-0.05825376510620117,0.44302940368652344,0.32132387161254883
1684108361399644200,10.67764404296875,-0.07229268550872803,0.37339210510253906,0.4190586805343628
1684108361409684500,10.6876845703125,-0.10731112957000732,0.2670774459838867,0.4988161325454712
1684108361419724800,10.697724853515625,-0.10219502449035645,0.17901325225830078,0.6028773784637451
1684108361429765000,10.70776513671875,-0.06163787841796875,0.15396690368652344,0.6931761503219604
1684108361439805400,10.717805419921875,0.008896470069885254,0.05716228485107422,0.6995877027511597
1684108361449845800,10.727845703125,0.0481722354888916,0.026534080505371094,0.6669738292694092
1684108361459886000,10.737885986328125,0.09133827686309814,0.10326099395751953,0.6749429702758789
1684108361469926400,10.747926513671874,0.08425939083099365,0.10647010803222656,0.6718692779541016
1684108361479966700,10.757966796875,0.13372278213500977,0.1174001693725586,0.7710899114608765
1684108361490007000,10.768007080078124,0.21724486351013184,0.14556884765625,0.8760247230529785
1684108361500047400,10.77804736328125,0.27239418029785156,0.20963001251220703,0.9183995723724365
1684108361510087700,10.788087646484374,0.327014684677124,0.2690401077270508,0.9891297817230225
1684108361520128000,10.7981279296875,0.3172774314880371,0.34511756896972656,1.042816400527954
1684108361530168300,10.808168212890624,0.17242026329040527,0.37147998809814453,1.0605186223983765
1684108361540208600,10.818208740234375,-0.10733914375305176,0.41217517852783203,0.9712316989898682
1684108361550249000,10.8282490234375,-0.5188623666763306,0.43830204010009766,0.9335044622421265
1684108361560289300,10.838289306640625,-0.8811217546463013,0.400604248046875,0.8696342706680298
1684108361570329600,10.84832958984375,-1.0729129314422607,0.31694793701171875,0.8803586959838867
1684108361580370000,10.858369873046875,-1.1030210256576538,0.27550601959228516,0.9053815603256226
1684108361590410200,10.86841015625,-1.1405986547470093,0.20751190185546875,0.9449518918991089
1684108361600450600,10.878450439453125,-1.2359853982925415,0.13466262817382812,1.0299721956253052
1684108361610491000,10.888490966796875,-1.3783056735992432,0.1316213607788086,1.0834171772003174
1684108361620531200,10.89853125,-1.387661337852478,0.16255569458007812,1.1663134098052979
1684108361630571500,10.908571533203125,-1.250915288925171,0.24646377563476562,1.227311134338379
1684108361640611800,10.91861181640625,-1.0988293886184692,0.3737525939941406,1.267688512802124
1684108361650652200,10.928652099609375,-1.0596017837524414,0.39388561248779297,1.231777548789978
1684108361660692500,10.9386923828125,-1.0989739894866943,0.2782278060913086,1.0296251773834229
1684108361670732800,10.94873291015625,-1.1208640336990356,-0.02088451385498047,0.8509949445724487
1684108361680773000,10.958773193359375,-0.9941673278808594,-0.2786235809326172,0.696292519569397
1684108361690813400,10.9688134765625,-0.7436589002609253,-0.38462066650390625,0.533422589302063
1684108361700853800,10.978853759765625,-0.5293611288070679,-0.26787471771240234,0.2623392343521118
1684108361710894000,10.98889404296875,-0.18134546279907227,0.030307769775390625,0.0187605619430542
1684108361720934400,10.998934326171875,0.4119628667831421,0.3305225372314453,-0.07461154460906982
1684108361730974700,11.008974609375,1.0145602226257324,0.6519632339477539,-0.15337598323822021
1684108361741015000,11.01901513671875,1.5233194828033447,0.8709993362426758,-0.2015453577041626
1684108361751055400,11.029055419921875,1.80263352394104,1.014674186706543,-0.2895925045013428
1684108361761095700,11.039095703125,1.8953862190246582,0.9093046188354492,-0.5036029815673828
1684108361771136000,11.049135986328125,1.9743373394012451,0.684840202331543,-0.8516850471496582
1684108361781176300,11.05917626953125,1.6789116859436035,0.2740516662597656,-1.3072230815887451
1684108361791216600,11.069216552734375,1.4124197959899902,-0.03972816467285156,-1.840561866760254
1684108361801257000,11.079257080078126,1.088657021522522,-0.15527057647705078,-2.2200207710266113
1684108361811297300,11.08929736328125,0.8007967472076416,-0.1931915283203125,-2.4771623611450195
1684108361821337600,11.099337646484376,0.53910893201828,-0.16115665435791016,-2.614100933074951
1684108361831378000,11.1093779296875,0.3212330937385559,-0.1286172866821289,-2.754741668701172
1684108361841418200,11.119418212890626,0.2700314521789551,-0.09552288055419922,-2.8657803535461426
1684108361851458600,11.12945849609375,0.3381441831588745,-0.10224437713623047,-2.9420557022094727
1684108361861499000,11.139498779296876,0.4220055341720581,-0.14342689514160156,-2.805398941040039
1684108361871539200,11.149539306640625,0.33269864320755005,-0.32610511779785156,-2.6003315448760986
1684108361881579500,11.15957958984375,0.174830824136734,-0.7071104049682617,-2.0123848915100098
1684108361891619800,11.169619873046875,-0.10079437494277954,-1.0352058410644531,-1.563642144203186
1684108361901660200,11.17966015625,-0.4111933708190918,-1.339303970336914,-1.236894965171814
1684108361911700500,11.189700439453125,-0.7687826752662659,-1.5812673568725586,-1.041792392730713
1684108361921740800,11.19974072265625,-1.1736085414886475,-1.5866708755493164,-0.8556637763977051
1684108361931781000,11.209781005859375,-1.5105403661727905,-1.3272857666015625,-0.8061212301254272
1684108361941821400,11.219821533203126,-1.6793619394302368,-0.8013753890991211,-0.7898406982421875
1684108361951861800,11.22986181640625,-1.6122584342956543,-0.2723064422607422,-0.8251291513442993
1684108361961902000,11.239902099609376,-1.2835490703582764,0.09754276275634766,-0.7512191534042358
1684108361971942400,11.2499423828125,-0.7233210206031799,0.20108890533447266,-0.7014011144638062
1684108361981982700,11.259982666015626,-0.055559009313583374,0.15859031677246094,-0.547338604927063
1684108361992023000,11.27002294921875,0.58025723695755,0.20699596405029297,-0.40678882598876953
1684108362002063400,11.2800634765625,1.0207688808441162,0.22910118103027344,-0.3988698720932007
1684108362012103700,11.290103759765625,1.184482216835022,0.12949085235595703,-0.34157800674438477
1684108362022144000,11.30014404296875,0.9971767663955688,0.008853912353515625,-0.28528857231140137
1684108362032184300,11.310184326171875,0.6070504188537598,-0.19237327575683594,-0.19920134544372559
1684108362042224600,11.320224609375,0.09643175452947617,-0.31150341033935547,-0.0864419937133789
1684108362052265000,11.330264892578125,-0.5410106778144836,-0.31296348571777344,0.009721517562866211
1684108362062305300,11.34030517578125,-1.2908875942230225,-0.13036346435546875,0.12071239948272705
1684108362072345600,11.350345703125,-1.8032455444335938,0.09230422973632812,0.14715611934661865
1684108362082386000,11.360385986328126,-1.7893340587615967,0.2544698715209961,-0.017058610916137695
1684108362092426200,11.37042626953125,-1.3052746057510376,0.25107574462890625,-0.3582497835159302
1684108362102466800,11.380466796875,-0.5658503174781799,0.25668907165527344,-0.6809321641921997
1684108362112507100,11.390507080078125,0.2032495141029358,0.37375450134277344,-0.9689640998840332
1684108362122547200,11.400547119140626,0.7969083189964294,0.5397682189941406,-1.0468941926956177
1684108362132587500,11.41058740234375,1.190251350402832,0.6997499465942383,-0.9680346250534058
1684108362142627800,11.4206279296875,1.3855531215667725,0.7966384887695312,-0.710432767868042
1684108362152668400,11.43066845703125,1.366856575012207,0.7663459777832031,-0.42657339572906494
1684108362162708700,11.440708740234374,1.2273448705673218,0.6641941070556641,-0.14355742931365967
1684108362172749000,11.4507490234375,1.0253939628601074,0.49528026580810547,0.14921319484710693
1684108362182789400,11.460789306640624,0.8274614214897156,0.23360443115234375,0.29060447216033936
1684108362192829700,11.47082958984375,0.6773529648780823,0.0418243408203125,0.3473188877105713
1684108362202870000,11.4808701171875,0.5972166061401367,-0.07546520233154297,0.36495864391326904
1684108362212910300,11.490910400390625,0.56721031665802,-0.10901641845703125,0.36362719535827637
1684108362222950700,11.50095068359375,0.5346795916557312,-0.07575798034667969,0.40800583362579346
1684108362232991000,11.510990966796875,0.4631306827068329,0.02184295654296875,0.5070158243179321
1684108362243031300,11.52103125,0.3829054534435272,0.03562355041503906,0.5932735800743103
1684108362253071600,11.531071533203125,0.2481822669506073,0.059051513671875,0.6373912692070007
1684108362263112000,11.54111181640625,0.14093352854251862,0.08271598815917969,0.7436762452125549
1684108362273152300,11.55115234375,0.08653168380260468,0.06367301940917969,0.7854475975036621
1684108362283192600,11.561192626953124,0.08728526532649994,0.09517955780029297,0.78481125831604
1684108362293233000,11.57123291015625,0.19245073199272156,0.08157920837402344,0.737541675567627
1684108362303273200,11.581273193359374,0.38049444556236267,-0.01758575439453125,0.7010770440101624
1684108362313313500,11.5913134765625,0.6088556051254272,-0.09702110290527344,0.6536547541618347
1684108362323353900,11.601353759765624,0.8410427570343018,-0.16875648498535156,0.6141734719276428
1684108362333394200,11.611394287109375,1.0335487127304077,-0.2185649871826172,0.5038329362869263
1684108362343434500,11.6214345703125,1.1367664337158203,-0.2083902359008789,0.4162592887878418
1684108362353474800,11.631474853515625,1.2005935907363892,-0.23392200469970703,0.3394472599029541
1684108362363515100,11.64151513671875,1.2252345085144043,-0.24497699737548828,0.26415514945983887
1684108362373555500,11.651555419921875,1.2229558229446411,-0.19866180419921875,0.2790544033050537
1684108362383595800,11.661595703125,1.1893385648727417,-0.11425399780273438,0.2814209461212158
1684108362393636000,11.671635986328125,1.1175205707550049,-0.013361930847167969,0.3286716938018799
1684108362403676400,11.681676513671874,1.050444483757019,0.034682273864746094,0.3706730604171753
1684108362413716700,11.691716796875,0.9642224311828613,0.053877830505371094,0.4456338882446289
1684108362423757000,11.701757080078124,0.8758741021156311,0.07536029815673828,0.4888414144515991
1684108362433797400,11.71179736328125,0.7218972444534302,0.013111114501953125,0.5318089723587036
1684108362443837700,11.721837646484374,0.5804330110549927,-0.025075912475585938,0.617165207862854
1684108362453878000,11.7318779296875,0.48233193159103394,-0.05343341827392578,0.6226435303688049
1684108362463918300,11.74191845703125,0.42409202456474304,-0.0982046127319336,0.6059993505477905
1684108362473958700,11.751958740234375,0.4195728600025177,-0.1308441162109375,0.539577841758728
1684108362483999000,11.7619990234375,0.4290516972541809,-0.15624618530273438,0.5407571792602539
1684108362494039300,11.772039306640625,0.4349559545516968,-0.22687911987304688,0.47960615158081055
1684108362504079600,11.78207958984375,0.44659966230392456,-0.2303447723388672,0.3631054162979126
1684108362514120200,11.7921201171875,0.45676279067993164,-0.1119241714477539,0.2585015296936035
1684108362524160500,11.802160400390624,0.4298953413963318,-0.04156208038330078,0.1282355785369873
1684108362534200800,11.812200927734375,0.45403701066970825,0.03572273254394531,0.0658034086227417
1684108362544241000,11.822240966796874,0.48515546321868896,0.04105949401855469,0.04954540729522705
1684108362554281500,11.832281494140625,0.4941824674606323,-0.015869140625,0.0317610502243042
1684108362564321800,11.84232177734375,0.4835357666015625,-0.08238410949707031,0.07224023342132568
1684108362574362000,11.852362060546875,0.4532214403152466,-0.11540031433105469,0.1321103572845459
1684108362584402400,11.86240234375,0.38442492485046387,-0.1292724609375,0.18955445289611816
1684108362594442800,11.87244287109375,0.32545334100723267,-0.1481475830078125,0.2150787115097046
1684108362604483000,11.882483154296875,0.27492260932922363,-0.1313953399658203,0.2520263195037842
1684108362614523400,11.8925234375,0.24490678310394287,-0.11962127685546875,0.26502180099487305
1684108362624563700,11.902563720703125,0.2374199628829956,-0.046837806701660156,0.2687041759490967
1684108362634604000,11.91260400390625,0.20280081033706665,-0.0011692047119140625,0.2845205068588257
1684108362644644400,11.922644287109375,0.19315415620803833,-0.0010099411010742188,0.30289626121520996
1684108362654684700,11.9326845703125,0.17507296800613403,-0.03145122528076172,0.29301929473876953
1684108362664725000,11.94272509765625,0.17905378341674805,-0.06610774993896484,0.2930762767791748
1684108362674765300,11.952765380859375,0.15502578020095825,-0.08605098724365234,0.30965542793273926
1684108362684805600,11.9628056640625,0.15276235342025757,-0.07973670959472656,0.2881503105163574
1684108362694846000,11.972845947265625,0.1414911150932312,-0.1182107925415039,0.2550705671310425
1684108362704886300,11.98288623046875,0.15201938152313232,-0.11127281188964844,0.23185014724731445
1684108362714926600,11.992926513671875,0.146601140499115,-0.050262451171875,0.22317278385162354
1684108362724967000,12.002966796875,0.15650159120559692,-0.06082344055175781,0.2170170545578003
1684108362735007200,12.01300732421875,0.1744740605354309,-0.10409259796142578,0.17806148529052734
1684108362745047600,12.023047607421875,0.20927977561950684,-0.10420989990234375,0.13260388374328613
1684108362755088000,12.033087890625,0.21780961751937866,-0.09020519256591797,0.08331811428070068
1684108362765128200,12.043128173828125,0.22636479139328003,-0.11878395080566406,0.05359077453613281
1684108362775168500,12.05316845703125,0.24227428436279297,-0.11154842376708984,0.0032106637954711914
1684108362785208800,12.063208740234375,0.2349897027015686,-0.09263896942138672,-0.06032371520996094
1684108362795249400,12.07324951171875,0.23307234048843384,-0.0033740997314453125,-0.08518421649932861
1684108362805289700,12.083289794921875,0.22908371686935425,0.025602340698242188,-0.1193312406539917
1684108362815330000,12.093330078125,0.22530680894851685,0.032975196838378906,-0.13214659690856934
1684108362825370400,12.103370361328125,0.20269352197647095,0.04736137390136719,-0.12179756164550781
1684108362835410700,12.11341064453125,0.17060476541519165,0.030956268310546875,-0.12166941165924072
1684108362845451000,12.123450927734375,0.14333325624465942,-0.0039501190185546875,-0.14577317237854004
1684108362855491300,12.1334912109375,0.10236519575119019,-0.06645488739013672,-0.151189923286438
1684108362865531600,12.14353173828125,0.08545506000518799,-0.10901355743408203,-0.11714279651641846
1684108362875572000,12.153572021484376,0.02177053689956665,-0.124908447265625,-0.06764507293701172
1684108362885612300,12.1636123046875,0.02796471118927002,-0.12166213989257812,-0.056720614433288574
1684108362895652600,12.173652587890626,0.018446743488311768,-0.14202213287353516,-0.021939754486083984
1684108362905693000,12.18369287109375,-0.0013192296028137207,-0.197357177734375,0.041170477867126465
1684108362915733200,12.193733154296876,-0.004551947116851807,-0.2116565704345703,0.09174239635467529
1684108362925773600,12.203773681640625,0.02320808172225952,-0.18314266204833984,0.10586678981781006
1684108362935814000,12.21381396484375,0.07434427738189697,-0.05602550506591797,0.06050002574920654
1684108362945854200,12.223854248046875,0.19947528839111328,0.052666664123535156,-0.03184342384338379
1684108362955894500,12.23389453125,0.3069908022880554,0.08660507202148438,-0.11325430870056152
1684108362965934800,12.243934814453125,0.37551403045654297,0.10346126556396484,-0.16944468021392822
1684108362975975200,12.25397509765625,0.4384377598762512,0.1176614761352539,-0.2010558843612671
1684108362986015500,12.264015380859375,0.47461503744125366,0.18101978302001953,-0.2624596357345581
1684108362996055800,12.274055908203126,0.5356872081756592,0.18441009521484375,-0.3462468385696411
1684108363006096400,12.284096435546875,0.566130518913269,0.20175552368164062,-0.5037938356399536
1684108363016136700,12.29413671875,0.5679711103439331,0.18796062469482422,-0.6577619314193726
1684108363026177000,12.304177001953125,0.49703896045684814,0.14580821990966797,-0.7626914978027344
1684108363036217300,12.31421728515625,0.4518570303916931,0.14870643615722656,-0.8375648260116577
1684108363046257700,12.324257568359375,0.3810722827911377,0.13470935821533203,-0.8473331928253174
1684108363056298000,12.334298095703126,0.35194897651672363,0.12998294830322266,-0.7456185817718506
1684108363066338300,12.34433837890625,0.32670652866363525,0.026090621948242188,-0.569555401802063
1684108363076378600,12.354378662109376,0.3382015824317932,-0.062259674072265625,-0.29735422134399414
1684108363086419000,12.3644189453125,0.3479265570640564,-0.14694881439208984,-0.011894583702087402
1684108363096459300,12.374459228515626,0.3575614094734192,-0.18322277069091797,0.27393674850463867
1684108363106499600,12.38449951171875,0.3497839570045471,-0.2329998016357422,0.5191454887390137
1684108363116540000,12.394539794921876,0.31710657477378845,-0.24184799194335938,0.6814107894897461
1684108363126580200,12.404580322265625,0.2556116282939911,-0.2269001007080078,0.7432394623756409
1684108363136620500,12.41462060546875,0.16212773323059082,-0.17439746856689453,0.8194894790649414
1684108363146660900,12.424660888671875,0.09987112879753113,-0.12964153289794922,0.8512073755264282
1684108363156701200,12.434701171875,0.04088398814201355,-0.13716506958007812,0.8859191536903381
1684108363166741500,12.444741455078125,0.006270855665206909,-0.14900875091552734,0.8858321905136108
1684108363176782000,12.454781982421874,-0.002926856279373169,-0.1604480743408203,0.8680058717727661
1684108363186822100,12.464822265625,-0.034961998462677,-0.19025802612304688,0.8484280109405518
1684108363196862700,12.47486279296875,-0.06401443481445312,-0.19335460662841797,0.741806149482727
1684108363206903000,12.484903076171875,-0.08769491314888,-0.16786956787109375,0.6228297352790833
1684108363216943400,12.494943359375,-0.11088141798973083,-0.1026144027709961,0.45712709426879883
1684108363226983700,12.504983642578125,-0.1432192325592041,-0.010123252868652344,0.2555842995643616
1684108363237024000,12.51502392578125,-0.18445241451263428,0.05254173278808594,0.09735000133514404
1684108363247064300,12.525064208984375,-0.22716498374938965,0.09281253814697266,-0.04783034324645996
1684108363257104600,12.535104736328124,-0.25216594338417053,0.19107818603515625,-0.1422184705734253
1684108363267145000,12.54514501953125,-0.26684316992759705,0.2709999084472656,-0.2499631643295288
