time,seconds_elapsed,z,y,x
1684110318868163000,0.0341630859375,0,0,0
1684110318878204700,0.04420458984375,-0.08692073822021484,-0.10483813285827637,-0.06904149055480957
1684110318888246300,0.054246337890625,0.2651500701904297,0.21973633766174316,0.3884549140930176
1684110318898287600,0.06428759765625,-0.3296852111816406,-0.5957794189453125,0.1405332088470459
1684110318908329200,0.0743291015625,-0.3892498016357422,-0.24821257591247559,0.08117079734802246
1684110318918370800,0.084370849609375,0.2122364044189453,0.7029201984405518,0.3376586437225342
1684110318928412400,0.094412353515625,-0.3459339141845703,-0.5448827743530273,0.2519562244415283
1684110318938454000,0.1044541015625,-0.8006381988525391,-0.5855872631072998,-0.749617338180542
1684110318948495400,0.114495361328125,-0.43358421325683594,-0.3775298595428467,-0.20914363861083984
1684110318958537000,0.124536865234375,-0.11112451553344727,-0.31328368186950684,0.08870077133178711
1684110318968578600,0.13457861328125,1.000145435333252,0.34255552291870117,1.2947583198547363
1684110318978620200,0.1446201171875,0.7410221099853516,-0.3334693908691406,0.1843721866607666
1684110318988661500,0.15466162109375,-0.20469379425048828,-0.24710583686828613,-0.9417529106140137
1684110318998703000,0.164703125,-0.541804313659668,-0.22545957565307617,-0.3861205577850342
1684110319008744700,0.17474462890625,-0.439420223236084,-0.10437941551208496,0.4572172164916992
1684110319018786300,0.184786376953125,0.5444655418395996,0.30853724479675293,2.312774658203125
1684110319028828000,0.194827880859375,0.23260068893432617,-0.23860931396484375,-0.1140437126159668
1684110319038869200,0.204869140625,-0.8455681800842285,0.17002034187316895,-2.4261345863342285
1684110319048910800,0.214910888671875,-0.26055192947387695,0.4275081157684326,-2.997419834136963
1684110319058952400,0.224952392578125,0.865053653717041,-1.0176520347595215,-0.0065460205078125
1684110319068994000,0.234994140625,0.8052935600280762,-1.234595537185669,0.21684932708740234
1684110319079035600,0.24503564453125,0.1775364875793457,-0.32238221168518066,0.7424154281616211
1684110319089077000,0.255076904296875,-0.6616320610046387,-0.2113511562347412,1.2036781311035156
1684110319099118600,0.26511865234375,-0.7188191413879395,-0.02859950065612793,0.7726259231567383
1684110319109160200,0.27516015625,-0.7447795867919922,-0.24951958656311035,1.2667560577392578
1684110319119201800,0.285201904296875,-0.2960515022277832,-0.4498124122619629,0.40482378005981445
1684110319129243100,0.2952431640625,0.1395106315612793,-0.35387182235717773,0.13877630233764648
1684110319139284700,0.30528466796875,0.08638191223144531,-0.4908566474914551,-0.1287212371826172
1684110319149326300,0.315326416015625,-0.07533121109008789,-0.2986435890197754,-0.8134608268737793
1684110319159368000,0.325367919921875,0.25362634658813477,-0.4799985885620117,-0.880396842956543
1684110319169409500,0.335409423828125,-0.05106496810913086,-0.09653806686401367,-0.8876504898071289
1684110319179451000,0.345450927734375,-0.3280806541442871,-0.20847845077514648,-0.6697497367858887
1684110319189492500,0.355492431640625,-0.032622337341308594,0.13368654251098633,-0.44429588317871094
1684110319199534000,0.3655341796875,0.09378671646118164,-0.031432151794433594,0.007116794586181641
1684110319209575700,0.37557568359375,0.11683320999145508,-0.49979305267333984,0.31558990478515625
1684110319219617300,0.3856171875,0.6652622222900391,-0.35575437545776367,0.48827409744262695
1684110319229658600,0.39565869140625,1.116079330444336,-0.07584571838378906,0.736565113067627
1684110319239700200,0.4057001953125,1.1209301948547363,-0.1235501766204834,0.8713207244873047
1684110319249741800,0.415741943359375,0.9239840507507324,-0.5997312068939209,1.1530299186706543
1684110319259783400,0.425783447265625,0.5598139762878418,-0.7438576221466064,0.980222225189209
1684110319269825000,0.435824951171875,0.422731876373291,-0.6938118934631348,0.8520498275756836
1684110319279866400,0.445866455078125,0.304776668548584,-0.43776702880859375,0.7191400527954102
1684110319289908000,0.455907958984375,0.14673376083374023,0.20033574104309082,0.3199925422668457
1684110319299949600,0.465949462890625,0.26305341720581055,0.7419025897979736,-0.0933084487915039
1684110319309991200,0.4759912109375,0.31012535095214844,0.8996772766113281,-0.38782691955566406
1684110319320032800,0.48603271484375,0.15140008926391602,0.838111162185669,-0.42586755752563477
1684110319330074000,0.49607421875,0.06093740463256836,0.6743946075439453,-0.6362628936767578
1684110319340115700,0.50611572265625,0.03936576843261719,0.6866798400878906,-1.005232334136963
1684110319350157300,0.5161572265625,0.13134288787841797,0.4407515525817871,-1.13653564453125
1684110319360199000,0.526198974609375,0.39829397201538086,0.32810425758361816,-1.465193271636963
1684110319370240300,0.536240234375,0.5418534278869629,0.26069116592407227,-1.3287582397460938
1684110319380281900,0.54628173828125,0.6770243644714355,0.26854705810546875,-0.9304876327514648
1684110319390323500,0.556323486328125,0.8353047370910645,0.45024871826171875,-0.674166202545166
1684110319400365000,0.566364990234375,0.9018354415893555,0.6892166137695312,-0.5771527290344238
1684110319410406700,0.57640673828125,0.3194999694824219,1.2867133617401123,-1.4502315521240234
1684110319420448000,0.586447998046875,0.3446197509765625,1.3660874366760254,-1.0829496383666992
1684110319430489600,0.596489501953125,0.9974246025085449,0.1312403678894043,0.8827300071716309
1684110319440531200,0.60653125,1.215074062347412,0.44739246368408203,0.8923134803771973
1684110319450572800,0.61657275390625,1.1234841346740723,0.8169140815734863,0.6071763038635254
1684110319460614400,0.626614501953125,0.47188615798950195,1.1019458770751953,0.03364133834838867
1684110319470655700,0.63665576171875,-0.4691650867462158,1.047149896621704,-0.714052677154541
1684110319480697300,0.646697265625,-0.8769135475158691,1.1225814819335938,-1.9710845947265625
1684110319490739000,0.656739013671875,-2.0996649265289307,0.09213972091674805,-1.8478641510009766
1684110319500780500,0.666780517578125,-1.9986122846603394,-0.4000859260559082,-0.3112368583679199
1684110319510822100,0.676822265625,-1.2606409788131714,0.343503475189209,-0.24039173126220703
1684110319520863500,0.686863525390625,-1.0872385501861572,0.8374538421630859,-0.3353104591369629
1684110319530905000,0.696905029296875,-0.907201886177063,0.8865232467651367,-0.4319586753845215
1684110319540946700,0.70694677734375,-0.6104167699813843,0.371734619140625,-0.19495725631713867
1684110319550988300,0.71698828125,0.02166903018951416,-0.010131359100341797,-0.10177373886108398
1684110319561030000,0.72702978515625,0.14691615104675293,-0.2690610885620117,0.11825180053710938
1684110319571071200,0.7370712890625,-0.015137314796447754,-0.47103118896484375,0.24132633209228516
1684110319581112800,0.74711279296875,-0.297066867351532,-0.3796391487121582,0.2760014533996582
1684110319591154400,0.757154541015625,-0.7159137725830078,0.008135795593261719,0.006144046783447266
1684110319601196000,0.767196044921875,-0.95622718334198,-0.034483909606933594,-0.2868485450744629
1684110319611237600,0.777237548828125,-1.074297308921814,-0.12293577194213867,-0.36501026153564453
1684110319621279000,0.787279052734375,-0.8429855704307556,-0.2009601593017578,-0.3869199752807617
1684110319631320600,0.797320556640625,-0.6738433837890625,-0.6764388084411621,0.0135498046875
1684110319641362200,0.807362060546875,-0.28118643164634705,-1.4836626052856445,1.0774497985839844
1684110319651403800,0.81740380859375,0.4875442385673523,-1.9523921012878418,2.2518625259399414
1684110319661445400,0.8274453125,1.0398119688034058,-1.7581233978271484,2.6997780799865723
1684110319671486700,0.83748681640625,0.9486376643180847,-1.1333212852478027,2.3801331520080566
1684110319681528300,0.8475283203125,0.42243659496307373,-0.6537275314331055,1.8635244369506836
1684110319691570000,0.85756982421875,-0.37640291452407837,-0.6458830833435059,1.6477155685424805
1684110319701611500,0.867611572265625,-1.2646769285202026,-0.7430939674377441,1.6224031448364258
1684110319711653000,0.877653076171875,-1.7453815937042236,-0.5943002700805664,1.127462387084961
1684110319721694500,0.887694580078125,-1.242398977279663,-0.023688793182373047,0.2177877426147461
1684110319731736000,0.897736083984375,-0.4066803455352783,0.25870704650878906,-0.35410070419311523
1684110319741777700,0.907777587890625,0.01725497841835022,0.1275191307067871,-0.6642398834228516
1684110319751819300,0.9178193359375,0.10403706133365631,0.08114767074584961,-0.7784562110900879
1684110319761860900,0.92786083984375,-0.06471371650695801,-0.023928165435791016,-0.694737434387207
1684110319771902500,0.93790234375,0.09993034601211548,-0.550788402557373,-0.2509603500366211
1684110319781943800,0.94794384765625,0.3607887625694275,-0.8114142417907715,0.3967118263244629
1684110319791985400,0.9579853515625,1.7310383319854736,-2.188094139099121,2.26308536529541
1684110319802027000,0.968027099609375,1.7394299507141113,-0.40293407440185547,1.1634182929992676
1684110319812068600,0.978068603515625,1.2362606525421143,-0.24207592010498047,0.14895915985107422
1684110319822110000,0.98810986328125,1.2298775911331177,0.253509521484375,0.3928213119506836
1684110319832151600,0.998151611328125,1.0538374185562134,0.762366771697998,0.7641143798828125
1684110319842193200,1.008193115234375,0.41926223039627075,0.8905420303344727,0.6798210144042969
1684110319852234800,1.01823486328125,0.31853318214416504,0.736567497253418,0.8437838554382324
1684110319862276400,1.0282763671875,0.5216861367225647,0.8316226005554199,1.125314712524414
1684110319872317700,1.038317626953125,0.29313915967941284,1.1231904029846191,1.2350239753723145
1684110319882359300,1.048359375,-0.03215162456035614,1.8698482513427734,0.29895973205566406
1684110319892401000,1.05840087890625,-1.2291446924209595,0.847867488861084,-0.8237414360046387
1684110319902442500,1.0684423828125,-1.2057263851165771,0.5592761039733887,-1.2780561447143555
1684110319912484000,1.078484130859375,-0.21525351703166962,1.2153401374816895,-0.9014863967895508
1684110319922525700,1.088525634765625,0.21379834413528442,0.6312408447265625,-0.027110576629638672
1684110319932567000,1.098567138671875,0.2511976361274719,0.060344696044921875,0.1841416358947754
1684110319942608600,1.108608642578125,0.27224230766296387,-0.04114389419555664,-0.06557559967041016
1684110319952650200,1.118650146484375,0.16422155499458313,0.013108253479003906,-0.2154374122619629
1684110319962691800,1.12869189453125,0.18241345882415771,-0.15705156326293945,-0.2495579719543457
1684110319972733400,1.1387333984375,0.5181524157524109,-0.6323590278625488,0.24079561233520508
1684110319982774800,1.14877490234375,0.5640485882759094,-0.6555180549621582,0.3904151916503906
1684110319992816400,1.15881640625,0.4468500316143036,-0.7334365844726562,0.41205549240112305
1684110320002858000,1.16885791015625,0.3683837950229645,-0.31830692291259766,-0.1963343620300293
1684110320012899600,1.178899658203125,-0.24082614481449127,-0.3114142417907715,-1.0270047187805176
1684110320022941000,1.18894091796875,-1.5360450744628906,-0.7166166305541992,-1.6779823303222656
1684110320032982500,1.198982421875,-0.8498857617378235,0.26588869094848633,-0.9062576293945312
1684110320043024100,1.209024169921875,-0.19565390050411224,-0.19197368621826172,-0.40201854705810547
1684110320053065700,1.219065673828125,0.07264147698879242,-0.9152741432189941,-0.08238887786865234
1684110320063107300,1.229107421875,0.2867234945297241,-0.7192234992980957,0.4740762710571289
1684110320073149000,1.23914892578125,0.0460418164730072,-0.6638264656066895,0.518549919128418
1684110320083190300,1.249190185546875,-0.1892273873090744,-0.6734714508056641,-0.007978439331054688
1684110320093231900,1.25923193359375,-0.014251172542572021,-0.5509424209594727,-0.2767801284790039
1684110320103273500,1.2692734375,0.14306487143039703,-0.45377540588378906,-0.526482105255127
1684110320113315000,1.279315185546875,0.11958315968513489,-0.44840574264526367,-0.5860295295715332
1684110320123356700,1.289356689453125,0.13698919117450714,0.036380767822265625,-0.492063045501709
1684110320133398000,1.29939794921875,-0.030780106782913208,-0.09115934371948242,-0.3385500907897949
1684110320143439600,1.309439697265625,-0.08356878161430359,0.09036064147949219,-0.3138751983642578
1684110320153481200,1.319481201171875,-0.4070470929145813,0.2681870460510254,-0.841301441192627
1684110320163522800,1.329522705078125,-0.30692219734191895,-0.2289600372314453,-0.9959220886230469
1684110320173564400,1.339564453125,0.10431885719299316,-0.27523183822631836,-0.8078041076660156
1684110320183605800,1.349605712890625,0.29595863819122314,0.10522174835205078,-0.541325569152832
1684110320193647400,1.3596474609375,0.6600138545036316,0.42853355407714844,-0.12134265899658203
1684110320203689000,1.36968896484375,0.2921709716320038,1.1301922798156738,0.06463813781738281
1684110320213730600,1.37973046875,-0.08290755748748779,1.2063355445861816,-0.39539289474487305
1684110320223772200,1.389772216796875,-0.1782347559928894,-0.04027509689331055,0.07401180267333984
1684110320233813800,1.399813720703125,0.05518662929534912,-0.7134237289428711,0.09897470474243164
1684110320243855000,1.409855224609375,0.26961636543273926,-0.671565055847168,-0.12398099899291992
1684110320253896700,1.419896728515625,0.5540605783462524,-0.21042728424072266,-0.1224822998046875
1684110320263938300,1.429938232421875,0.3588082194328308,0.1383371353149414,-0.2660493850708008
1684110320273980000,1.43997998046875,-0.14758062362670898,0.19235897064208984,-0.24659013748168945
1684110320284021200,1.450021240234375,-0.5934867858886719,-0.2715635299682617,-0.04096508026123047
1684110320294062800,1.460062744140625,-0.8214367628097534,-0.4647693634033203,-0.012253761291503906
1684110320304104400,1.4701044921875,-1.2233575582504272,-0.6195039749145508,0.22168874740600586
1684110320314146000,1.48014599609375,-1.1136311292648315,-0.1481609344482422,0.31192827224731445
1684110320324187600,1.490187744140625,-0.8097021579742432,0.15413188934326172,0.5549173355102539
1684110320334229000,1.50022900390625,-0.6399103403091431,0.6278672218322754,0.6173577308654785
1684110320344270600,1.5102705078125,-0.6891541481018066,0.8868169784545898,0.5914177894592285
1684110320354312200,1.520312255859375,-0.6986958980560303,0.8988633155822754,0.41502904891967773
1684110320364353800,1.530353759765625,-0.5591287612915039,0.8825531005859375,0.07233333587646484
1684110320374395400,1.5403955078125,-0.4141191244125366,0.8457856178283691,-0.4624195098876953
1684110320384437000,1.55043701171875,-0.49838030338287354,0.7035531997680664,-1.0536680221557617
1684110320394478300,1.560478271484375,-0.45856523513793945,-0.049434661865234375,-1.2472174167633057
1684110320404520000,1.57052001953125,0.20171582698822021,-1.8154726028442383,-0.2932004928588867
1684110320414561500,1.5805615234375,1.1926603317260742,-1.0524559020996094,0.2772560119628906
1684110320424603100,1.59060302734375,0.9284266233444214,-0.6308279037475586,0.6941542625427246
1684110320434644700,1.600644775390625,0.1701127290725708,-0.59332275390625,1.113229751586914
1684110320444686000,1.61068603515625,-0.29734742641448975,-0.8422632217407227,1.55865478515625
1684110320454727700,1.620727783203125,-0.37953662872314453,-1.2769412994384766,2.1822309494018555
1684110320464769300,1.630769287109375,-0.5489411354064941,-1.3422832489013672,2.457073211669922
1684110320474811000,1.640810791015625,-0.6926106214523315,-1.3974943161010742,2.476339340209961
1684110320484852500,1.6508525390625,-0.5148805379867554,-1.245595932006836,1.871096134185791
1684110320494894000,1.66089404296875,-0.3292299509048462,-1.402998924255371,1.085461139678955
1684110320504935400,1.670935302734375,-0.2300349473953247,-1.4505844116210938,0.4568634033203125
1684110320514977000,1.68097705078125,-0.20623314380645752,-1.1920099258422852,-0.1276874542236328
1684110320525018600,1.6910185546875,-0.3168102502822876,-0.7814064025878906,-0.5562615394592285
1684110320535060200,1.701060302734375,-0.4688076972961426,-0.6680431365966797,-0.8675627708435059
1684110320545101800,1.711101806640625,-0.5720188617706299,-0.4679222106933594,-1.1689701080322266
1684110320555143200,1.72114306640625,-0.4634556770324707,-0.5677099227905273,-1.4039561748504639
1684110320565184800,1.731184814453125,-0.10032820701599121,-1.147512435913086,-1.1148731708526611
1684110320575226400,1.741226318359375,0.32031118869781494,-0.7562255859375,-0.533083438873291
1684110320585268000,1.75126806640625,0.39328038692474365,-0.5741643905639648,-0.5067610740661621
1684110320595309600,1.7613095703125,0.3181896209716797,-0.542877197265625,-0.6839609146118164
1684110320605351200,1.77135107421875,0.21040129661560059,-0.5454912185668945,-0.7172305583953857
1684110320615392500,1.781392578125,0.05417966842651367,-0.758824348449707,-0.7859389781951904
1684110320625434000,1.79143408203125,-0.09141874313354492,-1.0246086120605469,-0.639782190322876
1684110320635475700,1.801475830078125,0.07732510566711426,-0.8610372543334961,-0.8799557685852051
1684110320645517300,1.811517333984375,0.5029230117797852,-0.32732582092285156,-0.9844555854797363
1684110320655559000,1.821558837890625,0.6398661136627197,-0.3741426467895508,-0.8943791389465332
1684110320665600300,1.831600341796875,0.6360278129577637,-1.0571603775024414,-1.5091426372528076
1684110320675641900,1.841641845703125,0.6811435222625732,-0.711796760559082,-1.903806447982788
1684110320685683500,1.851683349609375,0.4629037380218506,-0.3335123062133789,-1.6874873638153076
1684110320695725000,1.86172509765625,0.1673424243927002,0.37537336349487305,-1.083378553390503
1684110320705766700,1.8717666015625,-0.256549596786499,-0.48134613037109375,-1.4527106285095215
1684110320715808000,1.88180810546875,-0.27571725845336914,-0.7006902694702148,-1.8426918983459473
1684110320725849600,1.891849609375,-0.06331014633178711,-0.7231740951538086,-1.768977165222168
1684110320735891200,1.90189111328125,0.2925708293914795,-0.6156759262084961,-1.426917552947998
1684110320745932800,1.911932861328125,1.276074767112732,1.063715934753418,-0.31752824783325195
1684110320755974400,1.921974365234375,1.448934555053711,0.8744688034057617,-0.37242603302001953
1684110320766016000,1.93201611328125,1.3336483240127563,1.2354998588562012,-0.4859452247619629
1684110320776057300,1.942057373046875,0.9440722465515137,1.457442283630371,-0.7754113674163818
1684110320786099000,1.952098876953125,0.5738441944122314,1.0664596557617188,-1.0367817878723145
1684110320796140500,1.962140625,0.38021302223205566,0.9676332473754883,-1.1500005722045898
1684110320806182100,1.97218212890625,-0.30603456497192383,-0.4899110794067383,-1.6483557224273682
1684110320816223700,1.9822236328125,-0.4016299247741699,-0.5800657272338867,-1.8972349166870117
1684110320826265000,1.99226513671875,-0.4338674545288086,-0.5093288421630859,-2.1386878490448
1684110320836306700,2.002306640625,-0.33043479919433594,-0.6885013580322266,-1.9983546733856201
1684110320846348300,2.012348388671875,-0.44759559631347656,-1.2956876754760742,-1.9399607181549072
1684110320856390000,2.022389892578125,-0.4278583526611328,-1.8237314224243164,-1.8418457508087158
1684110320866431500,2.032431396484375,-0.32221150398254395,-1.827178955078125,-1.777165174484253
1684110320876473000,2.04247314453125,-0.11304020881652832,-1.2111759185791016,-1.613093614578247
1684110320886514400,2.052514404296875,-0.04925680160522461,-0.46029186248779297,-1.567183494567871
1684110320896556000,2.06255615234375,-0.17319941520690918,0.07177543640136719,-1.448819637298584
1684110320906597600,2.07259765625,-0.29098939895629883,0.3611268997192383,-1.315612554550171
1684110320916639200,2.08263916015625,-0.413771390914917,0.37491607666015625,-1.2377917766571045
1684110320926680800,2.092680908203125,-0.5434246063232422,0.17913246154785156,-1.1213014125823975
1684110320936722200,2.10272216796875,-0.6113171577453613,-0.2000112533569336,-0.9547810554504395
1684110320946763800,2.112763671875,-0.50533127784729,-0.5508193969726562,-0.7860827445983887
1684110320956805400,2.122805419921875,-0.35036683082580566,-0.928675651550293,-0.532968282699585
1684110320966847000,2.132846923828125,-0.1334059238433838,-1.337106704711914,-0.1183309555053711
1684110320976888600,2.142888671875,0.13895249366760254,-1.5774431228637695,0.2903733253479004
1684110320986930200,2.15293017578125,0.4127941131591797,-1.4096946716308594,0.7232275009155273
1684110320996971500,2.162971435546875,0.46991491317749023,-1.0751895904541016,0.8858165740966797
1684110321007013000,2.17301318359375,0.2846486568450928,-0.6546850204467773,0.7619733810424805
1684110321017054700,2.1830546875,0.07464933395385742,-0.2832040786743164,0.12154197692871094
1684110321027096300,2.193096435546875,-0.058487892150878906,-0.020216941833496094,-0.4293525218963623
1684110321037138000,2.203137939453125,-0.11721205711364746,0.07124614715576172,-0.6870229244232178
1684110321047179300,2.21317919921875,-0.12079811096191406,0.11827659606933594,-0.7195188999176025
1684110321057220900,2.223220947265625,0.032999277114868164,0.18111228942871094,-0.6029989719390869
1684110321067262500,2.233262451171875,0.15383243560791016,0.19368791580200195,-0.46396327018737793
1684110321077304000,2.243303955078125,0.20159578323364258,0.237396240234375,-0.38039612770080566
1684110321087345700,2.253345703125,0.15597105026245117,0.16863679885864258,-0.3498268127441406
1684110321097387000,2.263386962890625,0.042290449142456055,0.0948190689086914,-0.2835087776184082
1684110321107428600,2.2734287109375,-0.1138162612915039,0.03264904022216797,-0.25890254974365234
1684110321117470200,2.28347021484375,-0.2308509349822998,-0.021019935607910156,-0.2605898380279541
1684110321127511800,2.29351171875,-0.14960718154907227,0.15526676177978516,-0.25807881355285645
1684110321137553400,2.303553466796875,0.015335559844970703,0.21999216079711914,-0.32366085052490234
1684110321147595000,2.313594970703125,0.13603472709655762,0.34572696685791016,-0.26647138595581055
1684110321157636400,2.32363623046875,0.21590590476989746,0.5068421363830566,-0.2725210189819336
1684110321167678000,2.333677978515625,0.28134608268737793,0.6916894912719727,-0.290543794631958
1684110321177719600,2.343719482421875,0.5482230186462402,1.3936705589294434,-0.2873859405517578
1684110321187761200,2.35376123046875,0.6178662776947021,1.9893617630004883,0.04968881607055664
1684110321197802800,2.363802734375,0.5545368194580078,2.1354212760925293,-0.1055002212524414
1684110321207844000,2.373843994140625,0.3647305965423584,1.8928918838500977,-0.4346437454223633
1684110321217885700,2.3838857421875,0.16530704498291016,1.617746353149414,-0.6928877830505371
1684110321227927300,2.39392724609375,0.01867055892944336,1.2490320205688477,-0.8387894630432129
1684110321237969000,2.403968994140625,0.01135110855102539,0.9149923324584961,-0.8545253276824951
1684110321248010500,2.414010498046875,0.0812826156616211,0.7238597869873047,-0.753699779510498
1684110321258052000,2.424052001953125,0.14749979972839355,0.29394054412841797,-0.6465799808502197
1684110321268093400,2.434093505859375,0.11502861976623535,-0.2756795883178711,-0.6554486751556396
1684110321278135000,2.444135009765625,0.10409951210021973,-0.78155517578125,-0.649355411529541
1684110321288176600,2.4541767578125,0.04671525955200195,-1.0497932434082031,-0.5802478790283203
1684110321298218200,2.46421826171875,0.06966090202331543,-1.3238096237182617,-0.5782439708709717
1684110321308259800,2.474259765625,-0.010569334030151367,-1.8311424255371094,-0.432725191116333
1684110321318301400,2.484301513671875,-0.18137907981872559,-2.5216569900512695,-0.3012990951538086
1684110321328342800,2.4943427734375,-0.568976640701294,-2.994969367980957,-0.15322351455688477
1684110321338384400,2.50438427734375,-1.123396396636963,-3.0194835662841797,-0.0757608413696289
1684110321348426000,2.514426025390625,-1.819746732711792,-2.579848289489746,0.1353158950805664
1684110321358467600,2.524467529296875,-2.4776809215545654,-1.7859258651733398,0.7521877288818359
1684110321368509200,2.53450927734375,-3.2073307037353516,-1.4742546081542969,0.97381591796875
1684110321378550800,2.54455078125,-3.649894952774048,-1.3332395553588867,0.9394712448120117
1684110321388592000,2.554592041015625,-3.506963014602661,-1.0273828506469727,0.6323237419128418
1684110321398633700,2.5646337890625,-2.517810821533203,-0.4111919403076172,0.11909961700439453
1684110321408675300,2.57467529296875,-1.2745718955993652,0.108428955078125,-0.34648895263671875
1684110321418717000,2.584717041015625,-0.2736198902130127,0.34841251373291016,-0.5829441547393799
1684110321428758500,2.594758544921875,0.5000385046005249,0.3652639389038086,-0.7176637649536133
1684110321438800000,2.6047998046875,1.1037442684173584,0.3698539733886719,-0.5852985382080078
1684110321448841500,2.614841552734375,1.583457112312317,0.41433048248291016,-0.4307422637939453
1684110321458883000,2.624883056640625,2.210407257080078,0.49546241760253906,-0.3261086940765381
1684110321468924700,2.634924560546875,2.578375816345215,0.6791253089904785,-0.06612348556518555
1684110321478966300,2.64496630859375,2.7489123344421387,0.6212568283081055,0.0007090568542480469
1684110321489007900,2.6550078125,2.847349166870117,0.6198282241821289,0.20938396453857422
1684110321499049200,2.66504931640625,2.7118418216705322,0.60943603515625,0.46277570724487305
1684110321509090800,2.6750908203125,2.3569729328155518,0.5421514511108398,0.5860528945922852
1684110321519132400,2.68513232421875,2.033001661300659,0.5279474258422852,0.6827235221862793
1684110321529174000,2.695174072265625,1.6684904098510742,0.8769993782043457,1.011354684829712
1684110321539215600,2.705215576171875,1.152774691581726,0.7940988540649414,0.9912140369415283
1684110321549257000,2.715257080078125,0.6647059917449951,0.6718540191650391,0.9882490634918213
1684110321559298600,2.725298583984375,0.1559661626815796,0.44056034088134766,1.0431079864501953
1684110321569340200,2.735340087890625,-0.17451143264770508,0.26212596893310547,1.0631451606750488
1684110321579381800,2.7453818359375,-0.37659144401550293,0.10533809661865234,0.9196982383728027
1684110321589423400,2.75542333984375,-0.2742125988006592,0.04118061065673828,0.7381153106689453
1684110321599465000,2.76546484375,0.027559995651245117,-0.1405315399169922,0.4048786163330078
1684110321609506600,2.775506591796875,0.3697955012321472,-0.3311014175415039,0.08836984634399414
1684110321619548000,2.7855478515625,0.5602086782455444,-0.4700355529785156,-0.2003934383392334
1684110321629589500,2.795589599609375,0.656548023223877,-0.5377235412597656,-0.41640448570251465
1684110321639631000,2.805631103515625,0.6910721063613892,-0.5412912368774414,-0.6837038993835449
1684110321649672700,2.815672607421875,0.6273242831230164,-0.35695934295654297,-0.7954161167144775
1684110321659714300,2.82571435546875,0.5598775148391724,-0.21488475799560547,-0.8156135082244873
1684110321669756000,2.835755859375,0.48354601860046387,-0.20823955535888672,-0.8425273895263672
1684110321679797200,2.84579736328125,0.4109881520271301,-0.24613189697265625,-0.7725019454956055
1684110321689838800,2.8558388671875,0.38023948669433594,-0.29988956451416016,-0.7251181602478027
1684110321699880400,2.86588037109375,0.3226872682571411,-0.4382591247558594,-0.6984210014343262
1684110321709922000,2.875922119140625,0.21376484632492065,-0.6176557540893555,-0.6785688400268555
1684110321719963600,2.885963623046875,0.10153031349182129,-0.7975616455078125,-0.6700434684753418
1684110321730005000,2.8960048828125,0.05533057451248169,-0.798283576965332,-0.6758818626403809
1684110321740046600,2.906046630859375,-0.018627643585205078,-0.7832574844360352,-0.5805354118347168
1684110321750088200,2.916088134765625,-0.07846730947494507,-0.6957902908325195,-0.5427253246307373
1684110321760129800,2.9261298828125,-0.06844595074653625,-0.42621326446533203,-0.3940560817718506
1684110321770171400,2.93617138671875,-0.004147768020629883,-0.1986246109008789,-0.21350622177124023
1684110321780212700,2.946212646484375,0.03548163175582886,0.00437164306640625,-0.12648725509643555
1684110321790254300,2.95625439453125,0.11257117986679077,0.12222576141357422,-0.08751726150512695
1684110321800296000,2.9662958984375,0.2659178376197815,0.1673297882080078,-0.07303905487060547
1684110321810337500,2.976337646484375,0.4417271614074707,0.14026451110839844,-0.018619537353515625
1684110321820379100,2.986379150390625,0.586908221244812,0.1178731918334961,0.044655799865722656
1684110321830420700,2.996420654296875,0.6586859822273254,0.018798828125,0.12806367874145508
1684110321840462300,3.00646240234375,0.6663163304328918,-0.06581878662109375,0.13175678253173828
1684110321850503700,3.016503662109375,0.6414676308631897,-0.06417083740234375,0.09006452560424805
1684110321860545300,3.026545166015625,0.5856327414512634,-0.05312156677246094,0.19132184982299805
1684110321870587000,3.0365869140625,0.5720690488815308,-0.11680316925048828,0.21442699432373047
1684110321880628500,3.04662841796875,0.5280716419219971,-0.18605327606201172,0.14005422592163086
1684110321890670000,3.056670166015625,0.5210275650024414,-0.21055889129638672,0.08346176147460938
1684110321900711700,3.066711669921875,0.46882057189941406,-0.20702362060546875,-0.007643222808837891
1684110321910753000,3.0767529296875,0.42264091968536377,-0.25174903869628906,-0.025507450103759766
1684110321920794600,3.086794677734375,0.3313892185688019,-0.28259849548339844,0.0032362937927246094
1684110321930836200,3.096836181640625,0.26952439546585083,-0.2637367248535156,-0.04302787780761719
1684110321940877800,3.1068779296875,0.21461330354213715,-0.20711994171142578,-0.10165929794311523
1684110321950919400,3.11691943359375,0.2164248824119568,-0.1533184051513672,-0.20097780227661133
1684110321960960800,3.126960693359375,0.21205353736877441,-0.0879669189453125,-0.25725841522216797
1684110321971002400,3.13700244140625,0.2527260184288025,-0.025377273559570312,-0.33025670051574707
1684110321981044000,3.1470439453125,0.29996365308761597,-0.015424728393554688,-0.37177610397338867
1684110321991085600,3.15708544921875,0.3500078618526459,-0.014735221862792969,-0.36473965644836426
1684110322001127200,3.167127197265625,0.4229716658592224,-0.09502601623535156,-0.2547435760498047
1684110322011168800,3.177168701171875,0.4557752013206482,-0.1893463134765625,-0.18557310104370117
1684110322021210400,3.18721044921875,0.5079172253608704,-0.2069110870361328,-0.1307353973388672
1684110322031251700,3.197251708984375,0.5222758650779724,-0.15507125854492188,-0.0948495864868164
1684110322041293300,3.207293212890625,0.5705915093421936,-0.1415395736694336,-0.04704475402832031
1684110322051335000,3.2173349609375,0.6193708181381226,-0.13530445098876953,0.04817008972167969
1684110322061376500,3.22737646484375,0.6755823493003845,-0.07676029205322266,0.10934066772460938
1684110322071418000,3.237418212890625,0.7105110883712769,-0.037456512451171875,0.10597658157348633
1684110322081459500,3.24745947265625,0.7572603225708008,-0.014760017395019531,0.08161115646362305
1684110322091501000,3.2575009765625,0.7525071501731873,0.02929401397705078,0.029015064239501953
1684110322101542700,3.267542724609375,0.7326921224594116,0.09389114379882812,0.07639503479003906
1684110322111584300,3.277584228515625,0.6813262701034546,0.162200927734375,0.050230979919433594
1684110322121625900,3.2876259765625,0.6294889450073242,0.22445011138916016,0.1183176040649414
1684110322131667500,3.29766748046875,0.5639457106590271,0.2738161087036133,0.17341327667236328
1684110322141708800,3.307708740234375,0.4929463267326355,0.23749351501464844,0.28154802322387695
1684110322151750400,3.31775048828125,0.42845457792282104,0.20384693145751953,0.40146970748901367
1684110322161792000,3.3277919921875,0.3679484724998474,0.16815662384033203,0.44124269485473633
1684110322171833600,3.33783349609375,0.36994320154190063,0.16609477996826172,0.47111940383911133
1684110322181875200,3.347875244140625,0.3720051646232605,0.1619405746459961,0.4703798294067383
1684110322191916800,3.357916748046875,0.3221278786659241,0.18189430236816406,0.43064117431640625
1684110322201958400,3.36795849609375,0.28837743401527405,0.1780691146850586,0.39420652389526367
1684110322211999700,3.377999755859375,0.20879679918289185,0.12949848175048828,0.2665400505065918
1684110322222041300,3.388041259765625,0.17463216185569763,0.03496265411376953,0.17228126525878906
1684110322232083000,3.3980830078125,0.08528301119804382,-0.04331207275390625,0.09007406234741211
1684110322242124500,3.40812451171875,0.004091709852218628,-0.07021617889404297,0.04094648361206055
1684110322252166100,3.418166259765625,-0.04229697585105896,-0.08877277374267578,-0.03417778015136719
1684110322262207500,3.42820751953125,-0.016696900129318237,-0.07305335998535156,-0.07570362091064453
1684110322272249000,3.4382490234375,0.04899019002914429,-0.07070541381835938,-0.0865168571472168
1684110322282290700,3.448290771484375,0.1675240397453308,-0.06493091583251953,-0.019815921783447266
1684110322292332300,3.458332275390625,0.297376811504364,-0.011278152465820312,0.10390043258666992
1684110322302374000,3.468373779296875,0.39363789558410645,0.14811992645263672,0.15854215621948242
1684110322312415500,3.47841552734375,0.5324394106864929,0.1761455535888672,0.2042374610900879
1684110322322456800,3.488456787109375,0.6541396975517273,0.14821147918701172,0.1921696662902832
1684110322332498400,3.49849853515625,0.755980372428894,0.13340282440185547,0.26437950134277344
1684110322342540000,3.5085400390625,0.7957437038421631,0.1149606704711914,0.3605055809020996
1684110322352581600,3.51858154296875,0.816252589225769,0.1612691879272461,0.4708847999572754
1684110322362623200,3.528623291015625,0.8427726030349731,0.2518625259399414,0.530698299407959
1684110322372664800,3.538664794921875,0.8726020455360413,0.33179473876953125,0.5971884727478027
1684110322382706200,3.5487060546875,0.8713030815124512,0.3401374816894531,0.6444792747497559
1684110322392747800,3.558747802734375,0.835666298866272,0.3319272994995117,0.7734708786010742
1684110322402789400,3.568789306640625,0.8705552816390991,0.2830514907836914,0.9952139854431152
1684110322412831000,3.5788310546875,0.8384997248649597,0.08542251586914062,1.147110939025879
1684110322422872600,3.58887255859375,0.8307782411575317,0.02348804473876953,1.099902629852295
1684110322432914200,3.5989140625,0.7484886646270752,0.1814594268798828,0.9924907684326172
1684110322442955500,3.60895556640625,0.5839718580245972,0.2488574981689453,0.7516851425170898
1684110322452997000,3.6189970703125,0.3796263039112091,0.19462966918945312,0.42301368713378906
1684110322463038700,3.629038818359375,0.2047589123249054,0.005469322204589844,0.04067373275756836
1684110322473080300,3.639080322265625,-0.04101058840751648,-0.21674442291259766,-0.34140968322753906
1684110322483122000,3.649121826171875,-0.17446395754814148,-0.3104400634765625,-0.7310945987701416
1684110322493163500,3.65916357421875,-0.15392187237739563,-0.26305389404296875,-1.030935525894165
1684110322503205000,3.669205078125,-0.16112227737903595,-0.3189229965209961,-1.3311374187469482
1684110322513246500,3.67924658203125,-0.186568945646286,-0.38155078887939453,-1.5645921230316162
1684110322523288000,3.6892880859375,-0.22979621589183807,-0.44266700744628906,-1.6370067596435547
1684110322533329700,3.69932958984375,-0.20368000864982605,-0.5186214447021484,-1.6561501026153564
1684110322543371300,3.709371337890625,-0.12666955590248108,-0.57183837890625,-1.5186371803283691
1684110322553412900,3.719412841796875,0.022369414567947388,-0.4836158752441406,-1.2333343029022217
1684110322563454200,3.7294541015625,0.141512930393219,-0.32893848419189453,-0.8850898742675781
1684110322573495800,3.739495849609375,0.2369312345981598,-0.23561573028564453,-0.5283651351928711
1684110322583537400,3.749537353515625,0.2783106863498688,-0.20444011688232422,-0.2602357864379883
1684110322593579000,3.7595791015625,0.3266388177871704,-0.1683979034423828,-0.07791280746459961
1684110322603620600,3.76962060546875,0.3929242789745331,-0.03869819641113281,-0.04227256774902344
1684110322613662200,3.779662109375,0.4410637617111206,-0.01793670654296875,-0.07773303985595703
1684110322623703800,3.789703857421875,0.40476152300834656,-0.12251091003417969,-0.27962589263916016
1684110322633745200,3.7997451171875,0.25325295329093933,-0.34014225006103516,-0.5878643989562988
1684110322643786800,3.809786865234375,0.04672937095165253,-0.4980478286743164,-0.908017635345459
1684110322653828400,3.819828369140625,-0.1575758159160614,-0.6826705932617188,-1.3507251739501953
1684110322663870000,3.829869873046875,-0.3740764260292053,-0.933135986328125,-1.523766040802002
1684110322673911600,3.83991162109375,-0.5525705218315125,-1.1533374786376953,-1.7015995979309082
1684110322683953000,3.849952880859375,-0.6620094180107117,-1.2906494140625,-1.8050949573516846
1684110322693994500,3.859994384765625,-0.6745553016662598,-1.2481937408447266,-1.8098390102386475
1684110322704036000,3.8700361328125,-0.6450732946395874,-0.9849233627319336,-1.72871732711792
1684110322714077700,3.88007763671875,-0.6303591728210449,-0.5856399536132812,-1.6375854015350342
1684110322724119300,3.890119384765625,-0.576545238494873,-0.1602935791015625,-1.3857746124267578
1684110322734161000,3.900160888671875,-0.400951087474823,0.16958045959472656,-0.800999641418457
1684110322744202200,3.9102021484375,-0.14367228746414185,0.4223642349243164,-0.13876771926879883
1684110322754243800,3.920243896484375,0.04358137398958206,0.5606746673583984,0.37305736541748047
1684110322764285400,3.930285400390625,0.15048986673355103,0.6221780776977539,0.7095179557800293
1684110322774327000,3.9403271484375,0.1744672954082489,0.6860246658325195,0.9431161880493164
1684110322784368600,3.95036865234375,0.19555656611919403,0.6882314682006836,1.0989375114440918
1684110322794410200,3.96041015625,0.177181214094162,0.6366710662841797,1.201948642730713
1684110322804451800,3.970451904296875,0.12544848024845123,0.4917898178100586,1.2682170867919922
1684110322814493200,3.9804931640625,0.04043205827474594,0.26134777069091797,1.2626676559448242
1684110322824534800,3.99053466796875,-0.11649257689714432,0.00849151611328125,1.1180305480957031
1684110322834576400,4.000576416015625,-0.3668196201324463,-0.10996627807617188,0.6922163963317871
1684110322844618000,4.010617919921875,-0.658047080039978,-0.20271873474121094,0.23025846481323242
1684110322854659600,4.02065966796875,-0.8962692022323608,-0.31622791290283203,-0.10019636154174805
1684110322864701000,4.030700927734375,-1.049573540687561,-0.4549074172973633,-0.27990245819091797
1684110322874742500,4.040742431640625,-1.1980953216552734,-0.5328359603881836,-0.43634700775146484
1684110322884784000,4.0507841796875,-1.195483684539795,-0.502284049987793,-0.6246719360351562
1684110322894825700,4.06082568359375,-1.0956004858016968,-0.4183502197265625,-0.7851459980010986
1684110322904867300,4.070867431640625,-0.8721989989280701,-0.26970386505126953,-0.7777979373931885
1684110322914909000,4.080908935546875,-0.6639889478683472,-0.162139892578125,-0.6968493461608887
1684110322924950500,4.090950439453125,-0.4110899269580841,-0.04051685333251953,-0.589566707611084
1684110322934992000,4.100991943359375,-0.11984770745038986,0.0788259506225586,-0.4167752265930176
1684110322945033500,4.111033447265625,0.1272369772195816,0.19596004486083984,-0.23105812072753906
1684110322955075000,4.121074951171875,0.3670327961444855,0.26514148712158203,-0.08584880828857422
1684110322965116700,4.13111669921875,0.5129725933074951,0.28388309478759766,0.049434661865234375
1684110322975158300,4.141158203125,0.5996838212013245,0.2713508605957031,0.10526609420776367
1684110322985199600,4.15119970703125,0.6588306427001953,0.2109537124633789,0.16534185409545898
1684110322995241200,4.1612412109375,0.6082322597503662,0.1456432342529297,0.12411880493164062
1684110323005282800,4.17128271484375,0.47464680671691895,0.07062625885009766,0.03188943862915039
1684110323015324400,4.181324462890625,0.2577579617500305,0.022195816040039062,-0.16041898727416992
1684110323025366000,4.191365966796875,0.008429840207099915,-0.04474925994873047,-0.28220272064208984
1684110323035407600,4.20140771484375,-0.2107124626636505,-0.0846405029296875,-0.4215826988220215
1684110323045449200,4.21144921875,-0.3634128272533417,-0.10701847076416016,-0.48990488052368164
1684110323055490600,4.221490478515625,-0.46642693877220154,-0.1241903305053711,-0.42583608627319336
1684110323065532200,4.2315322265625,-0.5207021236419678,-0.1339864730834961,-0.38292646408081055
1684110323075573800,4.24157373046875,-0.5452523827552795,-0.10064506530761719,-0.3635826110839844
1684110323085615400,4.251615478515625,-0.48386648297309875,-0.07204627990722656,-0.27940940856933594
1684110323095657000,4.261656982421875,-0.38445645570755005,-0.007864952087402344,-0.1455240249633789
1684110323105698600,4.271698486328125,-0.2396441102027893,0.039175987243652344,-0.10557985305786133
1684110323115740000,4.281739990234375,-0.1361633837223053,0.028270721435546875,-0.004653453826904297
1684110323125781500,4.291781494140625,-0.06948748230934143,0.045569419860839844,-0.026726245880126953
1684110323135823000,4.301822998046875,-0.020907089114189148,0.052918434143066406,-0.03276538848876953
1684110323145864700,4.31186474609375,-0.017025649547576904,0.09578227996826172,-0.07524299621582031
1684110323155906300,4.32190625,-0.017566785216331482,0.0834503173828125,-0.13951826095581055
1684110323165948000,4.331947998046875,-0.06284831464290619,0.035141944885253906,-0.19214248657226562
1684110323175989200,4.3419892578125,-0.1260567307472229,-0.022413253784179688,-0.26581907272338867
1684110323186030800,4.35203076171875,-0.19555430114269257,-0.09106922149658203,-0.2997879981994629
1684110323196072400,4.362072509765625,-0.2738988399505615,-0.14234638214111328,-0.30890941619873047
1684110323206114000,4.372114013671875,-0.33640262484550476,-0.154754638671875,-0.3050522804260254
1684110323216155600,4.38215576171875,-0.3939381241798401,-0.13304805755615234,-0.23302268981933594
1684110323226197200,4.392197265625,-0.46966999769210815,-0.07995414733886719,-0.11734151840209961
1684110323236238800,4.40223876953125,-0.4937594532966614,-0.02451324462890625,-0.01840496063232422
1684110323246280200,4.4122802734375,-0.4898711144924164,0.009252548217773438,0.09700822830200195
1684110323256321800,4.42232177734375,-0.4529286324977875,0.013882637023925781,0.18041563034057617
1684110323266363400,4.43236328125,-0.3785949647426605,0.07766151428222656,0.23635196685791016
1684110323276405000,4.442405029296875,-0.3012635111808777,0.1002645492553711,0.19105911254882812
1684110323286446600,4.452446533203125,-0.2188660204410553,0.16066741943359375,0.0982203483581543
1684110323296488200,4.46248828125,-0.1441592574119568,0.1584634780883789,0.0343012809753418
1684110323306529500,4.472529541015625,-0.1508713960647583,0.09479999542236328,-0.005742549896240234
1684110323316571100,4.482571044921875,-0.21909981966018677,0.015542984008789062,-0.057425498962402344
1684110323326612700,4.49261279296875,-0.27173855900764465,-0.10970211029052734,-0.11825037002563477
1684110323336654300,4.502654296875,-0.3572881519794464,-0.18836116790771484,-0.15975284576416016
1684110323346696000,4.512696044921875,-0.43609580397605896,-0.24929046630859375,-0.21242141723632812
1684110323356737500,4.522737548828125,-0.49414339661598206,-0.2597360610961914,-0.27823495864868164
1684110323366779100,4.532779052734375,-0.515428364276886,-0.28412628173828125,-0.35468292236328125
1684110323376820500,4.542820556640625,-0.5306098461151123,-0.2727546691894531,-0.4391140937805176
1684110323386862000,4.552862060546875,-0.5034939646720886,-0.26152610778808594,-0.44185638427734375
1684110323396903700,4.562903564453125,-0.45067736506462097,-0.2504901885986328,-0.44436168670654297
1684110323406945300,4.5729453125,-0.38421911001205444,-0.22799968719482422,-0.46098947525024414
1684110323416987000,4.58298681640625,-0.29344671964645386,-0.19661521911621094,-0.4374415874481201
1684110323427028200,4.5930283203125,-0.20611447095870972,-0.13521575927734375,-0.41671085357666016
1684110323437069800,4.60306982421875,-0.14245539903640747,-0.09837913513183594,-0.3728451728820801
1684110323447111400,4.613111328125,-0.07914683222770691,-0.09508323669433594,-0.3109438419342041
1684110323457153000,4.623153076171875,-0.048730045557022095,-0.07293891906738281,-0.2476816177368164
1684110323467194600,4.633194580078125,-0.019328951835632324,-0.051116943359375,-0.22073030471801758
1684110323477236200,4.643236328125,-0.007210820913314819,-0.013115882873535156,-0.2459115982055664
1684110323487277800,4.65327783203125,-0.014919310808181763,-0.029761314392089844,-0.21397113800048828
1684110323497319200,4.663319091796875,-0.024083048105239868,-0.029491424560546875,-0.18709897994995117
1684110323507360800,4.67336083984375,-0.06980252265930176,-0.045479774475097656,-0.17682266235351562
1684110323517402400,4.68340234375,-0.09182009100914001,-0.03272438049316406,-0.16866159439086914
1684110323527444000,4.69344384765625,-0.12747833132743835,-0.03413867950439453,-0.1649799346923828
1684110323537485600,4.703485595703125,-0.13916882872581482,-0.009485244750976562,-0.15871667861938477
1684110323547527200,4.713527099609375,-0.13210058212280273,0.02191162109375,-0.14768362045288086
1684110323557568800,4.72356884765625,-0.1042131781578064,0.015140533447265625,-0.12504005432128906
1684110323567610000,4.733610107421875,-0.11235019564628601,-0.010436058044433594,-0.1406416893005371
1684110323577651700,4.743651611328125,-0.11845424771308899,-0.045081138610839844,-0.10440349578857422
1684110323587693300,4.753693359375,-0.1346520185470581,-0.05324077606201172,-0.14650726318359375
1684110323597735000,4.76373486328125,-0.165381520986557,-0.05175590515136719,-0.12658071517944336
1684110323607776500,4.773776611328125,-0.20064425468444824,-0.04552936553955078,-0.15162944793701172
1684110323617817900,4.78381787109375,-0.22364339232444763,-0.04169178009033203,-0.15258216857910156
1684110323627859500,4.793859375,-0.21817362308502197,-0.0143890380859375,-0.13944196701049805
1684110323637901000,4.803901123046875,-0.2293775975704193,-0.01820087432861328,-0.1148676872253418
1684110323647942700,4.813942626953125,-0.24977654218673706,-0.057372093200683594,-0.09093570709228516
1684110323657984300,4.823984375,-0.2531423568725586,-0.11941909790039062,-0.1356205940246582
1684110323668025900,4.83402587890625,-0.2418871521949768,-0.12386226654052734,-0.18172407150268555
1684110323678067500,4.8440673828125,-0.23090329766273499,-0.11625099182128906,-0.19837522506713867
1684110323688108800,4.85410888671875,-0.19703462719917297,-0.08268070220947266,-0.16730976104736328
1684110323698150400,4.864150390625,-0.17795312404632568,-0.016664505004882812,-0.08959150314331055
1684110323708192000,4.87419189453125,-0.16827893257141113,0.0033979415893554688,-0.03222846984863281
1684110323718233600,4.884233642578125,-0.14638495445251465,0.0017099380493164062,0.014345169067382812
1684110323728275200,4.894275146484375,-0.11281949281692505,-0.021326065063476562,0.03152179718017578
1684110323738316800,4.90431689453125,-0.08692693710327148,-0.015982627868652344,0.040807247161865234
1684110323748358400,4.9143583984375,-0.05922237038612366,-0.010846138000488281,0.021423816680908203
1684110323758399700,4.924399658203125,-0.02709677815437317,-0.010602951049804688,-0.040203094482421875
1684110323768441300,4.93444140625,-0.012628167867660522,0.008473396301269531,-0.05142354965209961
1684110323778483000,4.94448291015625,-0.05650901794433594,-0.017393112182617188,-0.06240701675415039
1684110323788524500,4.954524658203125,-0.099222332239151,-0.023888587951660156,-0.08730173110961914
1684110323798566100,4.964566162109375,-0.17063558101654053,-0.020745277404785156,-0.05986499786376953
1684110323808607500,4.974607421875,-0.1864084005355835,-0.008138656616210938,-0.046762943267822266
1684110323818649000,4.984649169921875,-0.18663206696510315,0.020765304565429688,-0.02898263931274414
1684110323828690700,4.994690673828125,-0.15058696269989014,0.03520011901855469,-0.01581573486328125
1684110323838732300,5.004732177734375,-0.10825753211975098,0.025972366333007812,-0.026169300079345703
1684110323848774000,5.01477392578125,-0.0932898223400116,0.04533863067626953,-0.012476444244384766
1684110323858815500,5.0248154296875,-0.08615702390670776,0.0032787322998046875,0.0011658668518066406
1684110323868857000,5.034857177734375,-0.12225109338760376,-0.05214691162109375,-0.0018391609191894531
1684110323878898400,5.0448984375,-0.14440277218818665,-0.0312347412109375,0.028273582458496094
1684110323888940000,5.05493994140625,-0.16166377067565918,-0.029435157775878906,0.029773712158203125
1684110323898981600,5.064981689453125,-0.17809438705444336,0.040607452392578125,0.05250120162963867
1684110323909023200,5.075023193359375,-0.17965784668922424,0.05528736114501953,0.055965423583984375
1684110323919064800,5.08506494140625,-0.15005841851234436,0.04359245300292969,0.1413254737854004
1684110323929106400,5.0951064453125,-0.14888888597488403,0.07417964935302734,0.13286781311035156
1684110323939148000,5.10514794921875,-0.126456618309021,0.07576370239257812,0.1287555694580078
1684110323949189400,5.115189453125,-0.1046634316444397,0.06769180297851562,0.09598970413208008
1684110323959231000,5.12523095703125,-0.09061554074287415,0.05718803405761719,0.051526546478271484
1684110323969272600,5.1352724609375,-0.0791882872581482,0.03023815155029297,0.02398538589477539
1684110323979314200,5.145314208984375,-0.07283210754394531,0.005931854248046875,-0.03875541687011719
1684110323989355800,5.155355712890625,-0.09990045428276062,-0.03923511505126953,-0.06767797470092773
1684110323999397400,5.1653974609375,-0.1079910397529602,-0.0765380859375,-0.13605690002441406
1684110324009439000,5.17543896484375,-0.10202556848526001,-0.10125255584716797,-0.15579938888549805
1684110324019480300,5.185480224609375,-0.07488521933555603,-0.12777137756347656,-0.18902826309204102
1684110324029522000,5.19552197265625,-0.05276945233345032,-0.1018686294555664,-0.16948938369750977
1684110324039563500,5.2055634765625,-0.028819024562835693,-0.09508800506591797,-0.14290714263916016
1684110324049605000,5.215605224609375,0.001543194055557251,-0.09533977508544922,-0.11411619186401367
1684110324059646700,5.225646728515625,0.007951050996780396,-0.048320770263671875,-0.11364269256591797
1684110324069688000,5.23568798828125,0.02874132990837097,-0.011280059814453125,-0.12442684173583984
1684110324079729700,5.245729736328125,0.07982738316059113,0.0299530029296875,-0.12302970886230469
1684110324089771300,5.255771240234375,0.09164394438266754,0.07281684875488281,-0.10057687759399414
1684110324099812900,5.265812744140625,0.0946078896522522,0.10768604278564453,-0.08611249923706055
1684110324109854500,5.2758544921875,0.0677952915430069,0.10181140899658203,-0.022817611694335938
1684110324119896000,5.28589599609375,0.0005949735641479492,0.06297874450683594,0.02036571502685547
1684110324129937700,5.295937744140625,-0.02281893789768219,0.036530494689941406,0.025142669677734375
1684110324139979000,5.30597900390625,-0.021271273493766785,0.03883838653564453,-0.021728515625
1684110324150020600,5.3160205078125,0.0071976035833358765,0.0059108734130859375,-0.0604252815246582
1684110324160062200,5.326062255859375,0.03271396458148956,-0.02631092071533203,-0.053394317626953125
1684110324170103800,5.336103759765625,0.035778701305389404,-0.020195960998535156,-0.01325082778930664
1684110324180145400,5.3461455078125,0.033310309052467346,-0.009402275085449219,-0.013642311096191406
1684110324190187000,5.35618701171875,0.016394317150115967,0.012921333312988281,0.05648326873779297
1684110324200228600,5.366228515625,-0.007401645183563232,0.011181831359863281,0.1086740493774414
1684110324210270000,5.37627001953125,-0.052180707454681396,0.04451274871826172,0.09351587295532227
1684110324220311600,5.3863115234375,-0.07074922323226929,0.10061168670654297,0.08522367477416992
1684110324230353200,5.396353271484375,-0.07312554121017456,0.1061239242553711,0.10722827911376953
1684110324240394800,5.406394775390625,-0.10699498653411865,0.08548641204833984,0.0885152816772461
1684110324250436400,5.416436279296875,-0.1294223964214325,0.027341842651367188,0.0744485855102539
1684110324260478000,5.42647802734375,-0.12800046801567078,0.0006856918334960938,0.09343576431274414
1684110324270519600,5.43651953125,-0.09724129736423492,0.007416725158691406,0.05563783645629883
1684110324280561000,5.446560791015625,-0.09377005696296692,0.0046291351318359375,0.035031795501708984
1684110324290602500,5.4566025390625,-0.055935878306627274,-0.019412994384765625,0.05694723129272461
1684110324300644000,5.46664404296875,-0.04118482396006584,-0.04322052001953125,0.047575950622558594
1684110324310685700,5.476685791015625,-0.023892944678664207,-0.06676959991455078,0.012194156646728516
1684110324320727300,5.486727294921875,-0.042708419263362885,-0.07591533660888672,-0.03223848342895508
1684110324330768600,5.4967685546875,-0.0597589835524559,-0.08970451354980469,-0.10199689865112305
1684110324340810200,5.506810302734375,-0.09378682076931,-0.06563568115234375,-0.16594266891479492
1684110324350851800,5.516851806640625,-0.12069350481033325,-0.09139537811279297,-0.24760055541992188
1684110324360893400,5.5268935546875,-0.16646450757980347,-0.08372688293457031,-0.28776073455810547
1684110324370935000,5.53693505859375,-0.19989120960235596,-0.10669803619384766,-0.3128983974456787
1684110324380976600,5.5469765625,-0.18807871639728546,-0.11969757080078125,-0.3089749813079834
1684110324391018200,5.557018310546875,-0.18076927959918976,-0.12287044525146484,-0.304673433303833
1684110324401059600,5.5670595703125,-0.1610889881849289,-0.1329050064086914,-0.26009058952331543
1684110324411101200,5.57710107421875,-0.12936407327651978,-0.1545238494873047,-0.25856733322143555
1684110324421142800,5.587142822265625,-0.13053342700004578,-0.14986515045166016,-0.24053454399108887
1684110324431184400,5.597184326171875,-0.11707747727632523,-0.14531421661376953,-0.21814870834350586
1684110324441226000,5.60722607421875,-0.06565696001052856,-0.1362619400024414,-0.20112037658691406
1684110324451267600,5.617267578125,-0.036047257483005524,-0.12979602813720703,-0.23868966102600098
1684110324461309200,5.62730908203125,-0.026183269917964935,-0.16592884063720703,-0.2499523162841797
1684110324471350500,5.6373505859375,-0.03645143657922745,-0.16618824005126953,-0.28931736946105957
1684110324481392000,5.64739208984375,-0.04343045502901077,-0.17583560943603516,-0.3067033290863037
1684110324491433700,5.657433837890625,-0.049802035093307495,-0.19461441040039062,-0.3446223735809326
1684110324501475300,5.667475341796875,-0.10516133159399033,-0.17527008056640625,-0.35793447494506836
1684110324511517000,5.677516845703125,-0.15900474786758423,-0.16547393798828125,-0.3657650947570801
1684110324521558500,5.68755859375,-0.1796833723783493,-0.146148681640625,-0.3704094886779785
1684110324531600000,5.697599853515625,-0.20142748951911926,-0.1269245147705078,-0.32032227516174316
1684110324541641500,5.707641357421875,-0.21138952672481537,-0.1266918182373047,-0.32961130142211914
1684110324551683000,5.71768310546875,-0.18154121935367584,-0.09576416015625,-0.3174126148223877
1684110324561724700,5.727724609375,-0.13430577516555786,-0.07235050201416016,-0.34062910079956055
1684110324571766300,5.737766357421875,-0.09634600579738617,-0.07945728302001953,-0.3506622314453125
1684110324581807900,5.747807861328125,-0.05331864953041077,-0.06218719482421875,-0.3377857208251953
1684110324591849500,5.757849365234375,-0.0007006525993347168,-0.023508071899414062,-0.27222251892089844
1684110324601890800,5.767890869140625,0.03996485471725464,0.01711273193359375,-0.20959711074829102
1684110324611932400,5.777932373046875,0.0706353485584259,0.08538341522216797,-0.1454615592956543
1684110324621974000,5.78797412109375,0.08912146091461182,0.09130859375,-0.04704570770263672
1684110324632015600,5.798015625,0.1029091477394104,0.09935665130615234,0.12477588653564453
1684110324642057200,5.80805712890625,0.11218273639678955,0.09520339965820312,0.21066761016845703
1684110324652098800,5.818098876953125,0.12904027104377747,0.16144084930419922,0.3085322380065918
1684110324662140400,5.828140380859375,0.16972601413726807,0.18854808807373047,0.30505943298339844
1684110324672181800,5.838181640625,0.20747104287147522,0.22910594940185547,0.3105626106262207
1684110324682223400,5.848223388671875,0.2566083073616028,0.2240438461303711,0.3766965866088867
1684110324692265000,5.858264892578125,0.2954246401786804,0.2589282989501953,0.4060792922973633
1684110324702306600,5.868306640625,0.3068315386772156,0.2694559097290039,0.45338010787963867
1684110324712348200,5.87834814453125,0.307224839925766,0.31957530975341797,0.4877133369445801
1684110324722389800,5.8883896484375,0.2945297062397003,0.2790193557739258,0.5042996406555176
1684110324732431000,5.89843115234375,0.2884637415409088,0.27646350860595703,0.5152440071105957
1684110324742472700,5.90847265625,0.26101937890052795,0.2522125244140625,0.5107321739196777
1684110324752514300,5.918514404296875,0.28398749232292175,0.18776321411132812,0.4649786949157715
1684110324762556000,5.928555908203125,0.30293068289756775,0.13083362579345703,0.43503427505493164
1684110324772597500,5.938597412109375,0.3038163483142853,0.095458984375,0.3430180549621582
1684110324782639000,5.94863916015625,0.3124561011791229,0.02019500732421875,0.23972320556640625
1684110324792680400,5.958680419921875,0.3425418734550476,-0.0047969818115234375,0.1207432746887207
1684110324802722000,5.96872216796875,0.34622591733932495,-0.03904914855957031,-0.06269598007202148
1684110324812763600,5.978763671875,0.35686343908309937,-0.06577396392822266,-0.17734479904174805
1684110324822805200,5.98880517578125,0.36982262134552,-0.07312488555908203,-0.282804012298584
1684110324832846800,5.998846923828125,0.39476680755615234,-0.10140419006347656,-0.31325745582580566
1684110324842888400,6.008888427734375,0.44533735513687134,-0.09606552124023438,-0.32159900665283203
1684110324852930000,6.018929931640625,0.48783671855926514,-0.09535980224609375,-0.3082153797149658
1684110324862971400,6.028971435546875,0.5101774334907532,-0.07333660125732422,-0.23813080787658691
1684110324873013000,6.039012939453125,0.5310073494911194,-0.042018890380859375,-0.2061481475830078
1684110324883054600,6.0490546875,0.4845510721206665,0.0008096694946289062,-0.10567045211791992
1684110324893096200,6.05909619140625,0.43800055980682373,0.03136444091796875,-0.036834716796875
1684110324903137800,6.0691376953125,0.3565037250518799,0.047453880310058594,0.028981685638427734
1684110324913179400,6.079179443359375,0.3003164529800415,0.04225730895996094,0.10817146301269531
1684110324923221000,6.089220947265625,0.25052928924560547,0.07255935668945312,0.15791845321655273
1684110324933262300,6.099262451171875,0.2048054337501526,0.1071920394897461,0.16461801528930664
1684110324943304000,6.109303955078125,0.20298409461975098,0.14128684997558594,0.17589187622070312
1684110324953345500,6.119345458984375,0.2420371174812317,0.10888862609863281,0.18919754028320312
1684110324963387100,6.12938720703125,0.24810749292373657,0.11478900909423828,0.19061708450317383
1684110324973428700,6.1394287109375,0.25193583965301514,0.09712505340576172,0.19450950622558594
1684110324983470300,6.14947021484375,0.25767725706100464,0.08930110931396484,0.20105981826782227
1684110324993512000,6.159511962890625,0.2368132472038269,0.08873558044433594,0.23131895065307617
1684110325003553300,6.16955322265625,0.20613783597946167,0.09763336181640625,0.24483013153076172
1684110325013595000,6.179594970703125,0.17321759462356567,0.08516979217529297,0.27464723587036133
1684110325023636500,6.189636474609375,0.12645751237869263,0.04210090637207031,0.30596017837524414
1684110325033678000,6.199677978515625,0.07323706150054932,0.03495025634765625,0.2800736427307129
1684110325043719700,6.2097197265625,0.04199540615081787,0.058396339416503906,0.3038334846496582
1684110325053761300,6.21976123046875,0.004278361797332764,0.07653522491455078,0.282041072845459
1684110325063803000,6.229802978515625,-0.03700464963912964,0.049439430236816406,0.26246213912963867
1684110325073844200,6.23984423828125,-0.09085249900817871,0.03439521789550781,0.25917577743530273
1684110325083885800,6.2498857421875,-0.09771007299423218,-0.0017442703247070312,0.2977275848388672
1684110325093927400,6.259927490234375,-0.09340983629226685,-0.030336380004882812,0.2573871612548828
1684110325103969000,6.269968994140625,-0.06924432516098022,0.014379501342773438,0.1983642578125
1684110325114010600,6.2800107421875,-0.0422096848487854,0.02524566650390625,0.15868711471557617
1684110325124052200,6.29005224609375,-0.0005035996437072754,-0.0019321441650390625,0.18028640747070312
1684110325134093800,6.30009375,0.04584825038909912,0.011229515075683594,0.16111278533935547
1684110325144135200,6.31013525390625,0.05868476629257202,0.0053462982177734375,0.14224958419799805
1684110325154176800,6.3201767578125,0.052189767360687256,0.03721046447753906,0.09784460067749023
1684110325164218400,6.33021826171875,0.07151848077774048,0.02382373809814453,0.08014631271362305
1684110325174260000,6.340260009765625,0.06944525241851807,0.005995750427246094,0.10520601272583008
1684110325184301600,6.350301513671875,0.051060616970062256,0.0003299713134765625,0.08529520034790039
1684110325194343200,6.36034326171875,0.07786989212036133,0.030176162719726562,0.058846473693847656
1684110325204384500,6.370384521484375,0.10002303123474121,0.021874427795410156,0.02102041244506836
1684110325214426000,6.380426025390625,0.13180333375930786,0.05845832824707031,-0.0021257400512695312
1684110325224467700,6.3904677734375,0.16337239742279053,0.07560443878173828,-0.02963733673095703
1684110325234509300,6.40050927734375,0.18233197927474976,0.035958290100097656,-0.08723163604736328
1684110325244551000,6.410551025390625,0.1929410696029663,0.013365745544433594,-0.09203577041625977
1684110325254592500,6.420592529296875,0.15283209085464478,-0.025381088256835938,-0.1813817024230957
1684110325264634000,6.430634033203125,0.1361193060874939,-0.08925533294677734,-0.2193756103515625
1684110325274675500,6.440675537109375,0.10048490762710571,-0.14011669158935547,-0.26100587844848633
1684110325284717000,6.450717041015625,0.07959848642349243,-0.14988136291503906,-0.28736209869384766
1684110325294758700,6.460758544921875,0.052157580852508545,-0.14038944244384766,-0.3151431083679199
1684110325304800300,6.47080029296875,0.06054079532623291,-0.1638498306274414,-0.271514892578125
1684110325314841900,6.480841796875,0.0026827454566955566,-0.18918704986572266,-0.23546409606933594
1684110325324883500,6.490883544921875,-0.03349810838699341,-0.22341251373291016,-0.21382379531860352
1684110325334925000,6.500925048828125,-0.09986352920532227,-0.21701717376708984,-0.20421600341796875
1684110325344966400,6.51096630859375,-0.13388097286224365,-0.1942272186279297,-0.20663118362426758
1684110325355008000,6.521008056640625,-0.16119128465652466,-0.1552743911743164,-0.21625089645385742
1684110325365049600,6.531049560546875,-0.1629406213760376,-0.13096237182617188,-0.1998767852783203
1684110325375091200,6.54109130859375,-0.11416298151016235,-0.09994316101074219,-0.1603560447692871
1684110325385132800,6.5511328125,-0.0631827712059021,-0.07184219360351562,-0.14762258529663086
1684110325395174400,6.56117431640625,-0.029294490814208984,-0.05133342742919922,-0.11172819137573242
1684110325405216000,6.571216064453125,-0.02874523401260376,-0.028913497924804688,-0.11433792114257812
1684110325415257300,6.58125732421875,-0.0282323956489563,-0.02101612091064453,-0.11694049835205078
1684110325425299000,6.591298828125,-0.009266197681427002,-0.024992942810058594,-0.12171173095703125
1684110325435340500,6.601340576171875,0.0018432140350341797,-0.050070762634277344,-0.09801292419433594
1684110325445382100,6.611382080078125,-0.0015976428985595703,-0.041762351989746094,-0.0628662109375
1684110325455423700,6.621423828125,-0.019214391708374023,-0.02180194854736328,-0.0635528564453125
1684110325465465300,6.63146533203125,-0.012971460819244385,-0.028055191040039062,-0.07361698150634766
1684110325475507000,6.6415068359375,0.0029531121253967285,-0.017721176147460938,-0.03649330139160156
1684110325485548300,6.65154833984375,-0.03069615364074707,-0.033469200134277344,-0.047119140625
1684110325495590000,6.66158984375,-0.021571338176727295,-0.06312942504882812,-0.005838871002197266
1684110325505631500,6.671631591796875,-0.05061525106430054,-0.06634521484375,0.02552318572998047
1684110325515673000,6.681673095703125,-0.06302040815353394,-0.036530494689941406,0.028219223022460938
1684110325525714700,6.691714599609375,-0.09866124391555786,0.01861286163330078,0.00010776519775390625
1684110325535756300,6.70175634765625,-0.0975501537322998,0.009215354919433594,0.00749969482421875
1684110325545797600,6.711797607421875,-0.0648188591003418,-0.004779815673828125,-0.013776302337646484
1684110325555839200,6.721839111328125,-0.022470831871032715,-0.018387794494628906,-0.008634567260742188
1684110325565880800,6.731880859375,-0.0016406774520874023,-0.029311180114746094,0.03186941146850586
1684110325575922400,6.74192236328125,-0.011253416538238525,-0.01644611358642578,0.01052713394165039
1684110325585964000,6.751964111328125,0.0007219910621643066,0.01751995086669922,0.0085906982421875
1684110325596005600,6.762005615234375,-0.009119153022766113,0.022729873657226562,-0.004873752593994141
1684110325606047200,6.772047119140625,-0.017196059226989746,0.0020284652709960938,0.022202491760253906
1684110325616088600,6.782088623046875,-0.016399860382080078,0.0005712509155273438,-0.007408618927001953
1684110325626130200,6.792130126953125,-0.025256991386413574,0.006222724914550781,-0.008183479309082031
1684110325636171800,6.802171875,-0.0051087141036987305,0.004788398742675781,-0.030107975006103516
1684110325646213400,6.81221337890625,0.02968287467956543,0.012874603271484375,-0.03047657012939453
1684110325656255000,6.8222548828125,0.06903380155563354,0.025580406188964844,-0.033181190490722656
1684110325666296600,6.832296630859375,0.07951182126998901,0.014466285705566406,-0.007720470428466797
1684110325676338200,6.842338134765625,0.09442383050918579,0.005873680114746094,0.007891178131103516
1684110325686379500,6.852379638671875,0.09494143724441528,0.014034271240234375,0.016442298889160156
1684110325696421000,6.862421142578125,0.06985217332839966,0.019804000854492188,-0.003253459930419922
1684110325706462700,6.872462646484375,0.08100348711013794,0.008929252624511719,0.04542732238769531
1684110325716504300,6.88250439453125,0.07591825723648071,0.017024993896484375,0.02957916259765625
1684110325726546000,6.8925458984375,0.09188789129257202,0.0039033889770507812,0.021309375762939453
1684110325736587500,6.90258740234375,0.07152056694030762,0.021674156188964844,0.034641265869140625
1684110325746629000,6.912629150390625,0.05544048547744751,0.03681373596191406,0.0455780029296875
1684110325756670500,6.92267041015625,0.024981260299682617,0.011685371398925781,0.04231834411621094
1684110325766712000,6.932712158203125,-0.000032782554626464844,-0.0012722015380859375,0.04845762252807617
1684110325776753700,6.942753662109375,0.006639361381530762,0.014217376708984375,0.05199003219604492
1684110325786795300,6.952795166015625,0.007075011730194092,0.05067157745361328,0.043599605560302734
1684110325796836900,6.9628369140625,0.010691642761230469,0.02998065948486328,0.0422053337097168
1684110325806878500,6.97287841796875,0.021851003170013428,0.016643524169921875,0.045360565185546875
1684110325816920000,6.982920166015625,0.05664438009262085,0.043532371520996094,0.07663917541503906
1684110325826961400,6.99296142578125,0.0677456259727478,0.05573844909667969,0.07887840270996094
1684110325837003000,7.0030029296875,0.07693350315093994,0.048877716064453125,0.11624526977539062
1684110325847044600,7.013044677734375,0.09588390588760376,0.09390830993652344,0.1528921127319336
1684110325857086200,7.023086181640625,0.06041228771209717,0.08878040313720703,0.15604162216186523
1684110325867127800,7.0331279296875,0.04393643140792847,0.10266876220703125,0.15235042572021484
1684110325877169400,7.04316943359375,0.0268363356590271,0.11407279968261719,0.16085147857666016
1684110325887211000,7.0532109375,0.002399921417236328,0.07822990417480469,0.1575913429260254
1684110325897252400,7.06325244140625,0.00719219446182251,0.06906414031982422,0.15701532363891602
1684110325907294000,7.0732939453125,0.008660733699798584,0.08613300323486328,0.16600608825683594
1684110325917335600,7.08333544921875,0.023342013359069824,0.10537338256835938,0.1159811019897461
1684110325927377200,7.093377197265625,0.04309284687042236,0.1126708984375,0.0764169692993164
1684110325937418800,7.103418701171875,0.08853143453598022,0.12007999420166016,0.03325843811035156
1684110325947460400,7.11346044921875,0.1165931224822998,0.15344715118408203,0.03594207763671875
1684110325957501700,7.123501708984375,0.13457763195037842,0.16993427276611328,0.0318603515625
1684110325967543300,7.133543212890625,0.151766836643219,0.1699838638305664,0.021474838256835938
1684110325977585000,7.1435849609375,0.16315609216690063,0.1586141586303711,-0.016193389892578125
1684110325987626500,7.15362646484375,0.15887141227722168,0.14780902862548828,-0.042905330657958984
1684110325997668000,7.163668212890625,0.14531385898590088,0.14223957061767578,-0.049353599548339844
1684110326007709700,7.173709716796875,0.12676143646240234,0.15824222564697266,-0.02413654327392578
1684110326017751300,7.183751220703125,0.10785984992980957,0.1742715835571289,-0.005423545837402344
1684110326027792600,7.193792724609375,0.06514233350753784,0.14078807830810547,0.06555366516113281
1684110326037834200,7.203834228515625,0.02496516704559326,0.12441349029541016,0.1005854606628418
1684110326047875800,7.213875732421875,-0.014520525932312012,0.09428596496582031,0.13793182373046875
1684110326057917400,7.22391748046875,-0.0527799129486084,0.10237789154052734,0.18915748596191406
1684110326067959000,7.233958984375,-0.12244755029678345,0.058467864990234375,0.20667362213134766
1684110326078000600,7.244000732421875,-0.20914876461029053,0.08580780029296875,0.17689752578735352
1684110326088042200,7.254042236328125,-0.2870328724384308,0.04433155059814453,0.14074230194091797
1684110326098083600,7.26408349609375,-0.3846726417541504,0.0034999847412109375,0.15964031219482422
1684110326108125200,7.274125244140625,-0.48684656620025635,-0.060248374938964844,0.15957260131835938
1684110326118166800,7.284166748046875,-0.5805120468139648,-0.11591148376464844,0.16188335418701172
1684110326128208400,7.29420849609375,-0.6763038635253906,-0.12344169616699219,0.1524958610534668
1684110326138250000,7.30425,-0.732792854309082,-0.08350658416748047,0.1528162956237793
1684110326148291600,7.31429150390625,-0.7603835463523865,-0.017953872680664062,0.1602153778076172
1684110326158333200,7.324333251953125,-0.7577453851699829,0.06811904907226562,0.16963768005371094
1684110326168374800,7.334374755859375,-0.700971245765686,0.06380939483642578,0.17166519165039062
1684110326178416000,7.344416015625,-0.5678470134735107,0.08582687377929688,0.20390653610229492
1684110326188457700,7.354457763671875,-0.4342554211616516,0.07703208923339844,0.13160181045532227
1684110326198499300,7.364499267578125,-0.2665877342224121,0.04490947723388672,0.11906003952026367
1684110326208541000,7.374541015625,-0.13963556289672852,0.015601158142089844,0.1369786262512207
1684110326218582500,7.38458251953125,-0.03004288673400879,-0.058167457580566406,0.14703798294067383
1684110326228624100,7.3946240234375,0.06881380081176758,-0.07927608489990234,0.1350717544555664
1684110326238665700,7.404665771484375,0.17034947872161865,-0.11466598510742188,0.12481832504272461
1684110326248707000,7.41470703125,0.25485020875930786,-0.11461257934570312,0.07876777648925781
1684110326258748700,7.424748779296875,0.3313668370246887,-0.12451934814453125,0.0680379867553711
1684110326268790300,7.434790283203125,0.3549501299858093,-0.13043689727783203,0.08432865142822266
1684110326278831900,7.444831787109375,0.34899330139160156,-0.1767416000366211,-0.008433341979980469
1684110326288873500,7.45487353515625,0.34345030784606934,-0.11653423309326172,-0.07831192016601562
1684110326298915000,7.4649150390625,0.2837304472923279,-0.09267425537109375,-0.19359111785888672
1684110326308956700,7.474956787109375,0.22595685720443726,-0.11843109130859375,-0.2519211769104004
1684110326318998000,7.484998046875,0.15091055631637573,-0.11739730834960938,-0.32227373123168945
1684110326329039600,7.49503955078125,0.07708871364593506,-0.11107444763183594,-0.319638729095459
1684110326339081200,7.505081298828125,0.009941518306732178,-0.1725311279296875,-0.2735733985900879
1684110326349122800,7.515122802734375,-0.0384368896484375,-0.14287853240966797,-0.21775245666503906
1684110326359164400,7.525164306640625,-0.060942262411117554,-0.08721733093261719,-0.16418838500976562
1684110326369206000,7.5352060546875,-0.04339766502380371,-0.020180702209472656,-0.09185552597045898
1684110326379247600,7.54524755859375,-0.005041241645812988,0.027233123779296875,0.01969003677368164
1684110326389289000,7.5552890625,0.057631492614746094,0.057503700256347656,0.15302562713623047
1684110326399330600,7.56533056640625,0.11521661281585693,0.11081314086914062,0.25818729400634766
1684110326409372200,7.5753720703125,0.13414674997329712,0.12530803680419922,0.36580896377563477
1684110326419413800,7.585413818359375,0.16201764345169067,0.17219257354736328,0.4192194938659668
1684110326429455400,7.595455322265625,0.17029762268066406,0.1543865203857422,0.4687347412109375
1684110326439497000,7.6054970703125,0.15214526653289795,0.1554727554321289,0.44637250900268555
1684110326449538600,7.61553857421875,0.12926888465881348,0.15639495849609375,0.44532012939453125
1684110326459580000,7.625579833984375,0.10412836074829102,0.10542678833007812,0.4159064292907715
1684110326469621500,7.63562158203125,0.07491296529769897,0.11883926391601562,0.32568883895874023
1684110326479663000,7.6456630859375,0.054497599601745605,0.1533184051513672,0.23939943313598633
1684110326489704700,7.65570458984375,0.07667708396911621,0.15687942504882812,0.2136845588684082
1684110326499746300,7.665746337890625,0.11016085743904114,0.10176563262939453,0.23102664947509766
1684110326509788000,7.675787841796875,0.17530855536460876,0.07364273071289062,0.3000798225402832
1684110326519829500,7.68582958984375,0.22849848866462708,0.04139137268066406,0.3516716957092285
1684110326529871000,7.69587109375,0.278947651386261,0.068603515625,0.3436737060546875
1684110326539912400,7.705912353515625,0.29858240485191345,0.13304996490478516,0.3311128616333008
1684110326549954000,7.7159541015625,0.35147807002067566,0.13735103607177734,0.332430362701416
1684110326559995600,7.72599560546875,0.3757944107055664,0.12468719482421875,0.3399367332458496
1684110326570037200,7.736037353515625,0.4016585350036621,0.0928640365600586,0.32040929794311523
1684110326580078800,7.746078857421875,0.41420412063598633,0.08456230163574219,0.27904844284057617
1684110326590120400,7.756120361328125,0.4110342264175415,0.059291839599609375,0.2608022689819336
1684110326600162000,7.766162109375,0.40715086460113525,0.019741058349609375,0.15938711166381836
1684110326610203400,7.776203369140625,0.35085412859916687,-0.010189056396484375,0.06353378295898438
1684110326620245000,7.786244873046875,0.27547040581703186,-0.03978252410888672,-0.07801437377929688
1684110326630286600,7.79628662109375,0.22829431295394897,-0.061812400817871094,-0.17468500137329102
1684110326640328200,7.806328125,0.16941994428634644,-0.07625579833984375,-0.21991300582885742
1684110326650369800,7.816369873046875,0.11894094944000244,-0.07141685485839844,-0.23808813095092773
1684110326660411400,7.826411376953125,0.08923372626304626,-0.05472087860107422,-0.2933673858642578
1684110326670452700,7.83645263671875,0.08042877912521362,-0.045203208923339844,-0.2839317321777344
1684110326680494300,7.846494384765625,0.057130634784698486,-0.07334709167480469,-0.2720804214477539
1684110326690536000,7.856535888671875,0.045318931341171265,-0.07968330383300781,-0.2790341377258301
1684110326700577500,7.86657763671875,0.08720290660858154,-0.06464004516601562,-0.23396778106689453
1684110326710619100,7.876619140625,0.09039142727851868,-0.04986858367919922,-0.1944751739501953
1684110326720660700,7.88666064453125,0.11919638514518738,-0.047095298767089844,-0.18390369415283203
1684110326730702300,7.896702392578125,0.13279712200164795,-0.016141891479492188,-0.19004154205322266
1684110326740743700,7.90674365234375,0.1636883169412613,0.019039154052734375,-0.20301103591918945
1684110326750785300,7.916785400390625,0.17790985107421875,0.03497600555419922,-0.19881343841552734
1684110326760827000,7.926826904296875,0.20100408792495728,0.06271743774414062,-0.19157838821411133
1684110326770868500,7.936868408203125,0.20160886645317078,0.07380485534667969,-0.19077301025390625
1684110326780910000,7.94691015625,0.21760021150112152,0.0732717514038086,-0.19855117797851562
1684110326790951700,7.95695166015625,0.22728806734085083,0.09682750701904297,-0.18610286712646484
1684110326800993300,7.9669931640625,0.22601184248924255,0.10614585876464844,-0.14960050582885742
1684110326811035000,7.977034912109375,0.2162724882364273,0.061263084411621094,-0.12514162063598633
1684110326821076500,7.987076416015625,0.17456527054309845,0.012119293212890625,-0.0992593765258789
1684110326831117800,7.997117919921875,0.15554481744766235,-0.015596389770507812,-0.11729812622070312
1684110326841159400,8.007159423828124,0.10426976531744003,-0.050559043884277344,-0.2163543701171875
1684110326851201000,8.017200927734375,0.049117524176836014,-0.08560371398925781,-0.2515225410461426
1684110326861242600,8.02724267578125,-0.010221503674983978,-0.1230764389038086,-0.3792424201965332
1684110326871284200,8.0372841796875,-0.05927088484168053,-0.1415853500366211,-0.4822969436645508
1684110326881325800,8.047325927734375,-0.10896417498588562,-0.14832687377929688,-0.5677902698516846
1684110326891367200,8.0573671875,-0.14547383785247803,-0.14809608459472656,-0.5604772567749023
1684110326901408800,8.06740869140625,-0.15474140644073486,-0.17161178588867188,-0.5466666221618652
1684110326911450400,8.077450439453125,-0.1520828902721405,-0.2019805908203125,-0.5405375957489014
1684110326921492000,8.087491943359375,-0.1066051796078682,-0.2483959197998047,-0.5275554656982422
1684110326931533600,8.097533447265626,-0.03829064220190048,-0.24216365814208984,-0.4886047840118408
1684110326941575200,8.1075751953125,0.03286164626479149,-0.2264270782470703,-0.4920947551727295
1684110326951616800,8.11761669921875,0.13153469562530518,-0.16145992279052734,-0.43633580207824707
1684110326961658000,8.127658203125,0.2369803488254547,-0.0930643081665039,-0.384061336517334
1684110326971699700,8.13769970703125,0.31926339864730835,-0.06626605987548828,-0.33812737464904785
1684110326981741300,8.1477412109375,0.3535168766975403,0.009030342102050781,-0.3009915351867676
1684110326991783000,8.157782958984376,0.3365881145000458,0.042534828186035156,-0.31269025802612305
1684110327001824500,8.167824462890625,0.2890324592590332,0.09389781951904297,-0.28049659729003906
1684110327011866000,8.1778662109375,0.19144783914089203,0.1323223114013672,-0.2803645133972168
1684110327021907700,8.18790771484375,0.05826440453529358,0.11360454559326172,-0.3252725601196289
1684110327031949300,8.19794921875,-0.1096542477607727,0.05785942077636719,-0.3572697639465332
1684110327041990700,8.20799072265625,-0.30341222882270813,0.012899398803710938,-0.3644986152648926
1684110327052032300,8.2180322265625,-0.4735502302646637,-0.02849102020263672,-0.3919401168823242
1684110327062073900,8.228073974609375,-0.6533991098403931,-0.08032417297363281,-0.4222869873046875
1684110327072115500,8.238115478515626,-0.7923622727394104,-0.14214611053466797,-0.4452962875366211
1684110327082157000,8.248156982421875,-0.8783478140830994,-0.17820358276367188,-0.40380334854125977
1684110327092198700,8.25819873046875,-0.933179497718811,-0.22446918487548828,-0.37215685844421387
1684110327102240300,8.268240234375,-0.8877995014190674,-0.17293643951416016,-0.24502992630004883
1684110327112281600,8.278281494140625,-0.7794235944747925,-0.14357948303222656,-0.07935237884521484
1684110327122323200,8.2883232421875,-0.596619725227356,-0.07996559143066406,0.11864948272705078
1684110327132364800,8.29836474609375,-0.35011062026023865,0.0739450454711914,0.2262287139892578
1684110327142406400,8.308406494140625,-0.10223570466041565,0.20359325408935547,0.38824987411499023
1684110327152448000,8.318447998046874,0.1473846733570099,0.3352537155151367,0.4976072311401367
1684110327162489600,8.328489501953126,0.3644023537635803,0.40059852600097656,0.5525755882263184
1684110327172531200,8.33853125,0.5315454602241516,0.43352508544921875,0.6287751197814941
1684110327182572500,8.348572509765624,0.6389004588127136,0.4039163589477539,0.6312899589538574
1684110327192614100,8.3586142578125,0.6695228219032288,0.32455921173095703,0.5656685829162598
1684110327202655700,8.36865576171875,0.6632888317108154,0.25745105743408203,0.46323537826538086
1684110327212697300,8.378697265625,0.5799524188041687,0.1764965057373047,0.3667635917663574
1684110327222739000,8.388739013671875,0.4729890823364258,0.13345718383789062,0.2285141944885254
1684110327232780500,8.398780517578125,0.28297287225723267,0.011252403259277344,-0.06557846069335938
1684110327242822100,8.408822265625,0.13522273302078247,-0.06760025024414062,-0.24654459953308105
1684110327252863700,8.41886376953125,-0.023982882499694824,-0.1606903076171875,-0.3192603588104248
1684110327262905000,8.428905029296875,-0.15320390462875366,-0.1667642593383789,-0.40819454193115234
1684110327272946700,8.43894677734375,-0.3100459575653076,-0.19565773010253906,-0.44469785690307617
1684110327282988300,8.44898828125,-0.3936070203781128,-0.23558807373046875,-0.40424370765686035
1684110327293030000,8.45902978515625,-0.46547675132751465,-0.2630472183227539,-0.3825674057006836
1684110327303071500,8.469071533203126,-0.5186078548431396,-0.26186656951904297,-0.36301708221435547
1684110327313113000,8.479113037109375,-0.5254696607589722,-0.27025413513183594,-0.3315846920013428
1684110327323154700,8.48915478515625,-0.5085627436637878,-0.22462749481201172,-0.2629423141479492
1684110327333196000,8.499196044921876,-0.4497101902961731,-0.145050048828125,-0.22200584411621094
1684110327343237600,8.509237548828125,-0.3780671954154968,-0.07938575744628906,-0.12874698638916016
1684110327353279200,8.519279296875,-0.2940472364425659,-0.06296348571777344,-0.04344892501831055
1684110327363320800,8.52932080078125,-0.2313011884689331,-0.019715309143066406,-0.006268978118896484
1684110327373362400,8.539362548828125,-0.14331138134002686,0.0053691864013671875,-0.002071857452392578
1684110327383404000,8.549404052734374,-0.06404435634613037,0.038773536682128906,0.00783538818359375
1684110327393445600,8.559445556640625,-0.026362061500549316,0.03569984436035156,0.018791675567626953
1684110327403487200,8.5694873046875,0.03160285949707031,-0.019644737243652344,0.012106895446777344
1684110327413528600,8.579528564453126,0.0271073579788208,-0.12386703491210938,-0.03040456771850586
1684110327423570200,8.589570068359375,0.03195047378540039,-0.1373577117919922,-0.09185552597045898
1684110327433611800,8.59961181640625,0.0015702247619628906,-0.12130260467529297,-0.07001161575317383
1684110327443653400,8.6096533203125,-0.07748281955718994,-0.22800827026367188,-0.3073139190673828
1684110327453695000,8.619695068359375,-0.07327544689178467,-0.3132171630859375,-0.3503122329711914
1684110327463736600,8.629736572265625,-0.12013077735900879,-0.40780067443847656,-0.43784356117248535
1684110327473778200,8.639778076171876,-0.1756221055984497,-0.4483489990234375,-0.4288797378540039
1684110327483819500,8.649819580078125,-0.28422021865844727,-0.49282073974609375,-0.4510014057159424
1684110327493861000,8.659861083984374,-0.43923521041870117,-0.5813817977905273,-0.5085110664367676
1684110327503902700,8.66990283203125,-0.5984067916870117,-0.6191129684448242,-0.5696907043457031
1684110327513944300,8.6799443359375,-0.7458664178848267,-0.6116437911987305,-0.6034340858459473
1684110327523986000,8.68998583984375,-0.8715415000915527,-0.5943412780761719,-0.6094393730163574
1684110327534027500,8.700027587890625,-0.8926531076431274,-0.5204982757568359,-0.6033749580383301
1684110327544069000,8.710069091796875,-0.8505280017852783,-0.45253467559814453,-0.552316427230835
1684110327554110700,8.72011083984375,-0.7894538640975952,-0.3427562713623047,-0.5142087936401367
1684110327564152000,8.730152099609375,-0.7111400365829468,-0.31022071838378906,-0.5459532737731934
1684110327574193700,8.740193603515625,-0.6000887155532837,-0.35429954528808594,-0.5251054763793945
1684110327584235300,8.7502353515625,-0.5384005308151245,-0.37918663024902344,-0.48062777519226074
1684110327594276900,8.76027685546875,-0.49037373065948486,-0.427703857421875,-0.41942596435546875
1684110327604318500,8.770318359375,-0.4558602571487427,-0.43503379821777344,-0.41976237297058105
1684110327614360000,8.780360107421876,-0.4606732130050659,-0.4203176498413086,-0.35941267013549805
1684110327624401700,8.790401611328125,-0.4518314599990845,-0.3813610076904297,-0.31511449813842773
1684110327634443000,8.800443115234375,-0.40988993644714355,-0.3087043762207031,-0.25331807136535645
1684110327644484600,8.810484619140626,-0.3371046781539917,-0.21685314178466797,-0.1765608787536621
1684110327654526200,8.820526123046875,-0.21709167957305908,-0.043847084045410156,-0.10666608810424805
1684110327664567800,8.83056787109375,-0.058093905448913574,0.12429332733154297,-0.12496232986450195
1684110327674609400,8.840609375,0.03622734546661377,0.29001522064208984,-0.10500812530517578
1684110327684651000,8.850651123046875,0.1204991340637207,0.3552980422973633,-0.10233116149902344
1684110327694692600,8.860692626953124,0.19910430908203125,0.32260990142822266,-0.1007699966430664
1684110327704734200,8.870734130859375,0.2520272731781006,0.27342891693115234,-0.03626441955566406
1684110327714775600,8.880775634765625,0.3166980743408203,0.2032947540283203,-0.006781101226806641
1684110327724817200,8.890817138671874,0.39911365509033203,0.15565204620361328,-0.009293079376220703
1684110327734858800,8.900858642578125,0.4802335500717163,0.07678699493408203,0.025587081909179688
1684110327744900400,8.910900390625,0.514543890953064,0.14069080352783203,0.15064048767089844
1684110327754942000,8.92094189453125,0.3630102872848511,-0.0035915374755859375,0.09639501571655273
1684110327764983600,8.930983642578125,0.24282169342041016,-0.0010404586791992188,0.19927453994750977
1684110327775025200,8.941025146484375,-0.0015447139739990234,0.04611015319824219,0.37262582778930664
1684110327785066500,8.95106640625,-0.3314626216888428,0.15301227569580078,0.4616870880126953
1684110327795108400,8.9611083984375,-0.6371147632598877,0.27842235565185547,0.4803647994995117
1684110327805149700,8.971149658203124,-0.8648936748504639,0.3370370864868164,0.5608835220336914
1684110327815191300,8.98119140625,-0.9776599407196045,0.3248300552368164,0.6059446334838867
1684110327825233000,8.99123291015625,-0.9731190204620361,0.2588081359863281,0.5849661827087402
1684110327835274500,9.0012744140625,-0.8765060901641846,0.14170265197753906,0.4742088317871094
1684110327845316000,9.011316162109376,-0.7205822467803955,0.0764617919921875,0.3595128059387207
1684110327855357700,9.021357666015625,-0.6133439540863037,-0.09738826751708984,0.026235580444335938
1684110327865399000,9.03139892578125,-0.502216100692749,-0.2538585662841797,-0.13647222518920898
1684110327875440600,9.041440673828125,-0.42635345458984375,-0.3123455047607422,-0.17119264602661133
1684110327885482200,9.051482177734375,-0.335618257522583,-0.3407745361328125,-0.17064857482910156
1684110327895523800,9.06152392578125,-0.25848937034606934,-0.28719329833984375,-0.15971136093139648
1684110327905565400,9.0715654296875,-0.12998104095458984,-0.2068624496459961,-0.12410449981689453
1684110327915607000,9.08160693359375,0.004974365234375,-0.08796501159667969,-0.06371116638183594
1684110327925648600,9.091648681640624,0.1447150707244873,0.04539680480957031,-0.0023336410522460938
1684110327935690200,9.101690185546875,0.28694844245910645,0.09491729736328125,0.08329200744628906
1684110327945731800,9.11173193359375,0.3997209072113037,0.15133380889892578,0.1420440673828125
1684110327955773200,9.121773193359376,0.5103495121002197,0.16193675994873047,0.1943979263305664
1684110327965814800,9.131814697265625,0.5653821229934692,0.19869327545166016,0.22351360321044922
1684110327975856400,9.1418564453125,0.5882967710494995,0.19246673583984375,0.31305456161499023
1684110327985898000,9.15189794921875,0.5196641683578491,0.18885517120361328,0.4010772705078125
1684110327995939600,9.161939697265625,0.3344724178314209,0.12093925476074219,0.5095453262329102
1684110328005981200,9.171981201171874,0.07542562484741211,0.03407478332519531,0.6175751686096191
1684110328016022500,9.1820224609375,-0.17930102348327637,-0.08390140533447266,0.6729974746704102
1684110328026064100,9.192064208984375,-0.4428977966308594,-0.16626262664794922,0.6785745620727539
1684110328036105700,9.202105712890624,-0.6974279880523682,-0.2108936309814453,0.6276187896728516
1684110328046147300,9.212147216796875,-0.8559236526489258,-0.20137882232666016,0.575439453125
1684110328056189000,9.22218896484375,-0.9177777767181396,-0.07172966003417969,0.588043212890625
1684110328066230500,9.23223046875,-0.8797810077667236,-0.07987594604492188,0.4263448715209961
1684110328076272000,9.242272216796875,-0.6738615036010742,-0.020905494689941406,0.3522186279296875
1684110328086313700,9.252313720703125,-0.4676384925842285,0.050434112548828125,0.40048694610595703
1684110328096355300,9.262355224609376,-0.2956657409667969,0.07505321502685547,0.38507509231567383
1684110328106396700,9.272396728515625,-0.18401741981506348,0.1370563507080078,0.4382762908935547
1684110328116438300,9.282438232421875,-0.14062070846557617,0.28884315490722656,0.5368337631225586
1684110328126480000,9.29247998046875,-0.18469548225402832,0.49658775329589844,0.6983451843261719
1684110328136521500,9.302521484375,-0.2664296627044678,0.7117009162902832,0.8915014266967773
1684110328146563000,9.31256298828125,-0.3336942195892334,0.9071221351623535,1.1041007041931152
1684110328156604700,9.322604736328126,-0.3876228332519531,1.0656037330627441,1.345517635345459
1684110328166646300,9.332646240234375,-0.4378039836883545,1.2108612060546875,1.5771732330322266
1684110328176687900,9.34268798828125,-0.45004796981811523,1.3168277740478516,1.7842020988464355
1684110328186729200,9.352729248046876,-0.40839099884033203,1.4532394409179688,1.9439606666564941
1684110328196770800,9.362770751953125,-0.28820061683654785,1.5323047637939453,2.083735942840576
1684110328206812400,9.3728125,-0.09749388694763184,1.5522050857543945,2.137598991394043
1684110328216854000,9.38285400390625,0.12862730026245117,1.524977207183838,2.1353750228881836
1684110328226895600,9.3928955078125,0.26850390434265137,1.409529209136963,2.068753242492676
1684110328236937200,9.402937255859374,0.5089523792266846,1.3352046012878418,1.8236618041992188
1684110328246978800,9.412978759765625,0.8054943084716797,1.1974787712097168,1.6037650108337402
1684110328257020400,9.4230205078125,1.0583209991455078,1.0396308898925781,1.3409552574157715
1684110328267061800,9.433061767578126,1.2239652872085571,0.969264030456543,1.0756397247314453
1684110328277103400,9.443103271484375,1.162928819656372,0.9477472305297852,0.8633203506469727
1684110328287145000,9.45314501953125,0.7133631706237793,0.7335209846496582,0.5470995903015137
1684110328297186600,9.4631865234375,-0.06306695938110352,0.4211549758911133,0.17053556442260742
1684110328307228200,9.473228271484375,-0.870807409286499,0.25613975524902344,0.18614625930786133
1684110328317269800,9.483269775390625,-0.9384243488311768,0.1894989013671875,0.09283924102783203
1684110328327311400,9.493311279296876,-0.4250190258026123,0.30209827423095703,-0.14117002487182617
1684110328337352700,9.503352783203125,0.3228435516357422,0.37732362747192383,-0.45703792572021484
1684110328347394300,9.513394287109374,0.9976024627685547,0.44997167587280273,-0.6968584060668945
1684110328357436000,9.523435791015626,1.5106011629104614,0.49395275115966797,-0.7982797622680664
1684110328367477500,9.5334775390625,1.3345216512680054,0.5208516120910645,-0.7872879505157471
1684110328377519000,9.54351904296875,1.038475513458252,0.42539024353027344,-0.5623626708984375
1684110328387560700,9.553560791015625,1.213383436203003,0.2469482421875,-0.4111614227294922
1684110328397602300,9.563602294921875,1.526181697845459,0.06254386901855469,-0.4680662155151367
1684110328407644000,9.573643798828124,1.7612638473510742,-0.09015369415283203,-0.5134241580963135
1684110328417685200,9.583685302734375,1.8731162548065186,-0.19151687622070312,-0.5366382598876953
1684110328427726800,9.593726806640625,1.8069676160812378,-0.17011260986328125,-0.6127545833587646
1684110328437768400,9.6037685546875,1.5063484907150269,-0.0811014175415039,-0.6376750469207764
1684110328447810000,9.61381005859375,0.9828298091888428,0.14860248565673828,-0.6041707992553711
1684110328457851600,9.6238515625,0.2971329689025879,0.33529186248779297,-0.5286777019500732
1684110328467893200,9.633893310546876,-0.257035493850708,0.41369152069091797,-0.3650238513946533
1684110328477934800,9.643934814453125,-0.5155174732208252,0.38868045806884766,-0.20003223419189453
1684110328487976400,9.6539765625,-0.5496542453765869,0.2770395278930664,-0.056461334228515625
1684110328498017800,9.664017822265626,-0.4366178512573242,0.13276004791259766,-0.10922884941101074
1684110328508059400,9.674059326171875,-0.2766103744506836,-0.051337242126464844,-0.1973586082458496
1684110328518101000,9.68410107421875,-0.14435863494873047,-0.3215045928955078,-0.3172111511230469
1684110328528142600,9.694142578125,-0.06576681137084961,-0.5161314010620117,-0.4289860725402832
1684110328538184200,9.70418408203125,-0.0034101009368896484,-0.669464111328125,-0.4789316654205322
1684110328548225800,9.714225830078124,0.04073143005371094,-0.8652830123901367,-0.5937657356262207
1684110328558267400,9.724267333984375,0.06371712684631348,-1.0081968307495117,-0.5640842914581299
1684110328568309000,9.73430908203125,0.11291027069091797,-1.0219659805297852,-0.6557121276855469
1684110328578350600,9.7443505859375,0.23158740997314453,-1.0142745971679688,-0.7771687507629395
1684110328588392000,9.754391845703125,0.46199536323547363,-0.9687156677246094,-0.8682229518890381
1684110328598433500,9.76443359375,0.8178379535675049,-0.9263019561767578,-0.9716007709503174
1684110328608475100,9.77447509765625,1.1271857023239136,-0.7222070693969727,-1.0752229690551758
1684110328618516700,9.784516845703125,1.2480361461639404,-0.47173404693603516,-0.9965944290161133
1684110328628558300,9.794558349609375,1.113497257232666,-0.20339107513427734,-0.9807779788970947
1684110328638600000,9.804599853515626,0.8360605239868164,-0.08377361297607422,-0.866480827331543
1684110328648641300,9.814641357421875,0.4416409730911255,0.09552860260009766,-0.6009542942047119
1684110328658683100,9.82468310546875,-0.17928779125213623,0.15688228607177734,-0.3421797752380371
1684110328668724500,9.834724365234376,-0.6445640325546265,0.09496688842773438,-0.22078251838684082
1684110328678766000,9.84476611328125,-0.6862286329269409,-0.03527641296386719,-0.20550823211669922
1684110328688807700,9.8548076171875,-1.0697201490402222,0.019319534301757812,-0.01832294464111328
1684110328698849300,9.864849365234376,-1.847191333770752,0.2577676773071289,0.3948702812194824
1684110328708891000,9.874890869140625,-2.3173751831054688,0.26039981842041016,1.013420581817627
1684110328718932500,9.884932373046874,-2.715444564819336,0.12051868438720703,1.9831852912902832
1684110328728974000,9.89497412109375,-2.4973530769348145,-0.19593143463134766,2.690181255340576
1684110328739015400,9.905015380859375,-1.3903615474700928,-0.4793691635131836,2.6548967361450195
1684110328749057000,9.91505712890625,-0.4506880044937134,-0.5291318893432617,2.16300106048584
1684110328759098600,9.9250986328125,-0.5493428707122803,-0.24592971801757812,1.8205318450927734
1684110328769140200,9.93514013671875,-0.9191503524780273,0.07947540283203125,1.6297144889831543
1684110328779181800,9.945181884765624,-1.0945391654968262,0.2486572265625,0.9295468330383301
1684110328789223400,9.955223388671875,-0.9823356866836548,-0.32504749298095703,-0.9583835601806641
1684110328799265000,9.96526513671875,-0.7020062208175659,-0.7764749526977539,-2.4599697589874268
1684110328809306600,9.975306640625,-0.20589852333068848,-0.8699121475219727,-3.4249470233917236
1684110328819348000,9.985347900390625,0.09932494163513184,-0.9084625244140625,-3.5840702056884766
1684110328829389600,9.9953896484375,0.18959832191467285,-0.846400260925293,-3.2256875038146973
1684110328839431200,10.00543115234375,0.25649309158325195,-0.6663904190063477,-2.6660006046295166
1684110328849472800,10.01547265625,0.16120457649230957,-0.4651985168457031,-1.8568994998931885
1684110328859514400,10.025514404296874,-0.038257479667663574,-0.2440958023071289,-0.747319221496582
1684110328869556000,10.035555908203126,-0.10460436344146729,0.09148406982421875,0.3061342239379883
1684110328879597600,10.04559765625,0.03381609916687012,0.4144754409790039,1.039952278137207
1684110328889639200,10.05563916015625,0.27831804752349854,0.639073371887207,1.5022644996643066
1684110328899680500,10.065680419921875,0.483137845993042,0.7698955535888672,1.7773709297180176
1684110328909722000,10.07572216796875,0.516324520111084,0.8188257217407227,1.8194818496704102
1684110328919763700,10.085763671875,0.49089503288269043,0.7224788665771484,1.464737892150879
1684110328929805300,10.095805419921875,0.41777682304382324,0.4511442184448242,0.883575439453125
1684110328939847000,10.105846923828125,0.23615825176239014,0.12505626678466797,0.2025737762451172
1684110328949888500,10.115888427734374,0.0226823091506958,-0.1620311737060547,-0.40744757652282715
1684110328959930000,10.12593017578125,-0.23658132553100586,-0.4122476577758789,-0.827815055847168
1684110328969971700,10.1359716796875,-0.3810809850692749,-0.5131282806396484,-1.0238075256347656
1684110328980013000,10.146012939453126,-0.41916167736053467,-0.38828372955322266,-0.8967530727386475
1684110328990054700,10.1560546875,-0.34080493450164795,-0.20517253875732422,-0.5110807418823242
1684110329000096300,10.16609619140625,-0.24042916297912598,-0.03128337860107422,-0.13062453269958496
1684110329010137900,10.176137939453126,-0.09373950958251953,0.13767623901367188,0.1434192657470703
1684110329020179500,10.186179443359375,0.01958620548248291,0.2488079071044922,0.31978607177734375
1684110329030221000,10.196220947265624,0.10493433475494385,0.28768348693847656,0.3640480041503906
1684110329040262700,10.2062626953125,0.05756223201751709,0.24480533599853516,0.2897486686706543
1684110329050304300,10.21630419921875,0.017719507217407227,0.14668941497802734,0.17569303512573242
1684110329060345900,10.226345947265624,0.01229715347290039,0.058089256286621094,0.010578155517578125
1684110329070387200,10.23638720703125,0.040374040603637695,-0.039917945861816406,-0.2282886505126953
1684110329080428800,10.2464287109375,0.13598108291625977,-0.11124992370605469,-0.39186644554138184
1684110329090470400,10.256470458984374,0.18084633350372314,-0.15102863311767578,-0.46370434761047363
1684110329100512000,10.266511962890625,0.1257624626159668,-0.19024181365966797,-0.4801974296569824
1684110329110553600,10.2765537109375,0.18061387538909912,-0.20946121215820312,-0.503087043762207
1684110329120595200,10.28659521484375,0.2642538547515869,-0.2062358856201172,-0.4078078269958496
1684110329130636800,10.29663671875,0.30735862255096436,-0.16175365447998047,-0.2596416473388672
1684110329140678400,10.306678466796875,0.2952612638473511,-0.03809070587158203,-0.08078455924987793
1684110329150719700,10.3167197265625,0.2952754497528076,0.08787822723388672,0.08527517318725586
1684110329160761300,10.32676123046875,0.3544602394104004,0.23250198364257812,0.21937942504882812
1684110329170803000,10.336802978515625,0.37614214420318604,0.34018611907958984,0.28499317169189453
1684110329180844500,10.346844482421876,0.293320894241333,0.3840961456298828,0.3333096504211426
1684110329190886100,10.35688623046875,0.1523808240890503,0.3881244659423828,0.28460264205932617
1684110329200927700,10.366927734375,0.023746132850646973,0.28109073638916016,0.12983942031860352
1684110329210969300,10.37696923828125,-0.09952104091644287,0.05658721923828125,-0.07222843170166016
1684110329221011000,10.387010986328125,-0.20395851135253906,-0.14641094207763672,-0.2989940643310547
1684110329231052300,10.39705224609375,-0.2853274345397949,-0.31569862365722656,-0.5155539512634277
1684110329241094000,10.407093994140626,-0.24710512161254883,-0.40549278259277344,-0.7252681255340576
1684110329251135500,10.417135498046875,-0.14725017547607422,-0.4131011962890625,-0.8174018859863281
1684110329261177000,10.427177001953124,-0.06411778926849365,-0.3624429702758789,-0.7734732627868652
1684110329271218700,10.43721875,-0.008754611015319824,-0.26806068420410156,-0.6088800430297852
1684110329281260300,10.44726025390625,0.006713271141052246,-0.18520832061767578,-0.4176156520843506
1684110329291302000,10.457302001953124,-0.014177441596984863,-0.10723590850830078,-0.16228961944580078
1684110329301343500,10.467343505859375,-0.019535422325134277,-0.05371665954589844,0.027573585510253906
1684110329311384800,10.477384765625,-0.06595969200134277,-0.0726022720336914,0.12322044372558594
1684110329321426400,10.487426513671876,-0.09393644332885742,-0.1323680877685547,0.020328998565673828
1684110329331468000,10.497468017578125,-0.0946950912475586,-0.18471622467041016,-0.15817642211914062
1684110329341509600,10.507509521484375,-0.07145500183105469,-0.2650613784790039,-0.3613452911376953
1684110329351551200,10.51755126953125,-0.019909143447875977,-0.31078052520751953,-0.5930757522583008
1684110329361592800,10.5275927734375,0.014492154121398926,-0.3362388610839844,-0.7552895545959473
1684110329371634400,10.537634521484375,0.07272255420684814,-0.2651500701904297,-0.8219447135925293
1684110329381676000,10.547676025390626,0.1328827142715454,-0.23176860809326172,-0.7844243049621582
1684110329391717400,10.55771728515625,0.18711090087890625,-0.10271453857421875,-0.6537275314331055
1684110329401759000,10.567759033203124,0.23652541637420654,-0.035691261291503906,-0.44835591316223145
1684110329411800600,10.577800537109376,0.2819197177886963,-0.01953887939453125,-0.2897202968597412
1684110329421842200,10.58784228515625,0.29736411571502686,-0.008599281311035156,-0.21692943572998047
1684110329431883800,10.5978837890625,0.3254413604736328,-0.04025459289550781,-0.16701173782348633
1684110329441925400,10.60792529296875,0.3495349884033203,-0.05692100524902344,-0.25177454948425293
1684110329451967000,10.617967041015625,0.41963809728622437,-0.11978435516357422,-0.3457937240600586
1684110329462008600,10.628008544921874,0.43629032373428345,-0.14556121826171875,-0.41092371940612793
1684110329472050200,10.63805029296875,0.3693804144859314,-0.16767215728759766,-0.5086410045623779
1684110329482091500,10.648091552734375,0.3141900300979614,-0.16737651824951172,-0.5137615203857422
1684110329492133000,10.658133056640626,0.23038768768310547,-0.15002918243408203,-0.49198460578918457
1684110329502174700,10.6681748046875,0.16290760040283203,-0.17035770416259766,-0.4303433895111084
1684110329512216300,10.67821630859375,0.13753533363342285,-0.18091201782226562,-0.37471938133239746
1684110329522258000,10.6882578125,0.1043633222579956,-0.2173776626586914,-0.2712407112121582
1684110329532299500,10.698299560546875,0.09680378437042236,-0.2511167526245117,-0.2007288932800293
1684110329542341000,10.708341064453125,0.15227627754211426,-0.2796621322631836,-0.13398289680480957
1684110329552382700,10.7183828125,0.2108326554298401,-0.30739879608154297,-0.17833900451660156
1684110329562424000,10.728424072265625,0.24625355005264282,-0.32918643951416016,-0.25096917152404785
1684110329572465700,10.738465576171874,0.27049505710601807,-0.3166179656982422,-0.3861730098724365
1684110329582507300,10.74850732421875,0.22915315628051758,-0.2937488555908203,-0.4109818935394287
1684110329592548900,10.758548828125,0.15158241987228394,-0.3384838104248047,-0.4779331684112549
1684110329602590500,10.768590576171874,0.05985015630722046,-0.3510274887084961,-0.483065128326416
1684110329612632000,10.778632080078125,-0.01645052433013916,-0.2897329330444336,-0.4604525566101074
1684110329622673700,10.788673583984375,-0.07391911745071411,-0.2149515151977539,-0.39669275283813477
1684110329632715300,10.79871533203125,-0.09991943836212158,-0.120452880859375,-0.28652429580688477
1684110329642756600,10.808756591796875,-0.12511932849884033,-0.08016777038574219,-0.17448210716247559
1684110329652798200,10.818798095703125,-0.14734488725662231,-0.027710914611816406,-0.09705924987792969
1684110329662839800,10.82883984375,-0.20495855808258057,-0.00811767578125,-0.05414986610412598
1684110329672881400,10.83888134765625,-0.25832152366638184,-0.03481101989746094,-0.06160092353820801
1684110329682923000,10.848923095703125,-0.3034590482711792,-0.10452461242675781,-0.09724307060241699
1684110329692964600,10.858964599609376,-0.2931978106498718,-0.15959453582763672,-0.10772466659545898
1684110329703006200,10.869006103515625,-0.28182315826416016,-0.19974040985107422,-0.12266421318054199
1684110329713047800,10.8790478515625,-0.2563241720199585,-0.24100399017333984,-0.18008637428283691
1684110329723089200,10.889089111328126,-0.22044867277145386,-0.2477436065673828,-0.16290783882141113
1684110329733130800,10.899130859375,-0.18081599473953247,-0.24415874481201172,-0.08889031410217285
1684110329743172400,10.90917236328125,-0.159105122089386,-0.1908407211303711,-0.00013828277587890625
1684110329753214000,10.9192138671875,-0.15812063217163086,-0.11005306243896484,0.0952906608581543
1684110329763255600,10.929255615234375,-0.1547803282737732,-0.06603813171386719,0.19892024993896484
1684110329773297200,10.939297119140624,-0.1239592432975769,-0.03493785858154297,0.288532018661499
1684110329783338800,10.9493388671875,-0.12560975551605225,-0.03083515167236328,0.3825976848602295
1684110329793380400,10.95938037109375,-0.17826497554779053,-0.03691673278808594,0.424180269241333
1684110329803421700,10.969421630859374,-0.25757867097854614,-0.08824634552001953,0.3884446620941162
1684110329813463600,10.979463623046875,-0.28733980655670166,-0.1414051055908203,0.2916288375854492
1684110329823505000,10.9895048828125,-0.31256240606307983,-0.18210792541503906,0.21763086318969727
1684110329833546500,10.99954638671875,-0.30704259872436523,-0.20585918426513672,0.19443750381469727
1684110329843588000,11.009588134765625,-0.2266758680343628,-0.15636253356933594,0.16961026191711426
1684110329853629700,11.019629638671875,-0.1993577480316162,-0.11457633972167969,0.12999224662780762
1684110329863671300,11.02967138671875,-0.1260589361190796,-0.084869384765625,0.1374199390411377
1684110329873713000,11.039712890625,0.00727081298828125,-0.03386116027832031,0.13237857818603516
1684110329883754500,11.04975439453125,0.23555952310562134,0.08273601531982422,0.2273416519165039
1684110329893796000,11.059796142578126,0.4753953814506531,0.20004940032958984,0.29943037033081055
1684110329903837400,11.06983740234375,0.6696385145187378,0.3152894973754883,0.40422487258911133
1684110329913879000,11.079879150390624,0.7627846598625183,0.4186429977416992,0.48592472076416016
1684110329923920600,11.089920654296876,0.7266285419464111,0.47693634033203125,0.4851646423339844
1684110329933962200,11.099962158203125,0.6465418338775635,0.4763956069946289,0.47785496711730957
1684110329944003800,11.11000390625,0.4613856077194214,0.3750028610229492,0.5430312156677246
1684110329954045400,11.12004541015625,0.3432531952857971,0.3747224807739258,0.43303632736206055
1684110329964087000,11.130087158203125,0.306057870388031,0.46545982360839844,0.18123817443847656
1684110329974128600,11.140128662109374,0.31823766231536865,0.43450927734375,0.024283170700073242
1684110329984170000,11.150169921875,0.27200740575790405,0.3194103240966797,-0.10980844497680664
1684110329994211600,11.160211669921875,0.15211302042007446,0.1665639877319336,-0.27477335929870605
1684110330004253200,11.170253173828126,-0.021004796028137207,-0.027876853942871094,-0.35872459411621094
1684110330014294800,11.180294677734375,-0.09492629766464233,-0.1642894744873047,-0.3767402172088623
1684110330024336400,11.19033642578125,-0.08114814758300781,-0.24365234375,-0.32233357429504395
1684110330034378000,11.2003779296875,-0.042057693004608154,-0.24135780334472656,-0.18273472785949707
1684110330044419600,11.210419677734375,0.11828440427780151,-0.14921951293945312,-0.10911965370178223
1684110330054461200,11.220461181640625,0.40025413036346436,0.0010967254638671875,-0.019243955612182617
1684110330064502800,11.230502685546876,0.644311785697937,0.15945148468017578,0.04671216011047363
1684110330074544000,11.240544189453125,0.8523513078689575,0.29030799865722656,0.14689040184020996
1684110330084585700,11.250585693359374,0.9672753214836121,0.38692665100097656,0.1311795711517334
1684110330094627300,11.26062744140625,0.9359193444252014,0.36956310272216797,0.12966442108154297
1684110330104669000,11.2706689453125,0.7505208253860474,0.2679405212402344,0.15749073028564453
1684110330114710500,11.28071044921875,0.4745076596736908,0.13262271881103516,0.12936043739318848
1684110330124752100,11.290752197265626,0.2244490683078766,0.05582427978515625,0.06758975982666016
1684110330134793700,11.300793701171875,0.05847525596618652,0.055634498596191406,0.03506350517272949
1684110330144835300,11.31083544921875,-0.05868130922317505,0.048516273498535156,-0.07632851600646973
1684110330154877000,11.320876953125,-0.016226530075073242,0.060538291931152344,-0.10248279571533203
1684110330164918300,11.330918212890625,0.10416179895401001,0.05362987518310547,-0.04721522331237793
1684110330174959900,11.3409599609375,0.12314349412918091,-0.011702537536621094,-0.021846294403076172
1684110330185001500,11.35100146484375,0.07610869407653809,-0.08043098449707031,0.03483128547668457
1684110330195043000,11.36104296875,0.004753440618515015,-0.12218666076660156,0.1659986972808838
1684110330205084700,11.371084716796876,-0.032327115535736084,-0.17276668548583984,0.19373345375061035
1684110330215126300,11.381126220703125,-0.11562827229499817,-0.18485641479492188,0.26601552963256836
1684110330225168000,11.39116796875,-0.18980011343955994,-0.16855907440185547,0.2855677604675293
1684110330235209500,11.40120947265625,-0.2966645061969757,-0.09861278533935547,0.32355618476867676
1684110330245250800,11.411250732421875,-0.4308105707168579,0.019278526306152344,0.3864870071411133
1684110330255292400,11.42129248046875,-0.5131310224533081,0.0545654296875,0.5297408103942871
1684110330265334000,11.431333984375,-0.5897294878959656,0.07694435119628906,0.5897126197814941
1684110330275375600,11.441375732421875,-0.6602876782417297,0.09608078002929688,0.6078159809112549
1684110330285417200,11.451417236328124,-0.7207317352294922,0.09326934814453125,0.5660054683685303
1684110330295458800,11.461458740234375,-0.7915690541267395,0.07634258270263672,0.46867990493774414
1684110330305500400,11.47150048828125,-0.8645550012588501,0.02446269989013672,0.3970460891723633
1684110330315542000,11.4815419921875,-0.8990227580070496,-0.1206502914428711,0.34586191177368164
1684110330325583600,11.49158349609375,-0.9518674612045288,-0.3246936798095703,0.31177592277526855
1684110330335625200,11.501625244140625,-1.0130279064178467,-0.4809379577636719,0.24683523178100586
1684110330345666600,11.51166650390625,-1.0754097700119019,-0.5218915939331055,0.14919185638427734
1684110330355708200,11.521708251953125,-1.0362224578857422,-0.5060510635375977,0.18160557746887207
1684110330365749800,11.531749755859375,-0.9413600564002991,-0.3874797821044922,0.17654657363891602
1684110330375791400,11.541791259765626,-0.8284239172935486,-0.31175804138183594,0.20692896842956543
1684110330385833000,11.5518330078125,-0.6761730313301086,-0.1609945297241211,0.327225923538208
1684110330395874600,11.56187451171875,-0.4569512605667114,-0.040233612060546875,0.3306310176849365
1684110330405916200,11.571916259765626,-0.17519760131835938,0.09328746795654297,0.37896156311035156
1684110330415957800,11.581957763671875,0.11695283651351929,0.2182931900024414,0.2741203308105469
1684110330425999000,11.5919990234375,0.39065831899642944,0.28098297119140625,0.1510295867919922
1684110330436040700,11.602040771484376,0.697363018989563,0.3768901824951172,0.11438393592834473
1684110330446082300,11.612082275390625,0.9229406714439392,0.4846229553222656,0.23888587951660156
1684110330456124000,11.6221240234375,1.0759198665618896,0.6347532272338867,0.4492685794830322
1684110330466165500,11.63216552734375,1.0737899541854858,0.7299261093139648,0.7203137874603271
1684110330476207000,11.64220703125,1.0021334886550903,0.7773571014404297,0.9230082035064697
1684110330486248700,11.652248779296874,0.8588884472846985,0.8075351715087891,0.9906189441680908
1684110330496290300,11.662290283203125,0.668940544128418,0.8231840133666992,1.0461769104003906
1684110330506331600,11.67233154296875,0.4487203359603882,0.8556718826293945,0.997434139251709
1684110330516373200,11.682373291015624,0.25038963556289673,0.8407506942749023,0.895653486251831
1684110330526414800,11.692414794921875,0.03391309082508087,0.8479471206665039,0.7630152702331543
1684110330536456400,11.70245654296875,-0.12359526753425598,0.771763801574707,0.6083407402038574
1684110330546498000,11.712498046875,-0.2703372836112976,0.6432209014892578,0.29007625579833984
1684110330556539600,11.72253955078125,-0.38292619585990906,0.44100189208984375,-0.09369707107543945
1684110330566581200,11.732581298828125,-0.46097686886787415,0.15352439880371094,-0.4807405471801758
1684110330576622800,11.742622802734376,-0.5323789715766907,-0.09437370300292969,-0.8750982284545898
1684110330586664400,11.75266455078125,-0.511483907699585,-0.31206226348876953,-1.1234488487243652
1684110330596706000,11.7627060546875,-0.4376736879348755,-0.43041419982910156,-1.2454593181610107
1684110330606747400,11.772747314453126,-0.31431829929351807,-0.48072147369384766,-1.3226633071899414
1684110330616789000,11.7827890625,-0.1067657470703125,-0.4467735290527344,-1.255594253540039
1684110330626830600,11.79283056640625,0.11386892199516296,-0.4224729537963867,-1.0577077865600586
1684110330636872200,11.8028720703125,0.34486979246139526,-0.3601207733154297,-0.8224153518676758
1684110330646913800,11.812913818359375,0.5853546857833862,-0.30757808685302734,-0.5614569187164307
1684110330656955400,11.822955322265624,0.761462390422821,-0.21022415161132812,-0.38770055770874023
1684110330666997000,11.8329970703125,0.8939946889877319,-0.1230621337890625,-0.3341796398162842
1684110330677038600,11.84303857421875,1.014312744140625,-0.007427215576171875,-0.3876662254333496
1684110330687080000,11.853079833984374,1.0256688594818115,0.15376758575439453,-0.47769784927368164
1684110330697121800,11.863121826171875,1.0263547897338867,0.26045799255371094,-0.5699455738067627
1684110330707163100,11.8731630859375,0.9361803531646729,0.3511533737182617,-0.5587637424468994
1684110330717204700,11.883204833984376,0.8129274845123291,0.34465503692626953,-0.503882646560669
1684110330727246300,11.893246337890625,0.603088915348053,0.24590396881103516,-0.37186288833618164
1684110330737288000,11.903287841796875,0.37750720977783203,0.14561843872070312,-0.23508954048156738
1684110330747329500,11.91332958984375,0.19836437702178955,-0.021129608154296875,-0.1070547103881836
1684110330757371100,11.92337109375,0.07783657312393188,-0.0775918960571289,-0.1010732650756836
1684110330767412700,11.933412841796875,0.014271974563598633,-0.08840370178222656,-0.1742563247680664
1684110330777454300,11.943454345703126,0.06034630537033081,-0.036904335021972656,-0.28353285789489746
1684110330787495700,11.95349560546875,0.15204399824142456,0.09602928161621094,-0.47124361991882324
1684110330797537300,11.963537353515624,0.31843286752700806,0.212554931640625,-0.7148175239562988
1684110330807579000,11.973578857421876,0.4524962902069092,0.39890098571777344,-0.9488446712493896
1684110330817620500,11.983620361328125,0.60610431432724,0.4663543701171875,-1.0821764469146729
1684110330827662000,11.993662109375,0.7165324091911316,0.47989368438720703,-1.1240346431732178
1684110330837703700,12.00370361328125,0.7623050212860107,0.30599403381347656,-0.9908356666564941
1684110330847745300,12.013745361328125,0.7494525909423828,-0.10479927062988281,-0.6994171142578125
1684110330857787000,12.023786865234374,0.7201623320579529,-0.5531129837036133,-0.3661830425262451
1684110330867828200,12.033828125,0.6839969158172607,-0.9332962036132812,-0.09511470794677734
1684110330877869800,12.043869873046875,0.5647872090339661,-1.2238235473632812,0.14130735397338867
1684110330887911400,12.053911376953126,0.5063632726669312,-1.2914600372314453,0.3796377182006836
1684110330897953000,12.063953125,0.41780489683151245,-1.025773048400879,0.5682222843170166
1684110330907994600,12.07399462890625,0.2979518175125122,-0.5730142593383789,0.7265374660491943
1684110330918036200,12.0840361328125,0.14812207221984863,-0.2187509536743164,0.8373193740844727
1684110330928077800,12.094077880859375,-0.08384263515472412,-0.10102272033691406,1.0693988800048828
1684110330938119400,12.104119384765625,-0.34229016304016113,-0.09233283996582031,1.38651704788208
1684110330948161000,12.1141611328125,-0.657821774482727,-0.12327194213867188,1.762380599975586
1684110330958202600,12.12420263671875,-1.0506230592727661,-0.11814594268798828,2.172781229019165
1684110330968244000,12.134243896484374,-1.3582876920700073,-0.015877723693847656,2.613887071609497
1684110330978285600,12.14428564453125,-1.4713120460510254,0.13780593872070312,2.8894920349121094
1684110330988327200,12.1543271484375,-1.4554362297058105,0.3195505142211914,2.949493408203125
1684110330998368800,12.16436865234375,-1.4367947578430176,0.5014076232910156,3.0770013332366943
1684110331008410400,12.174410400390625,-1.4078158140182495,0.6813030242919922,3.220958948135376
1684110331018452000,12.184451904296875,-1.3574895858764648,0.8716640472412109,3.2921676635742188
1684110331028493600,12.19449365234375,-1.2263174057006836,1.199594497680664,3.176591396331787
1684110331038535200,12.20453515625,-0.9544182419776917,1.5866103172302246,2.9517242908477783
1684110331048576800,12.21457666015625,-0.6876498460769653,1.9301795959472656,2.6773107051849365
1684110331058618000,12.2246181640625,-0.4132348895072937,2.0790371894836426,2.3936569690704346
1684110331068659700,12.23465966796875,-0.13813889026641846,1.7895526885986328,2.193420648574829
1684110331078701300,12.244701416015625,0.1324923038482666,1.4681377410888672,1.7369909286499023
1684110331088743000,12.254742919921876,0.3138335943222046,1.2816925048828125,1.243161678314209
1684110331098784500,12.264784423828125,0.4815140962600708,1.1238503456115723,0.9282774925231934
1684110331108826000,12.274826171875,0.5292714834213257,0.9113454818725586,0.7690777778625488
1684110331118867700,12.28486767578125,0.5698931813240051,0.6828193664550781,0.5272979736328125
1684110331128909300,12.294909423828125,0.6028013229370117,0.4317159652709961,0.2668032646179199
1684110331138950700,12.30495068359375,0.6441332101821899,0.10168647766113281,-0.03647661209106445
1684110331148992500,12.314992431640626,0.7249666452407837,-0.17788028717041016,-0.21480131149291992
1684110331159033900,12.325033935546875,0.8181462287902832,-0.39543628692626953,-0.4101986885070801
1684110331169075500,12.335075439453124,0.9315906167030334,-0.5780296325683594,-0.5861163139343262
1684110331179117000,12.345116943359375,0.9940627217292786,-0.6809854507446289,-0.7134284973144531
1684110331189158700,12.35515869140625,1.0529297590255737,-0.7120685577392578,-0.891770601272583
1684110331199200300,12.3652001953125,1.0489178895950317,-0.697627067565918,-1.035780906677246
1684110331209241900,12.375241943359375,0.96561598777771,-0.6319990158081055,-1.21366548538208
1684110331219283500,12.385283447265625,0.7254485487937927,-0.5620927810668945,-1.2616379261016846
