time,seconds_elapsed,z,y,x
1683936044996311000,0.04331103515625,0,0,0
1683936045006352400,0.053352294921875,-0.19880151748657227,0.17599201202392578,-0.21195125579833984
1683936045016393700,0.063393798828125,-0.47215700149536133,0.03320741653442383,0.050512075424194336
1683936045026434800,0.073434814453125,-0.4868478775024414,0.11584758758544922,0.047095298767089844
1683936045036476200,0.08347607421875,-0.08285760879516602,0.15212202072143555,0.003118753433227539
1683936045046517500,0.093517578125,0.5378880500793457,0.16874265670776367,0.2482895851135254
1683936045056558600,0.10355859375,0.9278554916381836,0.27211618423461914,0.41559410095214844
1683936045066600000,0.113599853515625,1.1181697845458984,0.22483539581298828,0.32824254035949707
1683936045076641300,0.123641357421875,0.8663873672485352,0.22648096084594727,0.15698504447937012
1683936045086682600,0.1336826171875,0.3637657165527344,0.6249394416809082,0.15096569061279297
1683936045096723700,0.1437236328125,0.1679973602294922,-0.049724578857421875,0.05197405815124512
1683936045106765000,0.15376513671875,0.3083367347717285,0.28715944290161133,0.10345625877380371
1683936045116806400,0.163806396484375,0.6487512588500977,0.6627850532531738,0.2699160575866699
1683936045126847500,0.173847412109375,0.879180908203125,0.5326175689697266,0.5337004661560059
1683936045136888800,0.183888916015625,0.6691408157348633,0.36440229415893555,0.804051399230957
1683936045146930200,0.19393017578125,0.1486954689025879,0.6016659736633301,1.401090383529663
1683936045156971500,0.203971435546875,-0.4308042526245117,1.0787043571472168,0.6900436878204346
1683936045167012600,0.2140126953125,-0.6277837753295898,0.17750883102416992,0.9862818717956543
1683936045177054000,0.224053955078125,0.18793630599975586,0.25163936614990234,0.2639155387878418
1683936045187095300,0.23409521484375,0.454531192779541,0.8584065437316895,-0.560016393661499
1683936045197136400,0.244136474609375,0.23018360137939453,-0.07742023468017578,-0.3394279479980469
1683936045207177700,0.254177734375,0.08628129959106445,-0.0536494255065918,-0.3241691589355469
1683936045217219000,0.264218994140625,0.6517162322998047,0.08890008926391602,-0.3957328796386719
1683936045227260200,0.27426025390625,1.2719063758850098,-0.7394084930419922,-0.24537086486816406
1683936045237301500,0.284301513671875,0.37062740325927734,0.2840127944946289,-1.0958888530731201
1683936045247342800,0.2943427734375,0.06301021575927734,-0.010678768157958984,-1.1835193634033203
1683936045257384000,0.304384033203125,0.40508508682250977,-0.39772820472717285,-0.6503415107727051
1683936045267425300,0.31442529296875,0.9202885627746582,-0.12080550193786621,-0.4699373245239258
1683936045277466600,0.324466552734375,0.906834602355957,1.7383241653442383,-0.905548095703125
1683936045287508000,0.334508056640625,-0.0065479278564453125,2.840623378753662,-1.6886498928070068
1683936045297549000,0.344549072265625,-1.238893985748291,-0.6363620758056641,0.6212029457092285
1683936045307590400,0.35459033203125,-9.0841703414917,-1.3617630004882812,1.5492830276489258
1683936045317631700,0.3646318359375,0.06664180755615234,0.26932382583618164,3.1774449348449707
1683936045327673000,0.374673095703125,0.48105573654174805,0.5938379764556885,1.2992444038391113
1683936045337714200,0.384714111328125,0.678133487701416,-0.014875411987304688,1.6571168899536133
1683936045347755500,0.394755615234375,0.9118657112121582,0.813152551651001,0.5408148765563965
1683936045357796900,0.404796875,0.30115318298339844,0.7306160926818848,0.3252692222595215
1683936045367838000,0.414837890625,3.576477527618408,0.9982047080993652,1.5061631202697754
1683936045377879300,0.42487939453125,3.365569591522217,1.446519374847412,0.9923949241638184
1683936045387920600,0.434920654296875,2.3118629455566406,1.404681921005249,0.49313831329345703
1683936045397961700,0.444961669921875,0.6902179718017578,1.194227695465088,-0.6494860649108887
1683936045408003000,0.455003173828125,-3.160374641418457,0.143294095993042,-3.3151979446411133
1683936045418044400,0.46504443359375,-2.902956247329712,-0.5092687606811523,-3.348322868347168
1683936045428085500,0.47508544921875,-0.5673613548278809,-0.009531974792480469,-2.268357276916504
1683936045438126800,0.485126953125,0.5569553375244141,0.08992886543273926,-1.101830005645752
1683936045448168200,0.495168212890625,0.2985842227935791,0.2775840759277344,-0.4423484802246094
1683936045458209500,0.50520947265625,-0.8824245929718018,0.5743117332458496,-0.377962589263916
1683936045468250600,0.515250732421875,-1.4672490358352661,1.0667762756347656,-0.19179868698120117
1683936045478292000,0.5252919921875,-1.3569267988204956,1.0281646251678467,-0.000274658203125
1683936045488333300,0.535333251953125,-1.1348527669906616,0.9650290012359619,0.045520782470703125
1683936045498374700,0.545374755859375,-0.690192699432373,0.9129033088684082,-0.5142512321472168
1683936045508415700,0.555415771484375,-0.3605031967163086,0.5288355350494385,-0.9808273315429688
1683936045518457000,0.56545703125,0.31832051277160645,1.016387939453125,-2.277092456817627
1683936045528498400,0.57549853515625,0.9862385988235474,-0.35668087005615234,-2.6694440841674805
1683936045538539500,0.58553955078125,2.066406011581421,-1.441601276397705,-3.666097640991211
1683936045548580900,0.595580810546875,3.929473400115967,-2.0539650917053223,-2.6145172119140625
1683936045558622200,0.605622314453125,4.905982494354248,-2.0505499839782715,-0.2655777931213379
1683936045568663300,0.615663330078125,4.286705493927002,-1.5323677062988281,0.9906110763549805
1683936045578704600,0.62570458984375,2.3440983295440674,-1.0113253593444824,1.7198848724365234
1683936045588746000,0.63574609375,-0.5196295380592346,-0.061838626861572266,1.505843162536621
1683936045598787000,0.645787109375,-3.0680761337280273,0.5943002700805664,0.7658758163452148
1683936045608828400,0.655828369140625,-5.355121612548828,1.2956693172454834,-0.2309856414794922
1683936045618869800,0.665869873046875,-5.830600738525391,1.93632173538208,-1.2465267181396484
1683936045628911000,0.6759111328125,-4.838396072387695,1.6074979305267334,-1.5255866050720215
1683936045638952200,0.6859521484375,-2.3195736408233643,1.1041309833526611,-1.7880043983459473
1683936045648993500,0.69599365234375,0.40864866971969604,0.04458808898925781,-1.385434627532959
1683936045659035000,0.706034912109375,2.803419828414917,-1.8621649742126465,-0.13693761825561523
1683936045669076000,0.716075927734375,2.813873529434204,-1.8987350463867188,1.0362615585327148
1683936045679117300,0.726117431640625,2.4235939979553223,-1.501554012298584,2.235201358795166
1683936045689158700,0.73615869140625,2.329312324523926,-0.7144184112548828,2.9585518836975098
1683936045699199700,0.74619970703125,1.8557013273239136,-0.34687089920043945,3.0880284309387207
1683936045709241000,0.756240966796875,1.317899465560913,-0.04741811752319336,2.3868517875671387
1683936045719282400,0.766282470703125,-0.047479480504989624,-0.3883218765258789,1.727799892425537
1683936045729323800,0.77632373046875,-1.3446413278579712,-0.6095571517944336,0.938715934753418
1683936045739364900,0.78636474609375,-1.6153358221054077,-0.4469618797302246,-0.006804943084716797
1683936045749406200,0.79640625,-1.3284482955932617,-0.6987571716308594,-0.5135631561279297
1683936045759447600,0.806447509765625,-0.719262421131134,-0.6215758323669434,-1.2419242858886719
1683936045769488600,0.816488525390625,0.01389002799987793,-0.4906158447265625,-1.5089073181152344
1683936045779530000,0.826530029296875,1.1883296966552734,-0.40944385528564453,-1.4527993202209473
1683936045789571300,0.8365712890625,2.158364772796631,0.24099397659301758,-1.2872180938720703
1683936045799612700,0.84661279296875,1.7520447969436646,-1.3755927085876465,-0.2673678398132324
1683936045809653800,0.85665380859375,1.6015523672103882,-1.9071836471557617,0.0828547477722168
1683936045819695000,0.866695068359375,1.4780535697937012,-1.3762764930725098,0.06262588500976562
1683936045829736400,0.876736328125,1.0954042673110962,-1.3535127639770508,0.01169729232788086
1683936045839777500,0.886777587890625,0.7278248071670532,-1.3926997184753418,-0.310394287109375
1683936045849819000,0.89681884765625,0.3163558840751648,-1.7935123443603516,-0.09598207473754883
1683936045859860200,0.906860107421875,0.06555496156215668,-2.416962146759033,0.6085977554321289
1683936045869901300,0.9169013671875,0.2494959533214569,-2.248642921447754,0.9302210807800293
1683936045879942700,0.926942626953125,0.5865637063980103,-1.4270691871643066,1.0101804733276367
1683936045889984000,0.93698388671875,0.6547792553901672,-1.5164637565612793,0.8535189628601074
1683936045900025000,0.947025146484375,0.03291388601064682,-2.2597107887268066,0.5510177612304688
1683936045910066400,0.95706640625,-0.6868619322776794,-2.826565742492676,0.29732847213745117
1683936045920107800,0.967107666015625,-0.005231812596321106,-1.4823060035705566,0.2395491600036621
1683936045930149000,0.977149169921875,0.5594322681427002,-0.7548046112060547,0.2959098815917969
1683936045940190200,0.987190185546875,1.0224155187606812,-0.8250422477722168,0.23017549514770508
1683936045950231600,0.9972314453125,1.165686845779419,-1.0599350929260254,0.8507881164550781
1683936045960273000,1.00727294921875,1.9768271446228027,-1.0695924758911133,0.9632582664489746
1683936045970314200,1.017314208984375,3.029933214187622,-0.031865596771240234,0.6882753372192383
1683936045980355300,1.027355224609375,2.852654457092285,0.036736488342285156,1.27012300491333
1683936045990396700,1.037396728515625,1.7515318393707275,-0.9780397415161133,2.7183966636657715
1683936046000438000,1.04743798828125,0.9325732588768005,0.8146696090698242,2.23972749710083
1683936046010479000,1.05747900390625,-0.5690740346908569,-0.2558426856994629,2.9947919845581055
1683936046020520400,1.0675205078125,-0.7944844961166382,0.6671714782714844,2.3827805519104004
1683936046030561800,1.077561767578125,-0.06663453578948975,1.1809391975402832,1.4380640983581543
1683936046040603000,1.087602783203125,0.9996175765991211,1.8566699028015137,0.9797582626342773
1683936046050644200,1.097644287109375,0.8979626297950745,1.2478747367858887,1.5477538108825684
1683936046060685600,1.107685546875,0.909837543964386,0.6548957824707031,1.5917835235595703
1683936046070726700,1.1177265625,1.1569874286651611,0.19212865829467773,1.7460789680480957
1683936046080768000,1.12776806640625,0.7371161580085754,1.6563973426818848,0.624596118927002
1683936046090809300,1.137809326171875,-0.2061014622449875,0.6314048767089844,0.6033120155334473
1683936046100850700,1.1478505859375,-0.5436815619468689,0.8659524917602539,0.4570322036743164
1683936046110891800,1.157891845703125,-0.37567174434661865,1.2891459465026855,0.34691524505615234
1683936046120933000,1.16793310546875,-0.48883551359176636,0.9123044013977051,0.49352025985717773
1683936046130974500,1.177974365234375,-0.06290310621261597,1.5415406227111816,0.08773565292358398
1683936046141015600,1.188015625,0.37744346261024475,3.001988410949707,-0.9545726776123047
1683936046151057000,1.198056884765625,-0.37282422184944153,1.0542840957641602,-1.3732972145080566
1683936046161098200,1.20809814453125,-0.9638087749481201,0.5788822174072266,-1.7456903457641602
1683936046171139600,1.2181396484375,-1.058021068572998,0.1579456329345703,-0.9932293891906738
1683936046181180700,1.2281806640625,-1.1481754779815674,-0.6525201797485352,-0.21718502044677734
1683936046191222000,1.238221923828125,-1.4991979598999023,-1.9826087951660156,0.764193058013916
1683936046201263400,1.248263427734375,-1.2163360118865967,-2.029672622680664,1.8251380920410156
1683936046211304400,1.258304443359375,-0.5477215051651001,-0.8294291496276855,2.298740863800049
1683936046221345800,1.268345703125,-0.06263482570648193,-0.24948501586914062,1.8951787948608398
1683936046231387100,1.27838720703125,0.647593080997467,1.1812467575073242,0.6421627998352051
1683936046241428200,1.28842822265625,0.33320295810699463,-2.7323617935180664,-0.9446063041687012
1683936046251469600,1.298469482421875,0.778877317905426,-1.9134597778320312,-1.809514045715332
1683936046261511000,1.308510986328125,1.6692826747894287,-1.3129281997680664,-1.4115338325500488
1683936046271552300,1.31855224609375,3.5022027492523193,1.5395917892456055,-1.6554832458496094
1683936046281593300,1.32859326171875,2.9584572315216064,-2.098422050476074,-1.6124544143676758
1683936046291634700,1.338634765625,2.22467041015625,-2.6923656463623047,-1.5224790573120117
1683936046301676000,1.348676025390625,2.2856361865997314,-1.8153324127197266,-0.7580885887145996
1683936046311717000,1.358717041015625,1.5734589099884033,-2.6690311431884766,-0.013872623443603516
1683936046321758500,1.368758544921875,2.2175755500793457,-1.920708179473877,-1.249922275543213
1683936046331799800,1.3787998046875,2.4311256408691406,0.033064842224121094,-2.3718318939208984
1683936046341841000,1.3888408203125,2.547130823135376,0.5969572067260742,-2.152096748352051
1683936046351882200,1.39888232421875,1.4244476556777954,-1.502418041229248,-0.07910490036010742
1683936046361923600,1.408923583984375,0.9670604467391968,-0.891049861907959,1.0714812278747559
1683936046371965000,1.41896484375,-0.3106034994125366,-0.10398101806640625,1.0638470649719238
1683936046382006000,1.429006103515625,-1.1126235723495483,0.027258872985839844,0.8980307579040527
1683936046392047400,1.43904736328125,-1.3629286289215088,-0.3050246238708496,0.43618059158325195
1683936046402088700,1.449088623046875,-0.620447039604187,-0.494659423828125,0.9069328308105469
1683936046412129800,1.4591298828125,-0.2875128388404846,0.5149812698364258,0.19498300552368164
1683936046422171100,1.469171142578125,-0.17401695251464844,0.24857282638549805,0.00015163421630859375
1683936046432212500,1.47921240234375,-0.11143417656421661,-0.385434627532959,0.15724611282348633
1683936046442253800,1.48925390625,0.0711037665605545,-0.3793463706970215,0.8239545822143555
1683936046452295000,1.499294921875,-0.23201657831668854,1.0340065956115723,-0.10609579086303711
1683936046462336300,1.509336181640625,-2.5414109230041504,1.3982133865356445,-0.6262578964233398
1683936046472377600,1.519377685546875,-5.935351848602295,0.5914034843444824,0.30525732040405273
1683936046482418700,1.529418701171875,-4.7159423828125,0.6618671417236328,0.8820352554321289
1683936046492460000,1.5394599609375,-0.9690256118774414,-0.28389883041381836,1.2906889915466309
1683936046502501400,1.54950146484375,0.9338176846504211,-1.0402531623840332,1.4735469818115234
1683936046512542500,1.55954248046875,0.6822928786277771,-1.4113359451293945,1.252302646636963
1683936046522583800,1.569583740234375,-0.38691648840904236,-1.0238361358642578,0.8722734451293945
1683936046532625200,1.579625244140625,-1.417849063873291,-0.3646106719970703,0.5083231925964355
1683936046542666200,1.589666259765625,-1.2209949493408203,-1.2757129669189453,1.1384530067443848
1683936046552707600,1.59970751953125,-0.21406465768814087,-0.1950225830078125,0.2828845977783203
1683936046562749000,1.6097490234375,0.4892473816871643,-0.14345359802246094,0.5191287994384766
1683936046572790300,1.619790283203125,0.6250342130661011,-0.29522228240966797,0.6468496322631836
1683936046582831400,1.629831298828125,0.993538498878479,-0.559565544128418,0.6761422157287598
1683936046592872700,1.639872802734375,1.699844241142273,-0.9770593643188477,0.7083463668823242
1683936046602914000,1.6499140625,2.50543212890625,-0.8987464904785156,0.3673672676086426
1683936046612955100,1.659955078125,3.1016390323638916,-0.9207801818847656,-0.0769033432006836
1683936046622996500,1.66999658203125,3.2619752883911133,-1.0157966613769531,-0.0010671615600585938
1683936046633037800,1.680037841796875,3.0195703506469727,-0.8517665863037109,0.3667902946472168
1683936046643079200,1.6900791015625,2.306276559829712,-0.48855113983154297,0.34021520614624023
1683936046653120300,1.700120361328125,0.4792112112045288,0.41445255279541016,0.7865633964538574
1683936046663161600,1.71016162109375,-3.3936989307403564,0.774566650390625,1.0818872451782227
1683936046673203000,1.720202880859375,-5.115769863128662,1.3324394226074219,1.152024269104004
1683936046683244000,1.730244140625,-4.552804946899414,2.1807632446289062,1.0534801483154297
1683936046693285400,1.740285400390625,-3.313199281692505,1.974881649017334,0.3419790267944336
1683936046703326700,1.75032666015625,-2.6263747215270996,0.15288639068603516,0.35566234588623047
1683936046713367800,1.760367919921875,-0.48299455642700195,1.118133544921875,-0.8406524658203125
1683936046723409200,1.7704091796875,-0.1547604203224182,0.7450070381164551,-1.106320858001709
1683936046733450500,1.780450439453125,0.1938542127609253,-0.45488595962524414,-0.7258491516113281
1683936046743491800,1.790491943359375,0.7992602586746216,-0.9335184097290039,-0.9184837341308594
1683936046753533000,1.800532958984375,1.2038445472717285,-1.0335688591003418,-0.8947463035583496
1683936046763574300,1.81057421875,1.3937116861343384,-0.9042477607727051,-0.9694623947143555
1683936046773615600,1.82061572265625,1.2560195922851562,-0.5646014213562012,-1.0919842720031738
1683936046783656700,1.83065673828125,0.37995660305023193,-1.811798095703125,-0.6187553405761719
1683936046793698000,1.840697998046875,0.5684047937393188,-1.0291109085083008,-0.7770509719848633
1683936046803739400,1.850739501953125,0.410625696182251,0.6669712066650391,-0.8013424873352051
1683936046813780500,1.860780517578125,-0.24396908283233643,1.1410908699035645,-0.743471622467041
1683936046823821800,1.87082177734375,-0.7562839984893799,1.5560665130615234,-1.1132864952087402
1683936046833863200,1.88086328125,-1.1234482526779175,2.8145198822021484,-1.7428913116455078
1683936046843904300,1.890904296875,-1.5769000053405762,0.1238865852355957,-0.9545269012451172
1683936046853945600,1.900945556640625,-1.0720396041870117,-0.9990024566650391,-0.8542051315307617
1683936046863987000,1.910987060546875,-0.37251782417297363,-1.540557861328125,-0.44131994247436523
1683936046874028300,1.9210283203125,0.2047055959701538,-1.8202457427978516,-0.48177433013916016
1683936046884069400,1.9310693359375,0.47376179695129395,-1.8246636390686035,-0.8460769653320312
1683936046894110700,1.94111083984375,0.4090251922607422,-1.9323382377624512,-0.582611083984375
1683936046904152000,1.951152099609375,-0.3451559543609619,-2.0942864418029785,0.0343012809753418
1683936046914193200,1.961193115234375,-0.6437563896179199,-3.1305336952209473,1.5748448371887207
1683936046924234500,1.971234375,0.3596007823944092,-2.6013054847717285,1.1903295516967773
1683936046934275800,1.98127587890625,1.6370906829833984,1.7643733024597168,-0.7337307929992676
1683936046944317200,1.991317138671875,1.646681785583496,2.452831745147705,-0.6988883018493652
1683936046954358300,2.001358154296875,0.8194417953491211,-0.18384218215942383,0.43921327590942383
1683936046964399600,2.011399658203125,0.5959209203720093,-0.2894477844238281,0.6868243217468262
1683936046974441000,2.02144091796875,0.16286563873291016,-0.18010950088500977,0.6492171287536621
1683936046984482000,2.03148193359375,-0.34017252922058105,0.6731977462768555,0.752161979675293
1683936046994523400,2.0415234375,-0.5816659927368164,-1.2934379577636719,0.27690696716308594
1683936047004564700,2.051564697265625,-0.12269258499145508,-0.5447030067443848,-1.6862549781799316
1683936047014605800,2.061605712890625,0.2626194953918457,-0.6158919334411621,-1.845567226409912
1683936047024647200,2.071647216796875,0.22444629669189453,-0.769477367401123,-1.0779099464416504
1683936047034688500,2.0816884765625,-0.2330317497253418,-0.9997024536132812,-1.8303685188293457
1683936047044729900,2.091729736328125,0.4388427734375,1.189300537109375,-0.7391209602355957
1683936047054771000,2.10177099609375,0.44283342361450195,0.8016953468322754,0.4102935791015625
1683936047064812300,2.111812255859375,0.0375821590423584,0.67901611328125,1.4025192260742188
1683936047074853600,2.121853515625,-0.17090868949890137,-1.2526845932006836,0.2223343849182129
1683936047084894700,2.131894775390625,0.05910897254943848,-0.7863049507141113,-0.1184239387512207
1683936047094936000,2.14193603515625,-0.10725712776184082,-0.927523136138916,0.4365711212158203
1683936047104977400,2.151977294921875,-0.22735095024108887,-1.3525490760803223,1.0430798530578613
1683936047115018500,2.1620185546875,-0.2332766056060791,-1.495168685913086,1.1340465545654297
1683936047125059800,2.172059814453125,-0.23012375831604004,-0.831479549407959,0.5312967300415039
1683936047135101200,2.18210107421875,-0.33943796157836914,-1.1021885871887207,-0.20877408981323242
1683936047145142300,2.192142333984375,-1.0234808921813965,-0.6105294227600098,-0.39632081985473633
1683936047155183600,2.20218359375,-1.631906270980835,-0.45415306091308594,-0.7402505874633789
1683936047165225000,2.212224853515625,-1.8865571022033691,-0.6984286308288574,-1.2442026138305664
1683936047175266300,2.222266357421875,-1.4642298221588135,-0.6721072196960449,-1.784822940826416
1683936047185307400,2.232307373046875,-0.994610071182251,-0.4084906578063965,-1.653721809387207
1683936047195348700,2.2423486328125,-0.6901214122772217,-0.5217976570129395,-1.4327292442321777
1683936047205390000,2.25239013671875,-0.4670846462249756,-0.43238162994384766,-1.0278940200805664
1683936047215431200,2.26243115234375,-0.2390456199645996,-0.14574956893920898,-0.6513071060180664
1683936047225472500,2.272472412109375,-0.017441749572753906,-0.23909664154052734,-0.8514699935913086
1683936047235513900,2.282513916015625,0.11933779716491699,-0.07008123397827148,-1.0894126892089844
1683936047245555200,2.29255517578125,0.2402336597442627,0.2359790802001953,-1.2444357872009277
1683936047255596300,2.30259619140625,0.2538318634033203,0.4469008445739746,-1.2778148651123047
1683936047265637600,2.3126376953125,0.28887271881103516,0.47604846954345703,-1.2448220252990723
1683936047275679000,2.322678955078125,0.5457241535186768,0.8666610717773438,-1.4119682312011719
1683936047285720000,2.332719970703125,0.8258519172668457,0.6171832084655762,-0.8930478096008301
1683936047295761400,2.342761474609375,1.0734810829162598,0.05190896987915039,-0.39629554748535156
1683936047305802800,2.352802734375,1.0919362306594849,0.08150148391723633,0.033274173736572266
1683936047315843800,2.36284375,1.0650038719177246,0.5303964614868164,-0.11805868148803711
1683936047325885200,2.37288525390625,0.9967484474182129,0.5508303642272949,-0.4610319137573242
1683936047335926500,2.382926513671875,0.8046262264251709,0.3976716995239258,-0.6663098335266113
1683936047345967900,2.3929677734375,0.6901211738586426,0.5379786491394043,-0.8545947074890137
1683936047356009000,2.403009033203125,0.6525733470916748,0.6836099624633789,-0.9353847503662109
1683936047366050300,2.41305029296875,0.7650129795074463,0.8893880844116211,-1.015820026397705
1683936047376091600,2.423091552734375,0.9697391986846924,1.076385498046875,-1.264784812927246
1683936047386132700,2.4331328125,1.0082528591156006,0.7736325263977051,-1.3918354511260986
1683936047396174000,2.443174072265625,1.073167324066162,1.05708646774292,-1.5459094047546387
1683936047406215400,2.45321533203125,1.14247465133667,1.330240249633789,-1.5772764682769775
1683936047416256500,2.463256591796875,1.2273690700531006,1.9142332077026367,-2.613438844680786
1683936047426297900,2.4732978515625,1.3119394779205322,1.696878433227539,-2.881093978881836
1683936047436339200,2.483339111328125,1.478186845779419,1.662740707397461,-3.5502145290374756
1683936047446380300,2.49338037109375,1.47910475730896,1.6975445747375488,-4.095722198486328
1683936047456421600,2.503421630859375,1.130589246749878,1.4655852317810059,-4.51250696182251
1683936047466463000,2.513462890625,-0.0811309814453125,1.322474479675293,-3.7051749229431152
1683936047476504300,2.52350439453125,-3.6110496520996094,1.6330366134643555,-2.8516287803649902
1683936047486545400,2.53354541015625,-7.0495829582214355,1.3214635848999023,-1.754328727722168
1683936047496586800,2.543586669921875,-9.065156936645508,-0.4085512161254883,0.025595664978027344
1683936047506628000,2.553628173828125,-7.767024993896484,-1.4922113418579102,0.6743738651275635
1683936047516669200,2.563669189453125,-5.303114891052246,-1.475102424621582,0.6236906051635742
1683936047526710500,2.57371044921875,-2.7248427867889404,-1.4605722427368164,0.7346467971801758
1683936047536751900,2.583751953125,-0.8734893798828125,-1.5814180374145508,1.2287359237670898
1683936047546793200,2.593793212890625,0.43710994720458984,-1.1504602432250977,1.614711046218872
1683936047556834300,2.603834228515625,1.7222498655319214,0.4668893814086914,1.9451584815979004
1683936047566875600,2.613875732421875,2.300447940826416,1.6794414520263672,1.4881513118743896
1683936047576917000,2.6239169921875,2.4592459201812744,2.905005931854248,1.3925048112869263
1683936047586958000,2.6339580078125,2.1048123836517334,4.079155445098877,1.4259310960769653
1683936047596999400,2.64399951171875,1.2747881412506104,4.374963283538818,1.3906644582748413
1683936047607040800,2.654040771484375,-0.23385286331176758,3.884641647338867,1.346572995185852
1683936047617081900,2.664081787109375,-1.9532792568206787,2.3312935829162598,1.4912548065185547
1683936047627123200,2.674123291015625,-3.24666428565979,-0.36623096466064453,1.7468189001083374
1683936047637164500,2.68416455078125,-3.286736488342285,-3.683924674987793,1.575767993927002
1683936047647206000,2.694205810546875,-2.3398213386535645,-6.221785545349121,1.13283109664917
1683936047657247000,2.7042470703125,-0.7481215000152588,-8.22120475769043,0.2729509174823761
1683936047667288300,2.714288330078125,1.1275091171264648,-9.316372871398926,-0.036640316247940063
1683936047677329700,2.72432958984375,2.629423141479492,-8.536722183227539,0.7903794646263123
1683936047687370800,2.734370849609375,3.43605375289917,-6.092203140258789,2.620241165161133
1683936047697412000,2.744412109375,3.915645122528076,-3.508678436279297,3.485856533050537
1683936047707453400,2.754453369140625,3.839881420135498,-0.7834701538085938,2.136101722717285
1683936047717494500,2.76449462890625,3.2721214294433594,0.4963998794555664,-0.2974895238876343
1683936047727535900,2.774535888671875,2.670295238494873,0.9632558822631836,-1.9112954139709473
1683936047737577200,2.7845771484375,2.066023826599121,1.1739892959594727,-2.14547061920166
1683936047747618600,2.79461865234375,1.3912343978881836,1.4648981094360352,-1.5735502243041992
1683936047757659600,2.80465966796875,0.7737367749214172,1.7717695236206055,-1.342665672302246
1683936047767701000,2.814700927734375,0.317496657371521,1.9371957778930664,-1.3898546695709229
1683936047777742300,2.824742431640625,0.11051535606384277,1.8880863189697266,-1.6376945972442627
1683936047787783400,2.834783447265625,0.10562527179718018,1.6897916793823242,-1.5639121532440186
1683936047797824800,2.84482470703125,0.3388015031814575,1.1134767532348633,-1.6231961250305176
1683936047807866000,2.8548662109375,0.690302848815918,0.7489776611328125,-1.5629767179489136
1683936047817907200,2.8649072265625,0.9762216806411743,0.4330120086669922,-1.1132493019104004
1683936047827948500,2.874948486328125,1.1857260465621948,0.03890037536621094,-0.6728177666664124
1683936047837990000,2.884989990234375,1.2830978631973267,-0.3449583053588867,-0.4490188956260681
1683936047848031000,2.895031005859375,1.5095758438110352,-0.33447933197021484,-0.19692760705947876
1683936047858072300,2.905072265625,1.7359836101531982,-0.3291950225830078,-0.151153564453125
1683936047868113700,2.91511376953125,1.9438621997833252,-0.25481128692626953,-0.20744454860687256
1683936047878155000,2.925155029296875,1.9119596481323242,-0.38126182556152344,-0.5808891654014587
1683936047888196000,2.935196044921875,1.6332261562347412,-0.5005702972412109,-0.8192445635795593
1683936047898237400,2.945237548828125,1.2794767618179321,-0.5030860900878906,-0.8399816155433655
1683936047908278800,2.95527880859375,0.9054982662200928,-0.30321788787841797,-0.5761858820915222
1683936047918319900,2.96531982421875,0.4987950623035431,-0.17371559143066406,-0.41177898645401
1683936047928361200,2.975361328125,0.10667619109153748,-0.3958587646484375,-0.15517199039459229
1683936047938402600,2.985402587890625,-0.28846895694732666,-0.4362983703613281,0.14874336123466492
1683936047948444000,2.99544384765625,-0.4216419756412506,-0.5225238800048828,0.36947208642959595
1683936047958485000,3.005485107421875,-0.31859540939331055,-0.41596508026123047,0.4213414192199707
1683936047968526300,3.0155263671875,0.07346561551094055,-0.20062255859375,0.16529175639152527
1683936047978567400,3.0255673828125,0.5819952487945557,-0.18426895141601562,-0.12720715999603271
1683936047988608800,3.03560888671875,0.9587908387184143,-0.06793403625488281,-0.4966188669204712
1683936047998650000,3.045650146484375,1.246877908706665,-0.02622509002685547,-0.7870733141899109
1683936048008691500,3.05569140625,1.4697225093841553,-0.16139984130859375,-1.1844725608825684
1683936048018732500,3.065732666015625,1.4707595109939575,-0.24859333038330078,-1.133029580116272
1683936048028774000,3.07577392578125,1.4249147176742554,-0.08508586883544922,-0.6951602101325989
1683936048038815200,3.085815185546875,1.2856426239013672,-0.19645118713378906,-0.3246500492095947
1683936048048856600,3.095856689453125,1.0150189399719238,-0.4051694869995117,0.09673458337783813
1683936048058897700,3.105897705078125,0.7414935827255249,-0.42232799530029297,0.2465534806251526
1683936048068939000,3.11593896484375,0.49852728843688965,-0.3084535598754883,0.2754018008708954
1683936048078980400,3.12598046875,0.3960106372833252,0.26004505157470703,0.2064242959022522
1683936048089021400,3.136021484375,0.350770503282547,0.3176307678222656,0.5367441177368164
1683936048099062800,3.146062744140625,0.4021250009536743,0.1718893051147461,0.8252522349357605
1683936048109104000,3.156104248046875,0.44902265071868896,0.2078695297241211,0.8507031202316284
1683936048119145200,3.166145263671875,0.41516387462615967,0.2624998092651367,0.6714712381362915
1683936048129186600,3.1761865234375,0.2416357696056366,0.24966812133789062,0.5239224433898926
1683936048139228000,3.186227783203125,0.06993497908115387,0.07908916473388672,0.44311198592185974
1683936048149269000,3.19626904296875,0.010487832129001617,0.06661033630371094,0.344647616147995
1683936048159310300,3.206310302734375,0.009330913424491882,0.0688629150390625,0.2502720355987549
1683936048169351700,3.2163515625,0.07593072950839996,0.05499744415283203,0.08740776777267456
1683936048179393000,3.22639306640625,0.20032505691051483,0.01794719696044922,-0.07624238729476929
1683936048189434000,3.23643408203125,0.2813405394554138,0.019666671752929688,-0.30007362365722656
1683936048199475500,3.246475341796875,0.35468170046806335,0.1170053482055664,-0.5058178305625916
1683936048209516800,3.256516845703125,0.41465696692466736,0.08757400512695312,-0.640807569026947
1683936048219558000,3.266557861328125,0.4428170323371887,-0.2521047592163086,-1.0213377475738525
1683936048229599200,3.27659912109375,0.5338129997253418,-0.1181325912475586,-1.0064316987991333
1683936048239640600,3.286640625,0.6572244167327881,0.23048877716064453,-0.7678413391113281
1683936048249681700,3.296681640625,0.8126774430274963,0.49476051330566406,-0.620509147644043
1683936048259723000,3.306722900390625,1.042649507522583,0.5507001876831055,-0.5077744126319885
1683936048269764400,3.316764404296875,1.3324404954910278,0.48709869384765625,-0.46110790967941284
1683936048279805700,3.3268056640625,1.5832759141921997,0.37337684631347656,-0.43412941694259644
1683936048289846800,3.3368466796875,1.6373622417449951,0.3002338409423828,-0.39646196365356445
1683936048299888000,3.34688818359375,1.5932886600494385,0.007370948791503906,-0.2640858292579651
1683936048309929500,3.356929443359375,1.483335018157959,-0.09163379669189453,-0.09189015626907349
1683936048319970600,3.366970458984375,1.4095100164413452,-0.1284637451171875,0.1946122646331787
1683936048330012000,3.377011962890625,1.3259153366088867,-0.043341636657714844,0.4083938002586365
1683936048340053200,3.38705322265625,1.265666127204895,0.1063222885131836,0.6215542554855347
1683936048350094300,3.39709423828125,1.2068428993225098,-0.10194873809814453,0.6175485849380493
1683936048360135700,3.4071357421875,1.158805251121521,-0.3470268249511719,0.6428301930427551
1683936048370177000,3.417177001953125,1.088647484779358,-0.40224742889404297,0.5774874091148376
1683936048380218000,3.427218017578125,1.0445129871368408,-0.09925365447998047,0.38703593611717224
1683936048390259500,3.437259521484375,0.9029474258422852,0.18097877502441406,0.1885715126991272
1683936048400300800,3.44730078125,0.7042007446289062,0.1686573028564453,0.11827456951141357
1683936048410342100,3.457342041015625,0.687111496925354,-0.0661020278930664,0.09460407495498657
1683936048420383200,3.46738330078125,0.6635842323303223,-0.21441173553466797,0.07765740156173706
1683936048430424600,3.477424560546875,0.6920385956764221,-0.40759944915771484,0.05715358257293701
1683936048440466000,3.4874658203125,0.8034144639968872,-0.2780036926269531,-0.025869905948638916
1683936048450507000,3.497507080078125,0.8277167677879333,-0.027376174926757812,-0.2725168466567993
1683936048460548400,3.50754833984375,0.771725058555603,-0.1551675796508789,-0.3672563433647156
1683936048470589700,3.517589599609375,0.6873975396156311,-0.3405008316040039,-0.4338938593864441
1683936048480630800,3.527630859375,0.5472983121871948,-0.2634124755859375,-0.4501032829284668
1683936048490672000,3.537672119140625,0.3684868812561035,-0.08685874938964844,-0.2984163165092468
1683936048500713500,3.54771337890625,0.2028387188911438,0.01978302001953125,-0.07308578491210938
1683936048510754600,3.557754638671875,0.10820126533508301,0.05712413787841797,0.19559669494628906
1683936048520796000,3.5677958984375,0.016782641410827637,0.01601409912109375,0.4000993072986603
1683936048530837200,3.577837158203125,-0.0323333740234375,-0.04840278625488281,0.561147928237915
1683936048540878600,3.587878662109375,-0.06266826391220093,-0.08365058898925781,0.6500744819641113
1683936048550919700,3.597919677734375,-0.12794554233551025,-0.15434551239013672,0.7148830890655518
1683936048560961000,3.6079609375,-0.24520283937454224,-0.1936359405517578,0.701425313949585
1683936048571002400,3.61800244140625,-0.3969983160495758,-0.22074508666992188,0.6275639533996582
1683936048581043700,3.628043701171875,-0.5171223878860474,-0.16884231567382812,0.508996307849884
1683936048591084800,3.638084716796875,-0.5441734194755554,-0.1383819580078125,0.44013261795043945
1683936048601126100,3.648126220703125,-0.47452911734580994,-0.112548828125,0.4598025381565094
1683936048611167200,3.658167236328125,-0.32456958293914795,-0.015005111694335938,0.4899996817111969
1683936048621208600,3.66820849609375,-0.14887428283691406,-0.02987384796142578,0.5531506538391113
1683936048631250000,3.67825,0.02367258071899414,-0.056710243225097656,0.6736719608306885
1683936048641291300,3.688291259765625,0.1776484251022339,-0.18861103057861328,0.966998279094696
1683936048651332400,3.698332275390625,0.3369904160499573,-0.3130044937133789,1.3606016635894775
1683936048661373700,3.708373779296875,0.5854790806770325,-0.2723398208618164,1.7414608001708984
1683936048671415000,3.7184150390625,0.7836546301841736,-0.11960029602050781,1.9374337196350098
1683936048681456000,3.7284560546875,0.9525566697120667,-0.03862571716308594,1.9943033456802368
1683936048691497500,3.73849755859375,1.0705640316009521,-0.057704925537109375,1.8505172729492188
1683936048701538800,3.748538818359375,1.177613377571106,-0.1794452667236328,1.5569982528686523
1683936048711580000,3.758579833984375,1.1114730834960938,-0.3443136215209961,1.2228889465332031
1683936048721621200,3.768621337890625,0.9686036705970764,-0.5425148010253906,1.1306695938110352
1683936048731662600,3.77866259765625,0.9040060043334961,-0.7208166122436523,1.3214303255081177
1683936048741703700,3.78870361328125,0.9094115495681763,-0.8309326171875,1.3048481941223145
1683936048751745000,3.7987451171875,0.9330576062202454,-0.9803400039672852,1.4843709468841553
1683936048761786400,3.808786376953125,0.7802796363830566,-0.7965917587280273,1.4563219547271729
1683936048771827700,3.81882763671875,0.5842323899269104,-0.5053901672363281,1.3200417757034302
1683936048781868800,3.828868896484375,0.5012384057044983,-0.17417144775390625,1.2645599842071533
1683936048791910100,3.83891015625,0.566153883934021,-0.056296348571777344,1.2388886213302612
1683936048801951500,3.848951416015625,0.7837899923324585,-0.2586984634399414,1.3615608215332031
1683936048811992600,3.85899267578125,1.0061116218566895,-0.147918701171875,1.3865971565246582
1683936048822034000,3.869033935546875,1.2021167278289795,-0.05211639404296875,1.3580800294876099
1683936048832075300,3.8790751953125,1.2077417373657227,-0.24333858489990234,1.540374755859375
1683936048842116400,3.889116455078125,1.2626780271530151,-0.11431312561035156,1.4816728830337524
1683936048852157700,3.89915771484375,1.467696189880371,0.5222816467285156,1.0363131761550903
1683936048862199000,3.909198974609375,1.6415960788726807,0.969970703125,0.8449312448501587
1683936048872240400,3.919240478515625,1.7261195182800293,1.2701168060302734,0.56036776304245
1683936048882281500,3.929281494140625,1.593104362487793,1.399714469909668,0.10907256603240967
1683936048892322800,3.93932275390625,1.188704013824463,1.4241466522216797,-0.5793295502662659
1683936048902364200,3.9493642578125,0.6701325178146362,1.2821121215820312,-1.251534342765808
1683936048912405200,3.9594052734375,0.11591517925262451,1.0746135711669922,-2.1050047874450684
1683936048922446600,3.969446533203125,-0.2716483175754547,0.9208364486694336,-2.962108612060547
1683936048932488000,3.979488037109375,-0.3982791602611542,0.8816967010498047,-3.53144907951355
1683936048942529000,3.989529052734375,-0.4290992021560669,0.8340444564819336,-3.8862204551696777
1683936048952570400,3.9995703125,-0.49049705266952515,0.698460578918457,-3.656677484512329
1683936048962611700,4.00961181640625,-0.6043708324432373,0.647430419921875,-2.837869882583618
1683936048972652800,4.01965283203125,-0.5439906120300293,0.8439712524414062,-2.0338306427001953
1683936048982694100,4.029694091796875,-0.32004693150520325,0.9255886077880859,-1.4187625646591187
1683936048992735500,4.039735595703125,0.0442354679107666,0.7049961090087891,-0.9978116750717163
1683936049002776800,4.04977685546875,0.4194534420967102,0.1071767807006836,-0.8497172594070435
1683936049012818000,4.05981787109375,0.814997673034668,-0.41147613525390625,-0.9652851819992065
1683936049022859300,4.069859375,1.1276438236236572,-0.9553737640380859,-1.0772361755371094
1683936049032900600,4.079900634765625,1.3216161727905273,-1.4015369415283203,-0.9290424585342407
1683936049042941700,4.089941650390625,1.424617052078247,-1.8676280975341797,-0.39817869663238525
1683936049052983000,4.099983154296875,1.4429864883422852,-2.0646181106567383,0.2265629768371582
1683936049063024400,4.1100244140625,1.4291441440582275,-1.7541046142578125,0.7564730644226074
1683936049073065500,4.1200654296875,1.2986023426055908,-1.2163381576538086,1.3278340101242065
1683936049083106800,4.13010693359375,1.0075279474258423,-0.7021379470825195,1.95711088180542
1683936049093148200,4.140148193359375,0.6203173398971558,-0.22254467010498047,2.4295406341552734
1683936049103189200,4.150189208984375,0.20796602964401245,-0.06293964385986328,2.8398494720458984
1683936049113230600,4.160230712890625,-0.12661495804786682,0.16962337493896484,2.8778839111328125
1683936049123272000,4.17027197265625,-0.28913578391075134,0.4390411376953125,2.677138566970825
1683936049133313300,4.180313232421875,-0.36158713698387146,0.3413105010986328,2.412208318710327
1683936049143354400,4.190354248046875,-0.48342347145080566,0.16352081298828125,2.1519742012023926
1683936049153395700,4.200395751953125,-0.6195982694625854,-0.08477210998535156,1.9065003395080566
1683936049163437000,4.21043701171875,-0.7277660369873047,-0.3485555648803711,1.6208932399749756
1683936049173478100,4.22047802734375,-0.8371354937553406,-0.5180540084838867,1.350724697113037
1683936049183519500,4.23051953125,-1.0313680171966553,-0.7631034851074219,1.1102337837219238
1683936049193560800,4.240560791015625,-1.1924571990966797,-0.9570341110229492,0.8657933473587036
1683936049203602000,4.250601806640625,-1.3626317977905273,-0.999974250793457,0.4870363473892212
1683936049213643300,4.260643310546875,-1.550269603729248,-0.9645767211914062,0.04141116142272949
1683936049223684600,4.2706845703125,-1.6565628051757812,-0.8971099853515625,-0.4440559148788452
1683936049233726000,4.280725830078125,-1.589428186416626,-0.8147544860839844,-0.8530360460281372
1683936049243767000,4.29076708984375,-1.4034092426300049,-0.6913623809814453,-1.1234989166259766
1683936049253808400,4.300808349609375,-1.0622708797454834,-0.560481071472168,-1.3346186876296997
1683936049263849700,4.310849609375,-0.6786538362503052,-0.41943931579589844,-1.420899748802185
1683936049273890800,4.320890869140625,-0.3192601203918457,-0.28467559814453125,-1.4575605392456055
1683936049283932200,4.33093212890625,-0.04523420333862305,-0.09164142608642578,-1.4822940826416016
1683936049293973500,4.340973388671875,0.19048082828521729,0.10941600799560547,-1.368019938468933
1683936049304014600,4.3510146484375,0.3826183080673218,0.251922607421875,-1.2093855142593384
1683936049314056000,4.361055908203125,0.4882000684738159,0.3411445617675781,-1.0200209617614746
1683936049324097300,4.37109716796875,0.5362056493759155,0.3535737991333008,-0.7820314168930054
1683936049334138400,4.381138427734375,0.5267512798309326,0.2585296630859375,-0.4794323444366455
1683936049344179700,4.3911796875,0.5074306726455688,0.04944038391113281,-0.13983845710754395
1683936049354221000,4.401220947265625,0.625419020652771,-0.05569267272949219,0.1472923755645752
1683936049364262400,4.411262451171875,0.8621775507926941,-0.037400245666503906,0.5047413110733032
1683936049374303500,4.421303466796875,1.1127722263336182,0.06400299072265625,0.8360565900802612
1683936049384344800,4.4313447265625,1.361986756324768,0.1721343994140625,1.1677401065826416
1683936049394386200,4.44138623046875,1.5532400608062744,0.31809139251708984,1.4202392101287842
1683936049404427300,4.45142724609375,1.6935606002807617,0.3775768280029297,1.5461722612380981
1683936049414468600,4.461468505859375,1.7218149900436401,0.42437267303466797,1.482313632965088
1683936049424510000,4.471510009765625,1.862387776374817,0.5414190292358398,1.2801237106323242
1683936049434551000,4.481551025390625,2.083745002746582,0.6540775299072266,0.9755231738090515
1683936049444592400,4.49159228515625,2.3380532264709473,0.7479124069213867,0.47413861751556396
1683936049454633700,4.5016337890625,2.503321409225464,0.6990261077880859,0.017155051231384277
1683936049464675000,4.511675048828125,2.5015954971313477,0.6155862808227539,-0.42154932022094727
1683936049474716200,4.521716064453125,2.371177911758423,0.5651493072509766,-0.7394582033157349
1683936049484757500,4.531757568359375,2.1889705657958984,0.5150423049926758,-0.9762474298477173
1683936049494798800,4.541798828125,1.9557565450668335,0.49933910369873047,-1.1159220933914185
1683936049504840000,4.55183984375,1.6489506959915161,0.41524314880371094,-1.1929535865783691
1683936049514881300,4.56188134765625,1.339284896850586,0.36499786376953125,-1.2392661571502686
1683936049524922600,4.571922607421875,0.9879775643348694,0.3043651580810547,-1.2801399230957031
1683936049534963700,4.581963623046875,0.6183334589004517,0.2343311309814453,-1.224656343460083
1683936049545005000,4.592005126953125,0.22278714179992676,0.23481178283691406,-1.0558512210845947
1683936049555046400,4.60204638671875,-0.2045450210571289,0.2904958724975586,-0.9045913815498352
1683936049565087500,4.61208740234375,-0.5845869779586792,0.22882556915283203,-0.818155825138092
1683936049575128800,4.62212890625,-0.9406400918960571,0.05946159362792969,-0.6396030783653259
1683936049585170200,4.632170166015625,-1.2072043418884277,-0.07869815826416016,-0.5156813859939575
1683936049595211300,4.642211181640625,-1.3950254917144775,-0.12804031372070312,-0.36629873514175415
1683936049605252600,4.652252685546875,-1.4157856702804565,-0.16714191436767578,-0.33314910531044006
1683936049615294000,4.6622939453125,-1.2754052877426147,-0.1692943572998047,-0.3559401333332062
1683936049625335000,4.6723349609375,-1.0604639053344727,-0.24415111541748047,-0.5159469842910767
1683936049635376400,4.68237646484375,-0.8001996278762817,-0.25267982482910156,-0.6673001050949097
1683936049645417700,4.692417724609375,-0.525361180305481,-0.20429611206054688,-0.7279958128929138
1683936049655459000,4.702458984375,-0.327023983001709,-0.17788028717041016,-0.78371661901474
1683936049665500200,4.712500244140625,-0.2871655225753784,-0.1544628143310547,-0.7793500423431396
1683936049675541500,4.72254150390625,-0.3135509490966797,-0.12698841094970703,-0.6587133407592773
1683936049685582800,4.732582763671875,-0.2678647041320801,-0.011775016784667969,-0.5597691535949707
1683936049695624000,4.7426240234375,-0.17477917671203613,0.0644989013671875,-0.47122251987457275
1683936049705665300,4.752665283203125,-0.03554677963256836,0.10687637329101562,-0.40700802206993103
1683936049715706600,4.76270654296875,0.014346599578857422,0.17779541015625,-0.27117645740509033
1683936049725747700,4.772747802734375,0.06685936450958252,0.25117015838623047,-0.13609495759010315
1683936049735789000,4.7827890625,0.1236259937286377,0.26267242431640625,0.021430090069770813
1683936049745830400,4.792830322265625,0.16288912296295166,0.2507295608520508,0.1245739609003067
1683936049755871500,4.80287158203125,0.26631951332092285,0.18668270111083984,0.29058825969696045
1683936049765912800,4.812912841796875,0.39165961742401123,0.15410709381103516,0.4783931374549866
1683936049775954200,4.8229541015625,0.5662153959274292,0.18859291076660156,0.6676113605499268
1683936049785995500,4.83299560546875,0.7497386932373047,0.23499679565429688,0.7803969383239746
1683936049796036600,4.84303662109375,0.8919779062271118,0.2192983627319336,0.827402651309967
1683936049806078000,4.853077880859375,0.9613303542137146,0.17520713806152344,0.8820274472236633
1683936049816119300,4.863119384765625,0.9757632613182068,0.12690067291259766,0.9432270526885986
1683936049826160400,4.873160400390625,0.8679386377334595,0.02432727813720703,0.9885119795799255
1683936049836201700,4.88320166015625,0.6981915235519409,-0.03934764862060547,0.96771240234375
1683936049846243000,4.8932431640625,0.4764629602432251,-0.04045677185058594,0.8206374049186707
1683936049856284200,4.9032841796875,0.3207409381866455,0.0063114166259765625,0.6380667686462402
1683936049866325500,4.913325439453125,0.20541465282440186,0.11022186279296875,0.4124585688114166
1683936049876366800,4.923366943359375,0.10503137111663818,0.13485240936279297,0.14712747931480408
1683936049886408200,4.933408203125,0.02506887912750244,0.22597694396972656,-0.18496450781822205
1683936049896449300,4.94344921875,0.013485074043273926,0.28313446044921875,-0.5577093958854675
1683936049906490600,4.95349072265625,-0.025549650192260742,0.20141887664794922,-0.8119322657585144
1683936049916531700,4.96353173828125,-0.07355093955993652,0.15807342529296875,-0.9923025965690613
1683936049926573000,4.973572998046875,-0.13115394115447998,0.10301589965820312,-1.1148146390914917
1683936049936614400,4.983614501953125,-0.12044286727905273,0.11764812469482422,-1.1580474376678467
1683936049946655700,4.99365576171875,-0.061194658279418945,0.09441280364990234,-1.1274534463882446
1683936049956696800,5.00369677734375,0.04394340515136719,0.1719207763671875,-1.0666451454162598
1683936049966738200,5.01373828125,0.18995249271392822,0.27826595306396484,-0.9906076788902283
1683936049976779500,5.023779541015625,0.341028094291687,0.39659595489501953,-0.9003150463104248
1683936049986820600,5.033820556640625,0.42558085918426514,0.45517826080322266,-0.7946495413780212
1683936049996862000,5.043862060546875,0.48894059658050537,0.44698333740234375,-0.7708210349082947
1683936050006903300,5.0539033203125,0.5855491161346436,0.3626890182495117,-0.6886321306228638
1683936050016944400,5.0639443359375,0.6639503240585327,0.33160400390625,-0.6361830830574036
1683936050026985700,5.07398583984375,0.6444616317749023,0.24384593963623047,-0.5317406058311462
1683936050037027000,5.084027099609375,0.5296807885169983,0.0923452377319336,-0.3327932357788086
1683936050047068200,5.094068115234375,0.3873864412307739,-0.2160167694091797,-0.19171005487442017
1683936050057109500,5.104109619140625,0.23991763591766357,-0.5353012084960938,-0.03360471874475479
1683936050067150800,5.11415087890625,0.10206317901611328,-0.7676553726196289,0.08449576050043106
1683936050077192200,5.124192138671875,0.17686450481414795,-0.8154430389404297,0.1692538857460022
1683936050087233300,5.1342333984375,0.4480944275856018,-0.9607982635498047,0.15911699831485748
1683936050097274600,5.144274658203125,0.7607904672622681,-1.2343645095825195,-0.07326053082942963
1683936050107316000,5.15431591796875,0.9470850229263306,-1.473475456237793,-0.4360172748565674
1683936050117357000,5.164357177734375,0.8011606931686401,-1.7716941833496094,-0.8580782413482666
1683936050127398400,5.1743984375,0.07372570037841797,-2.000624656677246,-1.4143872261047363
1683936050137439700,5.184439697265625,-1.6104998588562012,-2.197272300720215,-2.118365526199341
1683936050147480800,5.194480712890625,-3.7813711166381836,-2.2196006774902344,-2.688157558441162
1683936050157522200,5.204522216796875,-4.64656925201416,-1.7222747802734375,-2.5736570358276367
1683936050167563500,5.2145634765625,-3.488189697265625,-0.6725893020629883,-1.7767324447631836
1683936050177604900,5.22460498046875,-1.4745577573776245,0.27974987030029297,-0.6859084367752075
1683936050187646000,5.23464599609375,0.5754432678222656,0.916905403137207,0.2295902669429779
1683936050197687300,5.244687255859375,1.9337753057479858,1.3676204681396484,0.7417930960655212
1683936050207728400,5.254728271484375,2.533571243286133,1.5397090911865234,0.8619465827941895
1683936050217769700,5.264769775390625,2.7057456970214844,1.4933757781982422,0.7307171821594238
1683936050227811000,5.27481103515625,2.6494152545928955,1.3887710571289062,0.604162871837616
1683936050237852400,5.284852294921875,2.508749485015869,1.1922435760498047,0.5233473777770996
1683936050247893500,5.2948935546875,2.377786636352539,0.8535652160644531,0.47304654121398926
1683936050257934800,5.304934814453125,2.249572515487671,0.5662345886230469,0.40550291538238525
1683936050267976200,5.31497607421875,2.1151211261749268,0.33002471923828125,0.28775471448898315
1683936050278017300,5.325017333984375,2.018540382385254,0.03754425048828125,0.2550237774848938
1683936050288058600,5.33505859375,1.88519287109375,-0.16028499603271484,0.21287649869918823
1683936050298100000,5.345099853515625,1.7453117370605469,-0.2612886428833008,0.08703112602233887
1683936050308141000,5.35514111328125,1.522826910018921,-0.28482723236083984,0.040402114391326904
1683936050318182400,5.365182373046875,1.1233292818069458,-0.35294246673583984,0.041549861431121826
1683936050328223700,5.3752236328125,0.6543881297111511,-0.20339584350585938,-0.23600232601165771
1683936050338264800,5.385264892578125,0.16773471236228943,-0.0572052001953125,-0.6709721088409424
1683936050348306200,5.39530615234375,-0.2594073414802551,0.08035945892333984,-1.0520353317260742
1683936050358347500,5.405347412109375,-0.6294790506362915,0.18521881103515625,-1.3534557819366455
1683936050368388900,5.415388916015625,-0.7030740976333618,0.2670021057128906,-1.5504984855651855
1683936050378430000,5.425429931640625,-0.4805239140987396,0.26392459869384766,-1.4485087394714355
1683936050388471300,5.43547119140625,-0.04099389910697937,0.2672748565673828,-1.1861240863800049
1683936050398512400,5.445512451171875,0.4079130291938782,0.24637603759765625,-0.8686993718147278
1683936050408553700,5.4555537109375,0.7855689525604248,0.24225521087646484,-0.6038963198661804
1683936050418595000,5.465594970703125,1.086459755897522,0.20021343231201172,-0.44822317361831665
1683936050428636400,5.475636474609375,1.3062145709991455,0.024957656860351562,-0.418856680393219
1683936050438677500,5.485677490234375,1.4339393377304077,-0.1231546401977539,-0.5128660202026367
1683936050448718800,5.49571875,1.4615137577056885,-0.21322059631347656,-0.6048791408538818
1683936050458760200,5.50576025390625,1.4052917957305908,-0.15227413177490234,-0.6350426077842712
1683936050468801300,5.51580126953125,1.2994650602340698,-0.01480865478515625,-0.7320852875709534
1683936050478842600,5.525842529296875,1.164918065071106,0.034033775329589844,-0.8278409242630005
1683936050488884000,5.535884033203125,1.0203577280044556,0.03967475891113281,-0.9161151647567749
1683936050498925000,5.545925048828125,0.936012864112854,0.11433124542236328,-0.9145094752311707
1683936050508966400,5.55596630859375,0.8449899554252625,0.16464805603027344,-0.8776481747627258
1683936050519007700,5.5660078125,0.7565337419509888,0.2551765441894531,-0.7841744422912598
1683936050529048800,5.576048828125,0.668830931186676,0.32132530212402344,-0.6699415445327759
1683936050539090200,5.586090087890625,0.611697793006897,0.3249521255493164,-0.5516110062599182
1683936050549131500,5.596131591796875,0.5837574005126953,0.3116264343261719,-0.3959503769874573
1683936050559172600,5.606172607421875,0.6068873405456543,0.2790946960449219,-0.2156575322151184
1683936050569214000,5.6162138671875,0.706969141960144,0.2226715087890625,-0.08990299701690674
1683936050579255300,5.62625537109375,0.7728148698806763,0.13288497924804688,0.0911179780960083
1683936050589296400,5.63629638671875,0.8533209562301636,0.07191658020019531,0.195614755153656
1683936050599337700,5.646337646484375,0.9063162803649902,0.08504581451416016,0.2619880437850952
1683936050609379000,5.656379150390625,0.894906759262085,0.08372974395751953,0.35684990882873535
1683936050619420400,5.66642041015625,0.8450095653533936,0.08473873138427734,0.4200129508972168
1683936050629461500,5.67646142578125,0.7283635139465332,0.04507255554199219,0.47300511598587036
1683936050639502800,5.6865029296875,0.5844324827194214,-0.03752422332763672,0.49424582719802856
1683936050649544200,5.696544189453125,0.4550887644290924,-0.1462259292602539,0.45062685012817383
1683936050659585300,5.706585205078125,0.3385871648788452,-0.242767333984375,0.3617650866508484
1683936050669626600,5.716626708984375,0.2207191288471222,-0.22925567626953125,0.23013287782669067
1683936050679668000,5.72666796875,0.10901817679405212,-0.12027645111083984,0.09889781475067139
1683936050689709000,5.736708984375,-0.014792203903198242,-0.030673980712890625,0.008808612823486328
1683936050699750400,5.74675048828125,-0.09222963452339172,0.039664268493652344,-0.09278225898742676
1683936050709791700,5.756791748046875,-0.10134291648864746,0.04308128356933594,-0.10567939281463623
1683936050719832800,5.766832763671875,-0.008877009153366089,-0.020236968994140625,-0.10416805744171143
1683936050729874200,5.776874267578125,0.12885841727256775,-0.0809326171875,-0.09284770488739014
1683936050739915500,5.78691552734375,0.26783716678619385,-0.12950706481933594,-0.04062795639038086
1683936050749956600,5.79695654296875,0.3879445791244507,-0.1373434066772461,0.05205988883972168
1683936050759998000,5.806998046875,0.4574477970600128,-0.1618938446044922,0.13975077867507935
1683936050770039300,5.817039306640625,0.5115028023719788,-0.13631916046142578,0.15825527906417847
1683936050780080600,5.82708056640625,0.5259430408477783,-0.08944416046142578,0.22495263814926147
1683936050790121700,5.837121826171875,0.48199784755706787,-0.028482437133789062,0.2728830575942993
1683936050800163000,5.8471630859375,0.4568328857421875,0.037001609802246094,0.3141019940376282
1683936050810204400,5.857204345703125,0.42226719856262207,0.0688467025756836,0.40800172090530396
1683936050820245500,5.86724560546875,0.44063055515289307,0.10781383514404297,0.4535757899284363
1683936050830286800,5.877286865234375,0.434848427772522,0.10609054565429688,0.44859278202056885
1683936050840328200,5.887328125,0.4451289772987366,0.12105274200439453,0.41479945182800293
1683936050850369300,5.897369384765625,0.401793897151947,0.06187248229980469,0.38102394342422485
1683936050860410600,5.90741064453125,0.36255913972854614,-0.004410743713378906,0.34034645557403564
1683936050870452000,5.917451904296875,0.2951388359069824,-0.03903484344482422,0.26795142889022827
1683936050880493000,5.9274931640625,0.22936666011810303,-0.03786659240722656,0.2376793622970581
1683936050890534400,5.937534423828125,0.18203586339950562,0.005562782287597656,0.20899134874343872
1683936050900575700,5.94757568359375,0.13185417652130127,-0.027164459228515625,0.22202777862548828
1683936050910616800,5.957616943359375,0.11456984281539917,0.006465911865234375,0.29283738136291504
1683936050920658200,5.967658203125,0.14636999368667603,-0.021729469299316406,0.3966914415359497
1683936050930699500,5.977699462890625,0.18422192335128784,-0.007071495056152344,0.5279078483581543
1683936050940740600,5.98774072265625,0.27471911907196045,-0.00202178955078125,0.6266199946403503
1683936050950782000,5.997781982421875,0.3549804091453552,0.014756202697753906,0.6883383989334106
1683936050960823300,6.0078232421875,0.4147133231163025,-0.06999397277832031,0.708877682685852
1683936050970864600,6.01786474609375,0.4464062452316284,-0.09220027923583984,0.7077683210372925
1683936050980905700,6.02790576171875,0.4357839822769165,-0.118927001953125,0.688177227973938
1683936050990947000,6.037947021484375,0.4050663113594055,-0.0935983657836914,0.6693776845932007
1683936051000988200,6.04798828125,0.3576781749725342,-0.04290294647216797,0.6134942770004272
1683936051011029500,6.058029541015625,0.3110308051109314,-0.0072116851806640625,0.5491880178451538
1683936051021070800,6.06807080078125,0.2671377658843994,0.018372535705566406,0.41095173358917236
1683936051031112200,6.0781123046875,0.2212023138999939,0.059861183166503906,0.3180542588233948
1683936051041153300,6.0881533203125,0.16415542364120483,0.05347442626953125,0.28127652406692505
1683936051051194600,6.098194580078125,0.1038893461227417,0.049544334411621094,0.2711087465286255
1683936051061236000,6.108236083984375,0.08580416440963745,0.08344364166259766,0.22790825366973877
1683936051071277000,6.118277099609375,0.08309811353683472,0.11924362182617188,0.25557613372802734
1683936051081318400,6.128318359375,0.06927305459976196,0.10975933074951172,0.23789656162261963
1683936051091359700,6.13835986328125,0.0588800311088562,0.09340476989746094,0.24883568286895752
1683936051101400800,6.14840087890625,0.056679725646972656,0.0702505111694336,0.2530021667480469
1683936051111442200,6.158442138671875,0.09801489114761353,0.030925750732421875,0.3122955560684204
1683936051121483500,6.1684833984375,0.14669179916381836,0.0015611648559570312,0.3953251242637634
1683936051131524900,6.17852490234375,0.1831868290901184,-0.010941505432128906,0.5012857913970947
1683936051141566000,6.18856591796875,0.19781148433685303,-0.032825469970703125,0.5664063692092896
1683936051151607300,6.198607177734375,0.17670708894729614,-0.08275508880615234,0.6171079874038696
1683936051161648400,6.2086484375,0.1913841962814331,-0.11081600189208984,0.632546603679657
1683936051171689700,6.218689697265625,0.18970662355422974,-0.06792640686035156,0.6557444930076599
1683936051181731000,6.22873095703125,0.20277178287506104,-0.018858909606933594,0.6797921657562256
1683936051191772400,6.2387724609375,0.23966842889785767,0.05037117004394531,0.7213255763053894
1683936051201813500,6.2488134765625,0.3163635730743408,0.08053779602050781,0.7683717012405396
1683936051211854800,6.258854736328125,0.377704918384552,0.11696910858154297,0.8703815340995789
1683936051221896200,6.268896240234375,0.4609786868095398,0.11245250701904297,0.9367210268974304
1683936051231937300,6.278937255859375,0.5536212921142578,0.09594917297363281,1.0216522216796875
1683936051241978600,6.288978515625,0.6246436834335327,0.046573638916015625,1.1405770778656006
1683936051252020000,6.29902001953125,0.7072780728340149,-0.077362060546875,1.2567063570022583
1683936051262061000,6.30906103515625,0.7703564763069153,-0.1921243667602539,1.3552271127700806
1683936051272102400,6.319102294921875,0.8249017596244812,-0.16611289978027344,1.4221950769424438
1683936051282143700,6.329143798828125,0.8629140853881836,-0.08656978607177734,1.4559329748153687
1683936051292184800,6.339184814453125,0.8390014171600342,0.021976470947265625,1.470969796180725
1683936051302226200,6.34922607421875,0.7334455251693726,0.011042594909667969,1.454024314880371
1683936051312267500,6.359267578125,0.5730704069137573,-0.12156391143798828,1.4530366659164429
1683936051322308600,6.36930859375,0.4555753469467163,-0.36618995666503906,1.3978163003921509
1683936051332350000,6.379349853515625,0.3403921127319336,-0.6099319458007812,1.3287055492401123
1683936051342391300,6.389391357421875,0.25493788719177246,-0.6997060775756836,1.1148064136505127
1683936051352432400,6.399432373046875,0.1619623899459839,-0.7323713302612305,0.8988507986068726
1683936051362473700,6.4094736328125,0.07857620716094971,-0.8077383041381836,0.7140406966209412
1683936051372515000,6.41951513671875,-0.007701873779296875,-0.7040090560913086,0.44287097454071045
1683936051382556400,6.429556396484375,-0.18213987350463867,-0.5869541168212891,0.06258559226989746
1683936051392597500,6.439597412109375,-0.43084341287612915,-0.5135374069213867,-0.31929337978363037
1683936051402638800,6.449638916015625,-0.656281590461731,-0.49488162994384766,-0.7051408290863037
1683936051412680000,6.459679931640625,-0.8168203830718994,-0.544189453125,-0.9970111846923828
1683936051422721300,6.46972119140625,-0.8331118226051331,-0.7608318328857422,-1.3651221990585327
1683936051432762600,6.4797626953125,-0.6928901076316833,-0.9506807327270508,-1.5907922983169556
1683936051442804000,6.489803955078125,-0.6231980323791504,-1.2502593994140625,-1.7506862878799438
1683936051452845000,6.499844970703125,-0.661674976348877,-1.341817855834961,-1.9295670986175537
1683936051462886400,6.509886474609375,-0.772362232208252,-1.307295799255371,-2.089717149734497
1683936051472927700,6.519927734375,-0.8381888270378113,-1.173553466796875,-2.216615915298462
1683936051482968800,6.52996875,-1.0320780277252197,-0.8812494277954102,-2.159548282623291
1683936051493010200,6.54001025390625,-1.3080463409423828,-0.5403413772583008,-1.6450104713439941
1683936051503051500,6.550051513671875,-1.4586232900619507,-0.23657989501953125,-0.6271727085113525
1683936051513092600,6.560092529296875,-1.4047002792358398,-0.13189315795898438,0.37465178966522217
1683936051523134000,6.570134033203125,-1.1291587352752686,-0.06294536590576172,1.1439802646636963
1683936051533175300,6.58017529296875,-0.7670834064483643,0.027965545654296875,1.6897156238555908
1683936051543216400,6.59021630859375,-0.3732150197029114,0.07377147674560547,1.9185044765472412
1683936051553257700,6.6002578125,-0.04568612575531006,0.11472034454345703,1.9306328296661377
1683936051563299000,6.610299072265625,0.25378161668777466,0.14569854736328125,1.8259990215301514
1683936051573340200,6.620340087890625,0.4328271448612213,0.12614917755126953,1.5662273168563843
1683936051583381500,6.630381591796875,0.5553866028785706,0.14457988739013672,1.1467797756195068
1683936051593422800,6.6404228515625,0.5218275785446167,0.19355201721191406,0.5716904401779175
1683936051603464000,6.6504638671875,0.43187740445137024,0.30123424530029297,-0.0318225622177124
1683936051613505300,6.66050537109375,0.26404058933258057,0.3428506851196289,-0.4988452196121216
1683936051623546600,6.670546630859375,0.07123321294784546,0.2897052764892578,-0.7797415256500244
1683936051633588000,6.680587890625,0.03841644525527954,0.24214649200439453,-0.9876766204833984
1683936051643629000,6.690629150390625,0.3308015465736389,0.20722198486328125,-1.1013978719711304
1683936051653670400,6.70067041015625,0.8358050584793091,0.2066354751586914,-1.0688891410827637
1683936051663711500,6.71071142578125,1.3544554710388184,0.17873287200927734,-0.9242497682571411
1683936051673752800,6.7207529296875,1.7353599071502686,0.14327144622802734,-0.7542133331298828
1683936051683794200,6.730794189453125,1.9564998149871826,0.01946544647216797,-0.446907639503479
1683936051693835500,6.74083544921875,1.9889237880706787,-0.03722953796386719,-0.12672460079193115
1683936051703876600,6.750876708984375,1.888662338256836,-0.14177894592285156,0.08628392219543457
1683936051713918000,6.76091796875,1.7875869274139404,-0.2989063262939453,0.27871668338775635
1683936051723959000,6.770958984375,1.8786990642547607,-0.36747074127197266,0.3522469401359558
1683936051734000400,6.78100048828125,2.143909454345703,-0.3258790969848633,0.2901763916015625
1683936051744041700,6.791041748046875,2.4502639770507812,-0.3171100616455078,0.27322715520858765
1683936051754083000,6.8010830078125,2.5927295684814453,-0.19965553283691406,0.22724789381027222
1683936051764124200,6.811124267578125,2.5767173767089844,-0.014269828796386719,0.02608281373977661
1683936051774165500,6.82116552734375,2.411515474319458,0.20525836944580078,-0.20792269706726074
1683936051784206800,6.831206787109375,2.1600544452667236,0.4560556411743164,-0.41294896602630615
1683936051794248000,6.841248046875,1.9283071756362915,0.6324787139892578,-0.5896111726760864
1683936051804289300,6.851289306640625,1.792150616645813,0.7129182815551758,-0.6956839561462402
1683936051814330600,6.86133056640625,1.711294174194336,0.7381744384765625,-0.7227962017059326
1683936051824371700,6.871371826171875,1.7305963039398193,0.6631317138671875,-0.6817342638969421
1683936051834413000,6.8814130859375,1.8133422136306763,0.566925048828125,-0.7563186287879944
1683936051844454400,6.891454345703125,1.9514353275299072,0.4377593994140625,-0.7761393189430237
1683936051854495500,6.90149560546875,2.069578170776367,0.27351856231689453,-0.8483583927154541
1683936051864536800,6.911536865234375,2.104771375656128,0.15324020385742188,-0.9384325742721558
1683936051874578200,6.921578125,2.0395636558532715,0.08411979675292969,-1.035352349281311
1683936051884619300,6.931619384765625,1.880675196647644,-0.034148216247558594,-1.130573034286499
1683936051894660600,6.94166064453125,1.6305652856826782,-0.06769561767578125,-1.179433822631836
1683936051904702000,6.951701904296875,1.3239543437957764,-0.08860588073730469,-1.2068372964859009
1683936051914743300,6.961743408203125,0.9744881391525269,-0.09720325469970703,-1.2123475074768066
1683936051924784400,6.971784423828125,0.6200070381164551,-0.11060142517089844,-1.1958184242248535
1683936051934825700,6.98182568359375,0.30602264404296875,-0.11973094940185547,-1.1023744344711304
1683936051944866800,6.99186669921875,0.03493237495422363,-0.11315631866455078,-1.1095227003097534
1683936051954908200,7.001908203125,-0.17213201522827148,-0.09851455688476562,-1.0312527418136597
1683936051964949500,7.011949462890625,-0.3278963565826416,-0.045159339904785156,-0.9259502291679382
1683936051974990800,7.021990966796875,-0.44573211669921875,-0.013147354125976562,-0.7232880592346191
1683936051985032000,7.032031982421875,-0.4465782642364502,-0.014507293701171875,-0.5990219712257385
1683936051995073300,7.0420732421875,-0.3460400104522705,-0.0753011703491211,-0.5533545613288879
1683936052005114600,7.052114501953125,-0.13248515129089355,-0.1734180450439453,-0.5030064582824707
1683936052015155700,7.06215576171875,0.159759521484375,-0.26512813568115234,-0.5201387405395508
1683936052025197000,7.072197021484375,0.4629809856414795,-0.31629276275634766,-0.5641775131225586
1683936052035238400,7.08223828125,0.772085428237915,-0.31676292419433594,-0.6467669606208801
1683936052045279500,7.092279541015625,1.0374647378921509,-0.26615428924560547,-0.7495348453521729
1683936052055320800,7.10232080078125,1.3226083517074585,-0.15468883514404297,-0.8849693536758423
1683936052065362200,7.112362060546875,1.4888397455215454,-0.01822948455810547,-0.9546138048171997
1683936052075403300,7.1224033203125,1.512998342514038,0.097747802734375,-0.963580846786499
1683936052085444600,7.132444580078125,1.4654793739318848,0.19074058532714844,-1.0435497760772705
1683936052095486000,7.14248583984375,1.3878540992736816,0.24390029907226562,-1.0223040580749512
1683936052105527000,7.152527099609375,1.2524009943008423,0.2404031753540039,-0.9202057123184204
1683936052115568400,7.162568359375,1.0674861669540405,0.22072219848632812,-0.7697131633758545
1683936052125609700,7.172609619140625,0.8301172256469727,0.248931884765625,-0.6175035238265991
1683936052135650800,7.18265087890625,0.6545062065124512,0.17394638061523438,-0.45700323581695557
1683936052145692200,7.192692138671875,0.5703082084655762,0.16047954559326172,-0.3081486225128174
1683936052155733500,7.2027333984375,0.6032705307006836,0.17502880096435547,-0.17401789128780365
1683936052165774600,7.212774658203125,0.6871757507324219,0.22269248962402344,-0.113345205783844
1683936052175816000,7.22281591796875,0.7843992710113525,0.24415302276611328,-0.05803295969963074
1683936052185857300,7.232857177734375,0.8736304044723511,0.27356815338134766,0.00854925811290741
1683936052195898400,7.2428984375,0.9118258953094482,0.2519960403442383,0.03251224756240845
1683936052205939700,7.252939697265625,0.9383244514465332,0.20629501342773438,0.012839004397392273
1683936052215981000,7.26298095703125,0.917328953742981,0.12220096588134766,-0.13356637954711914
1683936052226022100,7.273022216796875,0.8407372236251831,0.01848125457763672,-0.2615339159965515
1683936052236063500,7.2830634765625,0.6531450748443604,-0.1292562484741211,-0.3366215229034424
1683936052246104800,7.293104736328125,0.3305668830871582,-0.14718055725097656,-0.31304508447647095
1683936052256146000,7.30314599609375,0.121063232421875,-0.16986846923828125,-0.28698059916496277
1683936052266187300,7.313187255859375,0.06093740463256836,-0.13304519653320312,-0.2133697271347046
1683936052276228600,7.323228515625,0.1251211166381836,-0.082000732421875,-0.19704696536064148
1683936052286270000,7.33327001953125,0.2761268615722656,-0.006831169128417969,-0.2083972543478012
1683936052296311000,7.34331103515625,0.4096393585205078,0.04504871368408203,-0.17581675946712494
1683936052306352400,7.353352294921875,0.38889455795288086,0.05478668212890625,-0.07667383551597595
1683936052316393500,7.3633935546875,0.44611406326293945,0.1251058578491211,0.019218891859054565
1683936052326434800,7.373434814453125,0.5907893180847168,0.11728763580322266,0.06362156569957733
1683936052336476200,7.38347607421875,0.7503714561462402,0.07705879211425781,0.06378796696662903
1683936052346517500,7.393517578125,0.8186867237091064,-0.019132614135742188,0.02260422706604004
1683936052356558600,7.40355859375,0.7064703702926636,-0.11119842529296875,0.0003560483455657959
1683936052366600000,7.413599853515625,0.30235934257507324,-0.21367454528808594,0.04829573258757591
1683936052376641300,7.423641357421875,-0.07977151870727539,-0.24851322174072266,0.069538913667202
1683936052386682400,7.433682373046875,-0.2898561954498291,-0.14063549041748047,0.06061971187591553
1683936052396723700,7.4437236328125,-0.20533013343811035,-0.0035104751586914062,-0.025226980447769165
1683936052406765000,7.45376513671875,0.07688212394714355,0.021532058715820312,-0.19677069783210754
1683936052416806100,7.46380615234375,0.6015613079071045,-0.0687112808227539,-0.45117396116256714
1683936052426847500,7.473847412109375,1.0818649530410767,-0.2852449417114258,-0.6881520748138428
1683936052436888800,7.483888916015625,1.4173895120620728,-0.5095720291137695,-0.9037685394287109
1683936052446930000,7.493929931640625,1.487329125404358,-0.7564201354980469,-1.1958335638046265
1683936052456971300,7.50397119140625,1.133054494857788,-0.9681692123413086,-1.5567553043365479
1683936052467012600,7.5140126953125,0.3940471410751343,-1.0452756881713867,-1.9659377336502075
1683936052477053700,7.5240537109375,-0.7129600048065186,-1.0635223388671875,-2.3851819038391113
1683936052487095000,7.534094970703125,-1.7329933643341064,-1.1392621994018555,-2.754486322402954
1683936052497136400,7.544136474609375,-2.251127243041992,-1.2326574325561523,-2.8724021911621094
1683936052507177500,7.554177490234375,-1.921229600906372,-1.2598209381103516,-2.541379928588867
1683936052517218800,7.56421875,-0.9324765205383301,-1.0095386505126953,-1.6313343048095703
1683936052527260200,7.57426025390625,0.43932080268859863,-0.47133541107177734,-0.613504946231842
1683936052537301200,7.58430126953125,1.721566915512085,0.009284019470214844,0.18885666131973267
1683936052547342600,7.594342529296875,2.692610263824463,0.35237789154052734,0.5507752895355225
1683936052557384000,7.604384033203125,3.2282304763793945,0.4347105026245117,0.5942590832710266
1683936052567425000,7.614425048828125,3.4145562648773193,0.6843652725219727,0.5493394136428833
1683936052577466400,7.62446630859375,3.424523115158081,0.8904829025268555,0.49170157313346863
1683936052587507700,7.6345078125,3.3310399055480957,1.0145587921142578,0.38346049189567566
1683936052597548800,7.644548828125,3.1553375720977783,0.9870290756225586,0.3909219801425934
1683936052607590100,7.654590087890625,2.925457000732422,0.9438686370849609,0.3586634695529938
1683936052617631500,7.664631591796875,2.628439426422119,0.8678503036499023,0.2690224051475525
1683936052627672800,7.6746728515625,2.2205581665039062,0.7274808883666992,0.20663505792617798
1683936052637714000,7.6847138671875,1.7314820289611816,0.4601631164550781,0.193281352519989
1683936052647755300,7.69475537109375,1.2222779989242554,0.18743038177490234,0.17645466327667236
1683936052657796400,7.70479638671875,0.9039657711982727,0.045058250427246094,0.17282938957214355
1683936052667837700,7.714837646484375,0.7809680104255676,-0.16797161102294922,0.21740388870239258
1683936052677879000,7.724879150390625,0.8130393624305725,-0.32953357696533203,0.17325127124786377
1683936052687920400,7.73492041015625,0.8898439407348633,-0.4443683624267578,0.0718645453453064
1683936052697961500,7.74496142578125,0.8989838361740112,-0.41451072692871094,-0.0030895471572875977
1683936052708002800,7.7550029296875,0.7687070965766907,-0.3523578643798828,-0.04247105121612549
1683936052718044200,7.765044189453125,0.4736151695251465,-0.2745027542114258,-0.03293120861053467
1683936052728085200,7.775085205078125,0.07057809829711914,-0.25951576232910156,0.13092374801635742
1683936052738126600,7.785126708984375,-0.2350103259086609,-0.3332357406616211,0.3249528408050537
1683936052748168000,7.79516796875,-0.25063204765319824,-0.3687467575073242,0.48646730184555054
1683936052758209000,7.805208984375,0.05343616008758545,-0.4137897491455078,0.5514169335365295
1683936052768250400,7.81525048828125,0.5828799605369568,-0.43708133697509766,0.49386441707611084
1683936052778291700,7.825291748046875,1.101633906364441,-0.4194450378417969,0.343708336353302
1683936052788332800,7.835332763671875,1.5434249639511108,-0.29888057708740234,0.12212026119232178
1683936052798374100,7.8453740234375,1.9004511833190918,-0.10435295104980469,-0.05427074432373047
1683936052808415500,7.85541552734375,2.13783860206604,0.06595802307128906,-0.1651463508605957
1683936052818456600,7.86545654296875,2.3006110191345215,0.18812274932861328,-0.18813574314117432
1683936052828498000,7.875497802734375,2.4558024406433105,0.27416133880615234,-0.10898089408874512
1683936052838539300,7.885539306640625,2.5646705627441406,0.29791736602783203,-0.03562307357788086
1683936052848580400,7.895580322265625,2.6578853130340576,0.25477123260498047,0.029388904571533203
1683936052858621700,7.90562158203125,2.6894853115081787,0.2189044952392578,0.06448543071746826
1683936052868663000,7.9156630859375,2.645634412765503,0.19497394561767578,0.09606587886810303
1683936052878704000,7.9257041015625,2.4796948432922363,0.1399374008178711,0.1927109956741333
1683936052888745500,7.935745361328125,2.1534130573272705,0.12785720825195312,0.2796224355697632
1683936052898786800,7.945786865234375,1.7720999717712402,0.11324691772460938,0.39437800645828247
1683936052908828000,7.955827880859375,1.393173098564148,0.07707405090332031,0.49310970306396484
1683936052918869200,7.965869140625,1.0691583156585693,0.05056571960449219,0.5558529496192932
1683936052928910600,7.97591064453125,0.876096248626709,-0.0043849945068359375,0.5176113843917847
1683936052938951700,7.98595166015625,0.7908337712287903,-0.03995037078857422,0.4055086374282837
1683936052948993000,7.995992919921875,0.8792581558227539,-0.0013093948364257812,0.23974311351776123
1683936052959034400,8.006034423828124,1.0433799028396606,0.03007030487060547,0.047741055488586426
1683936052969075500,8.016075439453125,1.198742151260376,0.058856964111328125,-0.12642383575439453
1683936052979116800,8.02611669921875,1.3360371589660645,0.0778350830078125,-0.2036142349243164
1683936052989158100,8.036158203125,1.4183902740478516,0.09177303314208984,-0.25321197509765625
1683936052999199200,8.04619921875,1.4481863975524902,0.11024761199951172,-0.3328258991241455
1683936053009240600,8.056240478515624,1.3969354629516602,0.20005512237548828,-0.37757599353790283
1683936053019282000,8.066281982421875,1.3297687768936157,0.2392597198486328,-0.39031243324279785
1683936053029323000,8.076322998046875,1.159379482269287,0.25667762756347656,-0.40713465213775635
1683936053039364400,8.0863642578125,1.0228914022445679,0.24517822265625,-0.44209063053131104
1683936053049405700,8.09640576171875,0.8590503334999084,0.1642322540283203,-0.47821497917175293
1683936053059446800,8.10644677734375,0.6972852945327759,0.05946922302246094,-0.43947458267211914
1683936053069488000,8.116488037109375,0.5930081009864807,0.0026426315307617188,-0.352447509765625
1683936053079529500,8.126529541015625,0.57269287109375,-0.08507823944091797,-0.24165642261505127
1683936053089570600,8.136570556640624,0.5858805179595947,-0.12479114532470703,-0.15733659267425537
1683936053099612000,8.14661181640625,0.6179296970367432,-0.17627906799316406,-0.006527304649353027
1683936053109653200,8.1566533203125,0.706657886505127,-0.14638805389404297,0.11993038654327393
1683936053119694600,8.166694580078126,0.7176159620285034,-0.0879049301147461,0.22707366943359375
1683936053129735700,8.176735595703125,0.6911810636520386,-0.03430366516113281,0.39105892181396484
1683936053139777000,8.186777099609374,0.6799390912055969,-0.026117324829101562,0.46571749448776245
1683936053149818000,8.196818115234375,0.6885542869567871,-0.07526493072509766,0.47819197177886963
1683936053159859500,8.206859375,0.7047415971755981,-0.07662773132324219,0.5032898187637329
1683936053169900800,8.21690087890625,0.7446625232696533,-0.01603984832763672,0.5554258823394775
1683936053179942100,8.226942138671875,0.7550888657569885,0.03471088409423828,0.603164792060852
1683936053189983200,8.236983154296874,0.7141785621643066,0.011259078979492188,0.7197709083557129
1683936053200024600,8.247024658203125,0.6553409099578857,-0.0168609619140625,0.6616472601890564
1683936053210066000,8.25706591796875,0.6573038101196289,-0.040236473083496094,0.5601139068603516
1683936053220107000,8.26710693359375,0.6777629256248474,-0.1401195526123047,0.4708542823791504
1683936053230148400,8.2771484375,0.7551934123039246,-0.06308555603027344,0.5643708109855652
1683936053240189700,8.287189697265624,0.8696127533912659,-0.022230148315429688,0.49104535579681396
1683936053250230800,8.297230712890626,0.9249577522277832,-0.036174774169921875,0.4622366428375244
1683936053260272000,8.307272216796875,0.9053260684013367,-0.04071998596191406,0.5055912733078003
1683936053270313500,8.3173134765625,0.891784131526947,-0.03356170654296875,0.5399777293205261
1683936053280354600,8.3273544921875,0.8576269745826721,-0.08060455322265625,0.5978870391845703
1683936053290396000,8.33739599609375,0.8716209530830383,-0.09847831726074219,0.7139102220535278
1683936053300437200,8.347437255859376,0.9277337789535522,-0.05233001708984375,0.7478497624397278
1683936053310478300,8.357478271484375,0.9890097379684448,0.035678863525390625,0.8084437251091003
1683936053320519700,8.367519775390624,1.0305874347686768,0.1295766830444336,0.8026529550552368
1683936053330561000,8.37756103515625,1.0474711656570435,0.13259601593017578,0.7558207511901855
1683936053340602000,8.38760205078125,1.047001600265503,0.07909011840820312,0.6975743770599365
1683936053350643500,8.3976435546875,1.0225950479507446,0.002899169921875,0.586174726486206
1683936053360684800,8.407684814453125,0.9543368816375732,-0.0744771957397461,0.45632708072662354
1683936053370726000,8.417725830078124,0.8887202143669128,-0.09414291381835938,0.3486725091934204
1683936053380767200,8.427767333984375,0.809990644454956,-0.08763885498046875,0.2159353494644165
1683936053390808600,8.43780859375,0.7376182675361633,-0.03187847137451172,0.051762938499450684
1683936053400849700,8.447849609375,0.7066564559936523,0.020422935485839844,-0.06284379959106445
1683936053410891000,8.45789111328125,0.6499013304710388,0.010450363159179688,-0.1454859972000122
1683936053420932400,8.467932373046875,0.6543477773666382,0.0004024505615234375,-0.2556476593017578
1683936053430973400,8.477973388671876,0.6146200895309448,0.04423046112060547,-0.35455191135406494
1683936053441014800,8.488014892578125,0.5495216846466064,0.05382251739501953,-0.3763463497161865
1683936053451056000,8.49805615234375,0.4381030797958374,-0.021982192993164062,-0.23579299449920654
1683936053461097200,8.50809716796875,0.31965339183807373,-0.045047760009765625,-0.016283035278320312
1683936053471138600,8.518138671875,0.24493443965911865,0.007504463195800781,0.32959163188934326
1683936053481180000,8.528179931640626,0.24689948558807373,0.08051872253417969,0.6715717315673828
1683936053491221000,8.538220947265625,0.333562433719635,0.009084701538085938,0.9850243926048279
1683936053501262300,8.548262451171874,0.41989725828170776,-0.18537044525146484,1.174945592880249
1683936053511303700,8.5583037109375,0.4712962508201599,-0.2251911163330078,1.352736473083496
1683936053521344800,8.5683447265625,0.5082526803016663,-0.1763744354248047,1.3880913257598877
1683936053531386000,8.57838623046875,0.5087637901306152,-0.12519359588623047,1.1656180620193481
1683936053541427500,8.588427490234375,0.4257545471191406,-0.2367563247680664,0.8344894051551819
1683936053551468500,8.598468505859374,0.2899221181869507,-0.3626976013183594,0.5044158697128296
1683936053561510000,8.608510009765626,0.11634880304336548,-0.4394111633300781,0.3231700658798218
1683936053571551200,8.61855126953125,0.04459667205810547,-0.48888587951660156,0.36896228790283203
1683936053581592300,8.62859228515625,0.06514924764633179,-0.6008539199829102,0.47975242137908936
1683936053591633700,8.638633544921875,0.1816665530204773,-0.5576457977294922,0.6071794033050537
1683936053601675000,8.648675048828125,0.27951788902282715,-0.4442434310913086,0.8120245933532715
1683936053611716400,8.65871630859375,0.3474331498146057,-0.3490447998046875,0.9428776502609253
1683936053621757400,8.66875732421875,0.40676552057266235,-0.21057891845703125,1.055056095123291
1683936053631798800,8.678798828125,0.393158495426178,-0.0954732894897461,1.1742650270462036
1683936053641839900,8.68883984375,0.30674973130226135,0.06954288482666016,1.2157338857650757
1683936053651881200,8.698881103515625,0.11534890532493591,0.18947315216064453,1.1875115633010864
1683936053661922600,8.708922607421876,-0.08078216016292572,0.2817535400390625,1.1505327224731445
1683936053671964000,8.7189638671875,-0.3002374768257141,0.29517650604248047,1.0898993015289307
1683936053682005000,8.7290048828125,-0.5276306867599487,0.2804908752441406,0.9610593318939209
1683936053692046300,8.73904638671875,-0.7366660833358765,0.25572681427001953,0.8605650663375854
1683936053702087400,8.74908740234375,-0.9232592582702637,0.21185302734375,0.742328405380249
1683936053712128800,8.759128662109376,-1.0419635772705078,0.14139938354492188,0.6150059700012207
1683936053722170000,8.769170166015625,-1.0324081182479858,-0.046662330627441406,0.5660539865493774
1683936053732211500,8.77921142578125,-0.8975793719291687,-0.37373828887939453,0.6368329524993896
1683936053742252500,8.78925244140625,-0.7410569787025452,-0.7678756713867188,0.7153193950653076
1683936053752294000,8.7992939453125,-0.5437719821929932,-1.0807313919067383,0.8492424488067627
1683936053762335200,8.809335205078124,-0.4216674864292145,-1.3171148300170898,0.866287887096405
1683936053772376300,8.819376220703125,-0.3149661421775818,-1.3147544860839844,0.8194807767868042
1683936053782417700,8.829417724609375,-0.2348005175590515,-1.0956201553344727,0.6894777417182922
1683936053792459000,8.839458984375,-0.20534750819206238,-0.8009500503540039,0.6566067934036255
1683936053802500000,8.8495,-0.1659398078918457,-0.5501823425292969,0.5397748947143555
1683936053812541400,8.85954150390625,-0.137093186378479,-0.3718376159667969,0.4309917688369751
1683936053822582800,8.869582763671875,-0.06087762117385864,-0.2729015350341797,0.3932809829711914
1683936053832623900,8.879623779296875,0.08349841833114624,-0.2530403137207031,0.2380000352859497
1683936053842665200,8.889665283203126,0.24827313423156738,-0.08548545837402344,0.0138777494430542
1683936053852706600,8.89970654296875,0.3894851803779602,-0.03121471405029297,-0.30894947052001953
1683936053862747600,8.90974755859375,0.5481791496276855,0.10119056701660156,-0.5731631517410278
1683936053872789000,8.9197890625,0.6716106534004211,0.20432472229003906,-0.829946756362915
1683936053882830300,8.929830322265625,0.721989631652832,0.2707977294921875,-1.124588131904602
1683936053892871400,8.939871337890626,0.7199770212173462,0.26897430419921875,-1.4715595245361328
1683936053902912800,8.949912841796875,0.795462429523468,0.04178047180175781,-1.608966588973999
1683936053912954000,8.9599541015625,0.9976087212562561,-0.0848245620727539,-1.5953000783920288
1683936053922995200,8.9699951171875,1.2404330968856812,-0.1372537612915039,-1.7560663223266602
1683936053933036500,8.98003662109375,1.4373657703399658,-0.08480072021484375,-1.8566657304763794
1683936053943078000,8.990077880859374,1.6253637075424194,0.0172271728515625,-1.636237382888794
1683936053953119000,9.000118896484375,1.7817020416259766,0.045060157775878906,-1.1923925876617432
1683936053963160300,9.010160400390625,1.9022047519683838,-0.05268383026123047,-0.6892046928405762
1683936053973201700,9.02020166015625,1.9490253925323486,-0.05548572540283203,-0.25627291202545166
1683936053983242800,9.03024267578125,1.9369181394577026,0.010240554809570312,0.12509751319885254
1683936053993284000,9.0402841796875,1.9085549116134644,0.10150909423828125,0.530985951423645
1683936054003325400,9.050325439453125,1.9015214443206787,0.1922311782836914,0.8864718675613403
1683936054013366800,9.06036669921875,1.891584038734436,0.25612449645996094,1.0055904388427734
1683936054023407900,9.070407958984376,1.8681118488311768,0.3500967025756836,0.9829920530319214
1683936054033449200,9.08044921875,1.858748197555542,0.46405887603759766,0.8674120306968689
1683936054043490300,9.090490234375,1.8708933591842651,0.6358442306518555,0.6937000155448914
1683936054053531600,9.10053173828125,1.9296889305114746,0.7672042846679688,0.459794282913208
1683936054063573000,9.110572998046875,1.985031008720398,0.7842683792114258,0.22872155904769897
1683936054073614300,9.1206142578125,1.9584064483642578,0.7232456207275391,-0.0963749885559082
1683936054083655400,9.130655517578125,1.7624458074569702,0.6370515823364258,-0.28355908393859863
1683936054093696800,9.14069677734375,1.506516456604004,0.4781789779663086,-0.34405046701431274
1683936054103738000,9.150738037109376,1.12006676197052,0.3158588409423828,-0.289222776889801
1683936054113779200,9.160779296875,0.5117731094360352,0.08005142211914062,-0.32659125328063965
1683936054123820500,9.170820556640624,-0.09279179573059082,-0.10583877563476562,-0.3562609553337097
1683936054133862000,9.18086181640625,-0.521041750907898,-0.2522554397583008,-0.3716251850128174
1683936054143903000,9.190903076171875,-0.7592123746871948,-0.3622465133666992,-0.40263330936431885
1683936054153944300,9.2009443359375,-0.7505885362625122,-0.4600057601928711,-0.5162050127983093
1683936054163985700,9.210985595703125,-0.5868215560913086,-0.5024309158325195,-0.718437910079956
1683936054174026800,9.22102685546875,-0.2804936170578003,-0.4796581268310547,-0.9445130228996277
1683936054184068000,9.231068115234375,0.034887075424194336,-0.41736316680908203,-1.1225028038024902
1683936054194109400,9.241109375,0.3029210567474365,-0.3244485855102539,-1.3052935600280762
1683936054204150500,9.251150634765626,0.44882988929748535,-0.27439117431640625,-1.416146159172058
1683936054214191900,9.26119189453125,0.4876728057861328,-0.2691373825073242,-1.4657907485961914
1683936054224233200,9.271233154296874,0.41001176834106445,-0.26084232330322266,-1.4695558547973633
1683936054234274300,9.2812744140625,0.25103962421417236,-0.2904653549194336,-1.4477273225784302
1683936054244315600,9.291315673828125,0.06379508972167969,-0.3680553436279297,-1.3948562145233154
1683936054254357000,9.30135693359375,-0.06521296501159668,-0.36992454528808594,-1.3537664413452148
1683936054264398000,9.311398193359375,-0.07972526550292969,-0.33000946044921875,-1.2912425994873047
1683936054274439400,9.321439453125,-0.027443647384643555,-0.23180294036865234,-1.3144121170043945
1683936054284480800,9.331480712890626,0.11205482482910156,-0.0394439697265625,-1.2986773252487183
1683936054294521900,9.34152197265625,0.3034001588821411,0.1254281997680664,-1.2539995908737183
1683936054304563200,9.351563232421874,0.4728206396102905,0.25381946563720703,-1.1665703058242798
1683936054314604500,9.3616044921875,0.6206960678100586,0.3630657196044922,-1.1111884117126465
1683936054324645600,9.371645751953125,0.7526552677154541,0.3652935028076172,-0.9882675409317017
1683936054334687000,9.38168701171875,0.8394336700439453,0.3135108947753906,-0.8627253174781799
1683936054344728300,9.391728271484375,0.884331464767456,0.29605770111083984,-0.7180628180503845
1683936054354769400,9.401769287109374,0.8718903064727783,0.2767601013183594,-0.571108341217041
1683936054364810800,9.411810791015625,0.8872432708740234,0.26004695892333984,-0.5121732950210571
1683936054374852000,9.42185205078125,0.871851921081543,0.19305419921875,-0.4612283706665039
1683936054384893200,9.43189306640625,0.8693954944610596,0.20947647094726562,-0.45608973503112793
1683936054394934500,9.4419345703125,0.8871176242828369,0.1849050521850586,-0.40365302562713623
1683936054404975900,9.451975830078124,0.9623056650161743,0.191314697265625,-0.45727211236953735
1683936054415017000,9.462016845703126,1.050196647644043,0.20756816864013672,-0.5234113335609436
1683936054425058300,9.472058349609375,1.1848477125167847,0.21977615356445312,-0.6305521726608276
1683936054435099600,9.482099609375,1.23075270652771,0.24274063110351562,-0.6930468678474426
1683936054445141000,9.49214111328125,1.2307454347610474,0.20730304718017578,-0.7856476306915283
1683936054455182000,9.50218212890625,1.1709924936294556,0.1493520736694336,-0.7922329306602478
1683936054465223400,9.512223388671876,1.0235978364944458,0.13087940216064453,-0.7831538319587708
1683936054475264500,9.522264404296875,0.7875808477401733,0.09177303314208984,-0.7662952542304993
1683936054485305900,9.532305908203124,0.48105430603027344,0.02698802947998047,-0.7083274126052856
1683936054495347200,9.54234716796875,0.12731432914733887,-0.06384563446044922,-0.6449023485183716
1683936054505388500,9.552388427734375,-0.16654229164123535,-0.14056777954101562,-0.5779821872711182
1683936054515429600,9.5624296875,-0.31577062606811523,-0.1319122314453125,-0.5502277612686157
1683936054525471000,9.572470947265625,-0.31592369079589844,-0.12407588958740234,-0.4824132025241852
1683936054535512000,9.582511962890624,-0.2256925106048584,-0.09530067443847656,-0.48695099353790283
1683936054545553400,9.592553466796875,-0.1344766616821289,-0.17677974700927734,-0.4947145879268646
1683936054555594800,9.6025947265625,-0.09562349319458008,-0.22712993621826172,-0.5985084772109985
1683936054565636000,9.612635986328126,-0.08086872100830078,-0.22480392456054688,-0.6995517611503601
1683936054575677200,9.62267724609375,-0.07588934898376465,-0.08872222900390625,-0.7258615493774414
1683936054585718500,9.632718505859375,-0.013685464859008789,0.054187774658203125,-0.7393758893013
1683936054595759900,9.642759765625,0.09592461585998535,0.1920003890991211,-0.749308705329895
1683936054605801000,9.652801025390625,0.15467238426208496,0.2674846649169922,-0.7411171197891235
1683936054615842300,9.66284228515625,0.17007732391357422,0.30461788177490234,-0.7268896102905273
1683936054625883600,9.672883544921875,0.24452638626098633,0.3537607192993164,-0.6920694708824158
1683936054635924700,9.6829248046875,0.3527088165283203,0.3913412094116211,-0.6482141017913818
1683936054645966000,9.692966064453126,0.48126304149627686,0.39624691009521484,-0.5069717168807983
1683936054656007400,9.70300732421875,0.5909993648529053,0.38312435150146484,-0.3545598089694977
1683936054666048500,9.713048583984374,0.6911702156066895,0.3568744659423828,-0.20056116580963135
1683936054676089900,9.72308984375,0.7506918907165527,0.3390159606933594,-0.08760479092597961
1683936054686131200,9.733131103515625,0.7887548208236694,0.3414449691772461,-0.03939260169863701
1683936054696172300,9.74317236328125,0.7652531862258911,0.3806753158569336,0.027535978704690933
1683936054706213600,9.753213623046875,0.6693629026412964,0.40140533447265625,0.06271910667419434
1683936054716255000,9.7632548828125,0.6287446022033691,0.33178138732910156,-0.0252317413687706
1683936054726296000,9.773296142578126,0.6694506406784058,0.1791849136352539,-0.1619565486907959
1683936054736337400,9.78333740234375,0.7091208696365356,0.02043628692626953,-0.3275238275527954
1683936054746378800,9.793378662109374,0.6892677545547485,-0.21054553985595703,-0.49258172512054443
1683936054756419800,9.803419921875,0.6741790771484375,-0.4862985610961914,-0.6356179118156433
1683936054766461200,9.813461181640625,0.6398980617523193,-0.7613954544067383,-0.8201003074645996
1683936054776502500,9.82350244140625,0.5117583274841309,-0.9913396835327148,-0.9415529370307922
1683936054786543900,9.8335439453125,0.21887707710266113,-1.0654430389404297,-1.0422389507293701
1683936054796585000,9.8435849609375,-0.28683042526245117,-1.0828447341918945,-1.1787943840026855
1683936054806626300,9.853626220703125,-0.9733462333679199,-1.1019620895385742,-1.4041264057159424
1683936054816667400,9.86366748046875,-1.9061857461929321,-1.1715097427368164,-1.603095293045044
1683936054826708700,9.873708740234376,-2.908388137817383,-1.1989364624023438,-1.712467908859253
1683936054836750000,9.88375,-3.381314754486084,-1.0480175018310547,-1.6933000087738037
1683936054846791400,9.89379150390625,-3.0210349559783936,-0.6365756988525391,-1.368398666381836
1683936054856832500,9.90383251953125,-2.1590726375579834,0.024713516235351562,-0.8027135133743286
1683936054866873900,9.913873779296875,-1.1772044897079468,0.5854940414428711,-0.2715986967086792
1683936054876915200,9.923915283203126,-0.2036985158920288,0.9342546463012695,0.026489734649658203
1683936054886956300,9.933956298828125,0.6498196125030518,1.0546751022338867,0.09791594743728638
1683936054896997600,9.94399755859375,1.2872074842453003,0.9468507766723633,0.05657276511192322
1683936054907039000,9.9540390625,1.7203882932662964,0.6800346374511719,0.004213988780975342
1683936054917080000,9.964080078125,1.9895035028457642,0.3735923767089844,-0.035185158252716064
1683936054927121400,9.974121337890624,2.1496613025665283,0.017973899841308594,-0.08168846368789673
1683936054937162800,9.984162841796875,2.0828959941864014,-0.2696046829223633,-0.13897573947906494
1683936054947203800,9.994203857421875,1.8010454177856445,-0.42247867584228516,-0.20389717817306519
1683936054957245200,10.0042451171875,1.1548515558242798,-0.45784950256347656,-0.059929728507995605
1683936054967286500,10.01428662109375,0.24405384063720703,-0.39069271087646484,0.24880877137184143
1683936054977327600,10.02432763671875,-0.6477789878845215,-0.21700191497802734,0.6342933773994446
1683936054987369000,10.034368896484375,-1.0356820821762085,-0.0377349853515625,0.9365875720977783
1683936054997410300,10.044410400390625,-0.7729785442352295,0.04687309265136719,0.9182881116867065
1683936055007451400,10.054451416015626,-0.15003323554992676,0.08534812927246094,0.7612985372543335
1683936055017492700,10.06449267578125,0.5326754450798035,0.1214609146118164,0.48869264125823975
1683936055027534000,10.0745341796875,1.0816547870635986,0.098358154296875,0.04715770483016968
1683936055037575200,10.0845751953125,1.416213870048523,0.09986686706542969,-0.31801313161849976
1683936055047616500,10.094616455078125,1.5037356615066528,0.17352008819580078,-0.5540645122528076
1683936055057657900,10.104657958984374,1.4798166751861572,0.21860504150390625,-0.7141193151473999
1683936055067699000,10.114698974609375,1.2609825134277344,0.32555103302001953,-0.8668469190597534
1683936055077740300,10.124740234375,0.9505547285079956,0.3649406433105469,-0.847558319568634
1683936055087781600,10.13478173828125,0.5373357534408569,0.3154621124267578,-0.6911954879760742
1683936055097822700,10.14482275390625,0.1411951780319214,0.21077537536621094,-0.6031516194343567
1683936055107864000,10.154864013671874,-0.14632225036621094,0.1654815673828125,-0.5427941679954529
1683936055117905400,10.164905517578125,-0.26208871603012085,0.1914215087890625,-0.4610266089439392
1683936055127946500,10.174946533203125,-0.18710660934448242,0.19069290161132812,-0.374606192111969
1683936055137987800,10.18498779296875,-0.06220364570617676,0.18023204803466797,-0.3362921476364136
1683936055148029200,10.195029296875,0.0809471607208252,0.11468791961669922,-0.352794885635376
1683936055158070500,10.205070556640624,0.20701995491981506,0.051418304443359375,-0.3803479075431824
1683936055168111600,10.215111572265625,0.29538393020629883,-0.05499553680419922,-0.3377915620803833
1683936055178153000,10.225153076171875,0.3159363269805908,-0.09703350067138672,-0.22743183374404907
1683936055188194000,10.235194091796876,0.31721264123916626,-0.15365982055664062,-0.12121909856796265
1683936055198235400,10.2452353515625,0.2924087643623352,-0.11968421936035156,0.02798295021057129
1683936055208276700,10.25527685546875,0.3036401569843292,-0.1481761932373047,0.15348994731903076
1683936055218318000,10.265318115234376,0.343459814786911,-0.15535259246826172,0.2600588798522949
1683936055228359200,10.275359130859375,0.41164642572402954,-0.17226219177246094,0.35702258348464966
1683936055238400500,10.285400390625,0.5390417575836182,-0.1367969512939453,0.3826112151145935
1683936055248441900,10.29544189453125,0.6866236329078674,0.027399063110351562,0.43929028511047363
1683936055258483000,10.30548291015625,0.8201140761375427,0.15773391723632812,0.5642603635787964
1683936055268524300,10.315524169921876,0.9196431040763855,0.18513774871826172,0.6037373542785645
1683936055278565600,10.325565673828125,1.0160784721374512,0.2005929946899414,0.579719066619873
1683936055288606700,10.335606689453124,1.014116644859314,0.16831207275390625,0.6021568775177002
1683936055298648000,10.34564794921875,1.0191428661346436,0.1195535659790039,0.6676660180091858
1683936055308689400,10.355689453125,0.9644847512245178,0.09738349914550781,0.6707414984703064
1683936055318730500,10.36573046875,0.9223718643188477,0.025310516357421875,0.6498076915740967
1683936055328771800,10.375771728515625,0.8864795565605164,0.02281951904296875,0.5934727787971497
1683936055338813200,10.385813232421874,0.8503923416137695,0.00852203369140625,0.4854205250740051
1683936055348854300,10.395854248046875,0.8766930103302002,0.013521194458007812,0.34477782249450684
1683936055358895600,10.4058955078125,0.9457311630249023,0.037766456604003906,0.13354021310806274
1683936055368937000,10.41593701171875,0.999349057674408,-0.0024271011352539062,-0.13325095176696777
1683936055378978000,10.42597802734375,1.074735403060913,0.002857208251953125,-0.3447587490081787
1683936055389019400,10.436019287109374,1.120599627494812,0.027154922485351562,-0.5100038051605225
1683936055399060700,10.446060791015626,1.1598182916641235,0.13247013092041016,-0.5739884376525879
1683936055409102000,10.45610205078125,1.1440521478652954,0.26125049591064453,-0.5702698230743408
1683936055419143200,10.46614306640625,1.0901983976364136,0.31551361083984375,-0.5444291830062866
1683936055429184500,10.4761845703125,1.0444731712341309,0.2882556915283203,-0.4795353412628174
1683936055439225600,10.4862255859375,0.9860069751739502,0.22504711151123047,-0.36837172508239746
1683936055449267000,10.496266845703126,0.8917611837387085,0.15943050384521484,-0.2540827989578247
1683936055459308300,10.506308349609375,0.8410630226135254,0.09617424011230469,-0.11252331733703613
1683936055469349600,10.516349609375,0.7700178027153015,0.01858997344970703,-0.022620558738708496
1683936055479390700,10.526390625,0.6957035064697266,-0.14730072021484375,0.08979207277297974
1683936055489432000,10.53643212890625,0.656277596950531,-0.2102346420288086,0.15792399644851685
1683936055499473400,10.546473388671876,0.5962172746658325,-0.1680774688720703,0.2318742275238037
1683936055509514500,10.556514404296875,0.5225121974945068,-0.056799888610839844,0.23165494203567505
1683936055519555800,10.566555908203124,0.48514431715011597,0.02798748016357422,0.2258216142654419
1683936055529597200,10.57659716796875,0.4335322082042694,0.06724166870117188,0.15700554847717285
1683936055539638300,10.58663818359375,0.3843114972114563,0.07298469543457031,0.11875283718109131
1683936055549679600,10.5966796875,0.34491682052612305,0.03571891784667969,0.07081156969070435
1683936055559721000,10.606720947265625,0.30867308378219604,0.027197837829589844,0.07315641641616821
1683936055569762000,10.616761962890624,0.3072739839553833,0.059342384338378906,0.1470324993133545
1683936055579803400,10.626803466796876,0.29083251953125,0.067596435546875,0.18244165182113647
1683936055589844700,10.6368447265625,0.31455719470977783,0.10459136962890625,0.2391139268875122
1683936055599885800,10.6468857421875,0.2970123887062073,0.05802154541015625,0.2619848847389221
1683936055609927200,10.65692724609375,0.3167135715484619,0.011643409729003906,0.2059340476989746
1683936055619968500,10.666968505859375,0.32987189292907715,-0.07884502410888672,0.16216057538986206
1683936055630009900,10.677009765625,0.35222119092941284,-0.071319580078125,0.13327527046203613
1683936055640051000,10.687051025390625,0.32958245277404785,-0.04743385314941406,0.04586249589920044
1683936055650092300,10.69709228515625,0.350300133228302,-0.030974388122558594,0.05397886037826538
1683936055660133400,10.70713330078125,0.3691350817680359,-0.010020256042480469,0.012370467185974121
1683936055670174700,10.7171748046875,0.3857293128967285,0.017691612243652344,0.011219143867492676
1683936055680216000,10.727216064453126,0.41850101947784424,0.02613067626953125,-0.004369139671325684
1683936055690257400,10.73725732421875,0.44120413064956665,0.05795097351074219,-0.024423599243164062
1683936055700298500,10.747298583984374,0.44945192337036133,0.07744789123535156,0.0030614137649536133
1683936055710339800,10.75733984375,0.4740303158760071,0.09187507629394531,0.013826966285705566
1683936055720381200,10.767381103515625,0.48591160774230957,0.09893989562988281,0.0550573468208313
1683936055730422300,10.77742236328125,0.48482030630111694,0.12461090087890625,0.03922450542449951
1683936055740463600,10.787463623046875,0.46345800161361694,0.07671546936035156,0.05681079626083374
1683936055750505000,10.7975048828125,0.40319979190826416,0.07650566101074219,0.03209066390991211
1683936055760546000,10.807546142578126,0.33317726850509644,0.059617042541503906,0.02244865894317627
1683936055770587400,10.81758740234375,0.2515360116958618,0.07813262939453125,0.05128669738769531
1683936055780628700,10.827628662109374,0.15925931930541992,0.08913898468017578,0.03100299835205078
1683936055790669800,10.837669921875,0.06439763307571411,0.06929302215576172,0.04245400428771973
1683936055800711200,10.847711181640625,-0.03716164827346802,0.045065879821777344,0.04035913944244385
1683936055810752500,10.85775244140625,-0.08183044195175171,0.03298473358154297,0.008683443069458008
1683936055820793600,10.867793701171875,-0.13652855157852173,0.04700660705566406,0.018203258514404297
1683936055830835000,10.8778349609375,-0.16328787803649902,0.013756752014160156,0.04447031021118164
1683936055840876300,10.887876220703125,-0.1674659252166748,-0.037738800048828125,0.08484315872192383
1683936055850917400,10.89791748046875,-0.15663999319076538,-0.027133941650390625,0.12247514724731445
1683936055860958700,10.907958740234376,-0.1403559446334839,-0.0025529861450195312,0.07991039752960205
1683936055871000000,10.918,-0.0857270359992981,-0.0066127777099609375,0.0880584716796875
1683936055881041400,10.92804150390625,-0.05008220672607422,-0.020008087158203125,0.11770248413085938
1683936055891082500,10.93808251953125,-0.0005738139152526855,-0.000278472900390625,0.13338935375213623
1683936055901123800,10.948123779296875,0.04339832067489624,0.01432037353515625,0.1636141538619995
1683936055911165200,10.958165283203124,0.08136528730392456,0.007328987121582031,0.17996108531951904
1683936055921206300,10.968206298828125,0.08993291854858398,0.009680747985839844,0.25115692615509033
1683936055931247600,10.97824755859375,0.10047245025634766,0.04950904846191406,0.26086652278900146
1683936055941289000,10.9882890625,0.11772322654724121,0.05560302734375,0.2709916830062866
1683936055951330000,10.998330078125,0.12022650241851807,0.08742237091064453,0.24100780487060547
1683936055961371400,11.008371337890624,0.11047184467315674,0.059787750244140625,0.19031167030334473
1683936055971412700,11.018412841796875,0.07681632041931152,0.0066204071044921875,0.1264638900756836
1683936055981453800,11.028453857421875,0.04395163059234619,-0.05980205535888672,0.09202980995178223
1683936055991495200,11.0384951171875,0.03804337978363037,-0.09452342987060547,0.05611085891723633
1683936056001536500,11.04853662109375,0.01657116413116455,-0.102752685546875,0.009357571601867676
1683936056011577600,11.05857763671875,0.017483234405517578,-0.09435462951660156,-0.005609393119812012
1683936056021619000,11.068618896484375,-0.01628243923187256,-0.07668590545654297,-0.0058269500732421875
1683936056031660300,11.078660400390625,-0.03264427185058594,-0.03580474853515625,-0.022200822830200195
1683936056041701600,11.08870166015625,-0.06249547004699707,-0.0026721954345703125,-0.024090170860290527
1683936056051742700,11.09874267578125,-0.10776025056838989,0.06759452819824219,-0.11058735847473145
1683936056061784000,11.1087841796875,-0.1209484338760376,0.13198471069335938,-0.117645263671875
1683936056071825400,11.118825439453126,-0.109752357006073,0.13637733459472656,-0.18977046012878418
1683936056081866500,11.128866455078125,-0.09827899932861328,0.07693862915039062,-0.20982646942138672
1683936056091907800,11.138907958984374,-0.09834575653076172,0.06531810760498047,-0.1336601972579956
1683936056101949200,11.14894921875,-0.08582961559295654,-0.005196571350097656,-0.019301533699035645
1683936056111990300,11.158990234375,-0.06043744087219238,-0.06525707244873047,0.12527716159820557
1683936056122031600,11.169031494140626,0.005897045135498047,-0.06552791595458984,0.26611852645874023
1683936056132073000,11.179072998046875,0.06783068180084229,-0.07517528533935547,0.43093061447143555
1683936056142114000,11.189114013671874,0.1484975814819336,-0.10347747802734375,0.5202281475067139
1683936056152155400,11.1991552734375,0.20915448665618896,-0.09128761291503906,0.6408360004425049
1683936056162196700,11.20919677734375,0.21222925186157227,-0.0957632064819336,0.7142953276634216
1683936056172237800,11.21923779296875,0.23666417598724365,-0.1354227066040039,0.8073140382766724
1683936056182279200,11.229279052734375,0.24699139595031738,-0.1366252899169922,0.8934065699577332
1683936056192320500,11.239320556640624,0.2930450439453125,-0.07871723175048828,0.9933910369873047
1683936056202361600,11.249361572265625,0.33911359310150146,-0.06619644165039062,1.012601613998413
1683936056212403000,11.25940283203125,0.38314104080200195,-0.1805591583251953,1.027132511138916
1683936056222444300,11.2694443359375,0.43923044204711914,-0.24544906616210938,0.9874024987220764
1683936056232485600,11.279485595703125,0.48535287380218506,-0.2806062698364258,0.9438362121582031
1683936056242526700,11.289526611328125,0.5252312421798706,-0.2419443130493164,0.8566209673881531
1683936056252568000,11.299568115234376,0.5465401411056519,-0.17319011688232422,0.8256387114524841
1683936056262609200,11.309609130859375,0.5586462020874023,-0.11245250701904297,0.7551757097244263
1683936056272650500,11.319650390625,0.5645244121551514,-0.09718036651611328,0.7186880111694336
1683936056282691800,11.32969189453125,0.5793907642364502,-0.1477031707763672,0.6756445169448853
1683936056292733200,11.339733154296875,0.6178402900695801,-0.13809680938720703,0.6403325796127319
1683936056302774300,11.349774169921876,0.6463433504104614,-0.14237022399902344,0.5938299894332886
1683936056312815600,11.359815673828125,0.6901284456253052,-0.13216114044189453,0.5528888702392578
1683936056322857000,11.36985693359375,0.724193811416626,-0.016054153442382812,0.42567336559295654
1683936056332898000,11.37989794921875,0.7617263793945312,0.006220817565917969,0.3482377529144287
1683936056342939400,11.389939453125,0.7506906986236572,0.07505130767822266,0.1599271297454834
1683936056352980700,11.399980712890626,0.7045654058456421,0.07898998260498047,0.03518545627593994
1683936056363021800,11.410021728515625,0.6067847013473511,0.20029354095458984,-0.14050054550170898
1683936056373063200,11.420063232421874,0.5186862945556641,0.17358970642089844,-0.28180623054504395
1683936056383104500,11.4301044921875,0.42929697036743164,0.2205209732055664,-0.319374680519104
1683936056393145600,11.4401455078125,0.3464956283569336,0.1820831298828125,-0.45165228843688965
1683936056403187000,11.45018701171875,0.24485397338867188,0.05016517639160156,-0.5839710235595703
1683936056413228300,11.460228271484375,0.15029048919677734,-0.04667091369628906,-0.6121823787689209
1683936056423269600,11.47026953125,0.01669156551361084,-0.16794776916503906,-0.6657131910324097
1683936056433310700,11.480310791015626,-0.1908634901046753,-0.23818588256835938,-0.7446886301040649
1683936056443352000,11.49035205078125,-0.48045313358306885,-0.33147525787353516,-0.8842225074768066
1683936056453393400,11.500393310546874,-0.8014671802520752,-0.4215879440307617,-0.9842832088470459
1683936056463434500,11.5104345703125,-1.1316871643066406,-0.4128999710083008,-1.0439058542251587
1683936056473475800,11.520475830078125,-1.390909194946289,-0.2895164489746094,-1.0202891826629639
1683936056483517200,11.53051708984375,-1.5079941749572754,-0.14904308319091797,-0.8613705635070801
1683936056493558300,11.540558349609375,-1.4117597341537476,-0.03647899627685547,-0.5207351446151733
1683936056503599600,11.550599609375,-1.1777163743972778,-0.00908660888671875,-0.16456711292266846
1683936056513641000,11.560640869140625,-0.8547431230545044,-0.07170391082763672,0.15358662605285645
1683936056523682300,11.570682373046875,-0.5775219202041626,-0.09301280975341797,0.3732564449310303
1683936056533723400,11.580723388671874,-0.3502698540687561,-0.1066579818725586,0.5369644165039062
1683936056543764700,11.5907646484375,-0.2786886692047119,-0.11741065979003906,0.5678421258926392
1683936056553805800,11.600805908203125,-0.2975919246673584,-0.07031440734863281,0.5497602224349976
1683936056563847200,11.61084716796875,-0.40085798501968384,-0.015599250793457031,0.47590386867523193
1683936056573888500,11.620888427734375,-0.5821812152862549,-0.012963294982910156,0.3873863220214844
1683936056583929900,11.630929931640624,-0.7374502420425415,-0.021658897399902344,0.2630075216293335
1683936056593971000,11.640970947265625,-0.8634830117225647,-0.04889678955078125,0.1486283540725708
1683936056604012300,11.65101220703125,-0.9741283655166626,-0.066162109375,0.05700838565826416
1683936056614053600,11.6610537109375,-1.0430761575698853,-0.06646442413330078,-0.014046669006347656
1683936056624094700,11.6710947265625,-1.072996735572815,-0.047570228576660156,-0.057499051094055176
1683936056634136000,11.681135986328124,-1.0520267486572266,-0.009648323059082031,-0.08537673950195312
1683936056644177400,11.691177490234375,-1.0111558437347412,0.028023719787597656,-0.09053707122802734
1683936056654218500,11.701218505859375,-0.9789953231811523,0.02236461639404297,-0.09003818035125732
1683936056664259800,11.711259765625,-0.9861900806427002,0.0019969940185546875,-0.09110617637634277
1683936056674301200,11.72130126953125,-1.0086561441421509,0.021696090698242188,-0.09132003784179688
1683936056684342300,11.73134228515625,-0.9742288589477539,0.03094482421875,-0.1403658390045166
1683936056694383600,11.741383544921876,-0.8426556587219238,0.04146289825439453,-0.18779921531677246
1683936056704425000,11.751425048828125,-0.5818720459938049,0.05786895751953125,-0.19097161293029785
1683936056714466300,11.76146630859375,-0.14679133892059326,0.08009529113769531,-0.1671278476715088
1683936056724507400,11.77150732421875,0.3297949731349945,0.06522655487060547,-0.1763756275177002
1683936056734548700,11.781548828125,0.7346553206443787,-0.007918357849121094,-0.19730734825134277
1683936056744590000,11.791590087890626,0.9608155488967896,-0.20097637176513672,-0.29711973667144775
1683936056754631200,11.801631103515625,1.0632739067077637,-0.44416141510009766,-0.44241464138031006
1683936056764672500,11.811672607421874,1.1072684526443481,-0.6059379577636719,-0.651711106300354
1683936056774713900,11.8217138671875,1.039131760597229,-0.6722650527954102,-0.8259620666503906
1683936056784755000,11.8317548828125,0.9440475702285767,-0.6530437469482422,-0.8953514099121094
1683936056794796300,11.84179638671875,0.9470596313476562,-0.4220285415649414,-0.8736010789871216
1683936056804837600,11.851837646484375,1.1093248128890991,-0.1397075653076172,-0.7600246667861938
1683936056814879000,11.86187890625,1.3425319194793701,0.07708263397216797,-0.638120174407959
1683936056824920000,11.871920166015625,1.520357608795166,0.24082088470458984,-0.5243072509765625
1683936056834961400,11.88196142578125,1.5128480195999146,0.35435009002685547,-0.4637984037399292
1683936056845002500,11.89200244140625,1.3991602659225464,0.3988971710205078,-0.39933228492736816
1683936056855043800,11.9020439453125,1.2660117149353027,0.35800743103027344,-0.4265710115432739
1683936056865085200,11.912085205078125,1.1331405639648438,0.37760162353515625,-0.4664813280105591
1683936056875126500,11.92212646484375,1.041387915611267,0.39540672302246094,-0.5920915007591248
1683936056885167600,11.932167724609375,0.9932152032852173,0.43053150177001953,-0.6759589314460754
1683936056895209000,11.942208984375,0.9386792778968811,0.4948892593383789,-0.7419716119766235
1683936056905250300,11.952250244140625,0.9068856835365295,0.5764732360839844,-0.876426100730896
1683936056915291400,11.96229150390625,0.8387110829353333,0.622685432434082,-1.0033290386199951
1683936056925332700,11.972332763671876,0.7395498156547546,0.6383047103881836,-1.1797609329223633
1683936056935374000,11.9823740234375,0.569931149482727,0.6422920227050781,-1.318965196609497
1683936056945415200,11.992415283203124,0.3127431869506836,0.6080770492553711,-1.4540613889694214
1683936056955456500,12.00245654296875,0.09672582149505615,0.6238307952880859,-1.4708304405212402
1683936056965497900,12.012497802734375,-0.04567921161651611,0.6175861358642578,-1.4729177951812744
1683936056975539000,12.0225390625,-0.07594501972198486,0.5463991165161133,-1.4038760662078857
1683936056985580300,12.032580322265625,-0.03746140003204346,0.46308326721191406,-1.2960294485092163
1683936056995621600,12.04262158203125,-0.0241851806640625,0.39885807037353516,-1.2096354961395264
1683936057005663000,12.0526630859375,-0.06291055679321289,0.2964639663696289,-1.1710182428359985
1683936057015704000,12.0627041015625,-0.18937087059020996,0.22288036346435547,-1.0989537239074707
1683936057025745400,12.072745361328124,-0.3668421506881714,0.11819648742675781,-1.0506114959716797
1683936057035786800,12.082786865234375,-0.6149488687515259,0.008443832397460938,-1.006650686264038
1683936057045827800,12.092827880859375,-0.8576468229293823,-0.123443603515625,-0.9093412756919861
1683936057055869200,12.102869140625,-1.0432966947555542,-0.22992610931396484,-0.7493059635162354
1683936057065910500,12.11291064453125,-1.0952900648117065,-0.2967653274536133,-0.5419045686721802
1683936057075951600,12.12295166015625,-1.060312271118164,-0.30234336853027344,-0.3051193952560425
1683936057085993000,12.132992919921875,-0.8809589147567749,-0.29418373107910156,-0.06840258836746216
1683936057096034300,12.143034423828125,-0.6986477375030518,-0.3052978515625,0.16092133522033691
1683936057106075400,12.153075439453126,-0.522828221321106,-0.3185253143310547,0.3521909713745117
1683936057116116700,12.16311669921875,-0.3647979497909546,-0.27861690521240234,0.48925063014030457
1683936057126158000,12.173157958984374,-0.2136918306350708,-0.254730224609375,0.5868164300918579
1683936057136199400,12.183199462890625,-0.08187079429626465,-0.22281455993652344,0.6497896909713745
1683936057146240500,12.193240478515625,0.052346110343933105,-0.10886192321777344,0.7117502689361572
1683936057156281900,12.20328173828125,0.15604615211486816,0.05813789367675781,0.6777005195617676
1683936057166323200,12.2133232421875,0.21812069416046143,0.2133941650390625,0.5793912410736084
1683936057176364300,12.2233642578125,0.24656081199645996,0.3281679153442383,0.4883098602294922
1683936057186405600,12.233405517578126,0.24654710292816162,0.3309297561645508,0.4251724183559418
1683936057196447000,12.243447021484375,0.21792876720428467,0.36290740966796875,0.3206307888031006
1683936057206488000,12.253488037109374,0.2508593797683716,0.4002866744995117,0.23214668035507202
1683936057216529400,12.263529296875,0.3726745843887329,0.4122600555419922,0.14764952659606934
1683936057226570800,12.27357080078125,0.4270251989364624,0.3799934387207031,0.11222434043884277
1683936057236612000,12.283612060546876,0.35818207263946533,0.3061647415161133,0.09236961603164673
1683936057246653200,12.293653076171875,0.1760575771331787,0.22907638549804688,0.14024150371551514
1683936057256694500,12.303694580078124,-0.0027734041213989258,0.14602184295654297,0.1380273699760437
1683936057266735900,12.31373583984375,-0.17523717880249023,0.04924201965332031,0.09722691774368286
1683936057276777000,12.32377685546875,-0.32591986656188965,0.014504432678222656,0.000971674919128418
1683936057286818300,12.333818359375,-0.4541640281677246,0.00044727325439453125,-0.1004531979560852
1683936057296859600,12.343859619140625,-0.6988836526870728,-0.010113716125488281,-0.20188385248184204
1683936057306900700,12.353900634765624,-0.954100489616394,-0.022100448608398438,-0.29108595848083496
1683936057316942000,12.363942138671876,-0.9277644157409668,0.12476253509521484,-0.34114497900009155
1683936057326983400,12.3739833984375,-0.6360098123550415,0.3710041046142578,-0.547544538974762
1683936057337024500,12.3840244140625,-0.2977718114852905,0.5641412734985352,-0.7302016019821167
1683936057347065900,12.39406591796875,0.03154397010803223,0.6833257675170898,-0.8528790473937988
1683936057357107200,12.404107177734375,0.5738500356674194,0.8270721435546875,-1.0716283321380615
1683936057367148500,12.4141484375,1.1293237209320068,0.9791603088378906,-1.1856012344360352
1683936057377189600,12.424189697265625,1.3607137203216553,0.9847679138183594,-1.1211590766906738
1683936057387231000,12.43423095703125,1.2061010599136353,0.9302272796630859,-1.013702392578125
1683936057397272300,12.444272216796875,0.7472485303878784,0.8581171035766602,-1.2968754768371582
1683936057407313400,12.4543134765625,0.1033315658569336,0.6195125579833984,-1.6315044164657593
1683936057417354800,12.464354736328126,-0.6254819631576538,0.2903404235839844,-1.9233258962631226
1683936057427396000,12.47439599609375,-1.2388163805007935,-0.22789859771728516,-2.0963172912597656
1683936057437437200,12.484437255859374,-1.7254139184951782,-0.8876352310180664,-2.025787830352783
1683936057447478500,12.494478515625,-1.9780237674713135,-1.5099964141845703,-1.727177619934082
1683936057457519900,12.504519775390625,-1.8623086214065552,-1.8088092803955078,-1.2587034702301025
1683936057467561200,12.514561279296874,-1.4909666776657104,-1.7751703262329102,-0.8833900094032288
1683936057477602300,12.524602294921875,-1.0939406156539917,-1.4427518844604492,-0.5579906105995178
1683936057487643600,12.5346435546875,-0.7427499294281006,-0.8973379135131836,-0.17972034215927124
1683936057497685000,12.54468505859375,-0.24265646934509277,-0.2887411117553711,0.2323371171951294
