time,seconds_elapsed,z,y,x
1684110621411309300,0.025309326171875,0,0,0
1684110621421351000,0.035350830078125,0.1044921875,-0.021361827850341797,-0.03072500228881836
1684110621431392500,0.045392578125,0.21439743041992188,-0.10990762710571289,-0.012505829334259033
1684110621441434000,0.05543408203125,0.4340858459472656,-0.12769365310668945,0.027307868003845215
1684110621451475700,0.065475830078125,0.631077766418457,-0.2337636947631836,0.0897480845451355
1684110621461517300,0.075517333984375,0.7429313659667969,-0.19820022583007812,0.06621015071868896
1684110621471559000,0.085558837890625,0.6121349334716797,0.01690053939819336,-0.20796144008636475
1684110621481600500,0.0956005859375,0.3724784851074219,0.2040863037109375,-0.2158023715019226
1684110621491642000,0.10564208984375,0.07158279418945312,0.19547796249389648,0.12026858329772949
1684110621501683700,0.11568359375,-0.31113243103027344,0.3104214668273926,0.191841721534729
1684110621511725300,0.125725341796875,-0.9268083572387695,0.31201839447021484,0.5243748426437378
1684110621521767000,0.135766845703125,-1.7450060844421387,-0.05615949630737305,0.16585290431976318
1684110621531808500,0.14580859375,-2.1179661750793457,-0.23319768905639648,-0.3151531219482422
1684110621541850000,0.15585009765625,-1.778407096862793,-0.27805137634277344,-0.04810965061187744
1684110621551891700,0.1658916015625,-0.8598976135253906,-0.3746342658996582,0.24809980392456055
1684110621561933300,0.175933349609375,0.3806266784667969,-0.32185792922973633,0.32819807529449463
1684110621571975000,0.185974853515625,1.5014934539794922,-0.059116363525390625,0.48712897300720215
1684110621582016500,0.1960166015625,2.0956854820251465,0.17480087280273438,0.508663535118103
1684110621592058000,0.20605810546875,1.9348187446594238,0.23435258865356445,0.6117279529571533
1684110621602099700,0.216099609375,1.2979097366333008,0.021313190460205078,0.6384035348892212
1684110621612141300,0.226141357421875,0.7645244598388672,-0.2222423553466797,0.27407360076904297
1684110621622183000,0.236182861328125,0.4792022705078125,-0.20155906677246094,0.3013617992401123
1684110621632224500,0.246224609375,0.23460769653320312,0.0915684700012207,0.26038026809692383
1684110621642266400,0.256266357421875,0.029756546020507812,0.34997034072875977,-0.16285943984985352
1684110621652307700,0.2663076171875,-0.4560279846191406,-1.4676117897033691,1.2513549327850342
1684110621662349300,0.276349365234375,-0.30495691299438477,-0.008487224578857422,0.07091307640075684
1684110621672391000,0.286390869140625,-0.2815375328063965,-0.9100279808044434,0.6479165554046631
1684110621682432800,0.296432861328125,0.03837299346923828,0.02484273910522461,0.6696710586547852
1684110621692474400,0.306474365234375,-0.1461777687072754,0.46045780181884766,-0.021874666213989258
1684110621702515700,0.316515625,0.2529325485229492,-0.7510218620300293,1.1421465873718262
1684110621712557600,0.3265576171875,0.5479660034179688,0.8467702865600586,0.009175777435302734
1684110621722599200,0.33659912109375,0.27021360397338867,-0.10084056854248047,0.3973112106323242
1684110621732640800,0.346640869140625,-0.029048442840576172,0.23024749755859375,0.15599489212036133
1684110621742682000,0.35668212890625,-0.9038600921630859,-0.21860837936401367,0.14022397994995117
1684110621752724000,0.366723876953125,-1.201892375946045,-0.7948184013366699,-0.02428722381591797
1684110621762765600,0.376765625,-1.335984230041504,-1.0124168395996094,0.22944355010986328
1684110621772807200,0.38680712890625,-1.5977706909179688,-1.0354461669921875,0.6765017509460449
1684110621782848500,0.3968486328125,-1.783982753753662,-0.9273676872253418,0.640343189239502
1684110621792890400,0.406890380859375,-1.540759563446045,-0.30986881256103516,0.7274060249328613
1684110621802932000,0.416931884765625,-1.2425718307495117,-0.9865903854370117,1.1321406364440918
1684110621812973600,0.4269736328125,-1.1343464851379395,-1.255220890045166,0.9180998802185059
1684110621823015200,0.43701513671875,-0.7907891273498535,-1.488668441772461,0.536841869354248
1684110621833056800,0.447056884765625,-0.809410572052002,-1.3039970397949219,0.2486872673034668
1684110621843098400,0.457098388671875,-1.7916226387023926,-0.7709479331970215,-0.0391693115234375
1684110621853140000,0.467139892578125,-0.9470763206481934,0.6792018413543701,-2.085385322570801
1684110621863181600,0.477181640625,-0.20491409301757812,0.37861061096191406,-2.8686418533325195
1684110621873223200,0.48722314453125,0.712831974029541,0.06149911880493164,-2.2838001251220703
1684110621883264800,0.4972646484375,0.23783445358276367,1.295478105545044,-2.3551788330078125
1684110621893306400,0.507306396484375,-0.24309396743774414,-0.08788394927978516,-0.4546661376953125
1684110621903348000,0.517347900390625,0.08361411094665527,-1.0014300346374512,-0.07291698455810547
1684110621913389600,0.5273896484375,0.26114916801452637,-0.17827177047729492,-1.1013460159301758
1684110621923431200,0.53743115234375,0.4632868766784668,0.01891469955444336,-1.7171893119812012
1684110621933472800,0.54747265625,0.3139944076538086,0.06047248840332031,-1.6700639724731445
1684110621943514400,0.557514404296875,0.27912187576293945,0.39418649673461914,-1.2703499794006348
1684110621953556000,0.567555908203125,0.2758293151855469,0.16680288314819336,-1.0053191184997559
1684110621963597600,0.57759765625,0.23529052734375,0.1135554313659668,-0.8041696548461914
1684110621973639200,0.58763916015625,0.22017192840576172,0.222686767578125,-0.7856917381286621
1684110621983680800,0.5976806640625,0.1521131992340088,-0.18061256408691406,-0.6734189987182617
1684110621993722400,0.607722412109375,-0.1713317632675171,-0.08887386322021484,-0.7272496223449707
1684110622003764000,0.617763916015625,-0.6131409406661987,0.17829513549804688,-1.3187546730041504
1684110622013805600,0.6278056640625,-0.8626208901405334,-0.5642237663269043,-0.9041781425476074
1684110622023847200,0.63784716796875,-0.5313745737075806,-0.3545513153076172,-0.7196168899536133
1684110622033888800,0.647888671875,-0.02092742919921875,-0.1391124725341797,-0.32520294189453125
1684110622043930400,0.657930419921875,-0.7170878052711487,0.06027555465698242,0.1646738052368164
1684110622053972000,0.667971923828125,-0.9972520470619202,0.32436704635620117,0.27088451385498047
1684110622064013600,0.678013671875,-1.0240325927734375,0.6305975914001465,0.33195972442626953
1684110622074055200,0.68805517578125,-1.0523202419281006,0.5520646572113037,0.37587642669677734
1684110622084096800,0.6980966796875,-0.6013005971908569,0.6360654830932617,0.02392864227294922
1684110622094138400,0.708138427734375,-0.3768749237060547,-0.18955349922180176,-0.3265495300292969
1684110622104180000,0.718179931640625,-0.5039544105529785,-0.43009519577026367,-0.7908439636230469
1684110622114221600,0.7282216796875,-1.0398576259613037,0.08357024192810059,-0.7944850921630859
1684110622124263200,0.73826318359375,-1.0678775310516357,0.16800403594970703,-0.475860595703125
1684110622134304800,0.7483046875,-0.5032186508178711,0.15038180351257324,-0.2712135314941406
1684110622144346400,0.758346435546875,-0.35479283332824707,0.23954510688781738,-0.2176837921142578
1684110622154388000,0.768387939453125,-0.2910730838775635,0.40753722190856934,-0.09856510162353516
1684110622164429600,0.7784296875,-0.005526304244995117,0.849829912185669,-0.17283916473388672
1684110622174471200,0.78847119140625,0.11096048355102539,0.7293686866760254,-0.13301563262939453
1684110622184512800,0.7985126953125,-0.04559183120727539,0.7762277126312256,-0.49395179748535156
1684110622194554400,0.808554443359375,-0.4252338409423828,0.9415881633758545,-0.47303199768066406
1684110622204596000,0.818595947265625,-0.8875067234039307,0.8460354804992676,-0.48397159576416016
1684110622214637800,0.828637939453125,-1.0043883323669434,0.8448431491851807,-0.3185539245605469
1684110622224679400,0.838679443359375,-1.0221281051635742,0.7945234775543213,-0.23053836822509766
1684110622234721000,0.848720947265625,-0.46099019050598145,0.3825705051422119,0.4140129089355469
1684110622244762600,0.8587626953125,0.005372762680053711,0.10652375221252441,1.2524728775024414
1684110622254804200,0.86880419921875,-0.022356510162353516,0.06520485877990723,1.3505077362060547
1684110622264845800,0.878845703125,-0.12888550758361816,0.11582040786743164,1.3844470977783203
1684110622274887400,0.888887451171875,-0.0833594799041748,0.4620194435119629,1.0770349502563477
1684110622284929000,0.898928955078125,-0.07703018188476562,0.4379730224609375,0.6047143936157227
1684110622294970600,0.908970703125,-0.05683016777038574,0.3219780921936035,0.16492366790771484
1684110622305012200,0.91901220703125,0.1709890365600586,0.35283398628234863,0.054961204528808594
1684110622315053800,0.9290537109375,0.357529878616333,0.20880985260009766,0.32013702392578125
1684110622325095400,0.939095458984375,0.32775914669036865,0.014086246490478516,0.43789005279541016
1684110622335137000,0.949136962890625,0.18424344062805176,-0.13218975067138672,0.21651172637939453
1684110622345178600,0.9591787109375,-0.0911717414855957,-0.12990236282348633,-0.1515789031982422
1684110622355220200,0.96922021484375,-0.2219984531402588,-0.07960224151611328,-0.9273509979248047
1684110622365261800,0.97926171875,-0.4798314571380615,0.20606040954589844,-1.6197247505187988
1684110622375303400,0.989303466796875,-0.27684807777404785,-0.326906681060791,-1.5536823272705078
1684110622385345000,0.999344970703125,0.09421706199645996,-0.677821159362793,-1.402155876159668
1684110622395386600,1.00938671875,0.48514604568481445,-0.8824377059936523,-1.103938102722168
1684110622405428200,1.01942822265625,0.7236305475234985,-0.9452619552612305,-0.5668492317199707
1684110622415469800,1.0294697265625,0.9021005630493164,-1.1506295204162598,0.0024080276489257812
1684110622425511400,1.039511474609375,0.7340003252029419,-0.9422993659973145,0.5157365798950195
1684110622435553000,1.049552978515625,0.5253064632415771,-0.5000410079956055,0.6084632873535156
1684110622445594600,1.0595947265625,0.19784033298492432,-0.5261549949645996,0.2601308822631836
1684110622455636200,1.06963623046875,0.1853400468826294,-0.8458938598632812,0.17699050903320312
1684110622465677800,1.079677734375,0.30761098861694336,-0.7635641098022461,0.03068828582763672
1684110622475719400,1.089719482421875,0.4868004322052002,-0.6877360343933105,-0.30647993087768555
1684110622485761000,1.099760986328125,0.5572447776794434,-0.1925334930419922,-0.8422145843505859
1684110622495802600,1.109802734375,0.7742577195167542,-0.37975120544433594,-1.4352283477783203
1684110622505844200,1.11984423828125,0.8285398483276367,-0.5378899574279785,-1.6201043128967285
1684110622515885800,1.1298857421875,0.8208644986152649,-0.2842259407043457,-1.2085027694702148
1684110622525927400,1.139927490234375,0.8516753315925598,-0.7724390029907227,0.09695911407470703
1684110622535969300,1.14996923828125,0.8729836344718933,-0.9182910919189453,1.732370376586914
1684110622546011000,1.160010986328125,0.9579266905784607,-0.6553816795349121,2.6358299255371094
1684110622556052500,1.170052490234375,0.8128920793533325,-0.647620677947998,3.0417871475219727
1684110622566094000,1.180093994140625,0.5747576355934143,-0.723874568939209,2.439720630645752
1684110622576135700,1.1901357421875,0.5903242230415344,-0.7965731620788574,1.316603183746338
1684110622586177300,1.20017724609375,0.6604339480400085,-0.8148112297058105,0.5415487289428711
1684110622596219000,1.210218994140625,0.595624566078186,-0.759676456451416,0.07521581649780273
1684110622606260500,1.220260498046875,0.5189443826675415,-0.8246979713439941,-0.05349922180175781
1684110622616302000,1.230302001953125,0.3127201199531555,-0.7126522064208984,-0.25217294692993164
1684110622626343700,1.24034375,0.26236796379089355,-0.6461234092712402,-0.46555471420288086
1684110622636385300,1.25038525390625,0.4317726194858551,-0.5836749076843262,-0.6123085021972656
1684110622646427000,1.260427001953125,0.8038923740386963,-0.6329498291015625,-1.0917577743530273
1684110622656468500,1.270468505859375,0.16202950477600098,-0.5247535705566406,-0.9682855606079102
1684110622666510000,1.280510009765625,0.001778244972229004,-0.22577810287475586,-0.5577187538146973
1684110622676551700,1.2905517578125,0.6514161825180054,0.016382217407226562,-0.4756488800048828
1684110622686593300,1.30059326171875,1.1226211786270142,0.06485223770141602,-0.533843994140625
1684110622696635000,1.310634765625,1.020505666732788,0.4504523277282715,-0.8723945617675781
1684110622706676500,1.320676513671875,0.99326092004776,-0.0751652717590332,-0.45988941192626953
1684110622716718000,1.330718017578125,1.1960952281951904,-0.055028438568115234,-0.14486312866210938
1684110622726759700,1.340759765625,1.1258600950241089,0.014478683471679688,-0.045716285705566406
1684110622736801300,1.35080126953125,1.2205621004104614,-0.02642679214477539,0.06941461563110352
1684110622746843000,1.3608427734375,1.4351211786270142,-0.278106689453125,0.28427886962890625
1684110622756884500,1.370884521484375,1.6050816774368286,-0.3755512237548828,0.5077667236328125
1684110622766926000,1.380926025390625,1.396535038948059,-0.3944382667541504,0.5682358741760254
1684110622776967700,1.3909677734375,1.346530795097351,-0.3185601234436035,0.6001524925231934
1684110622787009500,1.401009521484375,1.263220191001892,-0.37732791900634766,0.5623683929443359
1684110622797051100,1.411051025390625,1.2391959428787231,-0.36524295806884766,0.4145512580871582
1684110622807092500,1.421092529296875,0.7223185896873474,0.7592124938964844,-0.8900761604309082
1684110622817134300,1.43113427734375,0.7629643678665161,-0.11012125015258789,-0.618802547454834
1684110622827176000,1.441176025390625,1.4210882186889648,-0.5353107452392578,-0.38176536560058594
1684110622837217500,1.451217529296875,1.725262999534607,-0.09102821350097656,-0.3322329521179199
1684110622847259100,1.461259033203125,1.5785856246948242,-0.24174880981445312,-0.036139488220214844
1684110622857300700,1.47130078125,1.8316327333450317,-0.2895364761352539,0.1411609649658203
1684110622867342300,1.48134228515625,2.128582000732422,-0.5628299713134766,0.2365574836730957
1684110622877384000,1.491384033203125,1.7308733463287354,-0.03226137161254883,0.30159950256347656
1684110622887425500,1.501425537109375,1.1896988153457642,0.008358478546142578,0.2725558280944824
1684110622897467100,1.511467041015625,0.8006531596183777,0.07619142532348633,-0.10235357284545898
1684110622907508700,1.5215087890625,0.6765432953834534,0.21480417251586914,-0.25411462783813477
1684110622917550300,1.53155029296875,0.17962968349456787,1.332836627960205,-0.8459620475769043
1684110622927592000,1.541592041015625,0.3484153151512146,0.950197696685791,0.04090309143066406
1684110622937633500,1.551633544921875,0.8737529516220093,0.8704767227172852,-0.3360261917114258
1684110622947675100,1.561675048828125,0.8235507011413574,0.43311452865600586,-0.5063819885253906
1684110622957716700,1.571716796875,0.896411657333374,0.20974254608154297,-0.3380274772644043
1684110622967758300,1.58175830078125,1.1494178771972656,-0.17684316635131836,-0.04300689697265625
1684110622977800000,1.591800048828125,1.2769079208374023,-0.16553544998168945,-0.0025658607482910156
1684110622987841500,1.601841552734375,0.9195942282676697,-0.030217647552490234,-0.11341381072998047
1684110622997883400,1.61188330078125,0.5611165761947632,0.038227081298828125,-0.24324560165405273
1684110623007924700,1.6219248046875,0.37886130809783936,-0.06836557388305664,-0.17394161224365234
1684110623017966300,1.63196630859375,0.3142734169960022,0.013449668884277344,-0.033953189849853516
1684110623028008200,1.64200830078125,0.2654595375061035,0.13568735122680664,0.3748030662536621
1684110623038049800,1.6520498046875,0.42856740951538086,0.09125280380249023,0.45150184631347656
1684110623048091400,1.66209130859375,0.360887348651886,-0.04450273513793945,0.5936574935913086
1684110623058133000,1.672133056640625,0.2978961169719696,0.12517690658569336,0.4020085334777832
1684110623068174600,1.682174560546875,0.2042660117149353,2.0487966537475586,-0.5147848129272461
1684110623078216200,1.69221630859375,-0.2244148850440979,-1.1069269180297852,-0.2133922576904297
1684110623088257800,1.7022578125,0.2816639542579651,-1.0516891479492188,-0.15302562713623047
1684110623098299400,1.71229931640625,0.6666145920753479,-0.4019789695739746,-0.15093326568603516
1684110623108341000,1.722341064453125,0.2684359848499298,-0.3524160385131836,0.1327347755432129
1684110623118382600,1.732382568359375,-0.46430039405822754,0.7153496742248535,0.20555591583251953
1684110623128424200,1.742424072265625,-0.4433344006538391,-0.9770069122314453,0.0006914138793945312
1684110623138465800,1.7524658203125,0.49788185954093933,-1.2212729454040527,-0.2501225471496582
1684110623148507400,1.76250732421875,0.9451116323471069,-1.1425590515136719,-0.3512859344482422
1684110623158549000,1.772549072265625,0.6232805848121643,-1.0246763229370117,-0.28873157501220703
1684110623168590600,1.782590576171875,0.12895262241363525,-0.9425888061523438,0.09877872467041016
1684110623178632200,1.792632080078125,-0.1724681258201599,0.0730137825012207,0.4911203384399414
1684110623188673800,1.802673828125,-0.3460066318511963,-0.9384279251098633,0.9657115936279297
1684110623198715400,1.81271533203125,-0.42047953605651855,-1.9213719367980957,1.4591546058654785
1684110623208757200,1.82275732421875,0.2025674283504486,-1.109541416168213,0.8684320449829102
1684110623218798800,1.832798828125,0.4526412785053253,0.16851186752319336,-0.055644989013671875
1684110623228840400,1.84284033203125,0.45824939012527466,0.40479564666748047,-0.6693267822265625
1684110623238882000,1.852882080078125,0.054763346910476685,0.1322498321533203,-0.8993802070617676
1684110623248923600,1.862923583984375,-0.13263767957687378,-1.02449369430542,-0.5281863212585449
1684110623258965200,1.87296533203125,0.13445037603378296,-0.7313051223754883,-0.2606034278869629
1684110623269006800,1.8830068359375,0.21694247424602509,-0.37508487701416016,0.005974769592285156
1684110623279048400,1.89304833984375,0.031966954469680786,-0.34069395065307617,0.13691091537475586
1684110623289090000,1.903090087890625,-0.025697410106658936,-0.18576717376708984,0.2973799705505371
1684110623299131600,1.913131591796875,-0.05221349000930786,-0.0083770751953125,0.45909595489501953
1684110623309173200,1.92317333984375,-0.15127336978912354,0.12920331954956055,0.5100421905517578
1684110623319214800,1.93321484375,-0.08129367232322693,0.08383369445800781,0.5979928970336914
1684110623329256400,1.94325634765625,-0.0037097930908203125,0.2718319892883301,0.513826847076416
1684110623339298000,1.953298095703125,0.002350062131881714,0.2883415222167969,0.28332996368408203
1684110623349339600,1.963339599609375,0.08693328499794006,0.5082435607910156,0.18358993530273438
1684110623359381200,1.97338134765625,0.10790872573852539,0.6055235862731934,0.12005233764648438
1684110623369422800,1.9834228515625,0.009951949119567871,0.5478954315185547,0.10017824172973633
1684110623379464400,1.99346435546875,0.14373044669628143,0.7461380958557129,0.09070014953613281
1684110623389506300,2.00350634765625,0.2519669234752655,0.7448902130126953,0.3449110984802246
1684110623399548000,2.0135478515625,0.3010728061199188,0.705510139465332,0.6145424842834473
1684110623409589500,2.023589599609375,0.40611955523490906,0.7617077827453613,0.6424374580383301
1684110623419631000,2.033631103515625,0.599136471748352,0.7917909622192383,0.8470501899719238
1684110623429672700,2.043672607421875,0.742152214050293,0.7141914367675781,1.1220364570617676
1684110623439714300,2.05371435546875,0.697918713092804,0.7522234916687012,1.1919512748718262
1684110623449756000,2.063755859375,0.4452686905860901,0.9218230247497559,0.7956128120422363
1684110623459797500,2.073797607421875,0.32818397879600525,0.9375743865966797,0.30810546875
1684110623469839000,2.083839111328125,0.2881374955177307,0.8746194839477539,0.1903519630432129
1684110623479880700,2.093880615234375,-0.2398505061864853,0.7383561134338379,0.04294395446777344
1684110623489922300,2.10392236328125,0.6309362649917603,1.104447364807129,0.6889448165893555
1684110623499964000,2.1139638671875,0.711523711681366,0.6496896743774414,1.0729708671569824
1684110623510005500,2.124005615234375,0.33343109488487244,0.6052217483520508,1.105562686920166
1684110623520047000,2.134047119140625,0.13289141654968262,0.6415085792541504,0.8273038864135742
1684110623530088700,2.144088623046875,0.051255203783512115,0.4182009696960449,0.45740318298339844
1684110623540130300,2.15413037109375,0.1510518491268158,0.4483518600463867,0.1603531837463379
1684110623550172000,2.164171875,0.23276710510253906,0.38011789321899414,0.021433353424072266
1684110623560213800,2.1742138671875,0.24344252049922943,0.3009786605834961,0.18665218353271484
1684110623570255400,2.18425537109375,0.1297292858362198,0.2531118392944336,0.4416618347167969
1684110623580297000,2.194296875,0.1536170244216919,0.6031570434570312,0.6786060333251953
1684110623590338600,2.204338623046875,-0.030772216618061066,0.521878719329834,0.6873087882995605
1684110623600380200,2.214380126953125,0.06599260121583939,0.7365789413452148,0.5651650428771973
1684110623610421800,2.224421875,-0.12437137216329575,0.6590838432312012,0.794095516204834
1684110623620463400,2.23446337890625,0.21595391631126404,0.8637919425964355,0.7812881469726562
1684110623630505000,2.2445048828125,0.2878887355327606,0.4419283866882324,-0.021774768829345703
1684110623640546600,2.254546630859375,0.4293045997619629,0.3470768928527832,-0.1382460594177246
1684110623650588200,2.264588134765625,0.9430853128433228,0.4617018699645996,-0.05649232864379883
1684110623660629800,2.274629638671875,1.123668909072876,0.2808260917663574,0.40450286865234375
1684110623670671400,2.28467138671875,1.3040496110916138,0.25047779083251953,0.6124863624572754
1684110623680713000,2.294712890625,1.3845369815826416,0.11369657516479492,0.5006961822509766
1684110623690754600,2.304754638671875,1.4521846771240234,0.041428565979003906,0.3149127960205078
1684110623700796200,2.314796142578125,1.4118027687072754,0.05734443664550781,0.2698392868041992
1684110623710837800,2.324837646484375,1.019691824913025,0.06900882720947266,0.3087143898010254
1684110623720879400,2.33487939453125,0.33678603172302246,0.12399435043334961,0.45996522903442383
1684110623730921000,2.3449208984375,-0.12195086479187012,0.2896904945373535,0.5476078987121582
1684110623740962800,2.354962890625,-0.4910736680030823,0.2868170738220215,0.4652433395385742
1684110623751004400,2.36500439453125,-0.7540477514266968,0.5841584205627441,-0.02570343017578125
1684110623761046000,2.3750458984375,-0.6854988932609558,0.19564580917358398,-0.11292409896850586
1684110623771087600,2.385087646484375,-0.48078078031539917,0.04591798782348633,-0.27130126953125
1684110623781129200,2.395129150390625,0.5456219911575317,4.0842695236206055,-0.8672223091125488
1684110623791170800,2.4051708984375,0.5175986289978027,1.5806632041931152,-2.6907386779785156
1684110623801212400,2.41521240234375,0.8507360816001892,-2.122798442840576,-1.7455415725708008
1684110623811254000,2.42525390625,0.5072410106658936,-1.518463134765625,-0.8115444183349609
1684110623821295600,2.435295654296875,0.5956718325614929,-0.0783243179321289,0.14412212371826172
1684110623831337200,2.445337158203125,0.8461939692497253,0.01757526397705078,0.547569751739502
1684110623841378800,2.45537890625,0.8964629769325256,-0.21982479095458984,0.5084853172302246
1684110623851420400,2.46542041015625,1.0019842386245728,-0.5757589340209961,0.7095127105712891
1684110623861462000,2.4754619140625,0.8430303335189819,-0.6750025749206543,0.9776620864868164
1684110623871503600,2.485503662109375,0.6145410537719727,-0.4946322441101074,1.1857943534851074
1684110623881545500,2.49554541015625,0.2781983017921448,-0.27344655990600586,1.0774965286254883
1684110623891587000,2.505587158203125,-0.16462218761444092,-0.6975975036621094,0.7511553764343262
1684110623901628700,2.515628662109375,-0.4795311689376831,-0.8090171813964844,0.419832706451416
1684110623911670300,2.525670166015625,-0.41568857431411743,-0.7400031089782715,0.2138957977294922
1684110623921711900,2.5357119140625,-0.1939898133277893,-0.833472728729248,0.12704801559448242
1684110623931753500,2.54575341796875,-0.023402035236358643,-0.8402442932128906,0.2093663215637207
1684110623941795000,2.555795166015625,-0.007456481456756592,-0.5597772598266602,0.24496173858642578
1684110623951836700,2.565836669921875,-0.10215646028518677,-0.6658811569213867,0.10516357421875
1684110623961878300,2.575878173828125,-0.30264073610305786,-0.8818702697753906,-0.15027713775634766
1684110623971920000,2.585919921875,-0.134321928024292,-1.3721208572387695,-0.4011378288269043
1684110623981961500,2.59596142578125,0.0903826355934143,-1.2234325408935547,-0.7376899719238281
1684110623992003000,2.606003173828125,-0.1154664158821106,0.16401004791259766,-1.808638095855713
1684110624002044700,2.616044677734375,-0.10347884893417358,-0.14029645919799805,-1.6830296516418457
1684110624012086300,2.626086181640625,0.20907187461853027,-0.22864151000976562,-0.8172245025634766
1684110624022128000,2.636128173828125,0.40523040294647217,0.4810371398925781,-1.2283601760864258
1684110624032169700,2.646169677734375,-0.3912197947502136,-0.117706298828125,-0.7889919281005859
1684110624042211300,2.65621142578125,-0.5762991309165955,-0.3590564727783203,0.015958309173583984
1684110624052253000,2.6662529296875,-0.043080031871795654,1.2669553756713867,-0.019052982330322266
1684110624062294500,2.67629443359375,-0.6717816591262817,1.7209224700927734,-0.8266391754150391
1684110624072336100,2.686336181640625,-1.4665594100952148,0.8579111099243164,-1.2634539604187012
1684110624082377700,2.696377685546875,-1.4863200187683105,2.228069305419922,-1.9873943328857422
1684110624092419300,2.70641943359375,-1.5915724039077759,0.41688013076782227,-2.1417932510375977
1684110624102461000,2.7164609375,-1.2764804363250732,-0.2917633056640625,-1.647972583770752
1684110624112502500,2.72650244140625,-0.5893892049789429,-0.6060142517089844,-0.5933961868286133
1684110624122544000,2.736544189453125,0.0759318470954895,-0.49776744842529297,0.45280981063842773
1684110624132585700,2.746585693359375,0.29676932096481323,-0.6933050155639648,0.8010058403015137
1684110624142627300,2.75662744140625,0.04407763481140137,-0.6120643615722656,0.8579268455505371
1684110624152669000,2.7666689453125,-0.49186408519744873,-0.5307292938232422,0.8566646575927734
1684110624162710800,2.776710693359375,-0.9641003608703613,-0.38160133361816406,0.8589434623718262
1684110624172752400,2.78675244140625,-1.0956073999404907,-0.3469505310058594,0.7363357543945312
1684110624182794000,2.7967939453125,-0.7043410539627075,-0.8274936676025391,0.8985996246337891
1684110624192835600,2.806835693359375,0.014942049980163574,-0.8778305053710938,1.1741185188293457
1684110624202877200,2.816877197265625,0.43198347091674805,-0.8445835113525391,1.2645721435546875
1684110624212918800,2.826918701171875,0.3050241470336914,-0.7428522109985352,0.7526617050170898
1684110624222960400,2.83696044921875,-0.12279915809631348,-0.6790399551391602,-0.017518043518066406
1684110624233002000,2.847001953125,-0.16637349128723145,-0.674046516418457,-0.5930571556091309
1684110624243043600,2.857043701171875,-0.02869892120361328,-0.2835531234741211,-1.3504548072814941
1684110624253085200,2.867085205078125,0.18221473693847656,-0.1890420913696289,-2.0459299087524414
1684110624263126800,2.877126708984375,0.47128748893737793,-0.11516094207763672,-2.526611566543579
1684110624273168400,2.88716845703125,0.9291133880615234,-0.12417411804199219,-2.934860944747925
1684110624283210000,2.8972099609375,1.2197699546813965,0.14128494262695312,-3.0764403343200684
1684110624293251600,2.90725146484375,1.3659418821334839,0.2498760223388672,-2.859255313873291
1684110624303293400,2.91729345703125,1.243138313293457,0.29499340057373047,-2.48171067237854
1684110624313335000,2.9273349609375,0.867790699005127,-0.4712390899658203,-1.8368937969207764
1684110624323376600,2.937376708984375,0.6577973365783691,-1.2302980422973633,-1.1347925662994385
1684110624333418200,2.947418212890625,0.55419921875,-1.3851261138916016,-0.17943906784057617
1684110624343459800,2.9574599609375,0.46955251693725586,-1.3580408096313477,0.5360450744628906
1684110624353501400,2.96750146484375,0.5178287029266357,-1.0975008010864258,1.1622371673583984
1684110624363543000,2.97754296875,0.8318338394165039,-1.0179157257080078,1.699866771697998
1684110624373584600,2.987584716796875,1.5489016771316528,-0.5283565521240234,2.119616985321045
1684110624383626200,2.997626220703125,1.6349550485610962,-1.0300121307373047,1.9947259426116943
1684110624393667800,3.007667724609375,1.6173523664474487,-1.1193828582763672,1.5296003818511963
1684110624403709400,3.01770947265625,1.5028269290924072,-0.8806056976318359,0.9534249305725098
1684110624413751000,3.0277509765625,1.2922760248184204,-0.7487974166870117,0.23759913444519043
1684110624423792600,3.037792724609375,1.0061192512512207,-0.49321460723876953,-0.41389012336730957
1684110624433834200,3.047834228515625,0.6923835277557373,-0.19784832000732422,-0.8563916683197021
1684110624443876000,3.0578759765625,0.4293057918548584,0.07489871978759766,-1.1231563091278076
1684110624453917700,3.067917724609375,0.2942337989807129,0.22723007202148438,-1.1239619255065918
1684110624463959300,3.077959228515625,0.18839263916015625,0.23597335815429688,-1.0223872661590576
1684110624474001000,3.0880009765625,0.11802315711975098,0.1529369354248047,-0.9886019229888916
1684110624484042500,3.09804248046875,0.10500264167785645,0.19211196899414062,-1.0479624271392822
1684110624494084000,3.108083984375,-0.03151345252990723,0.009311676025390625,-0.7800741195678711
1684110624504125700,3.118125732421875,-0.25653934478759766,0.4839906692504883,-0.5252385139465332
1684110624514167300,3.128167236328125,-1.1733036041259766,0.4194192886352539,-0.008726119995117188
1684110624524209000,3.138208984375,-1.2623624801635742,0.8357782363891602,0.036623477935791016
1684110624534250500,3.14825048828125,-1.5924522876739502,-0.05753040313720703,-0.14670014381408691
1684110624544292400,3.158292236328125,-1.5443251132965088,-0.8332901000976562,-0.30777907371520996
1684110624554334000,3.168333984375,-0.9499313831329346,-1.1752586364746094,-0.49403858184814453
1684110624564375600,3.17837548828125,-0.21820282936096191,-0.9496707916259766,-0.6751570701599121
1684110624574417200,3.188417236328125,0.21695995330810547,-0.8111343383789062,-0.6547021865844727
1684110624584458800,3.198458740234375,0.5191304683685303,-0.3589649200439453,-0.36514782905578613
1684110624594500400,3.208500244140625,0.5268876552581787,0.24631023406982422,-0.3697059154510498
1684110624604542000,3.2185419921875,0.2554283142089844,0.29775142669677734,-0.5279731750488281
1684110624614583600,3.22858349609375,0.218017578125,0.15035533905029297,-0.33644938468933105
1684110624624625200,3.238625244140625,0.3614978790283203,0.37434864044189453,-0.41773414611816406
1684110624634666800,3.248666748046875,0.43561458587646484,0.2938709259033203,-0.3817267417907715
1684110624644708400,3.258708251953125,0.5235118865966797,0.16678333282470703,-0.25017571449279785
1684110624654750000,3.26875,0.6446454524993896,0.18886661529541016,-0.19748902320861816
1684110624664791600,3.27879150390625,0.7964191436767578,0.3832063674926758,0.004904270172119141
1684110624674833200,3.288833251953125,0.9436643123626709,0.3890867233276367,0.20285463333129883
1684110624684875000,3.298875,1.0114738941192627,0.26148319244384766,0.27288246154785156
1684110624694916600,3.30891650390625,0.9746408462524414,0.2885303497314453,0.0326690673828125
1684110624704958200,3.318958251953125,0.6030969619750977,0.3441162109375,-0.22401642799377441
1684110624714999800,3.328999755859375,0.26999592781066895,0.33023834228515625,-0.4100770950317383
1684110624725041400,3.33904150390625,0.10384464263916016,0.46567344665527344,-0.4486730098724365
1684110624735083000,3.3490830078125,0.039662837982177734,0.48693227767944336,-0.41715383529663086
1684110624745124600,3.35912451171875,-0.13354992866516113,1.3833518028259277,0.1235952377319336
1684110624755166200,3.369166259765625,-0.5378444194793701,1.3881425857543945,0.21569061279296875
1684110624765207800,3.379207763671875,-0.4415926933288574,-0.36484432220458984,-0.45452451705932617
1684110624775249400,3.38924951171875,0.17022371292114258,-0.8609218597412109,-0.5980870723724365
1684110624785291300,3.399291259765625,0.5561890602111816,-0.5532312393188477,-0.4638662338256836
1684110624795332900,3.409332763671875,0.4872171878814697,0.10761356353759766,-0.29037904739379883
1684110624805374500,3.41937451171875,0.1921706199645996,0.1502389907836914,-0.262052059173584
1684110624815416000,3.429416015625,-0.037095069885253906,-0.09582710266113281,-0.2947535514831543
1684110624825457700,3.439457763671875,0.08924603462219238,-0.006682395935058594,-0.4374537467956543
1684110624835499300,3.449499267578125,-0.19122695922851562,-0.2610969543457031,-0.4951019287109375
1684110624845540900,3.459540771484375,-0.1537468433380127,-0.12192821502685547,-0.6276204586029053
1684110624855582500,3.46958251953125,-0.16849040985107422,-0.07647418975830078,-0.8528444766998291
1684110624865624000,3.4796240234375,-0.10056281089782715,-0.11314678192138672,-1.1576204299926758
1684110624875665700,3.489665771484375,-0.07546830177307129,-0.1009683609008789,-1.3804283142089844
1684110624885707300,3.499707275390625,-0.20709943771362305,-0.1323699951171875,-1.5782325267791748
1684110624895749000,3.5097490234375,-0.4909389019012451,-0.29096508026123047,-1.620448350906372
1684110624905790700,3.519790771484375,-0.8242702484130859,-0.46958160400390625,-1.4729900360107422
1684110624915832300,3.529832275390625,-1.0467092990875244,-0.6595172882080078,-1.1903142929077148
1684110624925874000,3.5398740234375,-1.2241828441619873,-0.7413959503173828,-0.9314115047454834
1684110624935915500,3.54991552734375,-1.6813714504241943,-0.841273307800293,-0.9430747032165527
1684110624945957000,3.55995703125,-2.2423906326293945,-1.0470294952392578,-0.3923673629760742
1684110624955998700,3.569998779296875,-2.7891845703125,-0.7454586029052734,0.2718627452850342
1684110624966040300,3.580040283203125,-3.359511375427246,-0.735600471496582,0.7038102149963379
1684110624976082000,3.59008203125,-3.470714569091797,-0.8097829818725586,1.2235052585601807
1684110624986123500,3.60012353515625,-3.3768999576568604,-0.5889930725097656,1.6245520114898682
1684110624996165000,3.6101650390625,-2.959695339202881,0.10280036926269531,1.7706973552703857
1684110625006206700,3.620206787109375,-1.8034663200378418,-1.217207908630371,1.897439956665039
1684110625016248300,3.630248291015625,-0.3779764175415039,-1.2055931091308594,2.1231448650360107
1684110625026290200,3.640290283203125,0.9793742895126343,-0.7885379791259766,2.2152161598205566
1684110625036331800,3.650331787109375,2.024718761444092,-0.22887134552001953,1.5122435092926025
1684110625046373400,3.660373291015625,2.394533157348633,-0.020177841186523438,1.265427589416504
1684110625056415000,3.6704150390625,2.8403592109680176,0.3441457748413086,0.8996152877807617
1684110625066456600,3.68045654296875,3.293964385986328,0.4703636169433594,0.2267751693725586
1684110625076498200,3.690498291015625,3.444538116455078,0.44997310638427734,0.02432703971862793
1684110625086539800,3.700539794921875,3.2386133670806885,0.445648193359375,0.003226757049560547
1684110625096581400,3.710581298828125,2.8677332401275635,0.3552417755126953,0.0219724178314209
1684110625106623000,3.720623046875,2.449103355407715,0.4017753601074219,-0.040917396545410156
1684110625116664600,3.73066455078125,1.9898360967636108,0.3926544189453125,-0.21010875701904297
1684110625126706400,3.74070654296875,1.6304740905761719,0.4061412811279297,-0.30385565757751465
1684110625136748000,3.750748046875,1.2696375846862793,0.47749805450439453,-0.24042582511901855
1684110625146789600,3.76078955078125,0.8540301322937012,0.34781932830810547,0.02490973472595215
1684110625156831200,3.770831298828125,0.3692662715911865,0.14047813415527344,0.36090850830078125
1684110625166872800,3.780872802734375,-0.37374424934387207,-0.05019378662109375,0.5707802772521973
1684110625176914400,3.79091455078125,-1.242922306060791,-0.2259683609008789,0.695408821105957
1684110625186956000,3.8009560546875,-1.7966358661651611,-0.15398883819580078,0.7311289310455322
1684110625196997600,3.81099755859375,-1.510925531387329,0.049449920654296875,0.36722421646118164
1684110625207039200,3.821039306640625,-0.626492977142334,0.21752166748046875,-0.3903515338897705
1684110625217080800,3.831080810546875,0.0561528205871582,-0.3640727996826172,-1.0316674709320068
1684110625227122400,3.841122314453125,0.7347248792648315,-0.2532062530517578,-0.9908466339111328
1684110625237164300,3.851164306640625,1.122607707977295,-0.04228496551513672,-0.8010292053222656
1684110625247206000,3.861205810546875,1.3786451816558838,-0.04948234558105469,-0.793384313583374
1684110625257247500,3.87124755859375,1.468489408493042,-0.16152667999267578,-0.9566266536712646
1684110625267289000,3.8812890625,1.4900104999542236,-0.23007869720458984,-1.0350966453552246
1684110625277330700,3.89133056640625,1.6062190532684326,-0.23635101318359375,-1.0030419826507568
1684110625287372300,3.901372314453125,1.6568812131881714,-0.14586734771728516,-1.0953614711761475
1684110625297414000,3.911413818359375,1.3994985818862915,-0.11586189270019531,-1.263139247894287
1684110625307455500,3.92145556640625,1.125578761100769,-0.12203121185302734,-1.3098562955856323
1684110625317497000,3.9314970703125,0.6857506036758423,-0.2319326400756836,-1.2181133031845093
1684110625327538700,3.94153857421875,0.3276200294494629,-0.28617382049560547,-0.9826445579528809
1684110625337580500,3.95158056640625,0.15094590187072754,-0.4117240905761719,-0.6986355781555176
1684110625347622100,3.9616220703125,-0.016754865646362305,-0.3224220275878906,-0.4746675491333008
1684110625357663700,3.971663818359375,-0.002584218978881836,-0.12378787994384766,-0.3876662254333496
1684110625367705300,3.981705322265625,0.3191986083984375,-0.12300872802734375,-0.34000182151794434
1684110625377747000,3.991746826171875,0.42159008979797363,-0.11264228820800781,-0.2742042541503906
1684110625387788500,4.00178857421875,0.8752440810203552,0.2088470458984375,0.06448721885681152
1684110625397830100,4.011830078125,1.1271908283233643,0.22960281372070312,0.07853031158447266
1684110625407871700,4.021871826171875,1.4436030387878418,0.22276592254638672,0.19347524642944336
1684110625417913300,4.031913330078125,1.6941784620285034,0.20961475372314453,0.3147401809692383
1684110625427955200,4.041955078125,1.6612424850463867,0.1488351821899414,0.423412561416626
1684110625437996800,4.051996826171875,1.425195574760437,0.13308238983154297,0.3394455909729004
1684110625448038400,4.062038330078125,1.2884029150009155,0.03801441192626953,0.35070323944091797
1684110625458080000,4.072080078125,1.0310404300689697,-0.12720584869384766,0.3826467990875244
1684110625468121600,4.08212158203125,0.8548682332038879,-0.23623085021972656,0.36876797676086426
1684110625478163200,4.0921630859375,0.7970572113990784,-0.30736446380615234,0.2952573299407959
1684110625488204800,4.102204833984375,0.6793588399887085,-0.33141136169433594,0.14426946640014648
1684110625498246400,4.112246337890625,0.7612934112548828,-0.21890640258789062,0.19889283180236816
1684110625508288000,4.1222880859375,0.6807275414466858,-0.40789222717285156,0.07744693756103516
1684110625518329600,4.13232958984375,1.2589380741119385,0.29677772521972656,-0.46173882484436035
1684110625528371500,4.142371337890625,0.5453696250915527,-0.41680431365966797,-1.0068985223770142
1684110625538413000,4.1524130859375,0.003641963005065918,-0.883906364440918,-1.3587875366210938
1684110625548454700,4.16245458984375,-0.17356789112091064,-0.4812355041503906,-1.4015523195266724
1684110625558496300,4.172496337890625,-0.4843392074108124,0.4401082992553711,-1.317336916923523
1684110625568537900,4.182537841796875,-0.6271817088127136,-0.15453529357910156,-1.2494240999221802
1684110625578579500,4.192579345703125,-0.8151943683624268,-0.3819713592529297,-0.9717764854431152
1684110625588621000,4.20262109375,-0.5317674875259399,-0.15686702728271484,-0.660376787185669
1684110625598662700,4.21266259765625,-0.10504645109176636,0.18104076385498047,-0.6033384799957275
1684110625608704300,4.222704345703125,0.223656564950943,0.005786895751953125,-0.4709134101867676
1684110625618745900,4.232745849609375,0.7974333763122559,0.10499382019042969,-0.2972991466522217
1684110625628787700,4.24278759765625,1.1675798892974854,-0.05676460266113281,-0.1467573642730713
1684110625638829300,4.252829345703125,1.4317134618759155,-0.14023685455322266,0.04069781303405762
1684110625648871000,4.262870849609375,1.584399938583374,-0.20294189453125,0.035492658615112305
1684110625658912500,4.27291259765625,1.4582173824310303,-0.19205856323242188,-0.10327363014221191
1684110625668954000,4.2829541015625,1.1625001430511475,-0.1861410140991211,-0.28035712242126465
1684110625678995700,4.29299560546875,0.9458174109458923,-0.11319446563720703,-0.3868119716644287
1684110625689037300,4.303037353515625,0.7833124399185181,-0.0428466796875,-0.35671019554138184
1684110625699079000,4.313078857421875,0.6275851726531982,0.0010833740234375,-0.3382713794708252
1684110625709120500,4.32312060546875,0.583206057548523,0.057190895080566406,-0.26348185539245605
1684110625719162000,4.333162109375,0.5390979647636414,0.048928260803222656,-0.18548369407653809
1684110625729204000,4.343203857421875,0.49771296977996826,0.05536937713623047,-0.19234275817871094
1684110625739245600,4.35324560546875,0.48106274008750916,0.05730628967285156,-0.10981488227844238
1684110625749287200,4.363287109375,0.4489838480949402,-0.03404045104980469,-0.07586932182312012
1684110625759328800,4.373328857421875,0.4327514171600342,-0.09926605224609375,-0.08168745040893555
1684110625769370400,4.383370361328125,0.4599344730377197,-0.12636566162109375,-0.07178640365600586
1684110625779412000,4.393411865234375,0.5021964907646179,-0.15106201171875,0.00469207763671875
1684110625789453600,4.40345361328125,0.6005556583404541,-0.018161773681640625,0.05917930603027344
1684110625799495200,4.4134951171875,0.4590984880924225,-0.23275375366210938,0.13399124145507812
1684110625809536800,4.423536865234375,0.5820717215538025,0.03307056427001953,0.06723427772521973
1684110625819578400,4.433578369140625,0.5987032055854797,-0.019609451293945312,0.12639689445495605
1684110625829620200,4.4436201171875,0.6338784694671631,-0.03206920623779297,0.01872086524963379
1684110625839661800,4.453661865234375,0.8884468078613281,0.4573974609375,0.07769370079040527
1684110625849703400,4.463703369140625,0.8315286040306091,0.04738903045654297,0.0063974857330322266
1684110625859745000,4.4737451171875,0.9587973952293396,0.05667400360107422,-0.09676194190979004
1684110625869786600,4.48378662109375,1.1289677619934082,0.2773294448852539,0.024814367294311523
1684110625879828200,4.493828125,0.9425539970397949,0.04058551788330078,0.10029792785644531
1684110625889869800,4.503869873046875,0.8910236358642578,0.20076847076416016,-0.06832623481750488
1684110625899911400,4.513911376953125,0.8269386291503906,0.26086997985839844,0.023822307586669922
1684110625909953300,4.523953369140625,0.7133135795593262,0.24213314056396484,0.1687755584716797
1684110625919995000,4.533994873046875,0.5881803631782532,0.23047542572021484,0.2292468547821045
1684110625930036500,4.544036376953125,0.5266612768173218,0.16762542724609375,0.4238898754119873
1684110625940078000,4.554078125,0.1689569354057312,1.4567995071411133,1.0876131057739258
1684110625950119700,4.56411962890625,0.08165504038333893,0.41071605682373047,0.7016911506652832
1684110625960161300,4.574161376953125,0.3188796937465668,-0.53656005859375,0.4246180057525635
1684110625970203000,4.584202880859375,0.6352421045303345,-0.7831897735595703,0.19247651100158691
1684110625980244500,4.594244384765625,0.8601545095443726,-0.6671018600463867,-0.04550480842590332
1684110625990286000,4.6042861328125,0.9439458847045898,-0.5853204727172852,-0.1879427433013916
1684110626000327700,4.61432763671875,1.034963607788086,-0.3615236282348633,-0.10078144073486328
1684110626010369500,4.62436962890625,0.9932801723480225,-0.2903871536254883,0.01269984245300293
1684110626020411100,4.6344111328125,1.0185307264328003,-0.3574647903442383,0.0846562385559082
1684110626030452700,4.64445263671875,0.9860198497772217,-0.3740978240966797,0.15929913520812988
1684110626040494300,4.654494384765625,0.8853648900985718,-0.25716400146484375,0.13273882865905762
1684110626050536000,4.664535888671875,0.7362222671508789,-0.1288747787475586,0.045562744140625
1684110626060577500,4.67457763671875,0.6561715602874756,-0.09193706512451172,-0.04237675666809082
1684110626070619100,4.684619140625,0.5948857665061951,-0.10879230499267578,-0.12003493309020996
1684110626080660700,4.69466064453125,0.5459452867507935,-0.09481620788574219,-0.23653459548950195
1684110626090702300,4.704702392578125,0.49698883295059204,-0.11159896850585938,-0.20472407341003418
1684110626100744000,4.714743896484375,0.5324816703796387,-0.15647602081298828,-0.20675277709960938
1684110626110785800,4.724785888671875,0.6528392434120178,-0.05939197540283203,-0.1827399730682373
1684110626120827400,4.734827392578125,0.5733280181884766,0.06180286407470703,-0.17110753059387207
1684110626130869000,4.744868896484375,0.3538057804107666,0.07021236419677734,-0.24679994583129883
1684110626140910600,4.75491064453125,0.15975335240364075,0.026641845703125,-0.19385242462158203
1684110626150952200,4.7649521484375,-0.04116190969944,0.07564449310302734,-0.09185957908630371
1684110626160993800,4.774993896484375,-0.1106414645910263,0.6090316772460938,-0.1459522247314453
1684110626171035400,4.785035400390625,-0.3187216520309448,0.3175468444824219,0.02126479148864746
1684110626181077200,4.7950771484375,-0.2496197521686554,-0.11141586303710938,0.1721963882446289
1684110626191118800,4.805118896484375,0.060003191232681274,-0.22461700439453125,0.35203099250793457
1684110626201160400,4.815160400390625,0.42857998609542847,-0.014179229736328125,0.22164154052734375
1684110626211202000,4.8252021484375,0.655726432800293,0.03759002685546875,0.05391049385070801
1684110626221243600,4.83524365234375,0.7513856887817383,-0.05037689208984375,-0.07534050941467285
1684110626231285200,4.84528515625,0.7225738763809204,-0.16096210479736328,-0.03444194793701172
1684110626241326800,4.855326904296875,0.5610095262527466,0.02205944061279297,-0.05983853340148926
1684110626251368400,4.865368408203125,0.2756105363368988,0.13916397094726562,-0.1185307502746582
1684110626261410000,4.87541015625,-0.02381017804145813,0.08792495727539062,-0.042786359786987305
1684110626271451600,4.88545166015625,-0.25492191314697266,0.056801795959472656,0.2099933624267578
1684110626281493500,4.895493408203125,-0.4249621033668518,0.01925182342529297,0.5069789886474609
1684110626291535000,4.90553515625,-0.49388909339904785,-0.057648658752441406,0.787276029586792
1684110626301576700,4.91557666015625,-0.3384246528148651,-0.19517040252685547,1.022071123123169
1684110626311618300,4.925618408203125,0.010790407657623291,-0.08657646179199219,0.945648193359375
1684110626321660000,4.935659912109375,0.2760390341281891,-0.13799285888671875,0.582878828048706
1684110626331701500,4.945701416015625,0.46087968349456787,-0.17677021026611328,0.24008655548095703
1684110626341743000,4.9557431640625,0.7236001491546631,0.2731466293334961,-0.01780414581298828
1684110626351784700,4.96578466796875,0.5242950916290283,-0.2988395690917969,-0.09074568748474121
1684110626361826300,4.975826416015625,0.49558025598526,-0.20480823516845703,-0.1426377296447754
1684110626371868200,4.9858681640625,0.5493184328079224,-0.06316852569580078,-0.18756604194641113
1684110626381909800,4.99590966796875,0.6258094310760498,0.0500946044921875,-0.23883676528930664
1684110626391951400,5.005951416015625,0.5249349474906921,0.12141132354736328,-0.29324984550476074
1684110626401993000,5.015992919921875,0.34479716420173645,0.11833763122558594,-0.3399543762207031
1684110626412034600,5.02603466796875,0.27805522084236145,0.14779949188232422,-0.32190191745758057
1684110626422076200,5.036076171875,0.255935400724411,0.3340110778808594,-0.3747258186340332
1684110626432117800,5.04611767578125,0.15004920959472656,0.42261600494384766,-0.43292558193206787
1684110626442159400,5.056159423828125,-0.0754828155040741,0.40114784240722656,-0.3456850051879883
1684110626452201000,5.066200927734375,-0.1372811198234558,0.3100414276123047,-0.34995412826538086
1684110626462242800,5.076242919921875,-0.26982271671295166,0.3484468460083008,-0.22959494590759277
1684110626472284400,5.086284423828125,-0.4312940537929535,0.58245849609375,-0.12592148780822754
1684110626482326000,5.096325927734375,-0.6205655932426453,0.6723537445068359,-0.004093170166015625
1684110626492367600,5.10636767578125,-0.7469510436058044,1.0108718872070312,0.22930049896240234
1684110626502409200,5.1164091796875,-0.8393203020095825,0.8778524398803711,0.4212355613708496
1684110626512450800,5.126450927734375,-0.5568321943283081,0.6251745223999023,0.4586045742034912
1684110626522492400,5.136492431640625,-0.3317019045352936,0.15271663665771484,0.5419886112213135
1684110626532534000,5.146533935546875,-0.05482867360115051,-0.3629131317138672,0.5162198543548584
1684110626542575600,5.15657568359375,0.2106182873249054,-0.832249641418457,0.4079883098602295
1684110626552617500,5.166617431640625,0.4214986264705658,-1.0017290115356445,0.1602036952972412
1684110626562659000,5.1766591796875,0.6026582717895508,-0.9976606369018555,-0.17736434936523438
1684110626572700700,5.18670068359375,0.6548586487770081,-0.9933805465698242,-0.4934743642807007
1684110626582742300,5.1967421875,0.664673388004303,-0.7275123596191406,-0.7336443662643433
1684110626592784000,5.206783935546875,0.6203415989875793,-0.6207523345947266,-0.8303322792053223
1684110626602825500,5.216825439453125,0.5410739183425903,-0.6254606246948242,-0.8172343969345093
1684110626612867000,5.2268671875,0.43210360407829285,-0.5410642623901367,-0.8319950103759766
1684110626622908700,5.23690869140625,0.20744329690933228,-0.20557785034179688,-0.7653800249099731
1684110626632950500,5.246950439453125,-0.03392798826098442,0.10802650451660156,-0.6156694889068604
1684110626642992000,5.2569921875,-0.1820187121629715,0.39275360107421875,-0.3898930549621582
1684110626653033700,5.26703369140625,-0.19190646708011627,0.5321407318115234,-0.16260957717895508
1684110626663075300,5.277075439453125,-0.09633844345808029,0.5907707214355469,0.13205838203430176
1684110626673117000,5.287116943359375,0.07624976336956024,0.6927824020385742,0.3498349189758301
1684110626683158500,5.297158447265625,0.23697946965694427,0.7760114669799805,0.4506673812866211
1684110626693200100,5.3072001953125,0.3376549780368805,0.6400728225708008,0.6292281150817871
1684110626703241700,5.31724169921875,0.3615182638168335,0.48602962493896484,0.7274730205535889
1684110626713283300,5.327283447265625,0.3832959532737732,0.3664722442626953,0.755495548248291
1684110626723325200,5.3373251953125,0.2794598937034607,0.1424093246459961,0.6950701475143433
1684110626733366800,5.34736669921875,-0.0026016905903816223,-0.14373493194580078,0.5420544147491455
1684110626743408400,5.357408447265625,-0.1408219337463379,-0.2080516815185547,0.35602378845214844
1684110626753450000,5.367449951171875,-0.11190175265073776,-0.1539163589477539,0.1458197832107544
1684110626763491600,5.37749169921875,-0.05762561783194542,-0.04835987091064453,-0.07090425491333008
1684110626773533200,5.387533203125,0.022513173520565033,0.04444599151611328,-0.2989215850830078
1684110626783574800,5.39757470703125,0.04555078595876694,-0.08023262023925781,-0.33922135829925537
1684110626793616400,5.407616455078125,-0.04458297789096832,-0.09432411193847656,-0.31454765796661377
1684110626803658200,5.417658203125,-0.11314035952091217,-0.05024528503417969,-0.33736157417297363
1684110626813699800,5.427699951171875,-0.1856699287891388,0.009140968322753906,-0.39856624603271484
1684110626823741400,5.437741455078125,-0.17751161754131317,0.1221923828125,-0.39618074893951416
1684110626833783000,5.447782958984375,-0.048384882509708405,0.33650875091552734,-0.2866412401199341
1684110626843824600,5.45782470703125,0.14833927154541016,0.6587486267089844,-0.1085350513458252
1684110626853866200,5.4678662109375,0.1867486983537674,0.8018112182617188,-0.048061370849609375
1684110626863907800,5.477907958984375,0.003983452916145325,0.6110219955444336,-0.3099170923233032
1684110626873949400,5.487949462890625,-0.15543827414512634,0.330841064453125,-0.434786319732666
1684110626883991000,5.497990966796875,-0.19366073608398438,0.22638607025146484,-0.4502987861633301
1684110626894033000,5.508032958984375,-0.1774807870388031,0.1367340087890625,-0.38808494806289673
1684110626904074500,5.518074462890625,-0.1639389842748642,0.21631240844726562,-0.2530743479728699
1684110626914116000,5.5281162109375,0.05744895339012146,0.2705087661743164,-0.20033448934555054
1684110626924157700,5.53815771484375,0.04527556896209717,0.30829906463623047,-0.07288375496864319
1684110626934199300,5.54819921875,0.1197918951511383,0.24083614349365234,0.0033216476440429688
1684110626944241000,5.558240966796875,0.17504313588142395,0.1421661376953125,0.04056261479854584
1684110626954282500,5.568282470703125,0.3409439027309418,0.27483177185058594,-0.009417680092155933
1684110626964324000,5.578323974609375,0.6093311309814453,0.47286319732666016,0.021674320101737976
1684110626974366000,5.588365966796875,0.6537512540817261,0.45830726623535156,0.15407752990722656
1684110626984407600,5.598407470703125,0.5070078372955322,0.23615264892578125,0.31184667348861694
1684110626994449200,5.60844921875,0.3510688245296478,-0.1901378631591797,0.5340913534164429
1684110627004490800,5.61849072265625,0.23120903968811035,-0.4770212173461914,0.7479140758514404
1684110627014532400,5.628532470703125,0.16571342945098877,-0.6944007873535156,0.9246628284454346
1684110627024574000,5.638573974609375,0.12080085277557373,-0.7951889038085938,0.953665018081665
1684110627034615600,5.648615478515625,0.1953536868095398,-0.8357963562011719,0.8265420198440552
1684110627044657200,5.6586572265625,0.25041550397872925,-0.8802394866943359,0.529931902885437
1684110627054698800,5.66869873046875,0.29542994499206543,-0.7946596145629883,0.10212993621826172
1684110627064740600,5.67874072265625,-0.02258238196372986,-0.6417770385742188,-0.4079188108444214
1684110627074782200,5.6887822265625,-0.46761220693588257,-0.4915494918823242,-1.0196729898452759
1684110627084823800,5.69882373046875,-0.6921563148498535,-0.30632877349853516,-1.6394685506820679
1684110627094865400,5.708865478515625,-0.7780570387840271,-0.2388172149658203,-1.8913977146148682
1684110627104907000,5.718906982421875,-0.670416533946991,0.05461692810058594,-2.0912082195281982
1684110627114948600,5.728948486328125,-0.5240322351455688,0.35448265075683594,-2.3547773361206055
1684110627124990200,5.738990234375,-0.3923865556716919,0.4639415740966797,-2.4461631774902344
1684110627135031800,5.74903173828125,-0.24457880854606628,0.4023933410644531,-2.300949811935425
1684110627145073400,5.759073486328125,-0.08679866790771484,0.3329429626464844,-1.9278322458267212
1684110627155115300,5.769115234375,0.056918978691101074,0.20554447174072266,-1.5796363353729248
1684110627165156900,5.779156982421875,0.1434262990951538,0.09203910827636719,-1.1253938674926758
1684110627175198500,5.789198486328125,0.17698287963867188,0.042937278747558594,-0.636690616607666
1684110627185240000,5.799239990234375,0.14486786723136902,-0.013194084167480469,-0.28275930881500244
1684110627195281700,5.80928173828125,0.15237733721733093,-0.033295631408691406,-0.0994713306427002
1684110627205323300,5.8193232421875,0.15522438287734985,0.008710861206054688,0.004632234573364258
1684110627215364900,5.82936474609375,0.15191400051116943,0.03631019592285156,0.15309584140777588
1684110627225406700,5.83940673828125,0.1487569808959961,0.06158924102783203,0.2732750177383423
1684110627235448300,5.8494482421875,0.1123613715171814,0.0726613998413086,0.32920992374420166
1684110627245490000,5.859489990234375,0.07981374859809875,0.09110069274902344,0.356947660446167
1684110627255531500,5.869531494140625,0.06658777594566345,0.1216726303100586,0.37834346294403076
1684110627265573000,5.879572998046875,0.0706968903541565,0.04254341125488281,0.35300445556640625
1684110627275614700,5.88961474609375,0.14140328764915466,-0.03384685516357422,0.312343955039978
1684110627285656300,5.89965625,0.19133570790290833,-0.06217002868652344,0.27303361892700195
1684110627295698000,5.909697998046875,0.20081838965415955,-0.05452251434326172,0.16831815242767334
1684110627305739500,5.919739501953125,0.15188142657279968,0.010495185852050781,0.08937156200408936
1684110627315781000,5.929781005859375,0.0887976586818695,0.05152130126953125,0.019861936569213867
1684110627325823000,5.939822998046875,0.09100386500358582,0.08296680450439453,-0.06411552429199219
1684110627335864600,5.949864501953125,0.059902697801589966,0.08088970184326172,-0.16212141513824463
1684110627345906200,5.95990625,0.0475919246673584,0.07158565521240234,-0.21417748928070068
1684110627355947800,5.96994775390625,0.03489178419113159,0.062209129333496094,-0.26322853565216064
1684110627365989400,5.9799892578125,0.008108794689178467,0.055161476135253906,-0.2638084888458252
1684110627376031000,5.990031005859375,-0.003651857376098633,0.05523490905761719,-0.27339959144592285
1684110627386072600,6.000072509765625,-0.03135991096496582,0.07437801361083984,-0.26107072830200195
1684110627396114400,6.010114501953125,-0.029634922742843628,0.06003284454345703,-0.22230315208435059
1684110627406156000,6.020156005859375,-0.024835020303726196,0.06722164154052734,-0.19784033298492432
1684110627416197600,6.03019775390625,-0.04564398527145386,0.06008625030517578,-0.1089622974395752
1684110627426239200,6.0402392578125,-0.027403533458709717,0.000484466552734375,-0.07779085636138916
1684110627436280800,6.05028076171875,-0.003735870122909546,-0.03268241882324219,-0.01563847064971924
1684110627446322400,6.060322509765625,0.029690682888031006,-0.027559280395507812,0.0034269094467163086
1684110627456364000,6.070364013671875,0.05339711904525757,-0.022461891174316406,0.0821768045425415
1684110627466405600,6.080405517578125,0.04351082444190979,-0.010224342346191406,0.14163947105407715
1684110627476447200,6.090447265625,0.05285421013832092,0.018708229064941406,0.2176189422607422
1684110627486488800,6.10048876953125,0.07423335313796997,0.09055900573730469,0.2670931816101074
1684110627496530700,6.11053076171875,0.1194337010383606,0.0691518783569336,0.3184182643890381
1684110627506572300,6.120572265625,0.16411161422729492,0.10038566589355469,0.32620835304260254
1684110627516614000,6.13061376953125,0.20511561632156372,0.08617782592773438,0.28112053871154785
1684110627526655500,6.140655517578125,0.2368684709072113,0.06961917877197266,0.2572321891784668
1684110627536697000,6.150697021484375,0.20909970998764038,0.08416080474853516,0.23767518997192383
1684110627546738700,6.16073876953125,0.1703139841556549,0.11292076110839844,0.17536354064941406
1684110627556780300,6.1707802734375,0.0712774395942688,0.10567855834960938,0.16154241561889648
1684110627566822100,6.180822265625,-0.015145480632781982,0.012503623962402344,0.16202664375305176
1684110627576863700,6.19086376953125,-0.06695482134819031,-0.06604194641113281,0.12405335903167725
1684110627586905300,6.2009052734375,-0.046689510345458984,-0.03211498260498047,0.05494105815887451
1684110627596947000,6.210947021484375,-0.09374354779720306,0.01836109161376953,-0.015919923782348633
1684110627606988500,6.220988525390625,-0.12592674791812897,0.0638589859008789,-0.04543280601501465
1684110627617030100,6.231030029296875,-0.13558746874332428,0.05355072021484375,-0.040633559226989746
1684110627627071700,6.24107177734375,-0.07336258888244629,0.017536163330078125,-0.0476151704788208
1684110627637113300,6.25111328125,-0.004639178514480591,0.0009584426879882812,-0.05911612510681152
1684110627647155000,6.261155029296875,0.02752593159675598,-0.0059566497802734375,-0.0702657699584961
1684110627657196800,6.27119677734375,0.030190855264663696,0.0013360977172851562,-0.08350849151611328
1684110627667238400,6.28123828125,0.01545611023902893,0.015521049499511719,-0.03517472743988037
1684110627677280000,6.291280029296875,-0.013740137219429016,0.01764678955078125,0.007871270179748535
1684110627687321600,6.301321533203125,-0.037831276655197144,-0.008543014526367188,0.02213120460510254
1684110627697363200,6.31136328125,-0.03306750953197479,0.02693653106689453,0.0642935037612915
1684110627707404800,6.32140478515625,0.007029324769973755,0.021785736083984375,0.04701423645019531
1684110627717446400,6.3314462890625,0.04625937342643738,0.033196449279785156,0.07238602638244629
1684110627727488000,6.341488037109375,0.11967113614082336,0.06324195861816406,0.052584290504455566
1684110627737529900,6.35152978515625,0.1581343412399292,0.07157707214355469,0.03784751892089844
1684110627747571500,6.361571533203125,0.17141816020011902,0.1009206771850586,0.030492067337036133
1684110627757613000,6.371613037109375,0.17383742332458496,0.1014556884765625,0.02585005760192871
1684110627767654700,6.381654541015625,0.12313005328178406,0.05953407287597656,0.02151644229888916
1684110627777696300,6.3916962890625,0.06758958101272583,0.04648303985595703,0.026975154876708984
1684110627787737900,6.40173779296875,0.007728755474090576,0.012432098388671875,0.05361366271972656
1684110627797779500,6.411779541015625,-0.048902541399002075,0.05664253234863281,0.03735315799713135
1684110627807821000,6.421821044921875,-0.08076031506061554,0.04598522186279297,0.037787437438964844
1684110627817863000,6.43186279296875,-0.09956839680671692,0.02382659912109375,0.03541862964630127
1684110627827904500,6.441904541015625,-0.07468201220035553,-0.0025854110717773438,0.037433624267578125
1684110627837946000,6.451946044921875,-0.06333869695663452,-0.014347076416015625,-0.0033255815505981445
1684110627847987700,6.46198779296875,-0.004527658224105835,0.004750251770019531,-0.04366612434387207
1684110627858029300,6.472029296875,0.03235509991645813,0.014134407043457031,-0.1140214204788208
1684110627868071000,6.48207080078125,0.06391936540603638,0.04692363739013672,-0.13155317306518555
1684110627878112500,6.492112548828125,0.08525338768959045,0.06507301330566406,-0.18201005458831787
1684110627888154000,6.502154052734375,0.0822763741016388,0.09000968933105469,-0.22717785835266113
1684110627898195700,6.51219580078125,0.09071952104568481,0.09570884704589844,-0.27409958839416504
1684110627908237300,6.5222373046875,0.06561711430549622,0.09421634674072266,-0.296566367149353
1684110627918279200,6.532279052734375,0.06189370155334473,0.08565139770507812,-0.2902337312698364
1684110627928320800,6.54232080078125,0.0370175838470459,0.05837726593017578,-0.25095081329345703
1684110627938362400,6.5523623046875,0.022084146738052368,0.03623676300048828,-0.25684618949890137
1684110627948404000,6.562404052734375,-0.00883406400680542,0.014469146728515625,-0.21552467346191406
1684110627958445600,6.572445556640625,-0.017680197954177856,-0.025755882263183594,-0.16548478603363037
1684110627968487200,6.582487060546875,-0.0024977028369903564,-0.01584339141845703,-0.16583704948425293
1684110627978529000,6.592529052734375,-0.0037110447883605957,-0.017801284790039062,-0.11473309993743896
1684110627988570600,6.602570556640625,-0.03285154700279236,0.0015430450439453125,-0.20382821559906006
1684110627998612200,6.6126123046875,-0.014009475708007812,0.06533527374267578,-0.24923348426818848
1684110628008653800,6.62265380859375,0.012061536312103271,0.07151031494140625,-0.24870645999908447
1684110628018695400,6.6326953125,0.051826685667037964,0.03046417236328125,-0.20794832706451416
1684110628028737000,6.642737060546875,0.08363580703735352,0.0018949508666992188,-0.184539794921875
1684110628038778600,6.652778564453125,0.07886642217636108,-0.021490097045898438,-0.15225541591644287
1684110628048820200,6.6628203125,0.06597289443016052,-0.03506183624267578,-0.1890699863433838
1684110628058861800,6.67286181640625,-0.0018065571784973145,-0.027242660522460938,-0.23240768909454346
1684110628068903400,6.6829033203125,-0.056835830211639404,-0.01955890655517578,-0.30091118812561035
1684110628078945300,6.6929453125,-0.13853490352630615,0.03742218017578125,-0.3492288589477539
1684110628088987000,6.70298681640625,-0.1636025756597519,0.09109783172607422,-0.3776390552520752
1684110628099028500,6.713028564453125,-0.13552528619766235,0.08739280700683594,-0.36072349548339844
1684110628109070000,6.723070068359375,-0.074395090341568,0.1143808364868164,-0.3535444736480713
1684110628119111700,6.733111572265625,-0.016887694597244263,0.1055917739868164,-0.31349635124206543
1684110628129153300,6.7431533203125,0.010470718145370483,0.0945892333984375,-0.27427077293395996
1684110628139195000,6.75319482421875,-0.003609001636505127,0.05790138244628906,-0.26668477058410645
1684110628149236500,6.763236572265625,-0.043883681297302246,0.043056488037109375,-0.2407689094543457
1684110628159278300,6.7732783203125,-0.09524987637996674,0.035567283630371094,-0.24616742134094238
1684110628169320000,6.78331982421875,-0.13620112836360931,0.016496658325195312,-0.2706618309020996
1684110628179361500,6.793361572265625,-0.18325476348400116,0.011932373046875,-0.26683342456817627
1684110628189403100,6.803403076171875,-0.21270886063575745,0.000469207763671875,-0.2823423147201538
1684110628199444700,6.81344482421875,-0.23654013872146606,0.012824058532714844,-0.316861629486084
1684110628209486300,6.823486328125,-0.27353909611701965,0.006184577941894531,-0.3415297269821167
1684110628219528000,6.83352783203125,-0.28094416856765747,0.042082786560058594,-0.3565160036087036
1684110628229569800,6.84356982421875,-0.24728159606456757,0.07744884490966797,-0.36440610885620117
1684110628239611400,6.853611328125,-0.19225254654884338,0.11461830139160156,-0.3698793649673462
1684110628249653000,6.863653076171875,-0.10938222706317902,0.11351585388183594,-0.387020468711853
1684110628259694600,6.873694580078125,-0.0350782573223114,0.13123416900634766,-0.4084280729293823
1684110628269736200,6.883736083984375,0.030141979455947876,0.13680076599121094,-0.3937889337539673
1684110628279777800,6.89377783203125,0.09291863441467285,0.11865425109863281,-0.35564422607421875
1684110628289819400,6.9038193359375,0.10121771693229675,0.1336679458618164,-0.3107900619506836
1684110628299861000,6.913861083984375,0.08203756809234619,0.113067626953125,-0.2525376081466675
1684110628309902600,6.923902587890625,0.0432964563369751,0.08337783813476562,-0.19067871570587158
1684110628319944400,6.9339443359375,0.01142856478691101,0.087158203125,-0.1513233184814453
1684110628329986000,6.943986083984375,-0.04621380567550659,0.048569679260253906,-0.11785566806793213
1684110628340027600,6.954027587890625,-0.04200217127799988,0.060156822204589844,-0.09972763061523438
1684110628350069200,6.9640693359375,-0.08049610257148743,0.024570465087890625,-0.08262765407562256
1684110628360110800,6.97411083984375,-0.10925324261188507,0.015597343444824219,-0.10432279109954834
1684110628370152400,6.98415234375,-0.14024829864501953,0.018650054931640625,-0.12171506881713867
1684110628380194000,6.994194091796875,-0.1826600730419159,0.007617950439453125,-0.14180243015289307
1684110628390235600,7.004235595703125,-0.18883973360061646,0.00392913818359375,-0.15039503574371338
1684110628400277500,7.014277587890625,-0.19690649211406708,0.03806781768798828,-0.17352652549743652
1684110628410319000,7.024319091796875,-0.18109913170337677,0.04581260681152344,-0.19672393798828125
1684110628420360700,7.034360595703125,-0.15591153502464294,0.04407978057861328,-0.24819707870483398
1684110628430402300,7.04440234375,-0.13588456809520721,0.02826213836669922,-0.28718101978302
1684110628440444000,7.05444384765625,-0.08134657144546509,0.029155731201171875,-0.30194294452667236
1684110628450485500,7.064485595703125,-0.07589882612228394,0.05819129943847656,-0.3279719352722168
1684110628460527000,7.074527099609375,-0.08360978960990906,0.09598731994628906,-0.30111050605773926
1684110628470568700,7.084568603515625,-0.08253863453865051,0.14947223663330078,-0.2880781888961792
1684110628480610600,7.094610595703125,-0.07899188995361328,0.13374042510986328,-0.27731454372406006
1684110628490652200,7.104652099609375,-0.06086304783821106,0.1394500732421875,-0.29484546184539795
1684110628500693800,7.11469384765625,-0.005404949188232422,0.133270263671875,-0.27669966220855713
1684110628510735400,7.1247353515625,0.013057947158813477,0.1412191390991211,-0.2891322374343872
1684110628520777000,7.13477685546875,0.060382068157196045,0.11589622497558594,-0.29601097106933594
1684110628530818600,7.144818603515625,0.0726521909236908,0.08375167846679688,-0.2550407648086548
1684110628540860200,7.154860107421875,0.10015740990638733,0.05909919738769531,-0.23101770877838135
1684110628550901800,7.16490185546875,0.10085040330886841,0.044239044189453125,-0.20041322708129883
1684110628560943400,7.174943359375,0.09218019247055054,0.010740280151367188,-0.16305303573608398
1684110628570985200,7.184985107421875,0.05594146251678467,-0.05514049530029297,-0.06754934787750244
1684110628581026800,7.19502685546875,0.03342217206954956,-0.0680093765258789,-0.011744856834411621
1684110628591068400,7.205068359375,0.034783244132995605,-0.059325218200683594,0.06406450271606445
1684110628601110000,7.215110107421875,0.05103427171707153,-0.060054779052734375,0.05634641647338867
1684110628611151600,7.225151611328125,0.11774730682373047,-0.0652780532836914,0.07231402397155762
1684110628621193200,7.235193115234375,0.21736210584640503,-0.011386871337890625,0.03637123107910156
1684110628631234800,7.24523486328125,0.32734793424606323,0.001644134521484375,-0.0007200241088867188
1684110628641276700,7.255276611328125,0.4491848349571228,0.0521087646484375,0.015433907508850098
1684110628651318300,7.265318359375,0.5536741018295288,0.042850494384765625,0.031945228576660156
1684110628661359900,7.27535986328125,0.6196289658546448,0.07608699798583984,0.05111587047576904
1684110628671401500,7.2854013671875,0.7068134546279907,0.08752918243408203,0.08726108074188232
1684110628681443000,7.295443115234375,0.7893128991127014,0.04463386535644531,0.13046610355377197
1684110628691484700,7.305484619140625,0.8861005306243896,0.019006729125976562,0.19428372383117676
1684110628701526300,7.3155263671875,0.9772740006446838,-0.003753662109375,0.24265360832214355
1684110628711568000,7.32556787109375,1.0761243104934692,-0.004851341247558594,0.31069183349609375
1684110628721609700,7.335609619140625,1.148395299911499,-0.03880786895751953,0.4023784399032593
1684110628731651300,7.3456513671875,1.2148041725158691,0.007809638977050781,0.4564973711967468
1684110628741693000,7.35569287109375,1.1997201442718506,-0.014713287353515625,0.5162234902381897
1684110628751734500,7.365734619140625,1.1660778522491455,-0.015781402587890625,0.5699162483215332
1684110628761776000,7.375776123046875,1.1094732284545898,0.01830005645751953,0.6440225839614868
1684110628771817700,7.385817626953125,1.018723487854004,0.016234397888183594,0.7035146951675415
1684110628781859300,7.395859375,0.9233434796333313,0.0327911376953125,0.7629750967025757
1684110628791901000,7.40590087890625,0.8304899334907532,0.032797813415527344,0.8343302011489868
1684110628801942500,7.415942626953125,0.7052805423736572,0.03257274627685547,0.8991519808769226
1684110628811984400,7.425984375,0.5836063027381897,-0.0012636184692382812,0.9713754057884216
1684110628822026000,7.43602587890625,0.46082019805908203,-0.037537574768066406,0.983833372592926
1684110628832067600,7.446067626953125,0.3542490005493164,-0.09528350830078125,0.9771199822425842
1684110628842109200,7.456109130859375,0.22378909587860107,-0.14331531524658203,0.9819810390472412
1684110628852150800,7.46615087890625,0.12482970952987671,-0.13624954223632812,0.9888246059417725
1684110628862192400,7.4761923828125,0.03145241737365723,-0.1625204086303711,1.0021946430206299
1684110628872234000,7.48623388671875,-0.04653102159500122,-0.164703369140625,1.0053538084030151
1684110628882275800,7.49627587890625,-0.14466071128845215,-0.1499786376953125,1.036399483680725
1684110628892317400,7.5063173828125,-0.23173433542251587,-0.19718551635742188,1.0307812690734863
1684110628902359000,7.516359130859375,-0.27135801315307617,-0.18912696838378906,1.0222376585006714
1684110628912400600,7.526400634765625,-0.30615097284317017,-0.19758987426757812,0.9896602630615234
1684110628922442200,7.536442138671875,-0.30943697690963745,-0.19624805450439453,0.9905810952186584
1684110628932483800,7.54648388671875,-0.24555492401123047,-0.17316913604736328,0.9817160964012146
1684110628942525400,7.556525390625,-0.19405466318130493,-0.19055938720703125,0.9082742929458618
1684110628952567000,7.566567138671875,-0.12981653213500977,-0.17204856872558594,0.8042128086090088
1684110628962608600,7.576608642578125,-0.08716356754302979,-0.13216209411621094,0.7319998741149902
1684110628972650500,7.586650390625,-0.05712205171585083,-0.05668067932128906,0.6509931087493896
1684110628982692000,7.596692138671875,-0.04234594106674194,0.011248588562011719,0.5234200954437256
1684110628992733700,7.606733642578125,-0.028452813625335693,0.08355045318603516,0.4261447787284851
1684110629002775300,7.616775390625,0.00618588924407959,0.122039794921875,0.36368119716644287
1684110629012817000,7.62681689453125,0.009218811988830566,0.14594173431396484,0.28328776359558105
1684110629022858500,7.6368583984375,0.03325808048248291,0.13620281219482422,0.24220412969589233
1684110629032900000,7.646900146484375,0.06170248985290527,0.14072227478027344,0.23521524667739868
1684110629042941700,7.656941650390625,0.08150774240493774,0.138397216796875,0.2065412998199463
1684110629052983600,7.666983642578125,0.08637017011642456,0.11485576629638672,0.21860647201538086
1684110629063025200,7.677025146484375,0.10448712110519409,0.07044601440429688,0.19993841648101807
1684110629073066800,7.687066650390625,0.1023663878440857,0.02436065673828125,0.23789852857589722
1684110629083108400,7.6971083984375,0.08027243614196777,0.02605915069580078,0.21849709749221802
1684110629093150000,7.70714990234375,0.045583486557006836,0.025285720825195312,0.2205522656440735
1684110629103191600,7.717191650390625,-0.0036374926567077637,-0.010886192321777344,0.17564380168914795
1684110629113233200,7.727233154296875,-0.05767655372619629,-0.030068397521972656,0.16926640272140503
1684110629123275000,7.73727490234375,-0.0854230523109436,-0.05370044708251953,0.1678721308708191
1684110629133316600,7.747316650390625,-0.11245006322860718,-0.08638954162597656,0.13163542747497559
1684110629143358200,7.757358154296875,-0.14536160230636597,-0.08320808410644531,0.10580623149871826
1684110629153399800,7.76739990234375,-0.1792343258857727,-0.0965585708618164,0.11159038543701172
1684110629163441400,7.77744140625,-0.17890095710754395,-0.11203289031982422,0.08470439910888672
1684110629173483000,7.78748291015625,-0.23235070705413818,-0.08251285552978516,0.12201440334320068
1684110629183524600,7.797524658203125,-0.25642234086990356,-0.11234378814697266,0.06473684310913086
1684110629193566200,7.807566162109375,-0.31496885418891907,-0.11343765258789062,0.07707154750823975
1684110629203607800,7.81760791015625,-0.3504357933998108,-0.14746665954589844,0.08269858360290527
1684110629213649700,7.827649658203125,-0.3746725916862488,-0.1761636734008789,0.11682820320129395
1684110629223691300,7.837691162109375,-0.3849655091762543,-0.1760406494140625,0.12016963958740234
1684110629233732900,7.84773291015625,-0.35534149408340454,-0.19461536407470703,0.18014729022979736
1684110629243774500,7.8577744140625,-0.3077599108219147,-0.23154544830322266,0.20362114906311035
1684110629253816000,7.867816162109375,-0.2639855444431305,-0.2606782913208008,0.22200947999954224
1684110629263857700,7.877857666015625,-0.21728813648223877,-0.2704153060913086,0.26134562492370605
1684110629273899300,7.887899169921875,-0.15381723642349243,-0.28696632385253906,0.3045573830604553
1684110629283940900,7.89794091796875,-0.08839893341064453,-0.2678499221801758,0.34196603298187256
1684110629293982700,7.907982666015625,-0.023410141468048096,-0.2254323959350586,0.3877866864204407
1684110629304024300,7.9180244140625,0.050289273262023926,-0.22602272033691406,0.40877270698547363
1684110629314066000,7.92806591796875,0.11808609962463379,-0.21708106994628906,0.36725980043411255
1684110629324107500,7.938107421875,0.18220806121826172,-0.1916980743408203,0.3582555055618286
1684110629334149000,7.948149169921875,0.24718952178955078,-0.13130569458007812,0.33633291721343994
1684110629344190700,7.958190673828125,0.2915189862251282,-0.08825969696044922,0.3201971650123596
1684110629354232300,7.968232421875,0.326788067817688,-0.08584403991699219,0.2579498291015625
1684110629364274200,7.978274169921875,0.3290402293205261,-0.08340167999267578,0.1645100712776184
1684110629374315800,7.988315673828125,0.3173489570617676,-0.05982208251953125,0.10211765766143799
1684110629384357400,7.998357421875,0.2711397409439087,-0.02963542938232422,0.02618277072906494
1684110629394399000,8.00839892578125,0.18260926008224487,-0.025895118713378906,-0.07442998886108398
1684110629404440600,8.018440673828126,0.06784951686859131,-0.04341411590576172,-0.1494513750076294
1684110629414482200,8.028482177734375,0.0012592673301696777,-0.05120658874511719,-0.20608758926391602
1684110629424523800,8.038523681640624,-0.06429541110992432,-0.03296184539794922,-0.28653502464294434
1684110629434565400,8.0485654296875,-0.05574357509613037,-0.017403602600097656,-0.3382686376571655
1684110629444607200,8.058607177734375,-0.016600966453552246,-0.006846427917480469,-0.3358500003814697
1684110629454648800,8.06864892578125,0.03819012641906738,0.03406333923339844,-0.3247683048248291
1684110629464690400,8.0786904296875,0.11735337972640991,0.05768585205078125,-0.3074076175689697
1684110629474732000,8.08873193359375,0.20599478483200073,0.09486865997314453,-0.2719813585281372
1684110629484773600,8.098773681640624,0.32265037298202515,0.01358795166015625,-0.20979738235473633
1684110629494815200,8.108815185546876,0.40976881980895996,0.0018205642700195312,-0.11001205444335938
1684110629504856800,8.11885693359375,0.46747028827667236,-0.016946792602539062,-0.022717714309692383
1684110629514898400,8.1288984375,0.5497634410858154,0.016246795654296875,0.019178152084350586
1684110629524940000,8.13893994140625,0.5855198502540588,-0.05010509490966797,0.09858810901641846
1684110629534982000,8.14898193359375,0.606264054775238,-0.04243755340576172,0.18396210670471191
1684110629545023500,8.1590234375,0.6404980421066284,-0.046749114990234375,0.26590484380722046
1684110629555065000,8.169065185546875,0.6362696886062622,-0.09811878204345703,0.3254357576370239
1684110629565106700,8.179106689453125,0.6507862210273743,-0.10863876342773438,0.4051627516746521
1684110629575148300,8.189148193359374,0.6343024969100952,-0.11191082000732422,0.46211427450180054
1684110629585190000,8.19918994140625,0.5945426225662231,-0.091522216796875,0.5080536007881165
1684110629595231500,8.2092314453125,0.5625618696212769,-0.03844261169433594,0.5101873874664307
1684110629605273300,8.2192734375,0.5427709817886353,-0.009682655334472656,0.42414695024490356
1684110629615315000,8.22931494140625,0.5159173011779785,0.0069103240966796875,0.3292182683944702
1684110629625356500,8.2393564453125,0.4746619760990143,0.009103775024414062,0.19077587127685547
1684110629635398100,8.249398193359376,0.4119671881198883,0.02059650421142578,0.05954313278198242
1684110629645439700,8.259439697265625,0.3143351972103119,0.04117298126220703,-0.04047548770904541
1684110629655481300,8.2694814453125,0.17383018136024475,0.044739723205566406,-0.13981080055236816
1684110629665523000,8.27952294921875,0.03231686353683472,0.029209136962890625,-0.18394768238067627
1684110629675564500,8.289564453125,-0.059691816568374634,0.08200359344482422,-0.15480971336364746
1684110629685606400,8.2996064453125,-0.1163754016160965,0.1102285385131836,-0.14825689792633057
1684110629695648000,8.30964794921875,-0.07686492800712585,0.1025848388671875,-0.11981618404388428
1684110629705689600,8.319689697265625,0.028516799211502075,0.033827781677246094,-0.08471870422363281
1684110629715731200,8.329731201171874,0.15987397730350494,0.010994911193847656,-0.13577580451965332
1684110629725772800,8.339772705078126,0.3058622479438782,0.132171630859375,-0.16572463512420654
1684110629735814400,8.349814453125,0.43223288655281067,0.21363258361816406,-0.22403955459594727
1684110629745856000,8.35985595703125,0.5269349813461304,0.2112598419189453,-0.2086491584777832
1684110629755897600,8.369897705078126,0.588161289691925,0.14998531341552734,-0.14884376525878906
1684110629765939200,8.379939208984375,0.6071260571479797,0.12023544311523438,-0.06871676445007324
1684110629775981000,8.38998095703125,0.5989468693733215,0.11910438537597656,0.0033892393112182617
1684110629786022700,8.400022705078126,0.6234856843948364,0.13427734375,0.07755446434020996
1684110629796064300,8.410064208984375,0.6645945906639099,0.1913280487060547,0.1776869297027588
1684110629806105900,8.42010595703125,0.7368876338005066,0.2024526596069336,0.3151085376739502
1684110629816147500,8.4301474609375,0.8310967683792114,0.14264297485351562,0.5024904608726501
1684110629826189000,8.44018896484375,0.954066812992096,0.13556861877441406,0.6631950736045837
1684110629836230700,8.450230712890624,1.024811863899231,0.17100238800048828,0.7618937492370605
1684110629846272500,8.4602724609375,1.1207847595214844,0.17065906524658203,0.8695023059844971
1684110629856314000,8.470314208984375,1.1764791011810303,0.222412109375,0.9471675157546997
1684110629866355700,8.480355712890624,1.1647307872772217,0.2620277404785156,0.9235973358154297
1684110629876397300,8.490397216796875,1.0680732727050781,0.32042980194091797,0.8398986458778381
1684110629886439000,8.50043896484375,0.8863656520843506,0.37613773345947266,0.7464752197265625
1684110629896480500,8.51048046875,0.6201940178871155,0.41036128997802734,0.5493404269218445
1684110629906522000,8.520522216796875,0.27871134877204895,0.38092708587646484,0.33593714237213135
1684110629916564000,8.53056396484375,-0.12321154773235321,0.34282875061035156,0.07256102561950684
1684110629926605600,8.54060546875,-0.5719433426856995,0.23949146270751953,-0.2079300880432129
1684110629936647200,8.550647216796875,-1.0247400999069214,0.14950847625732422,-0.4875730276107788
1684110629946688800,8.560688720703125,-1.395002841949463,0.08190155029296875,-0.7112177610397339
1684110629956730400,8.57073046875,-1.6023249626159668,0.04619312286376953,-0.8511569499969482
1684110629966772000,8.58077197265625,-1.6568801403045654,-0.02108478546142578,-0.9853962659835815
1684110629976813600,8.5908134765625,-1.5083116292953491,-0.10802268981933594,-0.9895015954971313
1684110629986855400,8.60085546875,-1.2915124893188477,-0.16918182373046875,-0.799817681312561
1684110629996897000,8.61089697265625,-1.0666999816894531,-0.17113876342773438,-0.5414794683456421
1684110630006938600,8.620938720703125,-0.8341444730758667,-0.130706787109375,-0.3485680818557739
1684110630016980200,8.630980224609376,-0.6628331542015076,-0.0742330551147461,-0.16580641269683838
1684110630027021800,8.641021728515625,-0.6151198148727417,-0.1211099624633789,-0.0602039098739624
1684110630037063400,8.6510634765625,-0.6640214920043945,-0.1468801498413086,0.008859395980834961
1684110630047105000,8.66110498046875,-0.8881725668907166,-0.14191913604736328,0.09244072437286377
1684110630057146600,8.671146728515625,-1.1961084604263306,-0.2016887664794922,0.11207389831542969
1684110630067188200,8.681188232421874,-1.4405665397644043,-0.27577972412109375,0.08304882049560547
1684110630077230000,8.69122998046875,-1.6858558654785156,-0.36182212829589844,0.03856170177459717
1684110630087271700,8.701271728515625,-1.8711163997650146,-0.5481958389282227,-0.11186873912811279
1684110630097313300,8.711313232421874,-1.9547806978225708,-0.6604232788085938,-0.22871005535125732
1684110630107355000,8.72135498046875,-1.9902344942092896,-0.789647102355957,-0.306085467338562
1684110630117396500,8.731396484375,-1.9199917316436768,-0.8453512191772461,-0.37640202045440674
1684110630127438000,8.74143798828125,-1.7669992446899414,-0.9235963821411133,-0.39577507972717285
1684110630137479700,8.751479736328125,-1.631778597831726,-0.9056558609008789,-0.4291055202484131
1684110630147521300,8.761521240234375,-1.3552943468093872,-0.9470920562744141,-0.3423718214035034
1684110630157563100,8.771563232421874,-0.9902265071868896,-0.9302301406860352,-0.24588727951049805
1684110630167604700,8.781604736328125,-0.6455807685852051,-0.8540897369384766,-0.14587104320526123
1684110630177646300,8.791646240234375,-0.29576849937438965,-0.6720552444458008,-0.13763105869293213
1684110630187688000,8.80168798828125,0.006072282791137695,-0.5457620620727539,-0.17945265769958496
1684110630197729500,8.8117294921875,0.11976313591003418,-0.46251773834228516,-0.1853703260421753
1684110630207771100,8.821771240234375,0.14190161228179932,-0.23798656463623047,-0.1784818172454834
1684110630217812700,8.831812744140626,0.10086476802825928,0.05324554443359375,-0.0946192741394043
1684110630227854600,8.8418544921875,0.11371564865112305,0.2384033203125,-0.09961366653442383
1684110630237896200,8.851896240234375,0.16660654544830322,0.30037879943847656,-0.10419845581054688
1684110630247937800,8.861937744140626,0.22828388214111328,0.31084156036376953,0.010288357734680176
1684110630257979400,8.8719794921875,0.3223832845687866,0.32956600189208984,0.09346485137939453
1684110630268021000,8.88202099609375,0.3849945068359375,0.40169239044189453,0.1170499324798584
1684110630278062600,8.8920625,0.41991496086120605,0.5625085830688477,0.12243521213531494
1684110630288104200,8.902104248046875,0.5185236930847168,0.7208614349365234,0.19574570655822754
1684110630298146000,8.91214599609375,0.6569498777389526,0.857513427734375,0.26549750566482544
1684110630308187600,8.922187744140626,0.781761884689331,0.9270610809326172,0.24483776092529297
1684110630318229200,8.932229248046875,0.9696019887924194,0.9273586273193359,0.034113526344299316
1684110630328270800,8.942270751953124,1.1249982118606567,0.8993024826049805,-0.21977293491363525
1684110630338312400,8.9523125,1.2039015293121338,0.8597211837768555,-0.44255638122558594
1684110630348354000,8.96235400390625,1.1818218231201172,0.7014169692993164,-0.47417736053466797
1684110630358395600,8.972395751953124,1.1366825103759766,0.525303840637207,-0.49938738346099854
1684110630368437200,8.982437255859375,0.8384765386581421,0.32457637786865234,-0.3573489785194397
1684110630378479000,8.99247900390625,0.3398466110229492,0.09683799743652344,-0.2669859528541565
1684110630388520700,9.002520751953124,-0.1964108943939209,-0.11794471740722656,-0.29051631689071655
1684110630398562300,9.012562255859375,-0.5543854236602783,-0.26337528228759766,-0.33420610427856445
1684110630408604000,9.02260400390625,-0.7224156856536865,-0.2568655014038086,-0.48691773414611816
1684110630418645500,9.0326455078125,-0.5631715059280396,-0.060906410217285156,-0.6522060036659241
1684110630428687000,9.04268701171875,-0.2463395595550537,0.12602615356445312,-0.8024560809135437
1684110630438728700,9.052728759765625,-0.005115628242492676,0.29735469818115234,-0.8581147193908691
1684110630448770300,9.062770263671876,0.04481029510498047,0.32236766815185547,-0.8000595569610596
1684110630458812200,9.072812255859375,-0.1619703769683838,0.2374420166015625,-0.7091361880302429
1684110630468853800,9.082853759765625,-0.5359339714050293,0.11200618743896484,-0.5567176938056946
1684110630478895400,9.092895263671876,-0.9932126998901367,-0.11384201049804688,-0.43787455558776855
1684110630488937000,9.10293701171875,-1.1569857597351074,-0.2228221893310547,-0.4438767731189728
1684110630498978600,9.112978515625,-0.912441611289978,-0.2795534133911133,-0.5322649478912354
1684110630509020200,9.123020263671876,-0.5071088075637817,-0.2837638854980469,-0.7459707260131836
1684110630519061800,9.133061767578125,-0.08699822425842285,-0.2710399627685547,-0.7844787836074829
1684110630529103400,9.143103271484375,0.22551798820495605,-0.24370670318603516,-0.7905532717704773
1684110630539145200,9.153145263671876,0.42223525047302246,-0.1852245330810547,-0.7738504409790039
1684110630549186800,9.163186767578125,0.4293099641799927,-0.17718887329101562,-0.7095260620117188
1684110630559228400,9.173228515625,0.33857178688049316,-0.11483955383300781,-0.5443845987319946
1684110630569270000,9.18327001953125,0.21471166610717773,0.008488655090332031,-0.4082304835319519
1684110630579311600,9.1933115234375,0.054356932640075684,0.027662277221679688,-0.2153918743133545
1684110630589353200,9.203353271484374,-0.06596541404724121,-0.01646900177001953,-0.06899667531251907
1684110630599394800,9.213394775390626,-0.16441094875335693,-0.11639022827148438,0.03056485205888748
1684110630609436700,9.223436767578125,-0.20906388759613037,-0.1810016632080078,0.03605520725250244
1684110630619478300,9.233478271484374,-0.21577167510986328,-0.21016693115234375,-0.024980515241622925
1684110630629520000,9.243519775390626,-0.2240530252456665,-0.19420433044433594,-0.11788848042488098
1684110630639561500,9.2535615234375,-0.20883393287658691,-0.15209579467773438,-0.2897329032421112
1684110630649603000,9.26360302734375,-0.135001540184021,-0.10286808013916016,-0.46361756324768066
1684110630659644700,9.273644775390625,-0.047602057456970215,-0.09910964965820312,-0.6773242950439453
1684110630669686300,9.283686279296875,0.059127211570739746,-0.045340538024902344,-0.794923722743988
1684110630679728000,9.29372802734375,0.1351410150527954,-0.04202079772949219,-0.9034325480461121
1684110630689769700,9.303769775390625,0.1487208604812622,-0.026798248291015625,-1.0222641229629517
1684110630699811300,9.313811279296875,0.13492810726165771,0.021953582763671875,-1.1182429790496826
1684110630709853000,9.32385302734375,-0.006856799125671387,0.05648231506347656,-1.1913022994995117
1684110630719894500,9.33389453125,-0.09954845905303955,0.10788345336914062,-1.2580525875091553
1684110630729936100,9.34393603515625,-0.12385296821594238,0.11159133911132812,-1.320892333984375
1684110630739977700,9.353977783203124,-0.12909090518951416,0.1224508285522461,-1.3827548027038574
1684110630750019300,9.364019287109375,-0.15482544898986816,0.09481143951416016,-1.4448878765106201
1684110630760061200,9.374061279296875,0.02977609634399414,0.13162899017333984,-1.490278959274292
1684110630770102800,9.384102783203126,0.238625168800354,0.2403430938720703,-1.6100435256958008
1684110630780144400,9.394144287109375,0.3536555767059326,0.38286685943603516,-1.7689170837402344
1684110630790186000,9.40418603515625,0.41521453857421875,0.5712203979492188,-1.9755911827087402
1684110630800227600,9.4142275390625,0.48947131633758545,0.7386150360107422,-2.15802001953125
1684110630810269200,9.424269287109375,0.5144245624542236,0.84930419921875,-2.2511637210845947
1684110630820310800,9.434310791015625,0.5097630023956299,0.9033641815185547,-2.226168394088745
1684110630830352400,9.444352294921876,0.4562554359436035,0.8770322799682617,-2.134181022644043
1684110630840394200,9.454394287109375,0.3425471782684326,0.8085899353027344,-2.0281996726989746
1684110630850435800,9.464435791015624,0.2458794116973877,0.7265892028808594,-1.9115617275238037
1684110630860477400,9.4744775390625,0.18317198753356934,0.6930322647094727,-1.7947144508361816
1684110630870519000,9.48451904296875,0.10186910629272461,0.6695108413696289,-1.7118241786956787
1684110630880560600,9.494560546875,-0.019284725189208984,0.6750164031982422,-1.543915033340454
1684110630890602200,9.504602294921876,-0.058789730072021484,0.635462760925293,-1.394639253616333
1684110630900643800,9.514643798828125,-0.1288890838623047,0.5556678771972656,-1.2880902290344238
1684110630910685400,9.524685546875,-0.1333080530166626,0.457061767578125,-1.0720720291137695
1684110630920727300,9.534727294921876,-0.10314738750457764,0.37784862518310547,-0.8097081780433655
1684110630930769000,9.544768798828125,-0.09116530418395996,0.3108358383178711,-0.5703690648078918
1684110630940810500,9.554810546875,-0.08610272407531738,0.30865955352783203,-0.3701801598072052
1684110630950852000,9.56485205078125,-0.09381890296936035,0.23758316040039062,-0.16832779347896576
1684110630960893700,9.574893798828125,0.010065436363220215,0.11444377899169922,0.080648273229599
1684110630970935300,9.584935302734374,0.16601955890655518,0.04435253143310547,0.2385488897562027
1684110630980977000,9.594976806640625,0.2530543804168701,-0.07808113098144531,0.3934933543205261
1684110630991018800,9.605018798828125,0.2672286033630371,-0.20032024383544922,0.5661435127258301
1684110631001060400,9.615060302734374,0.196913480758667,-0.3510427474975586,0.5845156311988831
1684110631011102000,9.62510205078125,0.03364121913909912,-0.4825325012207031,0.6333605647087097
1684110631021143600,9.6351435546875,-0.18004310131072998,-0.597447395324707,0.609209418296814
1684110631031185200,9.64518505859375,-0.41699981689453125,-0.5932044982910156,0.4904397130012512
1684110631041226800,9.655226806640625,-0.6078817844390869,-0.4987154006958008,0.31141766905784607
1684110631051268400,9.665268310546875,-0.6961718797683716,-0.3594627380371094,0.04446844011545181
1684110631061310200,9.675310302734376,-0.7451443672180176,-0.25901317596435547,-0.32909679412841797
1684110631071351800,9.685351806640625,-0.7938580513000488,-0.19240188598632812,-0.7413601279258728
1684110631081393400,9.695393310546875,-0.875004768371582,-0.1763458251953125,-1.0906596183776855
1684110631091435000,9.70543505859375,-0.9511586427688599,-0.23714733123779297,-1.3167837858200073
1684110631101476600,9.7154765625,-0.9564279913902283,-0.42252349853515625,-1.5149543285369873
1684110631111518200,9.725518310546875,-0.893297016620636,-0.5841131210327148,-1.6277343034744263
1684110631121559800,9.735559814453126,-0.8441987633705139,-0.4997854232788086,-1.6725051403045654
1684110631131601400,9.745601318359375,-0.8564287424087524,-0.23445606231689453,-1.6665970087051392
1684110631141643300,9.755643310546875,-0.8431466221809387,-0.34726715087890625,-1.6053546667099
1684110631151684900,9.765684814453126,-0.9187538623809814,-0.877716064453125,-1.410233497619629
1684110631161726500,9.7757265625,-1.1856567859649658,-1.3947067260742188,-0.8608006238937378
1684110631171768000,9.78576806640625,-1.371704339981079,-1.6593780517578125,0.1683868169784546
1684110631181809700,9.7958095703125,-1.2872016429901123,-1.7081871032714844,1.586677074432373
1684110631191851300,9.805851318359375,-0.6976231336593628,-1.4675636291503906,2.859030246734619
1684110631201892900,9.815892822265624,0.2691054940223694,-1.0551233291625977,3.5511255264282227
1684110631211934500,9.8259345703125,0.9678332805633545,-0.7603998184204102,3.3464255332946777
1684110631221976300,9.835976318359375,0.9069951772689819,-0.5312767028808594,2.31537127494812
1684110631232018000,9.846017822265624,0.46280962228775024,-0.32761287689208984,1.2517108917236328
1684110631242059500,9.8560595703125,0.051635026931762695,-0.13732624053955078,0.3757058084011078
1684110631252101000,9.86610107421875,-0.4559468626976013,0.0018672943115234375,-0.2794383764266968
1684110631262142700,9.876142822265624,-0.8857251405715942,0.023626327514648438,-0.9492378234863281
1684110631272184300,9.886184326171875,-1.2448620796203613,0.004769325256347656,-1.3931875228881836
1684110631282226000,9.896225830078125,-1.450049638748169,-0.002178192138671875,-1.475142478942871
1684110631292267500,9.906267578125,-1.441163420677185,0.05262470245361328,-1.3014675378799438
1684110631302309400,9.916309326171875,-1.0769362449645996,0.21654129028320312,-1.0058643817901611
1684110631312351000,9.92635107421875,-0.5003345608711243,0.2742729187011719,-0.7563510537147522
1684110631322392600,9.936392578125,0.143132746219635,0.31703662872314453,-0.5824568271636963
1684110631332434200,9.94643408203125,0.7452515959739685,0.3212852478027344,-0.6136773824691772
1684110631342475800,9.956475830078125,1.2333585023880005,0.26589488983154297,-0.7385208010673523
1684110631352517400,9.966517333984376,1.492816686630249,0.375701904296875,-0.7496064305305481
1684110631362559200,9.976559326171875,1.5609039068222046,0.5167303085327148,-0.6030599474906921
1684110631372600800,9.986600830078125,1.5084238052368164,0.5314216613769531,-0.4530174732208252
1684110631382642400,9.996642333984376,1.35638427734375,0.40105438232421875,-0.3382941484451294
1684110631392684000,10.00668408203125,1.1340152025222778,0.16175365447998047,-0.24689769744873047
1684110631402725600,10.0167255859375,0.9124399423599243,0.040465354919433594,-0.2115086317062378
1684110631412767200,10.026767333984376,0.6702782511711121,-0.06366157531738281,-0.2284582257270813
1684110631422808800,10.036808837890625,0.419234037399292,-0.05527496337890625,-0.32384192943573
1684110631432850700,10.0468505859375,0.172658771276474,-0.08752918243408203,-0.44770246744155884
1684110631442892300,10.056892333984376,-0.0880419909954071,-0.06246757507324219,-0.6568161249160767
1684110631452934000,10.066933837890625,-0.35784220695495605,-0.0065784454345703125,-0.8520877361297607
1684110631462975500,10.0769755859375,-0.5810928344726562,-0.02028179168701172,-0.923272967338562
1684110631473017000,10.08701708984375,-0.7826635241508484,-0.055622100830078125,-0.9904027581214905
1684110631483058700,10.09705859375,-0.84547358751297,-0.009846687316894531,-1.0104596614837646
1684110631493100300,10.107100341796874,-0.7936273813247681,-0.009685516357421875,-1.0694489479064941
1684110631503142000,10.117141845703125,-0.6555815935134888,-0.000030517578125,-1.1362075805664062
1684110631513183700,10.127183837890625,-0.43494123220443726,0.08359432220458984,-1.2389068603515625
1684110631523225300,10.137225341796874,-0.29327133297920227,0.17412662506103516,-1.3840585947036743
1684110631533267000,10.147266845703125,-0.16030769050121307,0.2906217575073242,-1.554196834564209
1684110631543308500,10.15730859375,-0.027621176093816757,0.4186582565307617,-1.7010767459869385
1684110631553350100,10.16735009765625,0.07143877446651459,0.38626956939697266,-1.7292828559875488
1684110631563391700,10.177391845703125,0.17132507264614105,0.3180227279663086,-1.722391963005066
1684110631573433300,10.187433349609375,0.30658429861068726,0.25932884216308594,-1.6965618133544922
1684110631583475000,10.197474853515626,0.47288671135902405,0.22449970245361328,-1.5969997644424438
1684110631593516800,10.207516845703125,0.6266560554504395,0.22784996032714844,-1.462910771369934
1684110631603558400,10.217558349609375,0.8002236485481262,0.11164665222167969,-1.3492844104766846
1684110631613600000,10.22760009765625,0.9515547156333923,0.00505828857421875,-1.3054616451263428
1684110631623641600,10.2376416015625,1.1191893815994263,-0.11334228515625,-1.153343915939331
1684110631633683200,10.24768310546875,1.2811719179153442,-0.20026588439941406,-0.9271442890167236
1684110631643724800,10.257724853515626,1.444520115852356,-0.2580251693725586,-0.8098827600479126
1684110631653766400,10.267766357421875,1.5141340494155884,-0.23657989501953125,-0.7480058670043945
1684110631663808300,10.277808349609375,1.5395420789718628,-0.1983489990234375,-0.6898373365402222
1684110631673849900,10.287849853515626,1.470847725868225,-0.13150691986083984,-0.6037720441818237
1684110631683891500,10.297891357421875,1.3267477750778198,-0.06482601165771484,-0.5709826350212097
1684110631693933000,10.30793310546875,1.1410669088363647,0.01597309112548828,-0.5338345766067505
1684110631703974700,10.317974609375,0.9476226568222046,0.1012725830078125,-0.4992341995239258
1684110631714016300,10.328016357421875,0.7510161995887756,0.18149471282958984,-0.4716823697090149
1684110631724057900,10.338057861328124,0.6217248439788818,0.18736934661865234,-0.45295560359954834
1684110631734099500,10.348099365234376,0.5073625445365906,0.188323974609375,-0.41884422302246094
1684110631744141300,10.358141357421875,0.4531078338623047,0.18915748596191406,-0.3287288546562195
1684110631754183000,10.368182861328124,0.3985785245895386,0.1946849822998047,-0.24046176671981812
1684110631764224500,10.378224609375,0.3575150966644287,0.17862987518310547,-0.163651704788208
1684110631774266000,10.38826611328125,0.3338679075241089,0.16973590850830078,-0.082023024559021
1684110631784307700,10.3983076171875,0.3051106333732605,0.07010364532470703,-0.034281015396118164
1684110631794349300,10.408349365234375,0.24428246915340424,-0.034084320068359375,-0.027518868446350098
1684110631804391000,10.418390869140625,0.16312706470489502,-0.12132740020751953,-0.021134495735168457
1684110631814432800,10.428432861328124,0.07443812489509583,-0.16057682037353516,-0.039220333099365234
1684110631824474400,10.438474365234375,-0.020505070686340332,-0.15670204162597656,-0.033902525901794434
1684110631834516000,10.448515869140625,-0.07525381445884705,-0.1479511260986328,-0.04848313331604004
1684110631844557600,10.4585576171875,-0.12068754434585571,-0.1509866714477539,-0.12155294418334961
1684110631854599200,10.46859912109375,-0.1398116797208786,-0.16104793548583984,-0.20223140716552734
1684110631864640800,10.478640869140625,-0.14959093928337097,-0.1876688003540039,-0.2498917579650879
1684110631874682400,10.488682373046874,-0.18160685896873474,-0.1592082977294922,-0.3264491558074951
1684110631884724200,10.49872412109375,-0.1691560447216034,-0.17618656158447266,-0.357088565826416
1684110631894765800,10.508765869140625,-0.16212287545204163,-0.17884349822998047,-0.3508490324020386
1684110631904807400,10.518807373046876,-0.17922042310237885,-0.1958780288696289,-0.30288052558898926
1684110631914849000,10.52884912109375,-0.15549427270889282,-0.1866302490234375,-0.23012709617614746
1684110631924890600,10.538890625,-0.11032655835151672,-0.1750316619873047,-0.1543642282485962
1684110631934932200,10.54893212890625,-0.05390119552612305,-0.1515512466430664,-0.04462611675262451
1684110631944973800,10.558973876953125,-0.013005077838897705,-0.16633129119873047,0.014928221702575684
1684110631955015700,10.569015625,0.04298520088195801,-0.16913414001464844,0.07204878330230713
1684110631965057300,10.579057373046876,0.08734244108200073,-0.19103240966796875,0.12901008129119873
1684110631975099000,10.589098876953125,0.13894924521446228,-0.1865530014038086,0.1805015206336975
1684110631985140500,10.599140380859374,0.16432741284370422,-0.2011117935180664,0.23592567443847656
1684110631995182000,10.60918212890625,0.18988940119743347,-0.16774749755859375,0.2591036558151245
1684110632005223700,10.6192236328125,0.19903820753097534,-0.17491912841796875,0.2690611481666565
1684110632015265300,10.629265380859374,0.20642036199569702,-0.10555553436279297,0.19702816009521484
1684110632025307100,10.63930712890625,0.23062938451766968,-0.06643199920654297,0.16339516639709473
1684110632035348700,10.6493486328125,0.19752782583236694,-0.011518478393554688,0.10506594181060791
1684110632045390300,10.659390380859374,0.22415193915367126,-0.0258331298828125,0.0696253776550293
1684110632055432000,10.669431884765626,0.23189128935337067,-0.018796920776367188,-0.00902855396270752
1684110632065473500,10.6794736328125,0.2677004933357239,-0.0002689361572265625,-0.05906116962432861
1684110632075515100,10.68951513671875,0.3262203335762024,0.05306434631347656,-0.06904685497283936
1684110632085556700,10.699556640625,0.36023110151290894,0.029982566833496094,-0.03040134906768799
1684110632095598600,10.7095986328125,0.4246642589569092,-0.0070590972900390625,-0.021486401557922363
1684110632105640200,10.71964013671875,0.5327450037002563,-0.06958961486816406,0.06853187084197998
1684110632115681800,10.729681884765625,0.6707767248153687,-0.11248207092285156,0.10647690296173096
1684110632125723400,10.739723388671875,0.7898479700088501,-0.1313762664794922,0.2062537670135498
1684110632135765000,10.749764892578124,0.8746277093887329,-0.11010456085205078,0.25076282024383545
1684110632145806600,10.759806640625,0.933933675289154,-0.11292552947998047,0.28829145431518555
1684110632155848200,10.76984814453125,0.9340351819992065,-0.0783071517944336,0.26073145866394043
1684110632165889800,10.779889892578124,0.9310938715934753,0.009675979614257812,0.3052276372909546
1684110632175931600,10.789931640625,0.8283342719078064,0.07021236419677734,0.33971107006073
1684110632185973200,10.79997314453125,0.689325213432312,0.04958057403564453,0.3057743310928345
1684110632196014800,10.810014892578126,0.5215240716934204,0.01967906951904297,0.327539324760437
1684110632206056400,10.820056396484375,0.3821474313735962,-0.057076454162597656,0.40700697898864746
1684110632216098000,10.83009814453125,0.28184986114501953,-0.07159423828125,0.4889647960662842
1684110632226139600,10.8401396484375,0.22955532371997833,-0.0860738754272461,0.5847875475883484
1684110632236181200,10.85018115234375,0.2118215262889862,-0.0909576416015625,0.7026783227920532
1684110632246223000,10.86022314453125,0.20582160353660583,-0.08870410919189453,0.7900981903076172
1684110632256264700,10.8702646484375,0.18194365501403809,-0.09344959259033203,0.9245363473892212
1684110632266306300,10.880306396484375,0.1911683827638626,-0.0837717056274414,1.0221214294433594
1684110632276348000,10.890347900390625,0.1385120153427124,-0.11630630493164062,1.0946190357208252
1684110632286389500,10.900389404296876,0.08635716885328293,-0.11962509155273438,1.1324690580368042
1684110632296431000,10.91043115234375,-0.013897649943828583,-0.12477779388427734,1.117195725440979
1684110632306472700,10.92047265625,-0.12492063641548157,-0.11520671844482422,1.0941978693008423
1684110632316514300,10.930514404296876,-0.245491161942482,-0.06990432739257812,0.9714042544364929
1684110632326556200,10.94055615234375,-0.3291236460208893,-0.059967994689941406,0.7850410342216492
1684110632336597800,10.95059765625,-0.42180538177490234,-0.06134796142578125,0.4684704542160034
1684110632346639400,10.960639404296876,-0.46394652128219604,-0.038852691650390625,0.1482306718826294
1684110632356681000,10.970680908203125,-0.501085102558136,0.03285980224609375,-0.13464784622192383
1684110632366722600,10.98072265625,-0.5075246691703796,0.15060997009277344,-0.31968867778778076
1684110632376764200,10.99076416015625,-0.5191916227340698,0.2289257049560547,-0.4984407424926758
1684110632386805800,11.0008056640625,-0.5127949714660645,0.2896566390991211,-0.6312052011489868
1684110632396847600,11.01084765625,-0.5055818557739258,0.340118408203125,-0.7798699140548706
1684110632406889200,11.02088916015625,-0.46529629826545715,0.39218902587890625,-0.8944542407989502
1684110632416930800,11.030930908203125,-0.4059697389602661,0.42594051361083984,-1.0418249368667603
1684110632426972400,11.040972412109374,-0.35530954599380493,0.4285621643066406,-1.1585930585861206
1684110632437014000,11.051013916015625,-0.3186084032058716,0.45020484924316406,-1.2395352125167847
1684110632447055600,11.0610556640625,-0.2771685719490051,0.47648143768310547,-1.2201581001281738
1684110632457097200,11.07109716796875,-0.2259543538093567,0.46441078186035156,-1.1820735931396484
1684110632467139000,11.08113916015625,-0.159755140542984,0.4259815216064453,-1.1705138683319092
1684110632477180700,11.0911806640625,-0.08259832859039307,0.3755311965942383,-1.0539097785949707
1684110632487222300,11.10122216796875,-0.010145425796508789,0.2652168273925781,-1.0088958740234375
1684110632497263900,11.111263916015625,0.08439376950263977,0.18585777282714844,-0.9371762275695801
1684110632507305500,11.121305419921875,0.23644647002220154,0.18991947174072266,-0.9154219627380371
1684110632517347000,11.13134716796875,0.38520723581314087,0.19838809967041016,-0.8669872283935547
1684110632527388700,11.141388671875,0.5291232466697693,0.19457340240478516,-0.8442683219909668
1684110632537430500,11.151430419921875,0.6613385677337646,0.21448135375976562,-0.8115878105163574
1684110632547472100,11.16147216796875,0.7724132537841797,0.22245216369628906,-0.7692792415618896
1684110632557513700,11.171513671875,0.8218199014663696,0.19007015228271484,-0.7914119958877563
1684110632567555300,11.181555419921875,0.7672296762466431,0.1796894073486328,-0.7247157096862793
1684110632577597000,11.191596923828126,0.6179900169372559,0.16983985900878906,-0.6600785255432129
1684110632587638500,11.201638427734375,0.3895440399646759,0.1342754364013672,-0.550096869468689
1684110632597680000,11.21168017578125,0.07692933082580566,0.08492660522460938,-0.36182892322540283
1684110632607722000,11.221721923828126,-0.380932092666626,-0.050098419189453125,-0.17390227317810059
1684110632617763600,11.231763671875,-1.0053422451019287,-0.2542085647583008,0.004192948341369629
1684110632627805200,11.24180517578125,-1.6752876043319702,-0.35095977783203125,0.12719106674194336
1684110632637846800,11.2518466796875,-2.167558431625366,-0.4796924591064453,0.12908482551574707
1684110632647888400,11.261888427734375,-2.353083610534668,-0.5978574752807617,0.03300344944000244
1684110632657930000,11.271929931640624,-2.165102481842041,-0.6220178604125977,-0.0792093276977539
1684110632667971600,11.2819716796875,-1.660567283630371,-0.5830545425415039,-0.0984659194946289
1684110632678013400,11.292013427734375,-1.1604076623916626,-0.5138387680053711,-0.07397353649139404
1684110632688055000,11.302054931640624,-0.7491708993911743,-0.47104835510253906,-0.0711979866027832
1684110632698096600,11.3120966796875,-0.5348761081695557,-0.4493579864501953,-0.1429358720779419
1684110632708138200,11.32213818359375,-0.5405538082122803,-0.40090084075927734,-0.18844246864318848
1684110632718179800,11.332179931640624,-0.7104964256286621,-0.38573741912841797,-0.338619589805603
1684110632728221400,11.342221435546875,-0.9833424091339111,-0.3159189224243164,-0.4946328401565552
1684110632738263300,11.35226318359375,-1.307508111000061,-0.21357345581054688,-0.6371036767959595
1684110632748305000,11.362304931640624,-1.5134905576705933,-0.15084457397460938,-0.7942159175872803
1684110632758346500,11.372346435546875,-1.5104349851608276,0.00353240966796875,-0.86777663230896
1684110632768388000,11.38238818359375,-1.3789660930633545,0.16109943389892578,-0.8320556879043579
1684110632778429700,11.3924296875,-1.2407125234603882,0.29581165313720703,-0.816428542137146
1684110632788471300,11.40247119140625,-0.9120287895202637,0.3364744186401367,-0.7182791233062744
1684110632798513000,11.412512939453125,-0.5067795515060425,0.38663387298583984,-0.5761145353317261
1684110632808554800,11.4225546875,-0.09966182708740234,0.4421215057373047,-0.42386913299560547
1684110632818596400,11.432596435546875,0.16522455215454102,0.4315004348754883,-0.23981821537017822
1684110632828638000,11.442637939453125,0.30099380016326904,0.3501138687133789,-0.10764586925506592
1684110632838679600,11.452679443359376,0.1837477684020996,0.24557113647460938,-0.051355957984924316
1684110632848721200,11.46272119140625,0.09822666645050049,0.0865640640258789,0.08867752552032471
1684110632858762800,11.4727626953125,0.12880432605743408,-0.047901153564453125,0.28695476055145264
1684110632868804400,11.482804443359376,0.01538705825805664,-0.1435260772705078,0.33482277393341064
1684110632878846000,11.492845947265625,-0.1837705373764038,-0.1598348617553711,0.45185863971710205
1684110632888887800,11.5028876953125,-0.3822805881500244,-0.13997364044189453,0.5084521770477295
1684110632898929400,11.512929443359376,-0.743806004524231,-0.1367483139038086,0.5378645658493042
1684110632908971000,11.522970947265625,-0.9967437982559204,-0.08588314056396484,0.6544908881187439
1684110632919012600,11.5330126953125,-1.0053000450134277,-0.0615692138671875,0.8033103346824646
1684110632929054200,11.54305419921875,-0.9340376853942871,-0.008623123168945312,0.9229412078857422
1684110632939095800,11.553095703125,-0.7917943000793457,0.034888267517089844,1.0451338291168213
1684110632949137400,11.563137451171874,-0.6706709861755371,0.15038013458251953,1.1321598291397095
1684110632959179300,11.57317919921875,-0.554710865020752,0.18012046813964844,1.0942893028259277
1684110632969220900,11.583220947265625,-0.5207266807556152,0.2222909927368164,1.039733648300171
1684110632979262500,11.593262451171874,-0.5320837497711182,0.24814319610595703,0.9323105812072754
1684110632989304000,11.603303955078125,-0.637312650680542,0.19300365447998047,0.7953392863273621
1684110632999345700,11.613345703125,-0.8319814205169678,0.13551044464111328,0.6332048773765564
1684110633009387300,11.62338720703125,-1.104163646697998,0.13964080810546875,0.4743459224700928
1684110633019428900,11.633428955078125,-1.3513233661651611,0.13309192657470703,0.3852958679199219
1684110633029470700,11.643470703125,-1.4869904518127441,0.1014242172241211,0.3939450979232788
1684110633039512300,11.65351220703125,-1.507878303527832,0.09269237518310547,0.48560553789138794
1684110633049554000,11.663553955078125,-1.3357126712799072,0.1408710479736328,0.626717746257782
1684110633059595500,11.673595458984375,-1.062739610671997,0.21548175811767578,0.7849338054656982
1684110633069637000,11.68363720703125,-0.7638216018676758,0.20252418518066406,0.9326293468475342
1684110633079678700,11.6936787109375,-0.5263547897338867,0.11934947967529297,1.043744444847107
1684110633089720300,11.70372021484375,-0.30962133407592773,0.006814002990722656,1.161332368850708
1684110633099762200,11.71376220703125,-0.06561827659606934,-0.07293415069580078,1.156559944152832
1684110633109803800,11.7238037109375,0.17156147956848145,-0.13416576385498047,1.1879820823669434
1684110633119845400,11.733845458984375,0.4583561420440674,-0.17196369171142578,1.1466405391693115
1684110633129887000,11.743886962890626,0.641650915145874,-0.21745967864990234,1.0719069242477417
1684110633139928600,11.753928466796875,0.7364702224731445,-0.2659168243408203,1.0207663774490356
1684110633149970200,11.76397021484375,0.748466968536377,-0.2935047149658203,0.9871476292610168
1684110633160011800,11.77401171875,0.6713194847106934,-0.14768218994140625,0.9069513082504272
1684110633170053600,11.7840537109375,0.5178983211517334,0.044155120849609375,0.7700678110122681
1684110633180095200,11.79409521484375,0.3231778144836426,0.21453571319580078,0.7280189990997314
1684110633190136800,11.80413671875,0.18850016593933105,0.3919830322265625,0.7152574062347412
1684110633200178400,11.814178466796875,0.06681084632873535,0.5858983993530273,0.6970961093902588
1684110633210220000,11.824219970703124,-0.012149333953857422,0.7817134857177734,0.6867202520370483
1684110633220261600,11.83426171875,-0.00004220008850097656,0.8478488922119141,0.6105561256408691
1684110633230303200,11.84430322265625,0.01151585578918457,0.8610935211181641,0.44862329959869385
1684110633240345000,11.854344970703124,-0.06705284118652344,0.7023591995239258,0.2766246795654297
1684110633250386700,11.86438671875,-0.2931795120239258,0.4628000259399414,0.12432020902633667
1684110633260428300,11.87442822265625,-0.5772724151611328,0.2258749008178711,-0.01942986249923706
1684110633270470000,11.884469970703124,-0.8770649433135986,0.03893280029296875,-0.11639678478240967
1684110633280511500,11.894511474609375,-1.0977001190185547,-0.0985097885131836,-0.12216043472290039
1684110633290553000,11.904552978515625,-1.185605764389038,-0.20349884033203125,-0.17649036645889282
1684110633300594700,11.9145947265625,-1.2124340534210205,-0.24500179290771484,-0.19948500394821167
1684110633310636500,11.924636474609375,-1.1453306674957275,-0.1894989013671875,-0.25226759910583496
1684110633320678100,11.93467822265625,-0.9884083271026611,-0.0653676986694336,-0.30992841720581055
1684110633330719700,11.9447197265625,-0.7722010612487793,0.13962268829345703,-0.39212918281555176
1684110633340761300,11.95476123046875,-0.6154978275299072,0.2775716781616211,-0.47953152656555176
1684110633350803000,11.964802978515625,-0.5570688247680664,0.40842437744140625,-0.585773229598999
1684110633360844500,11.974844482421876,-0.5294589996337891,0.3911590576171875,-0.7080572843551636
1684110633370886100,11.98488623046875,-0.6695823669433594,0.36667919158935547,-0.8773568868637085
1684110633380928000,11.994927978515625,-0.9461617469787598,0.30573558807373047,-1.0783270597457886
1684110633390969600,12.004969482421876,-1.1801023483276367,0.23865890502929688,-1.3391915559768677
1684110633401011200,12.01501123046875,-1.2045331001281738,0.08469772338867188,-1.2521084547042847
1684110633411052800,12.025052734375,-0.9479920864105225,0.09095001220703125,-1.0122603178024292
1684110633421094400,12.035094482421876,-0.6065981388092041,0.23311996459960938,-0.9749059677124023
1684110633431136000,12.045135986328125,-0.32254505157470703,0.3601369857788086,-0.8638805150985718
1684110633441177600,12.055177490234374,-0.13222980499267578,0.38382530212402344,-0.6391552686691284
1684110633451219500,12.065219482421876,-0.04780268669128418,0.3858766555786133,-0.5627011060714722
1684110633461261000,12.075260986328125,-0.08983182907104492,0.36390209197998047,-0.5275479555130005
1684110633471302700,12.085302734375,-0.3107156753540039,0.3989286422729492,-0.5400059223175049
1684110633481344300,12.09534423828125,-0.4574838876724243,0.41906070709228516,-0.5106630325317383
1684110633491385900,12.1053857421875,-0.449914813041687,0.45792102813720703,-0.5325405597686768
1684110633501427500,12.115427490234374,-0.29373466968536377,0.4225320816040039,-0.5698549747467041
1684110633511469000,12.125468994140626,-0.19684064388275146,0.28203868865966797,-0.5441018342971802
1684110633521511000,12.135510986328125,-0.2514493465423584,0.14632701873779297,-0.3718639612197876
1684110633531552500,12.145552490234374,-0.3848506212234497,-0.02063465118408203,-0.07259941101074219
1684110633541594000,12.155593994140625,-0.356306791305542,0.0007915496826171875,0.108878493309021
1684110633551635700,12.1656357421875,-0.25279128551483154,-0.047677040100097656,0.2732635736465454
1684110633561677300,12.17567724609375,-0.12321674823760986,-0.17743396759033203,0.45075535774230957
1684110633571719000,12.185718994140625,0.052584171295166016,-0.34719276428222656,0.585269570350647
1684110633581760500,12.195760498046875,0.19892501831054688,-0.39180850982666016,0.6005916595458984
1684110633591802400,12.20580224609375,0.31508970260620117,-0.414276123046875,0.5309993028640747
1684110633601844000,12.215843994140625,0.32506752014160156,-0.42168140411376953,0.5214684009552002
1684110633611885600,12.225885498046875,0.23997020721435547,-0.34001827239990234,0.5040121078491211
1684110633621927200,12.23592724609375,0.1567525863647461,-0.2579011917114258,0.5592797994613647
1684110633631968800,12.24596875,-0.11337065696716309,-0.18999290466308594,0.43642473220825195
1684110633642010400,12.25601025390625,-0.3700978755950928,-0.17465972900390625,0.3222322463989258
1684110633652052000,12.266052001953126,-0.5749490261077881,-0.14976024627685547,0.15980195999145508
1684110633662093800,12.27609375,-0.7785344123840332,-0.16086864471435547,-0.040071725845336914
1684110633672135400,12.286135498046875,-0.9194329977035522,-0.21041393280029297,-0.12818026542663574
1684110633682177000,12.296177001953126,-0.9768157005310059,-0.20763015747070312,-0.268892765045166
1684110633692218600,12.306218505859375,-0.935239315032959,-0.17900657653808594,-0.34412693977355957
1684110633702260200,12.31626025390625,-0.836626410484314,-0.12917327880859375,-0.3495163917541504
1684110633712301800,12.3263017578125,-0.781601071357727,-0.13201045989990234,-0.30742859840393066
1684110633722343400,12.336343505859375,-0.7307825088500977,-0.0776052474975586,-0.32567524909973145
1684110633732385300,12.34638525390625,-0.716188907623291,-0.09262943267822266,-0.3547217845916748
1684110633742427000,12.356427001953126,-0.7007931470870972,-0.10518264770507812,-0.3928506374359131
1684110633752468500,12.366468505859375,-0.7649867534637451,-0.08675956726074219,-0.4899020195007324
1684110633762510000,12.376510009765624,-0.8057790994644165,-0.05189990997314453,-0.5568320751190186
1684110633772551700,12.3865517578125,-0.8735513687133789,-0.03895759582519531,-0.6266369819641113
1684110633782593300,12.39659326171875,-0.9612659215927124,-0.06725502014160156,-0.6886742115020752
1684110633792635000,12.406634765625,-1.0071312189102173,-0.07950496673583984,-0.692218542098999
1684110633802676700,12.4166767578125,-0.9259859323501587,-0.11154556274414062,-0.587090015411377
1684110633812718300,12.42671826171875,-0.800399899482727,-0.11779117584228516,-0.44297075271606445
