time,seconds_elapsed,z,y,x
1684110509978786600,0.03178662109375,0,0,0
1684110509988828200,0.041828125,-0.07688331604003906,0.01026618480682373,-0.045990943908691406
1684110509998870000,0.0518701171875,-0.1237325668334961,-0.044628262519836426,0.20383930206298828
1684110510008911600,0.06191162109375,-0.08758258819580078,-0.09610652923583984,0.1427154541015625
1684110510018953500,0.071953369140625,-0.029462814331054688,-0.22919189929962158,0.08592510223388672
1684110510028995000,0.0819951171875,0.10122394561767578,-0.44090473651885986,-0.1610875129699707
1684110510039036700,0.09203662109375,-0.1327967643737793,-0.42024922370910645,-0.2645869255065918
1684110510049078500,0.10207861328125,-0.17836570739746094,-0.4437062740325928,-0.44611120223999023
1684110510059120000,0.1121201171875,-0.08155298233032227,-0.2899458408355713,-0.08344316482543945
1684110510069161700,0.12216162109375,0.07576370239257812,-0.08400511741638184,0.0662078857421875
1684110510079203600,0.13220361328125,0.2934145927429199,-0.08707785606384277,0.19576168060302734
1684110510089245200,0.1422451171875,0.24965667724609375,0.12238752841949463,0.37505006790161133
1684110510099286800,0.152286865234375,0.1278090476989746,0.29676032066345215,0.19874143600463867
1684110510109328600,0.16232861328125,0.14708280563354492,0.19579970836639404,-0.0993185043334961
1684110510119370200,0.172370361328125,0.18871688842773438,0.0732872486114502,-0.21249103546142578
1684110510129411800,0.182411865234375,0.43127012252807617,-0.19036328792572021,-0.6577029228210449
1684110510139453700,0.19245361328125,0.036139488220214844,0.2898283004760742,-0.39627838134765625
1684110510149495300,0.202495361328125,-0.14556121826171875,0.4353806972503662,-0.37886571884155273
1684110510159537000,0.212536865234375,-0.08896112442016602,-0.37123334407806396,0.17416143417358398
1684110510169578800,0.222578857421875,-0.010829448699951172,-0.13710319995880127,-0.11704349517822266
1684110510179620400,0.232620361328125,0.12483406066894531,-0.04693126678466797,-0.583371639251709
1684110510189662000,0.242661865234375,0.15619850158691406,-0.5118106603622437,-0.7200899124145508
1684110510199703800,0.252703857421875,0.17471837997436523,-0.5240017175674438,-0.49625158309936523
1684110510209745400,0.262745361328125,0.2539849281311035,-0.3504277467727661,-0.47529172897338867
1684110510219787000,0.272787109375,0.6070222854614258,-0.6092418432235718,-0.3502044677734375
1684110510229828900,0.282828857421875,-0.30536890029907227,-0.4853299856185913,0.08495616912841797
1684110510239870500,0.292870361328125,-0.7849550247192383,-0.45485830307006836,-0.3789534568786621
1684110510249912000,0.302912109375,-0.07568883895874023,-0.23992526531219482,-0.9670891761779785
1684110510259954000,0.312953857421875,0.49312877655029297,-0.3866235017776489,-0.8182034492492676
1684110510269995500,0.32299560546875,0.43030691146850586,-0.8296633958816528,-0.370394229888916
1684110510280037000,0.333037109375,0.1486659049987793,-0.6080909967422485,-0.37671756744384766
1684110510290079000,0.343078857421875,0.16307926177978516,-0.4553189277648926,-0.05747222900390625
1684110510300120600,0.35312060546875,-0.21543359756469727,-0.40016651153564453,-0.2376241683959961
1684110510310162200,0.363162109375,-0.2408771514892578,-0.37388741970062256,-0.20412540435791016
1684110510320204000,0.3732041015625,-0.1598653793334961,-0.28600144386291504,-0.2787303924560547
1684110510330245600,0.38324560546875,0.0007224082946777344,-0.2636672258377075,-0.41567277908325195
1684110510340287200,0.393287353515625,-0.10035848617553711,-0.24911653995513916,-0.3247814178466797
1684110510350329000,0.4033291015625,0.044512271881103516,-0.35229241847991943,-0.16886377334594727
1684110510360370700,0.41337060546875,0.18018198013305664,-0.4297366142272949,-0.07629156112670898
1684110510370412300,0.423412353515625,0.21285104751586914,-0.5110244750976562,0.1549072265625
1684110510380454100,0.4334541015625,0.23905420303344727,-0.36524271965026855,-0.34745311737060547
1684110510390495700,0.443495849609375,0.7647714614868164,-0.5175151824951172,-0.32532310485839844
1684110510400537300,0.453537353515625,0.6652216911315918,-0.9018683433532715,-0.5415630340576172
1684110510410579200,0.4635791015625,0.7703762054443359,-0.6900801658630371,0.015730857849121094
1684110510420620800,0.473620849609375,0.33387017250061035,-0.4055197238922119,0.45981693267822266
1684110510430662400,0.483662353515625,-0.06224560737609863,0.047987937927246094,0.2150115966796875
1684110510440704300,0.493704345703125,-0.24051308631896973,0.017183542251586914,0.29438304901123047
1684110510450745900,0.503745849609375,-0.3760976791381836,0.1515824794769287,0.07721805572509766
1684110510460787500,0.513787353515625,-0.32398128509521484,-0.15814518928527832,0.3839893341064453
1684110510470829300,0.523829345703125,0.025492429733276367,-0.2919795513153076,0.6050233840942383
1684110510480871000,0.533870849609375,0.5461263656616211,-0.22361016273498535,0.7870912551879883
1684110510490912500,0.54391259765625,0.8287527561187744,-0.27921533584594727,1.4888219833374023
1684110510500954400,0.553954345703125,0.2976391315460205,-0.014228582382202148,1.6476144790649414
1684110510510996000,0.563995849609375,-0.4755045175552368,0.4758932590484619,1.613387107849121
1684110510521037600,0.57403759765625,-1.2211201190948486,0.8966784477233887,1.2755346298217773
1684110510531079400,0.584079345703125,-1.3222782611846924,1.14170503616333,0.45909976959228516
1684110510541121000,0.59412109375,-0.6553935408592224,0.6621103286743164,0.3803415298461914
1684110510551162600,0.60416259765625,0.03346872329711914,0.1727895736694336,0.3983488082885742
1684110510561204500,0.61420458984375,0.36871767044067383,-0.06507396697998047,0.2849855422973633
1684110510571246000,0.62424609375,0.6551791429519653,-0.5996754169464111,0.8806562423706055
1684110510581287700,0.63428759765625,0.5152761936187744,-0.7031905651092529,1.1275310516357422
1684110510591329500,0.64432958984375,-0.05750608444213867,-0.7176187038421631,1.1954317092895508
1684110510601371100,0.65437109375,-0.7086915969848633,-0.4100797176361084,0.18996715545654297
1684110510611412700,0.664412841796875,-1.183790922164917,-0.4159555435180664,0.03836631774902344
1684110510621454300,0.674454345703125,-1.1262245178222656,-0.16498565673828125,-0.049591064453125
1684110510631496200,0.68449609375,-0.6702175736427307,-0.12901568412780762,0.1515512466430664
1684110510641537800,0.694537841796875,-0.4125935435295105,-0.07369041442871094,0.4472188949584961
1684110510651579400,0.704579345703125,-0.4178873300552368,-0.23314833641052246,0.7193593978881836
1684110510661621200,0.714621337890625,-0.09602601826190948,-0.3650367259979248,0.5585689544677734
1684110510671662800,0.724662841796875,0.3132935166358948,-0.7482619285583496,0.964268684387207
1684110510681704400,0.734704345703125,-0.0028778910636901855,-0.9565029144287109,1.304361343383789
1684110510691746300,0.744746337890625,-0.738758385181427,-0.872563362121582,0.812230110168457
1684110510701788000,0.754787841796875,-0.9040399789810181,-0.5709741115570068,0.06366825103759766
1684110510711829500,0.76482958984375,-0.5349186062812805,-0.4104888439178467,-0.05397319793701172
1684110510721871400,0.774871337890625,-0.20379014313220978,-0.18222784996032715,0.0051670074462890625
1684110510731913000,0.784912841796875,-0.13685686886310577,0.06721377372741699,0.17124080657958984
1684110510741954600,0.79495458984375,-0.2562111020088196,0.18703699111938477,0.14321041107177734
1684110510751996400,0.804996337890625,-0.442902147769928,0.1336221694946289,0.15604209899902344
1684110510762038000,0.8150380859375,-0.4734470844268799,0.029140710830688477,0.2573070526123047
1684110510772079600,0.82507958984375,-0.44772541522979736,-0.30753231048583984,0.38480091094970703
1684110510782121200,0.835121337890625,-0.6494683623313904,-0.6950430870056152,0.24495220184326172
1684110510792163000,0.8451630859375,-0.04998704791069031,0.019403696060180664,-0.506505012512207
1684110510802204700,0.85520458984375,0.26106080412864685,0.07040286064147949,-0.06780433654785156
1684110510812246300,0.865246337890625,0.12422260642051697,0.3213615417480469,-0.1472034454345703
1684110510822288100,0.8752880859375,-0.1345919817686081,0.25844788551330566,-0.0991067886352539
1684110510832329700,0.885329833984375,-0.3884320557117462,-0.03180813789367676,-0.29346370697021484
1684110510842371300,0.895371337890625,-0.6063170433044434,-0.6332263946533203,-0.4548501968383789
1684110510852413200,0.9054130859375,-0.5136300921440125,-0.7287294864654541,-0.8544759750366211
1684110510862454800,0.915454833984375,0.18561077117919922,0.6773478984832764,-1.0537586212158203
1684110510872496400,0.925496337890625,1.3586361408233643,1.495089054107666,0.460357666015625
1684110510882538000,0.9355380859375,3.2719459533691406,1.7317521572113037,-0.004276275634765625
1684110510892579800,0.945579833984375,2.686657190322876,0.8573489189147949,0.5060739517211914
1684110510902621400,0.955621337890625,1.6654417514801025,0.2825510501861572,0.6341676712036133
1684110510912663000,0.9656630859375,-0.3355623185634613,-0.5763411521911621,1.4143142700195312
1684110510922705000,0.975704833984375,-1.9666733741760254,-1.1330580711364746,2.007129669189453
1684110510932746500,0.98574658203125,-3.3758583068847656,-1.5044846534729004,2.019624710083008
1684110510942788000,0.9957880859375,-1.0744988918304443,-0.3257279396057129,0.5409946441650391
1684110510952830000,1.005829833984375,1.194883108139038,0.730644702911377,0.2847604751586914
1684110510962871600,1.01587158203125,0.6850062012672424,0.29898667335510254,0.9913778305053711
1684110510972913200,1.0259130859375,-0.49218761920928955,-0.5361568927764893,1.1990089416503906
1684110510982955000,1.035955078125,-0.9434182643890381,-1.0677759647369385,1.1425352096557617
1684110510992996600,1.04599658203125,-0.6223812103271484,-0.997657060623169,1.0097455978393555
1684110511003038200,1.0560380859375,-0.5159174203872681,-0.7868614196777344,0.5871057510375977
1684110511013079800,1.066079833984375,-0.40411633253097534,-0.5478520393371582,0.42738914489746094
1684110511023121700,1.07612158203125,-0.11718755960464478,-0.23519587516784668,0.6072273254394531
1684110511033163300,1.086163330078125,0.1711496114730835,-0.03562784194946289,0.7865810394287109
1684110511043204900,1.096204833984375,0.17683297395706177,-0.43950748443603516,0.88311767578125
1684110511053246700,1.106246826171875,0.3908228874206543,-0.5635690689086914,0.8167734146118164
1684110511063288300,1.116288330078125,0.3257548213005066,-0.04669523239135742,0.6796140670776367
1684110511073330000,1.126329833984375,0.27075570821762085,0.25935792922973633,0.31856441497802734
1684110511083371800,1.136371826171875,0.3463600277900696,0.46041250228881836,-0.043704986572265625
1684110511093413400,1.146413330078125,0.30241137742996216,0.5334486961364746,-0.5380277633666992
1684110511103455000,1.156455078125,0.24478065967559814,0.6052193641662598,-0.9095721244812012
1684110511113496800,1.166496826171875,0.38974785804748535,0.6388559341430664,-0.8763890266418457
1684110511123538400,1.176538330078125,0.3663676977157593,0.6221895217895508,-0.8840398788452148
1684110511133580000,1.186580078125,0.2029440999031067,0.28491878509521484,-1.0121374130249023
1684110511143621600,1.19662158203125,-0.1716434359550476,-0.24956035614013672,-1.6135106086730957
1684110511153663500,1.20666357421875,-0.149277925491333,0.021390438079833984,-1.7077312469482422
1684110511163705000,1.216705078125,0.6805443167686462,1.1903223991394043,-0.643763542175293
1684110511173746700,1.22674658203125,1.7265830039978027,2.399732828140259,0.4153480529785156
1684110511183788500,1.23678857421875,2.294940233230591,2.6781105995178223,0.07238578796386719
1684110511193830100,1.246830078125,1.9398562908172607,1.88859224319458,-0.14035320281982422
1684110511203871700,1.256871826171875,1.646561622619629,1.6031322479248047,-0.17204856872558594
1684110511213913600,1.26691357421875,1.2846004962921143,1.3709416389465332,-1.0599932670593262
1684110511223955200,1.276955078125,0.6036045551300049,0.8823437690734863,-1.3542532920837402
1684110511233996800,1.286996826171875,-0.23802301287651062,0.670687198638916,-1.3820905685424805
1684110511244038700,1.29703857421875,0.23538383841514587,1.7060706615447998,-1.1817941665649414
1684110511254080300,1.307080322265625,0.5816290378570557,2.573101758956909,-0.30911874771118164
1684110511264121900,1.317121826171875,-0.6025984287261963,1.093736171722412,0.4881715774536133
1684110511274163500,1.32716357421875,-0.7788455486297607,0.034052371978759766,0.46307945251464844
1684110511284205300,1.337205322265625,-0.1324029117822647,-0.17959022521972656,1.0325326919555664
1684110511294247000,1.347246826171875,-0.053114622831344604,-0.3250865936279297,0.9864816665649414
1684110511304288500,1.35728857421875,0.4409251809120178,-0.28196048736572266,0.9055705070495605
1684110511314330400,1.367330322265625,0.7456483840942383,-0.24271440505981445,0.34436559677124023
1684110511324372000,1.3773720703125,0.7708183526992798,-0.43047428131103516,-0.23050403594970703
1684110511334413600,1.38741357421875,0.5593721270561218,-1.2473602294921875,0.02909708023071289
1684110511344455200,1.397455078125,0.2962212562561035,-1.2978529930114746,-1.127790927886963
1684110511354497000,1.4074970703125,0.12902337312698364,-1.399172306060791,-1.5551505088806152
1684110511364538600,1.41753857421875,-0.16520783305168152,-1.0382037162780762,-1.6839380264282227
1684110511374580200,1.427580322265625,-0.4285167157649994,-0.7319507598876953,-1.3863611221313477
1684110511384622000,1.4376220703125,-0.6589245200157166,-0.30278539657592773,-1.3742179870605469
1684110511394663700,1.44766357421875,-0.5949477553367615,-0.09250259399414062,-1.6819610595703125
1684110511404705300,1.457705322265625,-0.9293971657752991,-0.09078836441040039,-1.9795117378234863
1684110511414747000,1.467746826171875,-1.3981943130493164,-0.2701597213745117,-1.7711334228515625
1684110511424788700,1.477788818359375,-1.1603739261627197,-0.4757981300354004,-1.0497899055480957
1684110511434830300,1.487830322265625,-0.2440352439880371,-0.8147416114807129,0.3157343864440918
1684110511444872000,1.497871826171875,0.5584292411804199,-0.6739306449890137,1.7417874336242676
1684110511454913800,1.507913818359375,1.3503446578979492,-0.48427772521972656,2.483987808227539
1684110511464955400,1.517955322265625,0.6280020475387573,0.02035236358642578,1.9737582206726074
1684110511474997000,1.5279970703125,-0.7053533792495728,0.19960260391235352,1.1719894409179688
1684110511485038600,1.53803857421875,-1.2890634536743164,0.4175548553466797,0.021345138549804688
1684110511495080400,1.54808056640625,-1.7351593971252441,0.09909820556640625,-0.8908882141113281
1684110511505122000,1.5581220703125,-1.6716969013214111,-0.1432952880859375,-1.2517046928405762
1684110511515163600,1.56816357421875,-1.4898414611816406,-0.05588197708129883,-1.393953800201416
1684110511525205500,1.57820556640625,-1.1861779689788818,0.5206952095031738,-1.5157380104064941
1684110511535247000,1.5882470703125,-0.0671226978302002,0.9876666069030762,-1.3245234489440918
1684110511545288700,1.598288818359375,1.0031442642211914,0.6816205978393555,-0.5107126235961914
1684110511555330300,1.608330322265625,1.810785174369812,-0.5475349426269531,1.6869540214538574
1684110511565372200,1.6183720703125,3.3441033363342285,-0.6558756828308105,3.6104397773742676
1684110511575413800,1.628413818359375,3.1350600719451904,-0.47414541244506836,5.299956798553467
1684110511585455400,1.638455322265625,1.2585926055908203,0.44567108154296875,5.558570861816406
1684110511595497200,1.648497314453125,-1.081130027770996,0.8132805824279785,4.576208591461182
1684110511605538800,1.658538818359375,-3.3604822158813477,0.9210591316223145,3.001798152923584
1684110511615580400,1.668580322265625,-4.408620357513428,0.9302802085876465,1.697397232055664
1684110511625622000,1.6786220703125,-4.096527099609375,0.4122190475463867,0.8847527503967285
1684110511635664000,1.688663818359375,-3.3042874336242676,-0.18359041213989258,0.4231138229370117
1684110511645705500,1.69870556640625,-2.5807995796203613,-0.4897494316101074,0.5015139579772949
1684110511655747000,1.7087470703125,-2.098973512649536,-0.3657112121582031,0.5363583564758301
1684110511665788700,1.71878857421875,-1.9744672775268555,-0.35875463485717773,0.8325281143188477
1684110511675830500,1.72883056640625,-1.118727445602417,0.01373910903930664,0.7595806121826172
1684110511685872000,1.7388720703125,-1.083261489868164,-0.5055198669433594,0.10146617889404297
1684110511695913700,1.748913818359375,-0.8392176628112793,0.06266212463378906,-0.43479061126708984
1684110511705955600,1.75895556640625,-0.46101903915405273,-0.03837776184082031,-0.8608927726745605
1684110511715997200,1.7689970703125,-1.0348964929580688,-0.2736167907714844,-1.547635555267334
1684110511726038800,1.779038818359375,-2.670685291290283,-0.14209508895874023,-2.3393335342407227
1684110511736080400,1.789080322265625,-3.2293920516967773,-0.2255415916442871,-3.1139073371887207
1684110511746122200,1.799122314453125,-2.06878399848938,-0.46367883682250977,-2.884775400161743
1684110511756163800,1.809163818359375,-1.5320687294006348,-0.09358501434326172,-2.4856204986572266
1684110511766205400,1.819205322265625,-0.866079568862915,-0.011364936828613281,-2.329561233520508
1684110511776247300,1.829247314453125,-0.5120471715927124,-0.034761905670166016,-2.1416234970092773
1684110511786289000,1.839288818359375,-0.3762704133987427,-0.15897083282470703,-1.8695111274719238
1684110511796330500,1.84933056640625,0.12418174743652344,-0.48969173431396484,-1.459104061126709
1684110511806372400,1.859372314453125,0.3246103525161743,-0.5979466438293457,-1.1483020782470703
1684110511816414000,1.8694140625,0.6757751703262329,-0.6525545120239258,-1.0367445945739746
1684110511826455600,1.87945556640625,1.2940740585327148,-1.5481929779052734,-1.1777901649475098
1684110511836497200,1.8894970703125,2.0353472232818604,-1.8660154342651367,-0.9112787246704102
1684110511846539000,1.8995390625,2.266369342803955,-0.8142523765563965,-0.4971623420715332
1684110511856580600,1.90958056640625,1.3898041248321533,-0.011629581451416016,-0.5106630325317383
1684110511866622200,1.919622314453125,0.33597421646118164,0.14388227462768555,-0.4142336845397949
1684110511876663800,1.929663818359375,-0.3030862808227539,0.14029932022094727,-0.29218626022338867
1684110511886705700,1.93970556640625,-0.6650861501693726,0.27161502838134766,-0.15484619140625
1684110511896747300,1.949747314453125,-0.9709017276763916,0.4826474189758301,-0.23601579666137695
1684110511906788900,1.959788818359375,-1.2271254062652588,0.4368295669555664,-0.1949329376220703
1684110511916830500,1.96983056640625,-1.0818164348602295,0.35152435302734375,-0.035141944885253906
1684110511926872300,1.979872314453125,-0.836292028427124,-0.0008459091186523438,-0.04574108123779297
1684110511936914000,1.989913818359375,-0.7138184309005737,0.09524297714233398,0.12890863418579102
1684110511946955500,1.99995556640625,-0.5905500650405884,0.22228431701660156,0.4090695381164551
1684110511956997400,2.009997314453125,-0.8034462928771973,0.09185075759887695,-0.11443185806274414
1684110511967039000,2.0200390625,-1.27483069896698,0.24155044555664062,-0.8313851356506348
1684110511977080600,2.03008056640625,-1.6162028312683105,-0.2072443962097168,-0.8848962783813477
1684110511987122200,2.0401220703125,-1.5392236709594727,-0.14001226425170898,-0.8650469779968262
1684110511997164000,2.0501640625,-0.41498124599456787,-0.9404201507568359,-0.4001336097717285
1684110512007205600,2.06020556640625,-0.18158221244812012,-1.1422181129455566,0.18165159225463867
1684110512017247200,2.070247314453125,-0.8954371213912964,-0.4662775993347168,0.08699846267700195
1684110512027288800,2.080288818359375,-0.33154356479644775,0.3745884895324707,-0.04995012283325195
1684110512037330700,2.09033056640625,-0.03797316551208496,0.2793397903442383,0.09441471099853516
1684110512047372300,2.100372314453125,-0.5589674711227417,-0.3486361503601074,-0.2013387680053711
1684110512057414000,2.110413818359375,-0.6934077739715576,-0.6074790954589844,0.026681900024414062
1684110512067455500,2.12045556640625,-0.7869079113006592,-0.2521095275878906,-0.43276309967041016
1684110512077497300,2.130497314453125,-0.6578961610794067,-0.29397058486938477,-0.6702871322631836
1684110512087539000,2.1405390625,-0.34004056453704834,0.09062767028808594,-0.7103242874145508
1684110512097580500,2.15058056640625,-0.21530091762542725,0.3525729179382324,-0.7319679260253906
1684110512107622400,2.160622314453125,-0.18069732189178467,0.8709607124328613,-0.32338714599609375
1684110512117664000,2.1706640625,-0.32027876377105713,1.3455281257629395,-0.2956533432006836
1684110512127705600,2.18070556640625,-0.4286344051361084,1.5701632499694824,-0.6811795234680176
1684110512137747500,2.19074755859375,-0.5689871311187744,1.7538642883300781,-0.7240948677062988
1684110512147789000,2.2007890625,-0.4995838403701782,1.536327838897705,-0.8003625869750977
1684110512157830700,2.21083056640625,0.006693601608276367,2.016789436340332,0.008272171020507812
1684110512167872300,2.220872314453125,0.3629218339920044,0.6942782402038574,-0.6335320472717285
1684110512177914000,2.2309140625,0.31761252880096436,0.6027059555053711,-0.41192626953125
1684110512187955700,2.240955810546875,0.5411694049835205,0.7527518272399902,0.44873857498168945
1684110512197997300,2.250997314453125,0.3795461654663086,0.7995777130126953,0.25841236114501953
1684110512208039000,2.261038818359375,0.13519930839538574,0.752220630645752,-0.5478038787841797
1684110512218080800,2.271080810546875,0.46911585330963135,0.45702695846557617,-0.22295236587524414
1684110512228122400,2.281122314453125,0.6216099262237549,0.9513401985168457,0.12859058380126953
1684110512238164000,2.2911640625,0.3709975481033325,1.1065187454223633,0.43480825424194336
1684110512248205600,2.30120556640625,-0.03703594207763672,1.0740599632263184,-0.07245111465454102
1684110512258247400,2.311247314453125,-0.9930300712585449,1.011040210723877,-0.6335306167602539
1684110512268289000,2.3212890625,-0.9219112396240234,0.7479805946350098,-0.9424962997436523
1684110512278330600,2.33133056640625,-1.1473429203033447,0.8855404853820801,-0.9761219024658203
1684110512288372200,2.341372314453125,-1.5267019271850586,0.6789946556091309,-0.7610063552856445
1684110512298414000,2.3514140625,-2.0187618732452393,0.06760311126708984,-0.4074225425720215
1684110512308455700,2.36145556640625,-1.731781244277954,-0.45080995559692383,0.4038858413696289
1684110512318497300,2.371497314453125,-0.9934711456298828,-0.6809964179992676,1.0930757522583008
1684110512328539000,2.381538818359375,-0.2642688751220703,-0.7458653450012207,1.8738226890563965
1684110512338580700,2.391580810546875,0.16892695426940918,-0.854649543762207,2.7679505348205566
1684110512348622300,2.401622314453125,0.272305965423584,-0.5074658393859863,2.793062210083008
1684110512358664000,2.411663818359375,-0.16181015968322754,0.3400087356567383,1.6916112899780273
1684110512368705500,2.42170556640625,-0.935051441192627,1.2958660125732422,0.687774658203125
1684110512378747400,2.431747314453125,-1.306016445159912,1.0115408897399902,0.2615370750427246
1684110512388789000,2.4417890625,-1.3209378719329834,0.4635958671569824,0.20709562301635742
1684110512398830600,2.45183056640625,-0.8923052549362183,-0.1154484748840332,0.3186507225036621
1684110512408872400,2.46187255859375,-0.36956989765167236,-0.22891616821289062,0.19095087051391602
1684110512418914000,2.4719140625,-0.7630358934402466,-0.4723057746887207,0.12055110931396484
1684110512428955600,2.48195556640625,-1.5211735963821411,-0.9424371719360352,0.294339656829834
1684110512438997200,2.491997314453125,-1.6657103300094604,-2.213083267211914,0.17138910293579102
1684110512449039000,2.5020390625,-1.9101622104644775,-4.064479351043701,0.5967154502868652
1684110512459080700,2.512080810546875,-1.6578850746154785,-4.738076686859131,1.805368423461914
1684110512469122300,2.522122314453125,-1.0247799158096313,-3.508314609527588,2.219698429107666
1684110512479164000,2.532163818359375,-0.011487782001495361,-0.9623241424560547,1.2401013374328613
1684110512489205800,2.542205810546875,0.6865788698196411,1.0837273597717285,0.42066097259521484
1684110512499247400,2.552247314453125,0.44159746170043945,1.3504700660705566,-1.4355478286743164
1684110512509289000,2.5622890625,0.3166179358959198,0.5798540115356445,-2.4038751125335693
1684110512519330600,2.57233056640625,0.24728578329086304,0.800959587097168,-2.5691285133361816
1684110512529372400,2.582372314453125,-0.5850136280059814,-0.07726335525512695,-2.9460806846618652
1684110512539414000,2.5924140625,-1.1841422319412231,-1.0809826850891113,-2.804006814956665
1684110512549455600,2.60245556640625,-1.2008576393127441,-0.8411822319030762,-1.9519147872924805
1684110512559497200,2.612497314453125,-1.2694895267486572,-0.6058206558227539,-1.4512948989868164
1684110512569539000,2.6225390625,-1.061893105506897,-0.6683578491210938,-1.4629230499267578
1684110512579580700,2.63258056640625,-0.5987789034843445,-0.37747764587402344,-1.4344391822814941
1684110512589622300,2.642622314453125,-0.2282048463821411,-0.17091655731201172,-1.427903175354004
1684110512599663900,2.652663818359375,0.06926405429840088,-0.107757568359375,-1.380993366241455
1684110512609705700,2.662705810546875,0.3634340763092041,-0.2519350051879883,-1.1058306694030762
1684110512619747300,2.672747314453125,0.6330188512802124,-0.3978233337402344,-0.7541646957397461
1684110512629789000,2.682788818359375,0.785406768321991,-0.4670906066894531,-0.3482499122619629
1684110512639830500,2.69283056640625,0.9385435581207275,-0.5013570785522461,-0.1419973373413086
1684110512649872400,2.702872314453125,1.1196225881576538,-0.5735740661621094,0.09264755249023438
1684110512659914000,2.7129140625,1.2300002574920654,-0.44977474212646484,0.07427978515625
1684110512669955600,2.72295556640625,1.0954227447509766,-0.255157470703125,-0.09792089462280273
1684110512679997200,2.7329970703125,0.8223813772201538,0.014467239379882812,-0.32964420318603516
1684110512690039000,2.7430390625,0.4633544087409973,0.27924489974975586,-0.6112890243530273
1684110512700080600,2.75308056640625,0.33803534507751465,0.5140299797058105,-0.826502799987793
1684110512710122200,2.763122314453125,0.17384664714336395,0.856353759765625,-0.6560201644897461
1684110512720163800,2.773163818359375,0.21955141425132751,0.8732008934020996,-0.3279285430908203
1684110512730205700,2.783205810546875,0.5328325629234314,0.7881689071655273,-0.28673458099365234
1684110512740247300,2.793247314453125,0.7757270336151123,0.5787701606750488,-0.32346153259277344
1684110512750289000,2.803288818359375,0.9477078318595886,0.7266168594360352,-0.35787296295166016
1684110512760330500,2.81333056640625,0.5701765418052673,-0.0923004150390625,-0.49286508560180664
1684110512770372400,2.823372314453125,0.7676737904548645,0.0823659896850586,-0.21900463104248047
1684110512780414000,2.8334140625,0.88443523645401,0.39584922790527344,-0.617095947265625
1684110512790455600,2.84345556640625,0.5525772571563721,0.21678447723388672,-1.0958189964294434
1684110512800497200,2.8534970703125,0.5237446427345276,-0.12856101989746094,-1.5458097457885742
1684110512810539000,2.8635390625,0.7218355536460876,-0.4274015426635742,-1.837104320526123
1684110512820580600,2.87358056640625,1.5689245462417603,-0.5734462738037109,-1.7892122268676758
1684110512830622200,2.883622314453125,1.8312036991119385,-0.7477846145629883,-1.1177663803100586
1684110512840663800,2.893663818359375,1.5400454998016357,-1.533738136291504,-0.4521965980529785
1684110512850705700,2.90370556640625,1.1260273456573486,-2.1134414672851562,0.04334068298339844
1684110512860747300,2.913747314453125,0.9073319435119629,-2.047595977783203,0.6037759780883789
1684110512870788900,2.923788818359375,0.5934309959411621,-1.702829360961914,0.9438834190368652
1684110512880830500,2.93383056640625,0.4130552113056183,-1.0245704650878906,0.9892878532409668
1684110512890872300,2.943872314453125,0.47968414425849915,-0.5098705291748047,0.915285587310791
1684110512900914000,2.953913818359375,0.5775099396705627,-0.18477439880371094,0.4965357780456543
1684110512910955500,2.96395556640625,0.6512044668197632,0.5623130798339844,0.2736482620239258
1684110512920997000,2.9739970703125,0.5487939119338989,0.7351436614990234,-0.15934133529663086
1684110512931038700,2.984038818359375,0.3358123302459717,0.6614494323730469,-0.6512541770935059
1684110512941080600,2.99408056640625,0.24144229292869568,0.39635181427001953,-1.2340054512023926
1684110512951122200,3.0041220703125,0.27216267585754395,-0.2613506317138672,-1.993947982788086
1684110512961163800,3.014163818359375,0.2468213140964508,-1.255784034729004,-2.152646780014038
1684110512971205600,3.02420556640625,0.5707718133926392,-2.0021486282348633,-1.2809383869171143
1684110512981247200,3.034247314453125,1.5513995885849,-1.2995424270629883,0.4564690589904785
1684110512991288800,3.044288818359375,1.7840797901153564,-0.2712211608886719,1.358999252319336
1684110513001330400,3.054330322265625,1.0684895515441895,0.3474559783935547,0.6384472846984863
1684110513011372300,3.064372314453125,0.08272522687911987,0.3016700744628906,0.0499415397644043
1684110513021414000,3.074413818359375,-0.3497435450553894,0.3986244201660156,0.5080704689025879
1684110513031455500,3.08445556640625,-0.7869925498962402,0.8332939147949219,0.5290656089782715
1684110513041497000,3.0944970703125,-0.3679279685020447,0.4833831787109375,0.9357962608337402
1684110513051539000,3.1045390625,-0.0760270208120346,0.2589073181152344,0.8760762214660645
1684110513061580500,3.11458056640625,0.20267319679260254,-0.13228988647460938,0.4646615982055664
1684110513071622100,3.1246220703125,0.4137769043445587,-0.31851959228515625,-0.12997055053710938
1684110513081663700,3.134663818359375,0.8957041501998901,-0.06319713592529297,-0.1319422721862793
1684110513091705300,3.144705322265625,1.0407129526138306,-0.1548919677734375,0.1760392189025879
1684110513101747200,3.154747314453125,1.1320581436157227,-0.12596511840820312,0.5377092361450195
1684110513111788800,3.164788818359375,1.1986682415008545,-0.21170330047607422,0.8580007553100586
1684110513121830400,3.174830322265625,0.9280907511711121,-0.16088294982910156,0.8298912048339844
1684110513131872000,3.1848720703125,0.4386920928955078,-0.09932327270507812,0.3872952461242676
1684110513141913900,3.194913818359375,-0.3697231411933899,-0.3827857971191406,-0.400360107421875
1684110513151955500,3.20495556640625,-0.6819879412651062,-0.6108465194702148,-0.5214948654174805
1684110513161997000,3.2149970703125,-0.26490163803100586,-0.1411590576171875,0.008550167083740234
1684110513172038700,3.22503857421875,0.1262434720993042,0.14838027954101562,0.29405689239501953
1684110513182080500,3.23508056640625,0.36793234944343567,0.1315755844116211,0.7843594551086426
1684110513192122000,3.2451220703125,0.31929975748062134,-0.06685256958007812,0.9050717353820801
1684110513202163700,3.255163818359375,0.33665210008621216,0.19917869567871094,0.5569705963134766
1684110513212205300,3.265205322265625,0.413051575422287,0.7764148712158203,0.5186595916748047
1684110513222247200,3.2752470703125,0.6599737405776978,0.9866456985473633,0.15737676620483398
1684110513232288800,3.285288818359375,0.3927549719810486,1.264420509338379,0.4917006492614746
1684110513242330400,3.295330322265625,0.1652158498764038,1.2021489143371582,0.19753384590148926
1684110513252372000,3.3053720703125,0.3868798315525055,0.8356990814208984,0.29509568214416504
1684110513262413600,3.31541357421875,1.0905158519744873,1.341141700744629,0.5078465938568115
1684110513272455400,3.325455322265625,1.6465414762496948,1.7022972106933594,0.6652998924255371
1684110513282497000,3.3354970703125,1.61309814453125,1.5698189735412598,-0.08408021926879883
1684110513292538600,3.34553857421875,1.7989416122436523,1.6306648254394531,0.6785712242126465
1684110513302580200,3.355580322265625,1.222025990486145,1.048720359802246,0.6924951076507568
1684110513312622000,3.3656220703125,0.5621621012687683,0.25183868408203125,0.5685415267944336
1684110513322663700,3.37566357421875,-0.15237420797348022,-0.4580240249633789,0.29891204833984375
1684110513332705300,3.385705322265625,-0.6929049491882324,-0.7281408309936523,0.09583306312561035
1684110513342747000,3.395746826171875,-1.0779247283935547,-0.9212236404418945,-0.12691712379455566
1684110513352788700,3.405788818359375,-1.070961356163025,-0.5258884429931641,0.07739806175231934
1684110513362830300,3.415830322265625,-0.9695891737937927,-0.39741992950439453,0.49304795265197754
1684110513372872000,3.425871826171875,-0.9581420421600342,-0.47796154022216797,0.9103715419769287
1684110513382913500,3.43591357421875,-0.876951277256012,-0.6307497024536133,1.1477413177490234
1684110513392955400,3.445955322265625,-0.4452090859413147,-0.6526594161987305,1.2487602233886719
1684110513402997000,3.4559970703125,0.15362700819969177,-0.599614143371582,1.2886011600494385
1684110513413038600,3.46603857421875,0.5889063477516174,-0.505061149597168,1.0960757732391357
1684110513423080200,3.476080078125,0.9591721296310425,-0.1491870880126953,0.858818531036377
1684110513433121800,3.486121826171875,1.0998554229736328,-0.3047981262207031,0.38295936584472656
1684110513443163600,3.49616357421875,1.3217281103134155,-0.1519460678100586,0.06465983390808105
1684110513453205200,3.506205322265625,1.2600312232971191,-0.13469219207763672,-0.134627103805542
1684110513463246800,3.516246826171875,1.1982587575912476,0.10940265655517578,-0.14414548873901367
1684110513473288400,3.526288330078125,0.7437979578971863,-0.1372814178466797,-0.37305426597595215
1684110513483330300,3.536330322265625,0.4282202422618866,-0.1592874526977539,-0.5025632381439209
1684110513493372000,3.546371826171875,0.10017350316047668,-0.22296524047851562,-0.5608644485473633
1684110513503413500,3.55641357421875,-0.1378847360610962,0.14762496948242188,-0.3781087398529053
1684110513513455000,3.566455078125,-0.5592291355133057,0.5013141632080078,-0.2306041717529297
1684110513523497000,3.5764970703125,-0.8885520696640015,1.4324350357055664,0.014383316040039062
1684110513533538600,3.58653857421875,-1.5863577127456665,1.9331293106079102,-0.10577011108398438
1684110513543580200,3.596580078125,-2.260831594467163,0.748560905456543,-0.7905502319335938
1684110513553621800,3.606621826171875,-1.9944353103637695,0.27755165100097656,-1.1573315858840942
1684110513563663400,3.616663330078125,-1.461545467376709,0.5250711441040039,-1.3264074325561523
1684110513573705200,3.626705322265625,-1.067477822303772,0.9942989349365234,-1.2170509099960327
1684110513583746800,3.636746826171875,-0.7403393983840942,1.0169076919555664,-0.877485990524292
1684110513593788400,3.646788330078125,-0.8072112798690796,-0.29336071014404297,-0.7067267894744873
1684110513603830000,3.656830078125,-0.6064046621322632,-1.3581371307373047,-0.7676045894622803
1684110513613871900,3.666871826171875,0.009725332260131836,-1.1841144561767578,-0.46035170555114746
1684110513623913500,3.67691357421875,0.015387535095214844,-1.2630186080932617,-0.13571596145629883
1684110513633955000,3.686955078125,-0.2735685110092163,-1.2721500396728516,-0.329770565032959
1684110513643996700,3.69699658203125,-0.3219183683395386,-1.200326919555664,-0.6113419532775879
1684110513654038500,3.70703857421875,-0.3512876033782959,-1.273275375366211,-0.2127549648284912
1684110513664080100,3.717080078125,-0.047583937644958496,-0.8757591247558594,-0.07548403739929199
1684110513674121700,3.727121826171875,0.13443076610565186,-0.3784208297729492,-0.10687923431396484
1684110513684163300,3.737163330078125,0.10363984107971191,-0.19478321075439453,0.04169774055480957
1684110513694205000,3.747204833984375,0.02291691303253174,-0.3207416534423828,0.06011772155761719
1684110513704246800,3.757246826171875,0.022739171981811523,-0.3232440948486328,0.10745096206665039
1684110513714288400,3.767288330078125,0.010672211647033691,-0.008101463317871094,0.009936332702636719
1684110513724330000,3.777330078125,-0.09162342548370361,0.12308692932128906,0.12715506553649902
1684110513734371600,3.78737158203125,-0.261777400970459,-0.0811605453491211,0.18824481964111328
1684110513744413400,3.797413330078125,-0.4785127639770508,-0.8555593490600586,0.010443449020385742
1684110513754455000,3.807455078125,-0.6314151287078857,-1.5246925354003906,-0.015411138534545898
1684110513764496600,3.81749658203125,-0.8414390087127686,-1.5853471755981445,-0.03168344497680664
1684110513774538200,3.827538330078125,-0.8911583423614502,-1.2683515548706055,-0.13380789756774902
1684110513784579800,3.837579833984375,-0.9396934509277344,-0.6706609725952148,-0.15880632400512695
1684110513794621700,3.84762158203125,-0.8217959403991699,-1.4399633407592773,-0.4215209484100342
1684110513804663300,3.857663330078125,-0.6869089603424072,-0.9016141891479492,-0.3198995590209961
1684110513814705000,3.867704833984375,-0.44876551628112793,-0.1386871337890625,-0.40676426887512207
1684110513824746500,3.87774658203125,-0.3478248119354248,-0.24219131469726562,-0.584883451461792
1684110513834788000,3.8877880859375,-0.2934074401855469,-0.5445184707641602,-0.8929717540740967
1684110513844830000,3.897829833984375,-0.23264598846435547,-0.6836385726928711,-1.2544903755187988
1684110513854871600,3.90787158203125,-0.11368227005004883,-0.296630859375,-1.4568253755569458
1684110513864913200,3.9179130859375,0.22108912467956543,0.21491241455078125,-1.2724504470825195
1684110513874955000,3.927955078125,0.5840092897415161,0.7081165313720703,-0.9579992294311523
1684110513884996600,3.93799658203125,0.5531017780303955,1.0327033996582031,-0.42427921295166016
1684110513895038200,3.9480380859375,1.271296501159668,2.6722140312194824,-0.5805578231811523
1684110513905079800,3.958079833984375,0.3963794708251953,3.0939340591430664,0.07847428321838379
1684110513915121400,3.968121337890625,-0.11186075210571289,2.383296489715576,-0.052820682525634766
1684110513925163300,3.978163330078125,-0.5399684906005859,1.4926671981811523,-0.25104641914367676
1684110513935204900,3.988204833984375,-0.7514674663543701,0.5485372543334961,-0.30171966552734375
1684110513945246500,3.99824658203125,-0.8012802600860596,-0.24759387969970703,-0.3967170715332031
1684110513955288000,4.0082880859375,-0.5726892948150635,-0.21079254150390625,0.17621827125549316
1684110513965329700,4.01832958984375,-0.5329279899597168,-0.9070758819580078,0.42961955070495605
1684110513975371500,4.02837158203125,-0.21757078170776367,-1.3763933181762695,0.4943222999572754
1684110513985413000,4.0384130859375,0.1628192663192749,-1.553511619567871,0.3837893009185791
1684110513995454700,4.048454833984375,0.3422818183898926,-1.09954833984375,0.02930283546447754
1684110514005496300,4.058496337890625,0.21657514572143555,-0.5342311859130859,-0.450711727142334
1684110514015538200,4.0685380859375,0.0972890853881836,-0.2623138427734375,-0.5474221706390381
1684110514025579800,4.078579833984375,-0.00993657112121582,0.18495655059814453,-0.3023562431335449
1684110514035621400,4.088621337890625,-0.08909821510314941,0.3919954299926758,-0.033121585845947266
1684110514045663000,4.0986630859375,-0.1177377700805664,0.4927091598510742,0.15259575843811035
1684110514055704600,4.10870458984375,-0.02622389793395996,0.5696926116943359,0.2084507942199707
1684110514065746400,4.118746337890625,0.09140050411224365,0.6167888641357422,0.23421764373779297
1684110514075788000,4.1287880859375,0.15732228755950928,0.5506277084350586,0.11960625648498535
1684110514085829600,4.13882958984375,0.14667129516601562,0.4909372329711914,-0.08368992805480957
1684110514095871200,4.148871337890625,0.12545108795166016,0.44495201110839844,-0.3620643615722656
1684110514105912800,4.158912841796875,0.11156821250915527,0.38628196716308594,-0.6166864633560181
1684110514115954700,4.16895458984375,0.11289453506469727,0.39388084411621094,-0.7843853235244751
1684110514125996300,4.178996337890625,0.19518089294433594,0.6281414031982422,-0.7660517692565918
1684110514136038000,4.189037841796875,0.22438836097717285,0.6299705505371094,-0.65264892578125
1684110514146079500,4.19907958984375,0.23201024532318115,0.5813274383544922,-0.5468759536743164
1684110514156121300,4.209121337890625,0.12348043918609619,0.453125,-0.4615970849990845
1684110514166163000,4.219162841796875,-0.03667593002319336,0.26114559173583984,-0.3060019016265869
1684110514176204500,4.22920458984375,-0.1232309341430664,0.28424644470214844,-0.14909982681274414
1684110514186246100,4.23924609375,-0.3282043933868408,0.06020355224609375,-0.026282787322998047
1684110514196287700,4.249287841796875,-0.41941654682159424,-0.12881946563720703,0.07579708099365234
1684110514206329600,4.25932958984375,-0.3875662088394165,-0.14079570770263672,0.2305152416229248
1684110514216371200,4.26937109375,-0.25776898860931396,0.032822608947753906,0.35854077339172363
1684110514226412800,4.279412841796875,-0.14613783359527588,0.25405406951904297,0.4746568202972412
1684110514236454400,4.289454345703125,-0.13674843311309814,0.28102779388427734,0.5221302509307861
1684110514246496300,4.299496337890625,-0.3429446220397949,0.1311788558959961,0.6297584772109985
1684110514256537900,4.309537841796875,-0.6175016164779663,-0.08495712280273438,0.6322880983352661
1684110514266579500,4.319579345703125,-0.8921761512756348,-0.4091176986694336,0.6257005929946899
1684110514276621000,4.32962109375,-1.0088155269622803,-0.6047430038452148,0.7193847894668579
1684110514286662700,4.33966259765625,-1.075211524963379,-0.6788301467895508,0.7165919542312622
1684110514296704500,4.34970458984375,-1.165135145187378,-0.7386245727539062,0.6329721212387085
1684110514306746000,4.35974609375,-1.1624159812927246,-0.7117156982421875,0.4851933717727661
1684110514316787700,4.36978759765625,-1.1907212734222412,-0.7814407348632812,0.2624785900115967
1684110514326829300,4.379829345703125,-1.2085106372833252,-0.8994283676147461,-0.0700000524520874
1684110514336871000,4.389870849609375,-1.2157539129257202,-0.7217397689819336,-0.2377997636795044
1684110514346912800,4.399912841796875,-1.1081881523132324,-0.14187240600585938,-0.22004854679107666
1684110514356954400,4.409954345703125,-0.8355045318603516,0.32338905334472656,-0.007079601287841797
1684110514366996000,4.419995849609375,-0.4760472774505615,0.531285285949707,0.24079537391662598
1684110514377037600,4.43003759765625,-0.2657254934310913,0.4851808547973633,0.2948964834213257
1684110514387079200,4.4400791015625,-0.06076157093048096,0.5110149383544922,0.3289482593536377
1684110514397121000,4.45012109375,0.004702448844909668,0.48954296112060547,0.251539945602417
1684110514407162600,4.46016259765625,0.045929670333862305,0.35182857513427734,0.18378853797912598
1684110514417204200,4.470204345703125,0.08443033695220947,0.25353145599365234,0.06924819946289062
1684110514427245800,4.480245849609375,0.04019057750701904,0.12527179718017578,0.10229802131652832
1684110514437287400,4.490287353515625,-0.08020317554473877,0.03602886199951172,0.23168432712554932
1684110514447329300,4.500329345703125,-0.2682788372039795,0.10451984405517578,0.5380724668502808
1684110514457371000,4.510370849609375,-0.37389397621154785,-0.03127098083496094,0.648405909538269
1684110514467412500,4.52041259765625,-0.5076389312744141,-0.03951549530029297,0.5438227653503418
1684110514477454000,4.5304541015625,-0.5490005016326904,-0.04008007049560547,0.43965744972229004
1684110514487496000,4.540495849609375,-0.4300119876861572,-0.12334060668945312,0.23726487159729004
1684110514497537500,4.55053759765625,-0.3401143550872803,-0.2927579879760742,-0.032032132148742676
1684110514507579100,4.5605791015625,-0.11013686656951904,-0.3682270050048828,-0.26041483879089355
1684110514517620700,4.570620849609375,0.049594998359680176,-0.20403099060058594,-0.3262932300567627
1684110514527662300,4.580662353515625,0.12962162494659424,-0.26918888092041016,-0.20845210552215576
1684110514537704200,4.5907041015625,0.13870060443878174,-0.2460002899169922,-0.17912256717681885
1684110514547745800,4.600745849609375,0.0767209529876709,-0.1158742904663086,-0.2214972972869873
1684110514557787400,4.610787353515625,0.02348005771636963,0.2068624496459961,-0.22260832786560059
1684110514567829000,4.6208291015625,0.017816662788391113,1.0061054229736328,-0.1182931661605835
1684110514577870600,4.63087060546875,-0.006998181343078613,0.34393978118896484,0.04150247573852539
1684110514587912400,4.640912353515625,-0.012726306915283203,0.5504894256591797,-0.022484302520751953
1684110514597954000,4.6509541015625,-0.04103195667266846,0.41504573822021484,0.29037177562713623
1684110514607995600,4.66099560546875,-0.09594297409057617,0.03882026672363281,0.31135129928588867
1684110514618037200,4.671037353515625,-0.13749754428863525,-0.0183563232421875,0.10935676097869873
1684110514628078800,4.681078857421875,-0.11033117771148682,0.0998077392578125,0.27063679695129395
1684110514638120700,4.69112060546875,-0.11475682258605957,-0.2026386260986328,0.24007725715637207
1684110514648162300,4.701162353515625,-0.15925490856170654,-0.06486320495605469,0.014496684074401855
1684110514658204000,4.711203857421875,-0.17253899574279785,-0.008671760559082031,0.01856088638305664
1684110514668245500,4.72124560546875,-0.08678948879241943,-0.06752490997314453,0.0916755199432373
1684110514678287000,4.731287109375,-0.02360403537750244,0.4780397415161133,0.09085309505462646
1684110514688329000,4.741328857421875,0.012606143951416016,0.23449230194091797,0.08244442939758301
1684110514698370600,4.75137060546875,-0.017711877822875977,-0.12716197967529297,-0.005255222320556641
1684110514708412200,4.761412109375,-0.010423779487609863,-0.13868045806884766,0.08378481864929199
1684110514718453800,4.771453857421875,0.01540672779083252,0.10050773620605469,0.2696484327316284
1684110514728495400,4.781495361328125,-0.05149054527282715,0.21720123291015625,0.17356014251708984
1684110514738537200,4.791537109375,-0.11719059944152832,0.16430950164794922,0.06802701950073242
1684110514748578800,4.801578857421875,-0.16229093074798584,0.1359090805053711,0.12053656578063965
1684110514758620400,4.811620361328125,-0.12907195091247559,0.24932003021240234,0.11841750144958496
1684110514768662000,4.821662109375,-0.09148168563842773,0.37764739990234375,0.18477582931518555
1684110514778703600,4.83170361328125,-0.09828877449035645,0.7492542266845703,0.14680492877960205
1684110514788745500,4.841745361328125,-0.11398661136627197,1.0446996688842773,0.15460050106048584
1684110514798787000,4.851787109375,-0.16398167610168457,0.49041080474853516,0.2171996831893921
1684110514808828700,4.86182861328125,-0.22538411617279053,0.0000057220458984375,0.1606130599975586
1684110514818870300,4.871870361328125,-0.1597815752029419,0.06916999816894531,0.2547982931137085
1684110514828912000,4.881912109375,-0.15715384483337402,-0.4748973846435547,0.3606058359146118
1684110514838953700,4.89195361328125,-0.17196190357208252,-1.040654182434082,0.2736917734146118
1684110514848995300,4.901995361328125,-0.20589721202850342,-1.0509586334228516,0.08470475673675537
1684110514859037000,4.912036865234375,-0.17309927940368652,-0.6376190185546875,0.01945948600769043
1684110514869078500,4.92207861328125,-0.08690047264099121,-0.14902496337890625,0.043303728103637695
1684110514879120100,4.9321201171875,0.042749643325805664,1.1882514953613281,0.0697927474975586
1684110514889162000,4.942161865234375,-0.006512999534606934,0.7228002548217773,0.2571321725845337
1684110514899203600,4.95220361328125,-0.08356988430023193,0.29768943786621094,0.1252281665802002
1684110514909245200,4.9622451171875,-0.040990591049194336,-0.016864776611328125,0.19730627536773682
1684110514919286800,4.972286865234375,0.016231298446655273,-0.14264583587646484,0.2568138837814331
1684110514929328600,4.98232861328125,0.04907357692718506,0.07291030883789062,0.22787904739379883
1684110514939370200,4.992370361328125,0.00501704216003418,0.5983600616455078,0.29374802112579346
1684110514949411800,5.002411865234375,-0.09957671165466309,0.6957635879516602,0.431154727935791
1684110514959453400,5.012453369140625,-0.2731907367706299,0.5412693023681641,0.3830915689468384
1684110514969495000,5.0224951171875,-0.39300060272216797,0.33211421966552734,0.24506831169128418
1684110514979536600,5.03253662109375,-0.3493952751159668,0.23184490203857422,0.1678692102432251
1684110514989578500,5.04257861328125,-0.24832391738891602,-0.0766744613647461,0.1357254981994629
1684110514999620000,5.0526201171875,-0.1722574234008789,-0.25769996643066406,-0.034953951835632324
1684110515009661700,5.06266162109375,-0.12174069881439209,-0.282470703125,-0.19266188144683838
1684110515019703300,5.072703369140625,-0.1361144781112671,-0.35834789276123047,-0.26648974418640137
1684110515029745200,5.0827451171875,-0.1637943983078003,-0.4067106246948242,-0.31548142433166504
1684110515039786800,5.092786865234375,-0.19880962371826172,-0.3457050323486328,-0.2644469738006592
1684110515049828400,5.102828369140625,-0.2222079038619995,-0.22442054748535156,-0.11608409881591797
1684110515059870000,5.112869873046875,-0.19559669494628906,0.19867992401123047,0.01192772388458252
1684110515069911600,5.12291162109375,-0.15629029273986816,0.4569835662841797,0.2029322385787964
1684110515079953200,5.132953125,-0.14864099025726318,0.5176773071289062,0.2971663475036621
1684110515089995000,5.1429951171875,-0.11747360229492188,0.4757099151611328,0.3310658931732178
1684110515100036600,5.15303662109375,-0.07047069072723389,0.42432403564453125,0.3509923219680786
1684110515110078200,5.163078125,-0.08988034725189209,0.1892719268798828,0.25056207180023193
1684110515120119800,5.173119873046875,-0.12403428554534912,0.054106712341308594,0.05105137825012207
1684110515130161400,5.183161376953125,-0.15573418140411377,-0.1779155731201172,-0.09081840515136719
1684110515140203300,5.193203369140625,-0.14108037948608398,-0.2694883346557617,-0.18921363353729248
1684110515150244900,5.203244873046875,-0.12523901462554932,-0.16623497009277344,-0.2545713186264038
1684110515160286500,5.213286376953125,-0.17090559005737305,0.05108165740966797,-0.31582021713256836
1684110515170328000,5.223328125,-0.24625468254089355,0.15208053588867188,-0.27468764781951904
1684110515180369700,5.23336962890625,-0.267436146736145,0.2939157485961914,-0.206030011177063
1684110515190411500,5.24341162109375,-0.2575300931930542,0.21210956573486328,-0.09827291965484619
1684110515200453000,5.253453125,-0.21017420291900635,-0.15102481842041016,-0.008128762245178223
1684110515210494700,5.26349462890625,-0.1943756341934204,-0.6848678588867188,0.019104957580566406
1684110515220536300,5.273536376953125,-0.16317522525787354,-0.9436044692993164,-0.004568696022033691
1684110515230578000,5.283577880859375,-0.09025073051452637,-0.7408151626586914,-0.12184667587280273
1684110515240619800,5.293619873046875,-0.04044198989868164,-0.09621524810791016,-0.20975172519683838
1684110515250661400,5.303661376953125,-0.049173831939697266,0.3072080612182617,-0.3184332847595215
1684110515260703000,5.313702880859375,-0.15409362316131592,0.4382038116455078,-0.2532954216003418
1684110515270744600,5.32374462890625,-0.27903902530670166,0.4047994613647461,-0.1414123773574829
1684110515280786200,5.3337861328125,-0.3425236940383911,0.2612791061401367,0.0794898271560669
1684110515290827800,5.343827880859375,-0.34279465675354004,0.16721725463867188,0.13248991966247559
1684110515300869600,5.35386962890625,-0.2952824831008911,0.11717891693115234,0.18551266193389893
1684110515310911200,5.3639111328125,-0.2155170440673828,0.07510757446289062,0.24984526634216309
1684110515320952800,5.373952880859375,-0.1650940179824829,-0.06294918060302734,0.23475265502929688
1684110515330994400,5.383994384765625,-0.13585948944091797,-0.17770099639892578,0.1748208999633789
1684110515341036300,5.394036376953125,-0.09854531288146973,-0.43915653228759766,0.1295396089553833
1684110515351078000,5.404077880859375,-0.10929977893829346,-0.5881977081298828,-0.023075103759765625
1684110515361119500,5.414119384765625,-0.12480366230010986,-0.5674781799316406,-0.19922173023223877
1684110515371161000,5.4241611328125,-0.11975419521331787,-0.33461952209472656,-0.4176880121231079
1684110515381202700,5.43420263671875,-0.11662530899047852,-0.1474294662475586,-0.4406942129135132
1684110515391244300,5.444244384765625,-0.10895323753356934,-0.0030488967895507812,-0.37679874897003174
1684110515401286100,5.4542861328125,-0.12785589694976807,0.0684804916381836,-0.3392075300216675
1684110515411327700,5.46432763671875,-0.13795018196105957,0.02361011505126953,-0.31144607067108154
1684110515421369300,5.474369384765625,-0.13006579875946045,0.029413223266601562,-0.3245675563812256
1684110515431411000,5.484410888671875,-0.16507184505462646,-0.22090530395507812,-0.256783127784729
1684110515441452500,5.49445263671875,-0.14694583415985107,-0.3561239242553711,-0.21129262447357178
1684110515451494400,5.504494384765625,-0.09967398643493652,-0.5454750061035156,-0.23530352115631104
1684110515461536000,5.514535888671875,-0.003135204315185547,-0.6348981857299805,-0.33433055877685547
1684110515471577600,5.52457763671875,0.020949721336364746,-0.6376867294311523,-0.40800940990448
1684110515481619200,5.534619140625,0.041466593742370605,-0.6213569641113281,-0.4533427953720093
1684110515491660800,5.544660888671875,0.053124189376831055,-0.3414802551269531,-0.535402774810791
1684110515501702700,5.55470263671875,0.08858942985534668,-0.08726024627685547,-0.5995393991470337
1684110515511744300,5.564744140625,0.1659841537475586,0.04067802429199219,-0.6404998898506165
1684110515521785900,5.574785888671875,0.2657160758972168,0.08932209014892578,-0.6058855652809143
1684110515531827500,5.584827392578125,0.3614497184753418,0.09300994873046875,-0.6118215322494507
1684110515541869000,5.594869140625,0.4504004120826721,0.09027290344238281,-0.6547456383705139
1684110515551911000,5.604910888671875,0.473483681678772,0.16832447052001953,-0.6092339754104614
1684110515561952500,5.614952392578125,0.5043911933898926,0.21270084381103516,-0.5671170949935913
1684110515571994000,5.624994140625,0.5260066390037537,0.21210384368896484,-0.5291668772697449
1684110515582035700,5.63503564453125,0.5188767910003662,0.17174625396728516,-0.3660058379173279
1684110515592077300,5.645077392578125,0.4639100432395935,0.12028312683105469,-0.19553858041763306
1684110515602119200,5.655119140625,0.40149253606796265,0.048697471618652344,-0.1743122935295105
1684110515612160800,5.665160888671875,0.3053739070892334,0.0567474365234375,-0.2809683084487915
1684110515622202400,5.675202392578125,0.19027674198150635,-0.15572834014892578,-0.28489577770233154
1684110515632244000,5.685243896484375,0.11969709396362305,-0.2344655990600586,-0.04729008674621582
1684110515642285600,5.69528564453125,0.17062300443649292,-0.40818023681640625,0.05031090974807739
1684110515652327200,5.7053271484375,0.3533763289451599,-0.6763277053833008,0.30528491735458374
1684110515662369000,5.715369140625,0.08657926321029663,-0.8169975280761719,0.6924203038215637
1684110515672410600,5.72541064453125,-0.3152863383293152,-0.6397323608398438,1.183558702468872
1684110515682452200,5.7354521484375,-0.41069620847702026,-0.3592071533203125,1.414527177810669
1684110515692493800,5.745493896484375,-0.42648571729660034,0.10817241668701172,1.4788563251495361
1684110515702535400,5.755535400390625,-0.5470581650733948,0.766357421875,1.4891600608825684
1684110515712577300,5.765577392578125,-0.7728852033615112,1.0407390594482422,1.4054484367370605
1684110515722619000,5.775618896484375,-0.9694779515266418,0.74615478515625,1.4191070795059204
1684110515732660500,5.785660400390625,-1.01420259475708,0.40947723388671875,1.226348876953125
1684110515742702000,5.7957021484375,-0.8181968927383423,0.3463163375854492,0.9660407304763794
1684110515752743700,5.80574365234375,-0.40337854623794556,0.18606185913085938,0.6395190358161926
1684110515762785300,5.815785400390625,-0.025667905807495117,0.2800407409667969,0.393632709980011
1684110515772827100,5.8258271484375,0.2802591919898987,0.38398170471191406,0.17434298992156982
1684110515782868700,5.83586865234375,0.4522620141506195,0.37122249603271484,0.036717772483825684
1684110515792910300,5.845910400390625,0.5937474966049194,0.46642112731933594,-0.12125152349472046
1684110515802952000,5.855951904296875,0.6240352392196655,0.6237258911132812,-0.1590726226568222
1684110515812993500,5.86599365234375,0.6466671228408813,0.7161149978637695,-0.093883216381073
1684110515823035400,5.876035400390625,0.6130861639976501,0.6503219604492188,0.038281261920928955
1684110515833077000,5.886076904296875,0.547199010848999,0.5530719757080078,0.09719868004322052
1684110515843118600,5.89611865234375,0.4581591486930847,0.4529848098754883,0.09257790446281433
1684110515853160200,5.90616015625,0.3517594337463379,0.29034996032714844,0.09023942053318024
1684110515863201800,5.916201904296875,0.173628568649292,0.08681201934814453,0.12625879049301147
1684110515873243600,5.92624365234375,-0.11517447233200073,-0.13130760192871094,0.22361145913600922
1684110515883285200,5.93628515625,-0.490530788898468,-0.2661142349243164,0.2880651354789734
1684110515893326800,5.946326904296875,-0.8943437337875366,-0.48981189727783203,0.3601270914077759
1684110515903368400,5.956368408203125,-1.2074861526489258,-0.6159448623657227,0.36219269037246704
1684110515913410000,5.96641015625,-1.388542890548706,-0.7188453674316406,0.3341483771800995
1684110515923451600,5.97645166015625,-1.3890924453735352,-0.6743078231811523,0.39898037910461426
1684110515933493500,5.986493408203125,-1.1825766563415527,-0.6017704010009766,0.49511682987213135
1684110515943535000,5.99653515625,-0.815513014793396,-0.6345586776733398,0.4689594507217407
1684110515953576700,6.00657666015625,-0.3652520179748535,-0.5235376358032227,0.40232378244400024
1684110515963618300,6.016618408203125,0.09776180982589722,-0.41197967529296875,0.3015933036804199
1684110515973660000,6.026659912109375,0.46565937995910645,-0.39291954040527344,0.13637900352478027
1684110515983701800,6.03670166015625,0.6971940994262695,-0.1413726806640625,0.0740075409412384
1684110515993743400,6.046743408203125,0.8426822423934937,-0.0712900161743164,-0.06993305683135986
1684110516003785000,6.056784912109375,0.9111864566802979,-0.046627044677734375,-0.25658369064331055
1684110516013826600,6.06682666015625,0.9190267324447632,0.22856521606445312,-0.4111067056655884
1684110516023868200,6.0768681640625,0.824744701385498,0.020620346069335938,-0.2581515312194824
1684110516033909800,6.08690966796875,0.6125057935714722,-0.12711811065673828,-0.1703513264656067
1684110516043951600,6.09695166015625,0.3077293336391449,-0.1241903305053711,-0.1133260726928711
1684110516053993200,6.1069931640625,-0.020734071731567383,-0.054683685302734375,-0.010173797607421875
1684110516064034800,6.117034912109375,-0.2874601185321808,-0.011877059936523438,0.1539173424243927
1684110516074076400,6.127076416015625,-0.48195701837539673,-0.289306640625,0.35717514157295227
1684110516084118000,6.137117919921875,-0.5876821875572205,-0.46335506439208984,0.512130856513977
1684110516094159600,6.14715966796875,-0.6055502891540527,-0.5152015686035156,0.36205434799194336
1684110516104201500,6.157201416015625,-0.5948877930641174,-0.5289154052734375,0.21719542145729065
1684110516114243000,6.1672431640625,-0.3996511399745941,-0.47816944122314453,0.2926388680934906
1684110516124284700,6.17728466796875,-0.08962145447731018,-0.2077932357788086,0.21137362718582153
1684110516134326300,6.187326171875,0.13579687476158142,-0.15307044982910156,0.09822988510131836
1684110516144367900,6.197367919921875,0.29538246989250183,-0.12486648559570312,0.09496253728866577
1684110516154409700,6.20740966796875,0.47776201367378235,-0.08002567291259766,0.1972753405570984
1684110516164451300,6.217451416015625,0.5480639338493347,0.1343364715576172,0.3084040582180023
1684110516174493000,6.227492919921875,0.5080189108848572,0.152435302734375,0.3437727987766266
1684110516184534500,6.237534423828125,0.4707458019256592,-0.1016836166381836,0.33894121646881104
1684110516194576100,6.247576171875,0.48687535524368286,-0.04958820343017578,0.2912479639053345
1684110516204617700,6.25761767578125,0.4404675364494324,-0.17668628692626953,0.1874457597732544
1684110516214659600,6.26765966796875,0.3690497577190399,-0.09549331665039062,0.11397254467010498
1684110516224701200,6.277701171875,0.30028480291366577,0.09562492370605469,0.020113766193389893
1684110516234742800,6.28774267578125,0.2697942852973938,-0.007235527038574219,-0.1962173581123352
1684110516244784400,6.297784423828125,0.04969761148095131,0.13151168823242188,-0.3045688271522522
1684110516254826000,6.307825927734375,-0.10488562285900116,0.12187671661376953,-0.38250577449798584
1684110516264867800,6.317867919921875,-0.2491328865289688,0.0787191390991211,-0.4712904095649719
1684110516274909400,6.327909423828125,-0.3304365873336792,0.15255069732666016,-0.4438741207122803
1684110516284951000,6.337950927734375,-0.3247418701648712,0.5244874954223633,-0.5071638226509094
1684110516294992600,6.34799267578125,-0.26823291182518005,0.7257480621337891,-0.39145195484161377
1684110516305034200,6.3580341796875,-0.1910078227519989,0.740081787109375,-0.22897261381149292
1684110516315076000,6.368076171875,-0.059837792068719864,0.7231569290161133,-0.14851468801498413
1684110516325117700,6.37811767578125,0.1216660887002945,0.6105537414550781,-0.016030848026275635
1684110516335159300,6.3881591796875,0.1630403697490692,0.6222162246704102,0.09431904554367065
1684110516345201000,6.398200927734375,0.31445127725601196,0.6267023086547852,0.2971976399421692
1684110516355242500,6.408242431640625,0.4037568271160126,0.7198066711425781,0.5179588794708252
1684110516365284000,6.4182841796875,0.44715699553489685,0.7223119735717773,0.7124295234680176
1684110516375326000,6.428325927734375,0.47143152356147766,0.7012605667114258,0.7068911790847778
1684110516385367600,6.438367431640625,0.3913995623588562,0.40827465057373047,0.6578717827796936
1684110516395409200,6.4484091796875,0.2409740388393402,0.27380847930908203,0.5999588966369629
1684110516405450800,6.45845068359375,0.20085182785987854,0.029870986938476562,0.5680583715438843
1684110516415492400,6.468492431640625,0.27711915969848633,0.2735910415649414,0.5114768743515015
1684110516425534200,6.4785341796875,0.34118008613586426,0.6456718444824219,0.6697595715522766
1684110516435575800,6.488575927734375,0.3965609669685364,0.7925987243652344,0.7721002101898193
1684110516445617400,6.498617431640625,0.44765573740005493,1.0682973861694336,0.7309873104095459
1684110516455659000,6.508658935546875,0.47537773847579956,1.321812629699707,0.6848272085189819
1684110516465700600,6.51870068359375,0.4295874238014221,1.7967357635498047,0.6890453100204468
1684110516475742200,6.5287421875,0.42557060718536377,1.8669867515563965,0.8444013595581055
1684110516485784000,6.5387841796875,0.3627265989780426,1.3473711013793945,0.8323748707771301
1684110516495825700,6.54882568359375,0.448467493057251,0.9724302291870117,0.747373104095459
1684110516505867300,6.5588671875,0.5527523159980774,0.9495010375976562,0.737711489200592
1684110516515908900,6.568908935546875,0.5966926217079163,1.0865764617919922,0.705350399017334
1684110516525950500,6.578950439453125,0.5910521745681763,1.1899080276489258,0.7319547533988953
1684110516535992000,6.588991943359375,0.5365004539489746,0.9133090972900391,0.6278892755508423
1684110516546034000,6.599033935546875,0.359577476978302,1.1407232284545898,0.07689392566680908
1684110516556075500,6.609075439453125,0.2861747145652771,1.7678461074829102,0.031184852123260498
1684110516566117000,6.6191171875,0.20562496781349182,2.5168113708496094,0.169511616230011
1684110516576158700,6.62915869140625,0.2019350528717041,3.213125228881836,0.3031221628189087
1684110516586200300,6.639200439453125,0.226656973361969,3.4893875122070312,0.46057552099227905
1684110516596242200,6.6492421875,0.24114978313446045,5.104531288146973,0.8413543701171875
1684110516606283800,6.65928369140625,0.13553941249847412,5.245018482208252,1.0065199136734009
1684110516616325400,6.669325439453125,0.08799231052398682,3.8461012840270996,1.2650516033172607
1684110516626367000,6.679366943359375,0.07518589496612549,0.8180398941040039,0.519329309463501
1684110516636408600,6.68940869140625,-0.03731393814086914,-1.1112194061279297,-0.10502856969833374
1684110516646450200,6.6994501953125,0.05722147226333618,-2.587897300720215,-0.5873871445655823
1684110516656492000,6.709491943359375,0.34880560636520386,-3.700916290283203,-0.7588300108909607
1684110516666533600,6.71953369140625,0.5671399831771851,-4.436814308166504,-0.7147905826568604
1684110516676575200,6.7295751953125,0.7120436429977417,-4.527027130126953,-0.6443643569946289
1684110516686616800,6.739616943359375,0.7955369353294373,-4.03515625,-0.3095163106918335
1684110516696658400,6.749658447265625,0.7446461915969849,-3.5874242782592773,0.39333677291870117
1684110516706700000,6.759699951171875,0.6078925728797913,-3.2795162200927734,1.0409619808197021
1684110516716742000,6.769741943359375,0.3916419446468353,-3.0711240768432617,1.333160638809204
1684110516726783500,6.779783447265625,0.02512800693511963,-2.4754037857055664,1.3536412715911865
1684110516736825000,6.7898251953125,-0.31128889322280884,-1.6090011596679688,0.8480886220932007
1684110516746866700,6.79986669921875,-0.4033815860748291,-0.5605802536010742,0.20521044731140137
1684110516756908300,6.809908203125,-0.2868499755859375,0.2994976043701172,-0.5209362506866455
1684110516766950100,6.8199501953125,0.06343743205070496,0.7678442001342773,-1.011890172958374
1684110516776991700,6.82999169921875,0.15589860081672668,1.0515708923339844,-1.505445957183838
1684110516787033300,6.840033447265625,0.29119980335235596,1.1799488067626953,-1.864685297012329
1684110516797075000,6.850074951171875,0.3093838691711426,0.7290248870849609,-1.6901371479034424
1684110516807116500,6.860116455078125,0.4071551263332367,0.27762699127197266,-1.1866111755371094
1684110516817158100,6.870158203125,0.49390682578086853,0.25655555725097656,-0.9611616134643555
1684110516827200000,6.880199951171875,0.5385994911193848,0.1367931365966797,-0.8312325477600098
1684110516837241600,6.89024169921875,0.5399455428123474,0.10443973541259766,-0.7566683292388916
1684110516847283200,6.900283203125,0.45034441351890564,-0.09345722198486328,-0.45732951164245605
1684110516857324800,6.91032470703125,0.3710838258266449,0.1648569107055664,-0.3033754825592041
1684110516867366400,6.920366455078125,0.22761189937591553,0.02781200408935547,-0.14009642601013184
1684110516877408000,6.930407958984375,0.04889509081840515,-0.04472637176513672,0.014621257781982422
1684110516887449600,6.94044970703125,-0.0677003264427185,0.0020875930786132812,0.17274224758148193
1684110516897491500,6.950491455078125,-0.15969380736351013,-0.006365776062011719,0.34395289421081543
1684110516907533000,6.960532958984375,-0.18401861190795898,-0.11759185791015625,0.4895364046096802
1684110516917574700,6.97057470703125,-0.14618825912475586,-0.20920753479003906,0.6509386301040649
1684110516927616300,6.9806162109375,-0.09785959124565125,-0.18079566955566406,0.7101000547409058
1684110516937657900,6.990657958984375,-0.049770474433898926,-0.06628131866455078,0.7180380821228027
1684110516947699700,7.00069970703125,-0.04690644145011902,0.005148887634277344,0.7466607093811035
1684110516957741300,7.0107412109375,-0.02117970585823059,-0.035610198974609375,0.6861103773117065
1684110516967783000,7.020782958984375,0.0012188553810119629,-0.04256248474121094,0.6821279525756836
1684110516977824500,7.030824462890625,0.05302301049232483,0.0057830810546875,0.6671807765960693
1684110516987866000,7.0408662109375,0.08112287521362305,-0.0007476806640625,0.5584187507629395
1684110516997908000,7.050907958984375,0.07453221082687378,-0.00004482269287109375,0.5335098505020142
1684110517007949600,7.060949462890625,0.11824145913124084,0.0772409439086914,0.47496676445007324
1684110517017991200,7.0709912109375,0.19776517152786255,0.1926717758178711,0.4188345670700073
1684110517028032800,7.08103271484375,0.2642092704772949,0.2719993591308594,0.40839624404907227
1684110517038074400,7.091074462890625,0.38799789547920227,0.22213459014892578,0.2763172388076782
1684110517048116000,7.101115966796875,0.5007028579711914,0.3132648468017578,0.21128904819488525
1684110517058157600,7.111157470703125,0.5148469805717468,0.5904722213745117,0.15289855003356934
1684110517068199400,7.121199462890625,0.4342386722564697,0.5449113845825195,0.14305520057678223
1684110517078241000,7.131240966796875,0.4771394729614258,0.47820377349853516,0.03927111625671387
1684110517088282600,7.14128271484375,0.549288272857666,0.35622406005859375,-0.06422853469848633
1684110517098324200,7.15132421875,0.5603371858596802,0.2577524185180664,0.002556324005126953
1684110517108365800,7.16136572265625,0.527427077293396,0.07531261444091797,0.12201845645904541
1684110517118407700,7.17140771484375,0.3795558512210846,-0.162353515625,0.2731870412826538
1684110517128449300,7.18144921875,0.14429444074630737,-0.4002494812011719,0.4683651924133301
1684110517138491000,7.191490966796875,-0.14839774370193481,-0.6117668151855469,0.6726012229919434
1684110517148532500,7.201532470703125,-0.3089941740036011,-0.7011213302612305,0.8175859451293945
1684110517158574000,7.211573974609375,-0.3304338753223419,-0.6370744705200195,0.8725810050964355
1684110517168615700,7.22161572265625,-0.2764854431152344,-0.5481710433959961,0.8865953683853149
1684110517178657500,7.231657470703125,-0.2741973102092743,-0.4967660903930664,0.7003248929977417
1684110517188699100,7.24169921875,-0.32589614391326904,-0.45479774475097656,0.5489959716796875
1684110517198740700,7.25174072265625,-0.44777655601501465,-0.460968017578125,0.42662525177001953
1684110517208782300,7.2617822265625,-0.4775606393814087,-0.3309183120727539,0.6763001680374146
1684110517218824000,7.271823974609375,0.760252058506012,-0.45789146423339844,0.6994991302490234
1684110517228865500,7.281865478515625,0.8666877746582031,-0.3457193374633789,-0.3440897464752197
1684110517238907400,7.291907470703125,0.3034752309322357,-0.23668384552001953,-1.2291934490203857
1684110517248949000,7.301948974609375,-0.09014707803726196,-0.12037086486816406,-1.7542915344238281
1684110517258990600,7.311990478515625,-0.2752557694911957,0.06284427642822266,-1.572693109512329
1684110517269032200,7.3220322265625,-0.12236172705888748,0.31441783905029297,-1.0730235576629639
1684110517279073800,7.33207373046875,0.28157949447631836,0.5513505935668945,-0.9026060104370117
1684110517289115400,7.342115478515625,0.5660188794136047,0.3813133239746094,-0.9124801158905029
1684110517299157200,7.3521572265625,0.7172533869743347,0.35106372833251953,-0.8107068538665771
1684110517309198800,7.36219873046875,0.6729925274848938,0.21968746185302734,-0.20647144317626953
1684110517319240400,7.372240478515625,0.5067192912101746,0.20581531524658203,0.1779181957244873
1684110517329282000,7.382281982421875,0.23429828882217407,0.17055702209472656,0.44162845611572266
1684110517339323600,7.39232373046875,0.032598599791526794,0.09947776794433594,0.6598765850067139
1684110517349365500,7.402365478515625,-0.06884821504354477,0.030571937561035156,0.8340929746627808
1684110517359407000,7.412406982421875,-0.017561137676239014,-0.1316661834716797,1.0643573999404907
1684110517369448700,7.42244873046875,0.17676424980163574,-0.31733131408691406,1.2075893878936768
1684110517379490300,7.432490234375,0.39016589522361755,-0.4473276138305664,1.2271108627319336
1684110517389532000,7.442531982421875,0.6047634482383728,-0.45744991302490234,1.2265347242355347
1684110517399573500,7.452573486328125,0.7647669315338135,-0.3815946578979492,1.1661219596862793
1684110517409615400,7.462615478515625,0.9155626893043518,-0.2985715866088867,1.178847074508667
1684110517419657000,7.472656982421875,0.9745281934738159,-0.26798439025878906,1.0944675207138062
1684110517429698600,7.482698486328125,1.038395643234253,-0.27783966064453125,1.0211416482925415
1684110517439740200,7.492740234375,1.038209319114685,-0.22292518615722656,1.0400571823120117
1684110517449781800,7.50278173828125,0.8994223475456238,-0.1105031967163086,1.0288715362548828
1684110517459823400,7.5128232421875,0.7297782301902771,-0.11004352569580078,1.0151702165603638
1684110517469865200,7.522865234375,0.6162843108177185,-0.09247016906738281,0.9160182476043701
1684110517479906800,7.53290673828125,0.5069627165794373,-0.09377288818359375,0.8371835947036743
1684110517489948400,7.542948486328125,0.4259740710258484,-0.09002494812011719,0.7666333913803101
1684110517499990000,7.552989990234375,0.3951272666454315,-0.08133602142333984,0.6091535091400146
1684110517510031600,7.563031494140625,0.4214680790901184,-0.04157733917236328,0.4586132764816284
1684110517520073200,7.5730732421875,0.45642489194869995,0.07442092895507812,0.24872899055480957
1684110517530114800,7.58311474609375,0.475337415933609,0.16118144989013672,0.04751753807067871
1684110517540156700,7.59315673828125,0.4567466378211975,0.15166473388671875,-0.1582324504852295
1684110517550198300,7.6031982421875,0.4227328300476074,0.1368236541748047,-0.2203683853149414
1684110517560239900,7.613239990234375,0.3571191430091858,0.10718059539794922,-0.26621580123901367
1684110517570281500,7.623281494140625,0.27217477560043335,0.08909034729003906,-0.28659653663635254
1684110517580323000,7.633322998046875,0.20642706751823425,0.09460926055908203,-0.27043867111206055
1684110517590365000,7.643364990234375,0.08846381306648254,0.12368011474609375,-0.3278524875640869
1684110517600406500,7.653406494140625,0.018459975719451904,0.17840194702148438,-0.3740708827972412
1684110517610448100,7.6634482421875,-0.05350270867347717,0.23469257354736328,-0.3943948745727539
1684110517620489700,7.67348974609375,-0.09802913665771484,0.3403444290161133,-0.41803550720214844
1684110517630531300,7.68353125,-0.11407512426376343,0.0916128158569336,-0.3809173107147217
1684110517640573000,7.693572998046875,-0.08580917119979858,-0.16195297241210938,-0.2552757263183594
1684110517650614800,7.70361474609375,-0.03436613082885742,-0.38446903228759766,-0.1400918960571289
1684110517660656400,7.713656494140625,0.05709242820739746,-0.37290477752685547,0.04558110237121582
1684110517670698000,7.723697998046875,0.16885656118392944,0.06317424774169922,0.05021381378173828
1684110517680739600,7.733739501953125,0.33373314142227173,0.46219539642333984,-0.02972698211669922
1684110517690781200,7.74378125,0.5461424589157104,0.626673698425293,-0.04564070701599121
1684110517700822800,7.75382275390625,0.8061658143997192,0.6581821441650391,-0.051522016525268555
1684110517710864600,7.76386474609375,1.0659754276275635,0.5859165191650391,-0.13988280296325684
1684110517720906200,7.77390625,1.1814830303192139,0.7272567749023438,-0.40924501419067383
1684110517730947800,7.78394775390625,1.1960760354995728,0.7209949493408203,-0.3908264636993408
1684110517740989400,7.793989501953125,1.0823826789855957,0.7778501510620117,-0.5703270435333252
1684110517751031000,7.804031005859375,0.90117347240448,0.6923656463623047,-0.7246477603912354
1684110517761072600,7.81407275390625,0.5928063988685608,0.6269102096557617,-0.9642298221588135
1684110517771114500,7.824114501953125,0.2524140477180481,0.5114154815673828,-1.0689091682434082
1684110517781156000,7.834156005859375,-0.03875148296356201,0.41959285736083984,-1.2460784912109375
1684110517791197700,7.84419775390625,-0.23146271705627441,0.33422183990478516,-1.2819151878356934
1684110517801239300,7.8542392578125,-0.35407376289367676,0.27178001403808594,-1.2597599029541016
1684110517811281000,7.864281005859375,-0.3974250555038452,0.24640178680419922,-1.145622968673706
1684110517821322500,7.874322509765625,-0.3626970052719116,0.20083236694335938,-0.9494383335113525
1684110517831364400,7.8843642578125,-0.341611385345459,0.12103939056396484,-0.7079179286956787
1684110517841406000,7.894406005859375,-0.40100371837615967,0.10527610778808594,-0.34360814094543457
1684110517851447600,7.904447509765625,-0.4757438898086548,0.16774368286132812,-0.01975703239440918
1684110517861489200,7.9144892578125,-0.48715686798095703,0.27506065368652344,0.28171396255493164
1684110517871530800,7.92453076171875,-0.44621527194976807,0.3033943176269531,0.5118558406829834
1684110517881572600,7.934572509765625,-0.37398552894592285,0.301055908203125,0.6707152128219604
1684110517891614200,7.9446142578125,-0.2937924861907959,0.34238338470458984,0.6706372499465942
1684110517901655800,7.95465576171875,-0.21858108043670654,0.19594287872314453,0.5975394248962402
1684110517911697400,7.964697509765625,-0.2221444845199585,0.10338211059570312,0.4278773069381714
1684110517921739000,7.974739013671875,-0.2627403736114502,0.030744552612304688,0.20129716396331787
1684110517931780600,7.984780517578125,-0.3699982166290283,-0.07019710540771484,-0.04291975498199463
1684110517941822200,7.994822265625,-0.450020432472229,-0.1900787353515625,-0.25857019424438477
1684110517951864000,8.004864013671876,-0.5388903617858887,-0.3074636459350586,-0.44496285915374756
1684110517961905700,8.01490576171875,-0.6080946922302246,-0.4056520462036133,-0.5923398733139038
1684110517971947300,8.024947265625,-0.6666492223739624,-0.4274787902832031,-0.6411149501800537
1684110517981988900,8.03498876953125,-0.6879311800003052,-0.43761634826660156,-0.6157602071762085
1684110517992030500,8.045030517578125,-0.7454334497451782,-0.36203575134277344,-0.5148005485534668
1684110518002072000,8.055072021484374,-0.8622540235519409,-0.2916431427001953,-0.3752254247665405
1684110518012114000,8.065114013671876,-0.9731372594833374,-0.2502927780151367,-0.2217022180557251
1684110518022155500,8.075155517578125,-1.0568815469741821,-0.17086315155029297,-0.14083898067474365
1684110518032197000,8.085197021484374,-1.068638563156128,-0.03425121307373047,-0.10619306564331055
1684110518042238700,8.09523876953125,-1.0805954933166504,0.035305023193359375,-0.06753921508789062
1684110518052280300,8.1052802734375,-1.0559601783752441,0.08790302276611328,-0.051085472106933594
1684110518062322000,8.115322021484374,-1.010951042175293,0.15215015411376953,-0.04025435447692871
1684110518072363800,8.12536376953125,-0.9901480674743652,0.15873050689697266,-0.04772663116455078
1684110518082405400,8.1354052734375,-0.9926719665527344,0.1101226806640625,-0.11713147163391113
1684110518092447000,8.145447021484374,-0.9441795349121094,0.10907936096191406,-0.17670035362243652
1684110518102488600,8.155488525390625,-0.95412278175354,0.13620662689208984,-0.2574338912963867
1684110518112530200,8.1655302734375,-0.9450781345367432,0.15301990509033203,-0.2926013469696045
1684110518122572000,8.175572021484374,-0.8266489505767822,0.15484237670898438,-0.32081079483032227
1684110518132613600,8.185613525390625,-0.6771600246429443,0.16324710845947266,-0.32399892807006836
1684110518142655200,8.1956552734375,-0.562598705291748,0.05889415740966797,-0.38468313217163086
1684110518152696800,8.20569677734375,-0.4932076930999756,-0.048056602478027344,-0.5019810199737549
1684110518162738400,8.215738525390625,-0.5000154972076416,-0.11702251434326172,-0.6253941059112549
1684110518172780000,8.225780029296875,-0.48267555236816406,-0.12897682189941406,-0.7667768001556396
1684110518182821600,8.235821533203126,-0.47716307640075684,-0.055443763732910156,-0.835052490234375
1684110518192863500,8.245863525390625,-0.373920202255249,0.11757564544677734,-0.8867075443267822
1684110518202905000,8.255905029296875,-0.2524704933166504,0.20369338989257812,-0.797602653503418
1684110518212946700,8.26594677734375,-0.1464850902557373,0.23900508880615234,-0.7041629552841187
1684110518222988300,8.27598828125,-0.0012059211730957031,0.24512672424316406,-0.5367933511734009
1684110518233030000,8.28602978515625,0.08055925369262695,0.23186111450195312,-0.27970147132873535
1684110518243071500,8.296071533203126,0.13677215576171875,0.1516876220703125,-0.12445223331451416
1684110518253113300,8.30611328125,0.1573488712310791,0.040699005126953125,0.04429924488067627
1684110518263155000,8.316155029296874,0.11600708961486816,-0.02458477020263672,0.19800257682800293
1684110518273196500,8.326196533203126,0.05401420593261719,-0.06352996826171875,0.33433055877685547
1684110518283238100,8.336238037109375,0.010347127914428711,-0.07639026641845703,0.4149829149246216
1684110518293279700,8.34627978515625,0.057598114013671875,-0.008643150329589844,0.4282493591308594
1684110518303321300,8.3563212890625,0.10371017456054688,0.047987937927246094,0.4275527000427246
1684110518313363200,8.36636328125,0.24572205543518066,0.08910274505615234,0.3761855363845825
1684110518323404800,8.37640478515625,0.324138879776001,0.21639347076416016,0.3779095411300659
1684110518333446400,8.3864462890625,0.344801664352417,0.3413972854614258,0.323075532913208
1684110518343488000,8.396488037109375,0.3478264808654785,0.4879598617553711,0.3210338354110718
1684110518353529600,8.406529541015624,0.2671244144439697,0.662816047668457,0.2349475622177124
1684110518363571200,8.4165712890625,0.10934233665466309,0.7874603271484375,0.2481452226638794
1684110518373613000,8.426613037109375,0.007745027542114258,0.7851276397705078,0.32300782203674316
1684110518383654700,8.436654541015624,-0.09992098808288574,0.6895112991333008,0.5369288921356201
1684110518393696300,8.4466962890625,-0.19401168823242188,0.5899276733398438,0.744953989982605
1684110518403737900,8.45673779296875,-0.25954556465148926,0.47216796875,0.9179458618164062
1684110518413779500,8.466779541015624,-0.16339325904846191,0.33651161193847656,1.0849599838256836
1684110518423821300,8.4768212890625,-0.046865224838256836,0.16904926300048828,1.16567862033844
1684110518433863000,8.48686279296875,0.06462311744689941,-0.027564048767089844,1.2192546129226685
1684110518443904500,8.496904541015626,0.07505607604980469,-0.17677593231201172,1.2344366312026978
1684110518453946000,8.506946044921875,0.014036417007446289,-0.2741069793701172,1.175168752670288
1684110518463987700,8.51698779296875,0.022459745407104492,-0.3411407470703125,1.1683540344238281
1684110518474029300,8.527029296875,0.048918724060058594,-0.4469871520996094,1.0977411270141602
1684110518484071000,8.53707080078125,0.1301124095916748,-0.47656726837158203,1.0791535377502441
1684110518494112800,8.54711279296875,0.20549225807189941,-0.506378173828125,1.0655112266540527
1684110518504154400,8.557154296875,0.279984712600708,-0.4410076141357422,1.0619336366653442
1684110518514196000,8.567196044921875,0.3396108150482178,-0.36937808990478516,0.9474925994873047
1684110518524237600,8.577237548828125,0.3516530990600586,-0.29912662506103516,0.8404238224029541
1684110518534279200,8.587279052734376,0.28114867210388184,-0.2043743133544922,0.6791435480117798
1684110518544320800,8.59732080078125,0.19838738441467285,-0.1117401123046875,0.5591651201248169
1684110518554362600,8.607362548828124,0.06357192993164062,0.014327049255371094,0.482666015625
1684110518564404200,8.617404296875,-0.04118824005126953,0.09461021423339844,0.4210134744644165
1684110518574445800,8.62744580078125,-0.13446688652038574,0.16002178192138672,0.3432215452194214
1684110518584487400,8.6374873046875,-0.17293429374694824,0.19379425048828125,0.28729474544525146
1684110518594529000,8.647529052734376,-0.19448375701904297,0.19604969024658203,0.29750657081604004
1684110518604570600,8.657570556640625,-0.2441256046295166,0.1859607696533203,0.32760000228881836
1684110518614612500,8.667612548828124,-0.1759626865386963,0.19702911376953125,0.2935100793838501
1684110518624654000,8.677654052734376,-0.09782099723815918,0.1718435287475586,0.28412628173828125
1684110518634695700,8.68769580078125,-0.03310656547546387,0.21491432189941406,0.1418001651763916
1684110518644737300,8.6977373046875,0.030184507369995117,0.1806011199951172,0.09983241558074951
1684110518654779000,8.70777880859375,0.010699033737182617,0.19115543365478516,-0.13439631462097168
1684110518664820500,8.717820556640625,-0.10749030113220215,0.20322036743164062,-0.3093898296356201
1684110518674862300,8.7278623046875,-0.21885013580322266,0.21683025360107422,-0.44734740257263184
1684110518684904000,8.737904052734375,-0.32851219177246094,0.22042274475097656,-0.5161919593811035
1684110518694945500,8.747945556640625,-0.40184473991394043,0.20418930053710938,-0.6045513153076172
1684110518704987100,8.757987060546874,-0.3901500701904297,0.1738758087158203,-0.6551685333251953
1684110518715028700,8.76802880859375,-0.3909449577331543,0.12216472625732422,-0.5940295457839966
1684110518725070300,8.7780703125,-0.39391589164733887,-0.00013637542724609375,-0.41893935203552246
1684110518735112200,8.7881123046875,-0.44092321395874023,-0.11411571502685547,-0.2999601364135742
1684110518745153800,8.79815380859375,-0.4773900508880615,-0.2128143310546875,-0.23581767082214355
1684110518755195400,8.8081953125,-0.5178124904632568,-0.28704833984375,-0.17360687255859375
1684110518765237000,8.818237060546876,-0.5662617683410645,-0.3302955627441406,-0.038330674171447754
1684110518775278600,8.828278564453125,-0.5023903846740723,-0.2960052490234375,0.11202991008758545
1684110518785320200,8.8383203125,-0.3920927047729492,-0.2841968536376953,0.251322865486145
1684110518795361800,8.84836181640625,-0.24904847145080566,-0.24944591522216797,0.3448028564453125
1684110518805403600,8.858403564453125,-0.09616923332214355,-0.2765321731567383,0.4241938591003418
1684110518815445200,8.8684453125,0.013760089874267578,-0.3265829086303711,0.4220888614654541
1684110518825486800,8.87848681640625,0.0458989143371582,-0.3050508499145508,0.4863135814666748
1684110518835528400,8.888528564453125,0.04855608940124512,-0.23906421661376953,0.4842480421066284
1684110518845570000,8.898570068359374,0.05943870544433594,-0.15274524688720703,0.5748188495635986
1684110518855612000,8.90861181640625,0.10114097595214844,-0.10269355773925781,0.601473331451416
1684110518865653500,8.918653564453125,0.14207029342651367,-0.07864570617675781,0.5885611772537231
1684110518875695000,8.928695068359374,0.2176988124847412,-0.02833080291748047,0.5504263639450073
1684110518885736700,8.93873681640625,0.28551650047302246,0.014776229858398438,0.451729416847229
1684110518895778300,8.9487783203125,0.3622102737426758,0.07204151153564453,0.3684195280075073
1684110518905820000,8.95881982421875,0.35326719284057617,0.07033729553222656,0.21775448322296143
1684110518915861800,8.96886181640625,0.29294300079345703,0.08361434936523438,0.05530250072479248
1684110518925903400,8.9789033203125,0.1659069061279297,0.13965892791748047,-0.07582652568817139
1684110518935945000,8.988945068359374,0.04696488380432129,0.15968036651611328,-0.1755772829055786
1684110518945986600,8.998986572265625,-0.006730556488037109,0.12986469268798828,-0.2398134469985962
1684110518956028200,9.009028076171875,-0.0053517818450927734,0.1051483154296875,-0.2954549789428711
1684110518966069800,9.01906982421875,0.019695758819580078,0.08784008026123047,-0.3289508819580078
1684110518976111600,9.029111572265625,0.06097912788391113,0.08022403717041016,-0.36921417713165283
1684110518986153200,9.0391533203125,0.07322907447814941,0.10106754302978516,-0.41377174854278564
1684110518996194800,9.04919482421875,0.05184507369995117,0.1335306167602539,-0.4341416358947754
1684110519006236400,9.059236328125,-0.0093231201171875,0.13726234436035156,-0.433071494102478
1684110519016278000,9.069278076171875,-0.047746896743774414,0.15488243103027344,-0.38037335872650146
1684110519026319600,9.079319580078124,-0.05191636085510254,0.13428878784179688,-0.36384010314941406
1684110519036361200,9.089361328125,-0.01598381996154785,0.12575244903564453,-0.3049558401107788
1684110519046403000,9.099403076171875,0.009552478790283203,0.11979961395263672,-0.3056368827819824
1684110519056444700,9.109444580078126,-0.0006577968597412109,0.12566471099853516,-0.310763955116272
1684110519066486300,9.119486328125,-0.000698089599609375,0.10063838958740234,-0.2735797166824341
1684110519076527900,9.12952783203125,-0.0022902488708496094,0.1134481430053711,-0.22079336643218994
1684110519086569500,9.139569580078126,0.020223379135131836,0.09294509887695312,-0.16447019577026367
1684110519096611000,9.149611083984375,0.05429673194885254,0.051568031311035156,-0.17045772075653076
1684110519106653000,9.15965283203125,0.007729053497314453,0.027368545532226562,-0.16691458225250244
1684110519116694500,9.169694580078126,-0.04967331886291504,0.0035486221313476562,-0.1753770112991333
1684110519126736100,9.179736083984375,-0.1035008430480957,-0.008138656616210938,-0.11808490753173828
1684110519136777700,9.18977783203125,-0.12801146507263184,-0.04790210723876953,-0.0030965805053710938
1684110519146819300,9.1998193359375,-0.12609195709228516,-0.07995223999023438,0.09333205223083496
1684110519156861000,9.20986083984375,-0.13561034202575684,-0.06212425231933594,0.20443475246429443
1684110519166902800,9.21990283203125,-0.07418131828308105,-0.08463382720947266,0.2616887092590332
1684110519176944400,9.2299443359375,-0.0023086071014404297,-0.1090240478515625,0.22860348224639893
1684110519186986000,9.239986083984375,0.07494664192199707,-0.07634162902832031,0.18201851844787598
1684110519197027600,9.250027587890624,0.14513182640075684,-0.0979776382446289,0.08926689624786377
1684110519207069200,9.260069091796876,0.18452048301696777,-0.038787841796875,0.0008462667465209961
1684110519217111000,9.270111083984375,0.1491696834564209,-0.020287513732910156,-0.04093468189239502
1684110519227152600,9.280152587890624,0.055188894271850586,0.02148914337158203,-0.05569446086883545
1684110519237194200,9.2901943359375,-0.0442197322845459,0.03653526306152344,-0.05084407329559326
1684110519247235800,9.30023583984375,-0.10681772232055664,0.056011199951171875,-0.022136449813842773
1684110519257277400,9.31027734375,-0.1385512351989746,0.06840324401855469,0.038988471031188965
1684110519267319000,9.320319091796875,-0.15401530265808105,0.026856422424316406,0.10782170295715332
1684110519277360600,9.330360595703125,-0.136077880859375,-0.013764381408691406,0.16699326038360596
1684110519287402500,9.340402587890624,-0.09114217758178711,-0.04916191101074219,0.25406670570373535
1684110519297444000,9.350444091796875,0.01789069175720215,-0.039467811584472656,0.2325448989868164
1684110519307485700,9.360485595703125,0.11368536949157715,-0.04880332946777344,0.0955582857131958
1684110519317527300,9.37052734375,0.16952824592590332,-0.05303955078125,-0.05791974067687988
1684110519327569000,9.38056884765625,0.11761116981506348,-0.09943389892578125,-0.20563089847564697
1684110519337610500,9.390610595703125,-0.01397705078125,-0.18750381469726562,-0.3096466064453125
1684110519347652400,9.40065234375,-0.1689453125,-0.22497081756591797,-0.22270047664642334
1684110519357694000,9.41069384765625,-0.27279090881347656,-0.2388296127319336,-0.10412704944610596
1684110519367735600,9.420735595703125,-0.24807381629943848,-0.21060466766357422,0.05608642101287842
1684110519377777200,9.430777099609376,-0.1941983699798584,-0.16884613037109375,0.21422886848449707
1684110519387818800,9.44081884765625,-0.10337305068969727,-0.12744808197021484,0.3159743547439575
1684110519397860400,9.4508603515625,-0.019740819931030273,-0.08837509155273438,0.41183507442474365
1684110519407902200,9.460902099609376,0.07096672058105469,-0.06810665130615234,0.4196336269378662
1684110519417943800,9.47094384765625,0.20490741729736328,-0.0573272705078125,0.3811352252960205
1684110519427985400,9.4809853515625,0.32308483123779297,-0.051527976989746094,0.2930980920791626
1684110519438027000,9.491027099609376,0.3997037410736084,-0.0012416839599609375,0.2157754898071289
1684110519448068600,9.501068603515625,0.41310787200927734,0.02005481719970703,0.0227813720703125
1684110519458110200,9.511110107421874,0.34459900856018066,-0.027016639709472656,-0.14883780479431152
1684110519468152000,9.521152099609376,0.1484379768371582,-0.09656143188476562,-0.2924548387527466
1684110519478193700,9.531193603515625,-0.0451352596282959,-0.14374732971191406,-0.38541316986083984
1684110519488235300,9.5412353515625,-0.22721338272094727,-0.13173484802246094,-0.35201919078826904
1684110519498276900,9.55127685546875,-0.22968244552612305,-0.05230236053466797,-0.22133755683898926
1684110519508318500,9.561318359375,-0.11457276344299316,-0.031250953674316406,-0.13640594482421875
1684110519518360000,9.571360107421874,0.03984785079956055,-0.053104400634765625,-0.1107715368270874
1684110519528402000,9.58140185546875,0.21526002883911133,-0.06502628326416016,-0.1923896074295044
1684110519538443500,9.591443603515625,0.36565566062927246,-0.019887924194335938,-0.26817941665649414
1684110519548485000,9.601485107421874,0.4416835308074951,0.03438758850097656,-0.40645360946655273
1684110519558526700,9.611526611328125,0.47745513916015625,0.18708038330078125,-0.5140728950500488
1684110519568568300,9.621568359375,0.45412445068359375,0.2789459228515625,-0.680374026298523
1684110519578610000,9.63160986328125,0.3408832550048828,0.3984546661376953,-0.7345077991485596
1684110519588651800,9.64165185546875,0.23288226127624512,0.43457698822021484,-0.7249150276184082
1684110519598693400,9.651693359375,0.11650967597961426,0.539158821105957,-0.6692183017730713
1684110519608735000,9.66173486328125,0.08773970603942871,0.5409431457519531,-0.5210013389587402
1684110519618776600,9.671776611328125,0.1818535327911377,0.5165653228759766,-0.3599839210510254
1684110519628818200,9.681818115234375,0.3964803218841553,0.48313045501708984,-0.2127007246017456
1684110519638859800,9.69185986328125,0.5541198253631592,0.4858074188232422,-0.14412379264831543
1684110519648901400,9.7019013671875,0.6546261310577393,0.4441509246826172,-0.16153383255004883
1684110519658943200,9.711943115234375,0.6662087440490723,0.38450145721435547,-0.22011137008666992
1684110519668984800,9.72198486328125,0.6309418678283691,0.38225364685058594,-0.2061084508895874
1684110519679026400,9.7320263671875,0.5033125877380371,0.36803436279296875,-0.2062079906463623
1684110519689068000,9.742068115234375,0.3650069236755371,0.2998170852661133,-0.23062467575073242
1684110519699109600,9.752109619140626,0.15029430389404297,0.2069416046142578,-0.3011716604232788
1684110519709151200,9.762151123046875,-0.18790960311889648,0.04253959655761719,-0.3613318204879761
1684110519719193000,9.772193115234375,-0.5630137920379639,-0.19963645935058594,-0.28788113594055176
1684110519729234700,9.782234619140626,-0.7960207462310791,-0.32552337646484375,-0.09841310977935791
1684110519739276300,9.7922763671875,-0.811528205871582,-0.31340885162353516,0.08228147029876709
1684110519749318000,9.80231787109375,-0.6332898139953613,-0.3417959213256836,0.16046452522277832
1684110519759359500,9.812359375,-0.4048619270324707,-0.35793209075927734,0.16453981399536133
1684110519769401300,9.8224013671875,-0.1541304588317871,-0.3477296829223633,0.002507805824279785
1684110519779443000,9.83244287109375,-0.009144306182861328,-0.27170276641845703,-0.2674320936203003
1684110519789484500,9.842484619140626,0.043675899505615234,-0.1664905548095703,-0.4917689561843872
1684110519799526100,9.852526123046875,0.04365205764770508,-0.049262046813964844,-0.6681003570556641
1684110519809567700,9.862567626953124,0.019887924194335938,0.09138202667236328,-0.730454683303833
1684110519819609300,9.872609375,-0.09314990043640137,0.20308494567871094,-0.7717324495315552
1684110519829651200,9.882651123046875,-0.2136392593383789,0.23904991149902344,-0.6882859468460083
1684110519839692800,9.89269287109375,-0.34767985343933105,0.1861581802368164,-0.5787760019302368
1684110519849734400,9.902734375,-0.47539854049682617,0.06696510314941406,-0.46080732345581055
1684110519859776000,9.91277587890625,-0.47900938987731934,-0.037232398986816406,-0.3214073181152344
1684110519869817600,9.922817626953124,-0.4082319736480713,-0.08162689208984375,-0.18758845329284668
1684110519879859200,9.932859130859375,-0.26471829414367676,-0.0999155044555664,-0.06929898262023926
1684110519889900800,9.94290087890625,-0.11568713188171387,-0.08292961120605469,-0.00938272476196289
1684110519899942700,9.952942626953124,0.029024839401245117,-0.06401443481445312,-0.021424293518066406
1684110519909984300,9.962984375,0.1425023078918457,-0.03827476501464844,-0.11083602905273438
1684110519920025900,9.97302587890625,0.09268426895141602,0.008345603942871094,-0.27089715003967285
1684110519930067500,9.9830673828125,0.014773130416870117,0.058712005615234375,-0.45058488845825195
1684110519940109000,9.993109130859375,-0.10859489440917969,0.09118461608886719,-0.5880701541900635
1684110519950150700,10.003150634765625,-0.21051859855651855,0.11999988555908203,-0.6601145267486572
1684110519960192500,10.013192626953124,-0.2424018383026123,0.1170358657836914,-0.615833044052124
1684110519970234000,10.023234130859375,-0.28115272521972656,0.11116886138916016,-0.5301387310028076
1684110519980275700,10.033275634765625,-0.2722470760345459,0.10263729095458984,-0.3883547782897949
1684110519990317300,10.0433173828125,-0.22263002395629883,0.04210472106933594,-0.1832420825958252
1684110520000359000,10.05335888671875,-0.15068531036376953,0.007852554321289062,-0.02665400505065918
1684110520010400500,10.063400390625,-0.07803511619567871,-0.045166969299316406,0.16901230812072754
1684110520020442400,10.0734423828125,0.0007905960083007812,-0.10445785522460938,0.29271507263183594
1684110520030484000,10.08348388671875,0.06007838249206543,-0.1247262954711914,0.367415189743042
1684110520040525600,10.093525634765625,0.044950246810913086,-0.15355491638183594,0.3803675174713135
1684110520050567200,10.103567138671876,-0.006139516830444336,-0.20488452911376953,0.3564109802246094
1684110520060608800,10.11360888671875,-0.09657406806945801,-0.14737796783447266,0.22066307067871094
1684110520070650600,10.123650634765625,-0.19249868392944336,-0.2449207305908203,0.20081043243408203
1684110520080692200,10.133692138671876,-0.2304520606994629,-0.3389444351196289,0.27659010887145996
1684110520090733800,10.14373388671875,-0.24666142463684082,-0.4149188995361328,0.3225128650665283
1684110520100775400,10.153775390625,-0.18121027946472168,-0.3083772659301758,0.33780407905578613
1684110520110817000,10.163817138671876,-0.10981345176696777,-0.2671680450439453,0.49842000007629395
1684110520120858600,10.173858642578125,-0.08277392387390137,-0.193206787109375,0.6010651588439941
1684110520130900200,10.183900146484374,-0.06612515449523926,-0.15039348602294922,0.71883225440979
1684110520140942000,10.193942138671876,-0.06630396842956543,-0.10752487182617188,0.7284669876098633
1684110520150983700,10.203983642578125,-0.06386256217956543,-0.06210613250732422,0.7817580699920654
1684110520161025300,10.214025390625,-0.08278894424438477,-0.04237556457519531,0.7369887828826904
1684110520171067000,10.22406689453125,-0.12279844284057617,0.043969154357910156,0.6333813667297363
1684110520181108500,10.2341083984375,-0.1622171401977539,0.0662994384765625,0.4884145259857178
1684110520191150000,10.244150146484374,-0.22203373908996582,0.022965431213378906,0.2825496196746826
1684110520201192000,10.25419189453125,-0.24016785621643066,0.01819610595703125,0.13072848320007324
1684110520211233500,10.264233642578125,-0.18659639358520508,0.039519309997558594,0.06274724006652832
1684110520221275100,10.274275146484374,-0.08672404289245605,0.08890438079833984,-0.03301239013671875
1684110520231316700,10.284316650390625,-0.0009365081787109375,0.13772296905517578,-0.12510085105895996
1684110520241358300,10.2943583984375,0.08687996864318848,0.2215862274169922,-0.2163074016571045
1684110520251400000,10.30439990234375,0.1581871509552002,0.18933868408203125,-0.28368687629699707
1684110520261441800,10.31444189453125,0.20879626274108887,0.15346813201904297,-0.33933091163635254
1684110520271483400,10.3244833984375,0.29288578033447266,0.15650367736816406,-0.3292977809906006
1684110520281525000,10.33452490234375,0.33379292488098145,0.14151859283447266,-0.2453160285949707
1684110520291566600,10.344566650390625,0.38569211959838867,0.12311649322509766,-0.14980864524841309
1684110520301608200,10.354608154296875,0.3589291572570801,0.1295614242553711,-0.05700516700744629
1684110520311650000,10.364650146484376,0.3327956199645996,0.0991058349609375,0.01676321029663086
1684110520321691600,10.374691650390625,0.2606484889984131,0.11213111877441406,0.04396367073059082
1684110520331733200,10.384733154296875,0.23972654342651367,0.11590385437011719,0.1060636043548584
1684110520341774800,10.39477490234375,0.26715517044067383,0.14565658569335938,0.13930940628051758
1684110520351816400,10.40481640625,0.32852935791015625,0.15594768524169922,0.16105031967163086
1684110520361858000,10.414858154296875,0.481614351272583,0.21065616607666016,0.1318342685699463
1684110520371900000,10.42489990234375,0.5686426162719727,0.1703500747680664,0.11601614952087402
1684110520381941500,10.43494140625,0.541429877281189,0.18960857391357422,0.0920555591583252
1684110520391983000,10.444983154296875,0.46817219257354736,0.2156839370727539,0.08082818984985352
1684110520402024700,10.455024658203126,0.3502817153930664,0.2225046157836914,0.02765822410583496
1684110520412066300,10.46506640625,0.20091938972473145,0.2032470703125,-0.05991005897521973
1684110520422108000,10.47510791015625,0.05954480171203613,0.18396854400634766,-0.1036221981048584
1684110520432149500,10.4851494140625,-0.09834790229797363,0.15737533569335938,-0.06208038330078125
1684110520442191400,10.49519140625,-0.1963648796081543,0.13082122802734375,-0.012918472290039062
1684110520452233000,10.50523291015625,-0.31311237812042236,0.16550064086914062,0.08621096611022949
1684110520462274600,10.515274658203126,-0.4008183479309082,0.15459251403808594,0.2645418643951416
1684110520472316200,10.525316162109375,-0.3587646484375,0.10850906372070312,0.48956918716430664
1684110520482357800,10.535357666015624,-0.3256192207336426,0.09386730194091797,0.6660313606262207
1684110520492399400,10.5453994140625,-0.21549713611602783,0.08897686004638672,0.7178347110748291
1684110520502441200,10.555441162109375,0.009583592414855957,0.07271099090576172,0.6671149730682373
1684110520512482800,10.56548291015625,0.22723865509033203,0.05229759216308594,0.4852592945098877
1684110520522524400,10.5755244140625,0.4101424217224121,0.04894447326660156,0.19291234016418457
1684110520532566000,10.58556591796875,0.593819260597229,0.08361434936523438,-0.033857107162475586
1684110520542607600,10.595607666015624,0.6060376167297363,0.11089801788330078,-0.27821993827819824
1684110520552649200,10.605649169921875,0.4403529167175293,0.12130355834960938,-0.5417423248291016
1684110520562691000,10.615691162109375,0.16586506366729736,0.06070709228515625,-0.7151598930358887
1684110520572732700,10.625732666015624,-0.059891700744628906,-0.10526180267333984,-0.8347561359405518
1684110520582774300,10.635774169921875,-0.17760968208312988,-0.23389053344726562,-0.778827428817749
1684110520592815900,10.64581591796875,-0.1319880485534668,-0.3186817169189453,-0.5084006786346436
1684110520602857500,10.655857421875,0.05443871021270752,-0.3081789016723633,-0.20424175262451172
1684110520612899300,10.6658994140625,0.1689295768737793,-0.26255226135253906,0.10682511329650879
1684110520622941000,10.67594091796875,0.18148541450500488,-0.20338821411132812,0.30201148986816406
1684110520632982500,10.685982421875,0.14487409591674805,-0.24379825592041016,0.4397456645965576
1684110520643024100,10.696024169921875,0.07824623584747314,-0.24782085418701172,0.5138003826141357
1684110520653065700,10.706065673828125,-0.03582262992858887,-0.2891979217529297,0.5722811222076416
1684110520663107300,10.716107421875,-0.18065416812896729,-0.30170726776123047,0.5566627979278564
1684110520673149000,10.72614892578125,-0.2606353759765625,-0.2458658218383789,0.5667989253997803
1684110520683190800,10.736190673828125,-0.26583337783813477,-0.2166910171508789,0.5829439163208008
1684110520693232400,10.746232421875,-0.25261032581329346,-0.19450759887695312,0.5972144603729248
1684110520703274000,10.75627392578125,-0.2310044765472412,-0.1697235107421875,0.5530722141265869
1684110520713315600,10.766315673828124,-0.24365925788879395,-0.12606334686279297,0.42139267921447754
1684110520723357200,10.776357177734376,-0.2989717721939087,-0.049835205078125,0.3309013843536377
1684110520733398800,10.786398681640625,-0.36900460720062256,-0.0666046142578125,0.29047679901123047
1684110520743440600,10.796440673828124,-0.3608337640762329,-0.03402900695800781,0.13555455207824707
1684110520753482200,10.806482177734376,-0.2923884391784668,-0.02121734619140625,0.16718029975891113
1684110520763523800,10.81652392578125,-0.13551318645477295,-0.011044502258300781,0.15120863914489746
1684110520773565400,10.8265654296875,-0.05280280113220215,-0.029272079467773438,0.13565826416015625
1684110520783607000,10.83660693359375,-0.06200528144836426,-0.08717823028564453,0.11107778549194336
1684110520793648600,10.846648681640625,-0.1582174301147461,-0.0924367904663086,-0.00004935264587402344
1684110520803690500,10.8566904296875,-0.2071768045425415,-0.10250377655029297,-0.07870674133300781
1684110520813732000,10.866732177734375,-0.24657440185546875,-0.0915079116821289,-0.10655856132507324
1684110520823773700,10.876773681640625,-0.18042361736297607,-0.08785533905029297,-0.06132674217224121
1684110520833815300,10.886815185546874,-0.07285010814666748,-0.09839916229248047,-0.0876460075378418
1684110520843857000,10.89685693359375,0.03676152229309082,-0.10865402221679688,-0.007762432098388672
1684110520853898800,10.906898681640625,0.07037532329559326,-0.08313941955566406,0.041895389556884766
1684110520863940400,10.9169404296875,0.07188260555267334,-0.060108184814453125,0.09933090209960938
1684110520873982000,10.92698193359375,0.08866655826568604,-0.04414558410644531,0.19245004653930664
1684110520884023600,10.9370234375,0.12239158153533936,0.018950462341308594,0.26682400703430176
1684110520894065200,10.947065185546874,0.13223570585250854,0.038886070251464844,0.3300957679748535
1684110520904106800,10.957106689453125,0.11832904815673828,0.0045757293701171875,0.3825802803039551
1684110520914148400,10.9671484375,0.07918035984039307,-0.005440711975097656,0.4479186534881592
1684110520924190200,10.977190185546876,-0.009273231029510498,-0.13759326934814453,0.5020461082458496
1684110520934231800,10.987231689453125,-0.06979221105575562,-0.1381092071533203,0.4511706829071045
1684110520944273400,10.9972734375,-0.11925280094146729,-0.21637916564941406,0.4124934673309326
1684110520954315000,11.00731494140625,-0.18218594789505005,-0.3545341491699219,0.3127727508544922
1684110520964356600,11.017356689453125,-0.29621046781539917,-0.49274253845214844,0.19551873207092285
1684110520974398200,11.027398193359375,-0.4072580337524414,-0.5911550521850586,0.09891009330749512
1684110520984440000,11.037440185546876,-0.4991268515586853,-0.6623563766479492,-0.0009262561798095703
1684110520994481700,11.047481689453125,-0.5126391649246216,-0.6998291015625,-0.03775286674499512
1684110521004523300,11.057523193359375,-0.4918171167373657,-0.6898660659790039,-0.050615787506103516
1684110521014564900,11.06756494140625,-0.4896380305290222,-0.6473541259765625,-0.09865999221801758
1684110521024606500,11.0776064453125,-0.4710821509361267,-0.5351791381835938,-0.15044784545898438
1684110521034648000,11.08764794921875,-0.47163814306259155,-0.42037487030029297,-0.17780756950378418
1684110521044690000,11.09768994140625,-0.4461285471916199,-0.30757617950439453,-0.2898738384246826
1684110521054731500,11.1077314453125,-0.39771169424057007,-0.18492412567138672,-0.3158106803894043
1684110521064773000,11.117773193359374,-0.24117618799209595,-0.017244338989257812,-0.3085489273071289
1684110521074814700,11.127814697265626,-0.01971137523651123,0.10527229309082031,-0.23775672912597656
1684110521084856300,11.137856201171875,0.2344328761100769,0.20222854614257812,-0.15386533737182617
1684110521094898200,11.147898193359374,0.41420072317123413,0.23885726928710938,-0.0362546443939209
1684110521104939800,11.157939697265626,0.4886423945426941,0.2751026153564453,0.06745719909667969
1684110521114981400,11.1679814453125,0.3884318470954895,0.3226747512817383,0.16479182243347168
1684110521125023000,11.17802294921875,0.2509006857872009,0.38609981536865234,0.2486283779144287
1684110521135064600,11.188064697265625,0.023453056812286377,0.4039182662963867,0.29764366149902344
1684110521145106200,11.198106201171875,-0.1710088849067688,0.3508453369140625,0.2702782154083252
1684110521155147800,11.208147705078124,-0.34523817896842957,0.2938499450683594,0.2667975425720215
1684110521165189600,11.218189697265625,-0.42699694633483887,0.1928691864013672,0.23746180534362793
1684110521175231200,11.228231201171875,-0.3541076183319092,0.14276599884033203,0.13582086563110352
1684110521185272800,11.23827294921875,-0.16642418503761292,0.08856201171875,0.0481715202331543
1684110521195314400,11.248314453125,-0.0013993382453918457,0.04213523864746094,-0.023277759552001953
1684110521205356000,11.25835595703125,0.1578073650598526,0.066925048828125,0.012963533401489258
1684110521215397600,11.268397705078126,0.2340867817401886,0.04638195037841797,0.011422395706176758
1684110521225439500,11.278439453125,0.2889408767223358,0.009599685668945312,0.050196170806884766
1684110521235481000,11.288481201171875,0.3119699954986572,-0.06647491455078125,0.12076377868652344
1684110521245522700,11.298522705078126,0.25852686166763306,-0.06815719604492188,0.16591620445251465
1684110521255564300,11.308564208984375,0.08375093340873718,-0.12382888793945312,0.17413020133972168
1684110521265606000,11.31860595703125,-0.06796330213546753,-0.10774612426757812,0.1620163917541504
1684110521275647700,11.328647705078126,-0.22312083840370178,-0.07288074493408203,0.1555473804473877
1684110521285689300,11.338689453125,-0.3402556777000427,-0.017296791076660156,0.12192726135253906
1684110521295731000,11.34873095703125,-0.277645468711853,-0.012189865112304688,0.03442502021789551
1684110521305772500,11.3587724609375,-0.1306667923927307,0.02090167999267578,-0.016019344329833984
1684110521315814100,11.368814208984375,-0.034801334142684937,0.06278705596923828,-0.10567259788513184
1684110521325855700,11.378855712890624,-0.05312751233577728,0.16976356506347656,-0.1865987777709961
1684110521335897600,11.388897705078126,-0.027995377779006958,0.15921592712402344,-0.32372593879699707
1684110521345939200,11.398939208984375,0.13527292013168335,0.1718282699584961,-0.3503875732421875
1684110521355980800,11.408980712890624,0.36774304509162903,0.13184642791748047,-0.3787572383880615
1684110521366022400,11.4190224609375,0.5576239228248596,0.1250152587890625,-0.35744595527648926
1684110521376064000,11.42906396484375,0.6412558555603027,0.0990285873413086,-0.2968571186065674
1684110521386105600,11.439105712890624,0.5998825430870056,0.0848550796508789,-0.16491913795471191
1684110521396147500,11.4491474609375,0.5591254830360413,0.09411334991455078,-0.031325340270996094
1684110521406189000,11.45918896484375,0.4911693334579468,0.06061267852783203,0.13163244724273682
1684110521416230700,11.469230712890624,0.3798600733280182,0.044017791748046875,0.22648847103118896
1684110521426272300,11.479272216796875,0.28202927112579346,-0.005373954772949219,0.34849023818969727
1684110521436313900,11.48931396484375,0.17231778800487518,-0.023674964904785156,0.499042272567749
1684110521446355500,11.49935546875,0.10092470049858093,-0.006026268005371094,0.567679762840271
1684110521456397300,11.509397216796875,0.11649877578020096,-0.06236553192138672,0.6310247182846069
1684110521466439000,11.51943896484375,0.2323882132768631,-0.0803384780883789,0.6894294023513794
1684110521476480500,11.52948046875,0.41097015142440796,-0.08870887756347656,0.733335018157959
1684110521486522000,11.539522216796875,0.5552259683609009,-0.1591358184814453,0.7627134323120117
1684110521496563700,11.549563720703125,0.6391684412956238,-0.2508554458618164,0.8682341575622559
1684110521506605300,11.559605224609374,0.5972785353660583,-0.3039693832397461,1.0179526805877686
1684110521516647200,11.569647216796875,0.49523496627807617,-0.3328819274902344,1.1232776641845703
1684110521526688800,11.579688720703125,0.2992750406265259,-0.3280363082885742,1.2294093370437622
1684110521536730400,11.58973046875,0.14037466049194336,-0.36115169525146484,1.2909862995147705
1684110521546772000,11.59977197265625,-0.029139399528503418,-0.4368896484375,1.3486078977584839
1684110521556813600,11.6098134765625,-0.15211577713489532,-0.45239925384521484,1.3422856330871582
1684110521566855400,11.61985546875,-0.22043780982494354,-0.4078235626220703,1.236356258392334
1684110521576897000,11.62989697265625,-0.24702905118465424,-0.24361610412597656,1.1099412441253662
1684110521586938600,11.639938720703125,-0.23490995168685913,-0.1966724395751953,0.9328688383102417
1684110521596980200,11.649980224609376,-0.24513694643974304,-0.26674556732177734,0.8176224231719971
1684110521607021800,11.660021728515625,-0.19468973577022552,-0.2816171646118164,0.6924581527709961
1684110521617063400,11.6700634765625,-0.1360587179660797,-0.2272043228149414,0.5746524333953857
1684110521627105000,11.68010498046875,-0.059859778732061386,-0.17299556732177734,0.5074748992919922
1684110521637147000,11.69014697265625,0.0453806072473526,-0.061692237854003906,0.4669743776321411
1684110521647188500,11.7001884765625,0.169814333319664,-0.03439903259277344,0.42000317573547363
1684110521657230000,11.71022998046875,0.2960420548915863,0.011770248413085938,0.3618587255477905
1684110521667271700,11.720271728515625,0.38224706053733826,-0.016345977783203125,0.34975671768188477
1684110521677313300,11.730313232421874,0.41906705498695374,0.015156745910644531,0.3144397735595703
1684110521687355100,11.740355224609376,0.43770846724510193,0.00101470947265625,0.2991892099380493
1684110521697396700,11.750396728515625,0.42543116211891174,-0.07771873474121094,0.3013317584991455
1684110521707438300,11.760438232421874,0.30863481760025024,-0.048851966857910156,0.2702062129974365
1684110521717480000,11.77047998046875,0.21790578961372375,-0.038697242736816406,0.20321285724639893
1684110521727521500,11.780521484375,0.18672558665275574,0.0441741943359375,0.15663647651672363
1684110521737563100,11.790563232421874,0.24182762205600739,0.019571304321289062,0.07634460926055908
1684110521747605000,11.80060498046875,0.25309333205223083,-0.014148712158203125,0.00026917457580566406
1684110521757646600,11.810646484375,0.18771812319755554,-0.03563499450683594,-0.09761285781860352
1684110521767688200,11.820688232421874,0.07845374196767807,-0.03575420379638672,-0.17167508602142334
1684110521777729800,11.830729736328125,-0.009244907647371292,0.027494430541992188,-0.1373826265335083
1684110521787771400,11.840771484375,-0.047364309430122375,-0.011736869812011719,-0.08836162090301514
1684110521797813000,11.85081298828125,0.06602806597948074,-0.024557113647460938,-0.029932856559753418
1684110521807854800,11.860854736328125,0.10397452861070633,-0.02554035186767578,0.009543895721435547
1684110521817896400,11.870896484375,0.06447717547416687,-0.043084144592285156,0.07241010665893555
1684110521827938000,11.88093798828125,-0.04646359756588936,-0.0015106201171875,0.04251718521118164
1684110521837979600,11.890979736328125,-0.1673389971256256,0.05341529846191406,0.023006200790405273
1684110521848021200,11.901021240234375,-0.24740272760391235,0.14503955841064453,0.03243088722229004
1684110521858062800,11.911062744140626,-0.1974378526210785,0.1761951446533203,-0.030687928199768066
1684110521868104700,11.921104736328125,-0.09389996528625488,0.1666851043701172,-0.05903756618499756
1684110521878146300,11.931146240234375,-0.002897944301366806,0.055914878845214844,-0.14937293529510498
1684110521888188000,11.94118798828125,-0.02332354336977005,-0.015511512756347656,-0.13597750663757324
1684110521898229500,11.9512294921875,-0.07742897421121597,-0.08822345733642578,-0.1009054183959961
1684110521908271000,11.96127099609375,-0.11641331762075424,-0.05384540557861328,-0.004843592643737793
1684110521918313000,11.97131298828125,-0.09278671443462372,-0.050650596618652344,0.014349579811096191
1684110521928354600,11.9813544921875,-0.03617618978023529,-0.009829521179199219,0.014329195022583008
1684110521938396200,11.991396240234375,0.021276898682117462,-0.052107810974121094,0.004999756813049316
1684110521948437800,12.001437744140626,0.01787985861301422,-0.0583648681640625,0.019303202629089355
1684110521958479400,12.011479248046875,-0.0467255525290966,-0.036251068115234375,0.00030303001403808594
1684110521968521000,12.02152099609375,-0.08587038516998291,-0.007431983947753906,-0.020769953727722168
1684110521978562800,12.031562744140626,-0.06949900090694427,-0.0026159286499023438,-0.041586875915527344
1684110521988604400,12.0416044921875,-0.03197657689452171,0.016246795654296875,-0.06204390525817871
1684110521998646000,12.05164599609375,0.006892651319503784,0.05126953125,-0.04684042930603027
1684110522008687600,12.0616875,-0.004635453224182129,0.0268402099609375,-0.005933165550231934
1684110522018729200,12.071729248046875,-0.028227753937244415,0.0004787445068359375,0.0859677791595459
1684110522028770800,12.081770751953124,-0.042474571615457535,-0.027715682983398438,0.12166070938110352
1684110522038812700,12.091812744140626,-0.07521802186965942,-0.0435638427734375,0.139631986618042
1684110522048854300,12.101854248046875,-0.0974530428647995,0.018621444702148438,0.12151944637298584
1684110522058896000,12.111895751953124,-0.07634811848402023,0.00922393798828125,0.11736488342285156
1684110522068937500,12.1219375,-0.07924281060695648,0.02831554412841797,0.10804367065429688
1684110522078979000,12.13197900390625,-0.06091124936938286,0.011851310729980469,0.0984107255935669
1684110522089020700,12.142020751953124,-0.04726278409361839,0.038112640380859375,0.09788751602172852
1684110522099062500,12.1520625,-0.0406528040766716,0.009846687316894531,0.038169145584106445
1684110522109104000,12.162104248046875,-0.03186016529798508,0.06446170806884766,-0.01595926284790039
1684110522119145700,12.172145751953124,0.01885097473859787,0.13699817657470703,-0.03151905536651611
1684110522129187300,12.182187255859375,0.0731458067893982,0.16589832305908203,-0.02769601345062256
1684110522139229000,12.19222900390625,0.09215947985649109,0.1212759017944336,-0.035416245460510254
1684110522149270800,12.202270751953124,0.057358406484127045,0.0538177490234375,-0.06642568111419678
1684110522159312400,12.2123125,-0.010708332061767578,0.07924270629882812,-0.08725249767303467
1684110522169354000,12.22235400390625,-0.05397900193929672,0.00997161865234375,-0.08118438720703125
1684110522179395600,12.2323955078125,-0.030255146324634552,0.014734268188476562,-0.04162430763244629
1684110522189437200,12.242437255859375,-0.030833125114440918,0.0005064010620117188,0.002433300018310547
1684110522199478800,12.252478759765625,-0.04922027885913849,-0.03472423553466797,0.0365447998046875
1684110522209520400,12.262520263671876,-0.11795246601104736,-0.055271148681640625,0.046573519706726074
1684110522219562200,12.272562255859375,-0.24400676786899567,-0.08256149291992188,-0.01873922348022461
1684110522229603800,12.282603759765625,-0.26069939136505127,-0.04820823669433594,-0.06860816478729248
1684110522239645400,12.2926455078125,-0.2361202836036682,-0.04982566833496094,-0.08404839038848877
1684110522249687000,12.30268701171875,-0.17634056508541107,-0.06321048736572266,-0.04962944984436035
1684110522259728600,12.312728759765625,-0.17379140853881836,-0.06699752807617188,-0.09083592891693115
1684110522269770500,12.3227705078125,-0.1552853286266327,-0.07782554626464844,-0.08169829845428467
1684110522279812000,12.33281201171875,-0.18721210956573486,-0.09322166442871094,-0.06784188747406006
1684110522289853700,12.342853759765624,-0.23541362583637238,-0.023653030395507812,-0.08930802345275879
1684110522299895300,12.352895263671876,-0.2713162302970886,-0.07065200805664062,-0.07716619968414307
1684110522309937000,12.36293701171875,-0.2594435214996338,-0.06980514526367188,-0.07215166091918945
1684110522319978800,12.372978759765624,-0.23556604981422424,-0.09020519256591797,-0.062194228172302246
1684110522330020400,12.383020263671876,-0.1840985119342804,-0.04436683654785156,0.0018172264099121094
1684110522340062000,12.39306201171875,-0.21908827126026154,-0.053391456604003906,0.03375041484832764
1684110522350103600,12.403103515625,-0.2632068395614624,-0.03394317626953125,-0.0036406517028808594
1684110522360145200,12.413145263671876,-0.29199182987213135,0.008786201477050781,-0.052523016929626465
1684110522370186800,12.423186767578125,-0.2799907326698303,0.043753623962402344,-0.1030118465423584
