time,seconds_elapsed,z,y,x
1684109381190729700,0.031729736328125,0,0,0
1684109381200771300,0.041771240234375,0.08390331268310547,-0.1596827507019043,-0.20329713821411133
1684109381210812700,0.051812744140625,0.1595745086669922,-0.20302915573120117,-0.09386396408081055
1684109381220854300,0.061854248046875,0.03661966323852539,-0.6464328765869141,0.003916263580322266
1684109381230895600,0.0718955078125,-0.18640995025634766,-1.20768404006958,0.0332636833190918
1684109381240937200,0.081937255859375,-0.16373729705810547,-0.9174618721008301,-0.7268190383911133
1684109381250978600,0.091978515625,0.054929256439208984,-0.11473870277404785,-1.3361306190490723
1684109381261020200,0.102020263671875,0.3863344192504883,0.12422347068786621,-1.6908488273620605
1684109381271061500,0.1120615234375,-0.043990135192871094,-0.7967526912689209,-0.5015048980712891
1684109381281103000,0.12210302734375,0.21746301651000977,-0.03290891647338867,-0.9547481536865234
1684109381291144400,0.13214453125,0.21430206298828125,-0.5576214790344238,-0.6715021133422852
1684109381301186000,0.14218603515625,0.6581530570983887,-0.19191551208496094,-1.1799712181091309
1684109381311227400,0.152227294921875,0.5006623268127441,0.06139564514160156,-0.439333438873291
1684109381321269000,0.16226904296875,0.3372344970703125,0.4106903076171875,-0.3750033378601074
1684109381331310300,0.172310302734375,-0.09661245346069336,0.48800086975097656,-0.15116357803344727
1684109381341352000,0.18235205078125,-0.44855499267578125,0.7590932846069336,-0.3084602355957031
1684109381351393300,0.192393310546875,-0.4942607879638672,1.0654127597808838,0.11358976364135742
1684109381361435000,0.202434814453125,-0.37357521057128906,0.22516512870788574,0.3231239318847656
1684109381371476500,0.2124765625,0.06725788116455078,0.19876599311828613,0.30858945846557617
1684109381381517800,0.222517822265625,0.21130752563476562,0.2779984474182129,-0.43977928161621094
1684109381391559400,0.232559326171875,0.05042839050292969,0.08255863189697266,-0.690976619720459
1684109381401600800,0.242600830078125,0.17733335494995117,0.09387993812561035,-1.0162534713745117
1684109381411642400,0.252642333984375,0.15472888946533203,-0.09034204483032227,-1.2007522583007812
1684109381421683700,0.26268359375,-0.0547337532043457,0.23910784721374512,-1.2770333290100098
1684109381431725300,0.272725341796875,-0.2871708869934082,0.6279809474945068,-0.8069925308227539
1684109381441766700,0.2827666015625,-0.5506482124328613,0.24675631523132324,0.002463817596435547
1684109381451808300,0.292808349609375,-0.4188399314880371,0.12853240966796875,-0.43811893463134766
1684109381461849600,0.302849609375,0.13301753997802734,-0.2808237075805664,-0.7904839515686035
1684109381471891200,0.31289111328125,0.9849400520324707,-0.5644505023956299,-1.5703635215759277
1684109381481932500,0.3229326171875,1.7463860511779785,-0.6559617519378662,-1.7690229415893555
1684109381491974100,0.33297412109375,1.7640953063964844,-0.8432440757751465,-2.0155258178710938
1684109381502015700,0.343015625,1.4508249759674072,-0.828045129776001,-2.125366687774658
1684109381512057000,0.35305712890625,1.6157171726226807,-0.9845530986785889,-1.377058506011963
1684109381522098700,0.3630986328125,1.7202486991882324,-0.32204246520996094,-1.3390002250671387
1684109381532140000,0.37314013671875,1.684511423110962,0.5006668567657471,-0.9958996772766113
1684109381542181600,0.383181640625,1.6217517852783203,1.055037021636963,-0.2271723747253418
1684109381552223000,0.393222900390625,0.9612696170806885,1.3581314086914062,0.44066619873046875
1684109381562264600,0.4032646484375,-0.00800633430480957,0.4284679889678955,1.0588693618774414
1684109381572306200,0.41330615234375,0.23175573348999023,-0.16372394561767578,1.943842887878418
1684109381582347500,0.423347412109375,0.6658799648284912,0.06711602210998535,1.6840085983276367
1684109381592389000,0.43338916015625,0.055011749267578125,0.19946527481079102,1.5126142501831055
1684109381602430500,0.443430419921875,-0.22700321674346924,0.36922597885131836,0.9394454956054688
1684109381612471800,0.453471923828125,-0.24295908212661743,0.3301568031311035,0.6490383148193359
1684109381622513400,0.463513427734375,-0.3374418318271637,0.054087162017822266,0.1716775894165039
1684109381632555000,0.473554931640625,-0.6136590838432312,-0.23248291015625,-0.13130855560302734
1684109381642596400,0.483596435546875,-0.7247079610824585,-0.8113641738891602,0.45090675354003906
1684109381652638000,0.493637939453125,-0.24879200756549835,-0.6948146820068359,0.5372762680053711
1684109381662679300,0.50367919921875,-0.0743148997426033,-0.6366333961486816,0.34345436096191406
1684109381672721000,0.513720947265625,-0.13683468103408813,-0.71246337890625,-0.3010416030883789
1684109381682762200,0.52376220703125,0.301403284072876,-0.44489383697509766,-1.6531953811645508
1684109381692803800,0.533803955078125,0.5549576282501221,-0.3968496322631836,-3.1431517601013184
1684109381702845400,0.543845458984375,0.4122895896434784,-0.3099379539489746,-4.814164161682129
1684109381712886800,0.55388671875,-0.47702962160110474,-0.7344999313354492,-3.1828832626342773
1684109381722928400,0.563928466796875,-0.21968135237693787,-0.4813418388366699,-1.2661256790161133
1684109381732969700,0.5739697265625,0.3085476756095886,-0.45661020278930664,-0.06987285614013672
1684109381743011300,0.58401123046875,0.46506205201148987,-1.5610136985778809,1.7847208976745605
1684109381753052700,0.594052734375,0.5568845272064209,-1.3776602745056152,2.340125560760498
1684109381763094300,0.60409423828125,0.9658966064453125,-0.803807258605957,1.8681178092956543
1684109381773135600,0.614135498046875,1.410090684890747,-0.9483933448791504,1.712076187133789
1684109381783177200,0.62417724609375,1.3876935243606567,-1.1531572341918945,1.963411808013916
1684109381793218800,0.63421875,1.046316385269165,-1.2090635299682617,1.9590439796447754
1684109381803260200,0.64426025390625,0.6510382890701294,-1.4625864028930664,2.328275680541992
1684109381813301800,0.6543017578125,-0.01870739459991455,-1.1902885437011719,2.4607315063476562
1684109381823343000,0.664343017578125,-0.8172852396965027,-1.1376404762268066,2.001885414123535
1684109381833384700,0.674384765625,-0.9314162731170654,-0.8336400985717773,1.2048473358154297
1684109381843426000,0.684426025390625,-0.5989104509353638,-0.12867450714111328,0.790313720703125
1684109381853467600,0.694467529296875,-0.5895602107048035,-0.6558303833007812,0.11593103408813477
1684109381863509200,0.70450927734375,-0.2084433138370514,-1.569282054901123,-0.5325279235839844
1684109381873550600,0.714550537109375,0.7580217123031616,-2.2223000526428223,-0.3114500045776367
1684109381883592200,0.72459228515625,1.5952500104904175,-2.3910040855407715,0.08854532241821289
1684109381893633500,0.734633544921875,2.455507755279541,-2.633084297180176,1.1707515716552734
1684109381903675100,0.744675048828125,2.0453975200653076,-0.27054309844970703,0.22423505783081055
1684109381913716500,0.754716552734375,0.6943652629852295,0.5191373825073242,-0.13266944885253906
1684109381923758000,0.764758056640625,-0.6093502640724182,-0.4095635414123535,0.07027578353881836
1684109381933799400,0.77479931640625,-0.66045081615448,-0.6329188346862793,0.24189090728759766
1684109381943841000,0.784841064453125,-0.5216850638389587,-0.3685579299926758,0.15110015869140625
1684109381953882600,0.794882568359375,-0.3171360492706299,-0.16855859756469727,0.1697998046875
1684109381963924000,0.804924072265625,0.041930705308914185,-0.3212399482727051,0.18124771118164062
1684109381973965600,0.814965576171875,1.5648000240325928,-0.36763906478881836,0.6444754600524902
1684109381984007000,0.8250068359375,2.158931016921997,-0.1969757080078125,0.23427295684814453
1684109381994048500,0.835048583984375,1.7539106607437134,-1.0532679557800293,-0.3953094482421875
1684109382004089900,0.84508984375,0.9997344613075256,-0.19284725189208984,-0.14668035507202148
1684109382014131500,0.85513134765625,-0.051112011075019836,0.5458245277404785,-0.40067291259765625
1684109382024172800,0.8651728515625,-0.6143380403518677,-0.08039236068725586,0.27962732315063477
1684109382034214400,0.87521435546875,-0.577806293964386,0.4624209403991699,0.5710735321044922
1684109382044256000,0.885256103515625,-0.47055402398109436,0.6687378883361816,0.48912763595581055
1684109382054297300,0.89529736328125,-0.5271939635276794,-0.011837005615234375,0.10562896728515625
1684109382064339000,0.9053388671875,-0.24675577878952026,-0.004582405090332031,-0.06967353820800781
1684109382074380300,0.91538037109375,-0.18027405440807343,-0.08687639236450195,-0.04189443588256836
1684109382084422000,0.925421875,-0.274291068315506,0.01117706298828125,-0.03416156768798828
1684109382094463200,0.935463134765625,-0.2582278847694397,-0.12991619110107422,0.25629186630249023
1684109382104504800,0.9455048828125,-0.12096980214118958,0.04998779296875,0.3564634323120117
1684109382114546400,0.95554638671875,-0.3146439790725708,0.12150955200195312,0.24235773086547852
1684109382124587800,0.965587890625,-0.5466996431350708,0.2132272720336914,-0.009108543395996094
1684109382134629400,0.97562939453125,-0.5645353198051453,0.7022814750671387,-0.40567493438720703
1684109382144670700,0.985670654296875,-0.7381353378295898,0.572171688079834,-0.6930279731750488
1684109382154712300,0.99571240234375,-1.2266288995742798,-0.18879270553588867,-0.3527522087097168
1684109382164753700,1.005753662109375,-0.9566937685012817,-0.09075117111206055,0.005818843841552734
1684109382174795300,1.015795166015625,-0.1979169249534607,-0.06471538543701172,0.06745767593383789
1684109382184836600,1.025836669921875,-0.07198172807693481,-0.35532569885253906,-0.15242385864257812
1684109382194878200,1.035878173828125,0.12043973803520203,0.257204532623291,-0.3897857666015625
1684109382204919800,1.045919921875,0.23150822520256042,0.013800621032714844,-0.16396188735961914
1684109382214961200,1.055961181640625,-0.16425922513008118,-0.28566503524780273,0.1934676170349121
1684109382225002800,1.066002685546875,-0.625276505947113,-0.41341543197631836,0.08603858947753906
1684109382235044000,1.076044189453125,-0.9099525213241577,-0.1789689064025879,0.1871485710144043
1684109382245085700,1.086085693359375,-1.2865415811538696,0.6181545257568359,0.35507917404174805
1684109382255127300,1.096127197265625,-1.751089334487915,1.3444676399230957,0.38088321685791016
1684109382265168600,1.106168701171875,-1.8835420608520508,1.9033360481262207,-0.08260297775268555
1684109382275210200,1.116210205078125,-1.7405428886413574,1.7086777687072754,-0.47475528717041016
1684109382285251600,1.12625146484375,-1.558354377746582,1.681617259979248,-0.7280211448669434
1684109382295293200,1.136293212890625,-1.1624512672424316,1.7441973686218262,-0.9950919151306152
1684109382305334500,1.14633447265625,-0.7816060781478882,1.285120964050293,-0.7630677223205566
1684109382315376000,1.156376220703125,-0.4699289798736572,0.7007102966308594,-0.3336629867553711
1684109382325417700,1.166417724609375,0.6226327419281006,-1.312638759613037,0.2456822395324707
1684109382335459000,1.176458984375,0.5684389472007751,-1.7927937507629395,1.2222981452941895
1684109382345500700,1.186500732421875,0.3986785411834717,-3.024808883666992,3.1668014526367188
1684109382355542000,1.1965419921875,-0.009050607681274414,-6.109126567840576,6.246391296386719
1684109382365583600,1.20658349609375,1.8684170246124268,0.16571903228759766,2.647158145904541
1684109382375625000,1.216625,2.338986873626709,2.310317039489746,1.6859688758850098
1684109382385666600,1.22666650390625,1.6367193460464478,1.5779528617858887,0.8856210708618164
1684109382395708200,1.236708251953125,1.4268046617507935,0.9759869575500488,-0.6580390930175781
1684109382405749500,1.24674951171875,2.9136240482330322,1.6483230590820312,-2.704554796218872
1684109382415791000,1.256791015625,3.1534643173217773,4.480172157287598,-2.564854860305786
1684109382425832400,1.26683251953125,1.2299010753631592,1.6653432846069336,-2.110218048095703
1684109382435874000,1.2768740234375,-0.21128535270690918,-0.5895977020263672,-1.2428889274597168
1684109382445915600,1.28691552734375,-0.741919994354248,-0.8456873893737793,-0.34830141067504883
1684109382455957000,1.29695703125,-0.4638127088546753,-0.08200502395629883,0.4194350242614746
1684109382465998600,1.30699853515625,-0.7454323768615723,-0.041454315185546875,1.02207612991333
1684109382476040000,1.3170400390625,-1.1395758390426636,-0.35276174545288086,1.4738831520080566
1684109382486081500,1.32708154296875,-0.6465358734130859,-0.30077171325683594,1.7484488487243652
1684109382496123000,1.337122802734375,0.19136595726013184,-0.23100948333740234,1.7345008850097656
1684109382506164500,1.34716455078125,0.7812086343765259,-0.4340677261352539,1.7239837646484375
1684109382516205800,1.357205810546875,1.0878318548202515,-0.9089555740356445,1.3346166610717773
1684109382526247400,1.367247314453125,1.2771245241165161,-1.737675666809082,1.4714622497558594
1684109382536289000,1.3772890625,1.3573719263076782,-2.077037811279297,2.0111641883850098
1684109382546330400,1.387330322265625,1.2228641510009766,-1.7955741882324219,2.2087745666503906
1684109382556372000,1.3973720703125,0.8278390169143677,-1.3544797897338867,2.1687545776367188
1684109382566413600,1.40741357421875,0.39484572410583496,-1.089468002319336,1.7561593055725098
1684109382576455000,1.417454833984375,-0.06784951686859131,-0.6747064590454102,1.0523362159729004
1684109382586496500,1.42749658203125,-0.7929531335830688,-0.6081485748291016,0.1886138916015625
1684109382596537900,1.437537841796875,-1.0591025352478027,-0.9962253570556641,0.04016876220703125
1684109382606579500,1.447579345703125,-0.6673622131347656,-0.9904003143310547,0.2841672897338867
1684109382616620800,1.457620849609375,-0.7916871309280396,-0.7235851287841797,0.2763552665710449
1684109382626662400,1.467662353515625,-0.9718387722969055,-0.26845645904541016,-0.35973453521728516
1684109382636704000,1.4777041015625,-1.0156097412109375,-0.09157848358154297,-1.1088709831237793
1684109382646745300,1.487745361328125,-1.3364566564559937,0.07067680358886719,-1.6503496170043945
1684109382656787000,1.497786865234375,-2.5447628498077393,0.35089111328125,-2.05950665473938
1684109382666828300,1.507828369140625,-3.6057560443878174,-0.597437858581543,-1.1403913497924805
1684109382676870000,1.517869873046875,-3.629070281982422,-0.6448001861572266,-0.5480341911315918
1684109382686911500,1.527911376953125,-2.7549550533294678,-0.4329261779785156,-0.21388626098632812
1684109382696952800,1.537952880859375,-1.3648698329925537,-0.35880374908447266,-0.24739837646484375
1684109382706994400,1.547994384765625,0.20872709155082703,0.2422628402709961,-0.5936498641967773
1684109382717035800,1.558035888671875,0.7704228758811951,1.0953493118286133,-0.548370361328125
1684109382727077400,1.568077392578125,0.24714696407318115,1.1860618591308594,-0.011867523193359375
1684109382737118700,1.57811865234375,-0.22080868482589722,1.1391997337341309,-0.2844996452331543
1684109382747160300,1.588160400390625,-0.38670969009399414,2.3700709342956543,-1.4813008308410645
1684109382757202000,1.598201904296875,-0.9292857646942139,2.0213851928710938,-2.001769542694092
1684109382767243300,1.6082431640625,-1.1693098545074463,2.6664156913757324,-1.1821222305297852
1684109382777284900,1.618284912109375,-1.2948206663131714,2.2222347259521484,-0.7268662452697754
1684109382787326200,1.628326171875,-1.5065613985061646,1.298957347869873,-0.953883171081543
1684109382797367800,1.638367919921875,-1.1463173627853394,0.6907310485839844,-0.4337306022644043
1684109382807409200,1.6484091796875,-0.8759737610816956,-0.4257221221923828,-0.2702522277832031
1684109382817450800,1.65845068359375,-0.7612582445144653,-1.9006738662719727,0.36505889892578125
1684109382827492400,1.668492431640625,-0.3736364245414734,-3.0952529907226562,1.0978474617004395
1684109382837533700,1.67853369140625,0.031107783317565918,-2.8287086486816406,1.506251335144043
1684109382847575300,1.6885751953125,0.5031962990760803,-0.8076581954956055,1.606508731842041
1684109382857617000,1.698616943359375,-0.13579344749450684,0.009676933288574219,1.5248680114746094
1684109382867658200,1.708658203125,-1.1415305137634277,-0.1840381622314453,1.3087706565856934
1684109382877699800,1.718699951171875,-1.5709460973739624,-0.21743106842041016,0.9353094100952148
1684109382887741200,1.7287412109375,-1.6460992097854614,-0.3996238708496094,0.32866621017456055
1684109382897782800,1.73878271484375,-1.3081074953079224,-0.28006649017333984,-0.33954334259033203
1684109382907824000,1.74882421875,-0.6557557582855225,-0.5236949920654297,-0.8273446559906006
1684109382917865700,1.75886572265625,0.06723451614379883,-0.9481973648071289,-1.3786146640777588
1684109382927907300,1.7689072265625,0.5138471126556396,-1.3196144104003906,-1.6481044292449951
1684109382937948700,1.77894873046875,0.383594274520874,-1.9050207138061523,-1.4106051921844482
1684109382947990300,1.788990234375,0.3523225784301758,-2.15279483795166,-0.8546984195709229
1684109382958031600,1.799031494140625,0.38468360900878906,-2.0163145065307617,-0.3392198085784912
1684109382968073200,1.8090732421875,0.6281671524047852,-1.4138975143432617,0.32693982124328613
1684109382978114800,1.81911474609375,0.9566080570220947,-0.9692344665527344,0.5923399925231934
1684109382988156200,1.82915625,1.1857770681381226,-0.753870964050293,0.5540351867675781
1684109382998197800,1.83919775390625,1.1551400423049927,-0.7029485702514648,0.24284148216247559
1684109383008239000,1.849239013671875,1.037515640258789,-0.8144187927246094,-0.18175935745239258
1684109383018280700,1.85928076171875,0.9107112884521484,-0.9315013885498047,-0.5688598155975342
1684109383028322300,1.869322265625,0.9763674736022949,-1.1122732162475586,-0.8837714195251465
1684109383038363600,1.87936376953125,1.303829550743103,-1.1392536163330078,-0.9037933349609375
1684109383048405200,1.8894052734375,1.6735512018203735,-0.7932004928588867,-0.5755512714385986
1684109383058446600,1.899446533203125,2.0445663928985596,-0.4069404602050781,-0.49561142921447754
1684109383068488200,1.90948828125,2.1967391967773438,0.033410072326660156,-0.2381892204284668
1684109383078529800,1.91952978515625,1.9061565399169922,-0.058562278747558594,-0.46141672134399414
1684109383088571100,1.929571044921875,1.7939413785934448,0.19268798828125,-0.911268949508667
1684109383098612700,1.93961279296875,1.7449861764907837,0.5762014389038086,-1.1378681659698486
1684109383108654000,1.949654052734375,1.5765491724014282,0.7810993194580078,-0.9856863021850586
1684109383118695700,1.95969580078125,1.3605756759643555,0.7528367042541504,-0.7679319381713867
1684109383128737300,1.9697373046875,1.1557281017303467,0.7576580047607422,-0.8272719383239746
1684109383138778600,1.979778564453125,1.0241584777832031,0.686485767364502,-0.807887077331543
1684109383148820200,1.9898203125,0.8983807563781738,0.3703727722167969,-0.3943462371826172
1684109383158861600,1.999861572265625,0.6783292293548584,0.1636829376220703,-0.2636406421661377
1684109383168903200,2.009903076171875,0.7322027683258057,-0.5237464904785156,-0.8118484020233154
1684109383178944800,2.01994482421875,0.48425841331481934,-0.8067226409912109,-0.7590339183807373
1684109383188986000,2.029986083984375,0.16869711875915527,-0.7816171646118164,-0.5260829925537109
1684109383199027700,2.04002783203125,-0.2830522060394287,-0.8108367919921875,-0.46165990829467773
1684109383209069000,2.050069091796875,-0.4952116012573242,-0.7127542495727539,-0.5994892120361328
1684109383219110700,2.060110595703125,-0.5071408748626709,-0.4519224166870117,-0.5771603584289551
1684109383229152300,2.07015234375,-0.4587078094482422,-0.3123626708984375,-0.23723554611206055
1684109383239193600,2.080193603515625,-0.480757474899292,-0.2279520034790039,0.053177833557128906
1684109383249235200,2.090235107421875,-0.5242669582366943,-0.1663036346435547,0.1429767608642578
1684109383259276500,2.100276611328125,-0.4166700839996338,-0.08687210083007812,0.010428428649902344
1684109383269318100,2.110318115234375,-0.34153175354003906,-0.1738595962524414,-0.1779947280883789
1684109383279359700,2.12035986328125,-0.21037864685058594,-0.22345256805419922,-0.015704631805419922
1684109383289401000,2.130401123046875,-0.06439447402954102,-0.047791481018066406,-0.0852360725402832
1684109383299442700,2.140442626953125,-0.13646483421325684,-0.0653085708618164,-0.641350507736206
1684109383309484000,2.150484130859375,-0.11323809623718262,-0.0353240966796875,-1.1382780075073242
1684109383319525600,2.160525634765625,0.00937342643737793,-0.129180908203125,-1.2717278003692627
1684109383329567200,2.170567138671875,0.18920660018920898,-0.09554672241210938,-1.1390364170074463
1684109383339608600,2.180608642578125,0.3397703170776367,0.030225753784179688,-1.0589630603790283
1684109383349650200,2.190650146484375,0.22032976150512695,-0.12505626678466797,-0.6527981758117676
1684109383359691500,2.20069140625,0.3058640956878662,0.11730289459228516,-0.5955860614776611
1684109383369733000,2.210733154296875,0.2855510711669922,0.2666950225830078,-0.9115588665008545
1684109383379774700,2.220774658203125,-0.00847768783569336,0.5007243156433105,-1.2453303337097168
1684109383389816000,2.230816162109375,-0.3702723979949951,0.24831867218017578,-1.0845184326171875
1684109383399857700,2.240857666015625,-0.26484251022338867,0.7535457611083984,-1.020824909210205
1684109383409899000,2.25089892578125,-0.13864564895629883,0.5533833503723145,-1.2467081546783447
1684109383419940600,2.260940673828125,-0.10143804550170898,1.149397850036621,-1.232933521270752
1684109383429982200,2.270982177734375,-0.32187485694885254,1.919191837310791,-1.1676864624023438
1684109383440023600,2.2810234375,-0.544316291809082,1.7644190788269043,-1.2758736610412598
1684109383450065200,2.291065185546875,-0.6822843551635742,1.1803312301635742,-1.2892122268676758
1684109383460106500,2.3011064453125,-0.9113342761993408,0.13878917694091797,-1.2199428081512451
1684109383470148000,2.311148193359375,-0.9559822082519531,-0.6758880615234375,-1.212184190750122
1684109383480189700,2.321189697265625,-0.8782775402069092,-1.4472227096557617,-1.139364242553711
1684109383490231000,2.33123095703125,-0.7586812973022461,-2.0737009048461914,-1.217045545578003
1684109383500272600,2.341272705078125,-0.477886438369751,-2.388941764831543,-1.3081426620483398
1684109383510314200,2.351314208984375,0.0032842159271240234,-2.243244171142578,-1.3017053604125977
1684109383520355600,2.36135546875,0.49419498443603516,-1.7797927856445312,-1.2336325645446777
1684109383530397200,2.371397216796875,0.9517462253570557,-1.0113611221313477,-1.1405572891235352
1684109383540438500,2.3814384765625,1.1341609954833984,-0.44915771484375,-1.055670976638794
1684109383550480100,2.391480224609375,0.9579422473907471,-0.29644298553466797,-1.0374186038970947
1684109383560521700,2.401521728515625,0.5715999603271484,-0.21921539306640625,-0.8083004951477051
1684109383570563000,2.41156298828125,0.21455860137939453,-0.0930337905883789,-0.5840263366699219
1684109383580604700,2.421604736328125,-0.04398846626281738,-0.008456230163574219,-0.3910226821899414
1684109383590646300,2.431646240234375,-0.15864014625549316,-0.042919158935546875,-0.15091300010681152
1684109383600687600,2.4416875,-0.011442184448242188,-0.014272689819335938,-0.07570648193359375
1684109383610729200,2.451729248046875,0.1909043788909912,0.12879371643066406,0.0029020309448242188
1684109383620770600,2.4617705078125,0.4750502109527588,0.5065031051635742,0.15844202041625977
1684109383630812200,2.471812255859375,0.5706920623779297,0.5270214080810547,0.18619966506958008
1684109383640853800,2.481853759765625,0.6493725776672363,0.4874591827392578,0.014493465423583984
1684109383650895000,2.49189501953125,0.7138457298278809,0.29982948303222656,-0.19320058822631836
1684109383660936700,2.501936767578125,0.7790756225585938,0.1014404296875,-0.42653584480285645
1684109383670978000,2.51197802734375,0.8332407474517822,-0.2862129211425781,-0.7055673599243164
1684109383681019600,2.52201953125,0.885303258895874,-0.6456756591796875,-0.8225743770599365
1684109383691061200,2.532061279296875,0.8638169765472412,-0.4155540466308594,-0.9274935722351074
1684109383701102600,2.5421025390625,0.63411545753479,-0.23125457763671875,-0.797081708908081
1684109383711144200,2.552144287109375,0.23340940475463867,-0.27973079681396484,-0.7190072536468506
1684109383721185500,2.562185546875,-0.3335080146789551,-0.6056118011474609,-0.7828762531280518
1684109383731227100,2.57222705078125,-1.0913386344909668,-1.2534198760986328,-0.8576657772064209
1684109383741268700,2.582268798828125,-1.9175703525543213,-2.0437498092651367,-0.9184610843658447
1684109383751310000,2.59231005859375,-2.849801540374756,-2.9242029190063477,-1.0182008743286133
1684109383761351700,2.6023515625,-4.377873420715332,-3.7737550735473633,-1.1342313289642334
1684109383771393000,2.61239306640625,-7.606369972229004,-4.912104606628418,-1.3480581045150757
1684109383781434600,2.6224345703125,-8.866186141967773,-5.005228042602539,-1.8626906871795654
1684109383791476200,2.632476318359375,-4.54227876663208,-1.7402067184448242,-1.9070825576782227
1684109383801517600,2.642517578125,-1.0975172519683838,0.47246456146240234,-1.3977004289627075
1684109383811559200,2.65255908203125,1.172764539718628,1.8645834922790527,-0.840053915977478
1684109383821600800,2.662600830078125,2.5186305046081543,2.8763256072998047,-0.46909666061401367
1684109383831642000,2.67264208984375,3.0173397064208984,3.455124855041504,-0.5348222255706787
1684109383841683700,2.68268359375,2.9193315505981445,3.131528854370117,-0.2681143283843994
1684109383851725000,2.69272509765625,2.7077159881591797,2.420398712158203,0.2515838146209717
1684109383861766700,2.7027666015625,2.7360005378723145,1.7100954055786133,0.5304255485534668
1684109383871808300,2.712808349609375,2.728437900543213,0.9633016586303711,0.5051887035369873
1684109383881849600,2.722849609375,2.788740396499634,0.35353851318359375,0.5920491218566895
1684109383891891200,2.73289111328125,2.8340678215026855,-0.1130228042602539,0.8651840686798096
1684109383901932500,2.7429326171875,2.812915563583374,-0.36490440368652344,1.1246685981750488
1684109383911974100,2.75297412109375,2.599118232727051,-0.37819671630859375,1.4145870208740234
1684109383922015700,2.763015625,2.1770691871643066,-0.38890647888183594,1.6102406978607178
1684109383932057000,2.77305712890625,1.7708446979522705,-0.3568849563598633,1.7827939987182617
1684109383942098700,2.7830986328125,1.537658929824829,-0.18259239196777344,1.940565586090088
1684109383952140300,2.793140380859375,1.3732045888900757,-0.020341873168945312,1.8257927894592285
1684109383962181600,2.803181640625,1.2457365989685059,0.08632183074951172,1.623131275177002
1684109383972223200,2.81322314453125,1.098120927810669,0.17660045623779297,1.458853006362915
1684109383982264600,2.8232646484375,0.8355862498283386,0.2085399627685547,1.4038667678833008
1684109383992306200,2.83330615234375,0.5829089283943176,0.33002758026123047,1.4534432888031006
1684109384002347800,2.84334765625,0.37954699993133545,0.5462512969970703,1.5675690174102783
1684109384012389000,2.85338916015625,0.22077953815460205,0.6021909713745117,1.5013718605041504
1684109384022430700,2.8634306640625,0.10790437459945679,0.6303911209106445,1.4712998867034912
1684109384032472300,2.873472412109375,-0.036973655223846436,0.39919090270996094,1.2902522087097168
1684109384042513700,2.883513671875,-0.3598695397377014,0.11122989654541016,1.036890983581543
1684109384052555300,2.89355517578125,-0.701275110244751,-0.11759471893310547,0.910459041595459
1684109384062596600,2.9035966796875,-0.8167250156402588,-0.20804309844970703,0.6996233463287354
1684109384072638200,2.91363818359375,-0.6702005863189697,-0.253173828125,0.4561131000518799
1684109384082679800,2.9236796875,-0.33258527517318726,-0.2575960159301758,0.1360149383544922
1684109384092721200,2.93372119140625,0.04587352275848389,-0.26404857635498047,-0.15362048149108887
1684109384102762800,2.9437626953125,0.34408414363861084,-0.32902050018310547,-0.4352853298187256
1684109384112804400,2.953804443359375,0.636526882648468,-0.45402050018310547,-0.6026655435562134
1684109384122845700,2.963845703125,0.8184070587158203,-0.5019760131835938,-1.088024377822876
1684109384132887300,2.97388720703125,0.8774343729019165,-0.7657899856567383,-1.290893793106079
1684109384142928600,2.9839287109375,1.1408352851867676,-1.0447454452514648,-0.9277911186218262
1684109384152970200,2.99397021484375,1.3492215871810913,-1.1242828369140625,-0.9705801010131836
1684109384163011800,3.00401171875,1.4111932516098022,-0.9448022842407227,-1.213060975074768
1684109384173053200,3.01405322265625,1.4114214181900024,-0.6551494598388672,-1.253803014755249
1684109384183094800,3.0240947265625,1.3576667308807373,-0.3660869598388672,-1.2199256420135498
1684109384193136400,3.034136474609375,1.2830746173858643,-0.15913105010986328,-1.046449065208435
1684109384203177700,3.044177734375,1.2240965366363525,0.06964111328125,-0.9302027225494385
1684109384213219300,3.05421923828125,1.2492210865020752,0.1251382827758789,-0.6033387184143066
1684109384223260700,3.0642607421875,1.248778223991394,0.16003990173339844,-0.2286067008972168
1684109384233302300,3.07430224609375,1.1886811256408691,0.14528465270996094,0.060602426528930664
1684109384243344000,3.08434375,1.0636593103408813,0.13343429565429688,0.2760286331176758
1684109384253385200,3.09438525390625,0.8951920866966248,0.14365673065185547,0.4063405990600586
1684109384263426800,3.1044267578125,0.6981905698776245,0.27594757080078125,0.4609405994415283
1684109384273468400,3.114468505859375,0.43871885538101196,0.27873897552490234,0.33800697326660156
1684109384283509800,3.124509765625,0.21374189853668213,0.1927814483642578,0.023613691329956055
1684109384293551400,3.13455126953125,0.1129714846611023,0.06165027618408203,-0.2459120750427246
1684109384303592700,3.1445927734375,0.2174338698387146,-0.09762287139892578,-0.29070067405700684
1684109384313634300,3.15463427734375,0.4908141791820526,-0.3183002471923828,-0.1900327205657959
1684109384323676000,3.164676025390625,0.849159836769104,-0.4140348434448242,-0.009121417999267578
1684109384333717200,3.17471728515625,1.1426208019256592,-0.42815589904785156,0.17486262321472168
1684109384343758800,3.1847587890625,1.3571679592132568,-0.2821063995361328,0.3159613609313965
1684109384353800200,3.19480029296875,1.4315537214279175,-0.13882160186767578,0.44634103775024414
1684109384363841800,3.204841796875,1.3564577102661133,-0.051230430603027344,0.5567080974578857
1684109384373883400,3.21488330078125,1.1900372505187988,0.08096504211425781,0.5513477325439453
1684109384383924700,3.2249248046875,0.9684410095214844,0.16707515716552734,0.5557746887207031
1684109384393966300,3.23496630859375,0.6969757080078125,0.20720195770263672,0.556058406829834
1684109384404008000,3.245008056640625,0.38897624611854553,0.23491382598876953,0.6432003974914551
1684109384414049300,3.25504931640625,0.030797600746154785,0.20017051696777344,0.6453859806060791
1684109384424091000,3.2650908203125,-0.24211305379867554,0.07689952850341797,0.551138162612915
1684109384434132500,3.275132568359375,-0.4269425570964813,0.011060714721679688,0.29231977462768555
1684109384444173800,3.285173828125,-0.5663467645645142,-0.08077812194824219,0.07603716850280762
1684109384454215400,3.29521533203125,-0.6015217304229736,-0.2030324935913086,-0.07518553733825684
1684109384464256800,3.3052568359375,-0.5134947896003723,-0.2813835144042969,-0.19645452499389648
1684109384474298400,3.31529833984375,-0.28051021695137024,-0.2633085250854492,-0.14905118942260742
1684109384484340000,3.325340087890625,-0.0286312997341156,-0.21591854095458984,-0.01264810562133789
1684109384494381300,3.33538134765625,0.20737385749816895,-0.1250171661376953,0.2524383068084717
1684109384504423000,3.3454228515625,0.38302239775657654,0.021053314208984375,0.5423910617828369
1684109384514464500,3.355464599609375,0.4985272288322449,0.16704177856445312,0.8015196323394775
1684109384524505900,3.365505859375,0.6095200777053833,0.28887462615966797,1.0077228546142578
1684109384534547500,3.37554736328125,0.6758050918579102,0.36728763580322266,1.1268761157989502
1684109384544588800,3.3855888671875,0.685085654258728,0.4117879867553711,1.1704213619232178
1684109384554630400,3.39563037109375,0.6366674900054932,0.36742401123046875,1.1879370212554932
1684109384564672000,3.405672119140625,0.5271530151367188,0.32498645782470703,1.1380136013031006
1684109384574713300,3.41571337890625,0.4059610366821289,0.30576419830322266,1.0056581497192383
1684109384584755000,3.4257548828125,0.2721399962902069,0.2616157531738281,0.6898653507232666
1684109384594796500,3.435796630859375,0.12183073163032532,0.14734745025634766,0.23266863822937012
1684109384604838000,3.445837890625,0.022194504737854004,0.04237937927246094,-0.2511909008026123
1684109384614879500,3.45587939453125,-0.11562991142272949,-0.06950950622558594,-0.6857783794403076
1684109384624921000,3.465921142578125,-0.16651615500450134,-0.15684986114501953,-1.0293374061584473
1684109384634962400,3.47596240234375,-0.1191619336605072,-0.19553565979003906,-1.2715226411819458
1684109384645004000,3.486004150390625,-0.030855566263198853,-0.21429920196533203,-1.4601117372512817
1684109384655045400,3.49604541015625,0.0842759907245636,-0.13930988311767578,-1.519263505935669
1684109384665087000,3.5060869140625,0.21192413568496704,-0.085540771484375,-1.5428688526153564
1684109384675128600,3.516128662109375,0.35648736357688904,-0.04333782196044922,-1.528531551361084
1684109384685170000,3.526169921875,0.4721905589103699,-0.046021461486816406,-1.4713627099990845
1684109384695211500,3.53621142578125,0.5086390972137451,-0.0959787368774414,-1.3123036623001099
1684109384705253000,3.546253173828125,0.47259196639060974,-0.16214752197265625,-1.1905993223190308
1684109384715294500,3.55629443359375,0.3512433171272278,-0.27080821990966797,-1.037314534187317
1684109384725336000,3.566336181640625,0.19899244606494904,-0.3646984100341797,-0.8937809467315674
1684109384735377700,3.576377685546875,0.06387707591056824,-0.35323429107666016,-0.7149361371994019
1684109384745419000,3.5864189453125,-0.04996299743652344,-0.3252372741699219,-0.5801271200180054
1684109384755460600,3.596460693359375,-0.15744829177856445,-0.2665872573852539,-0.4442330598831177
1684109384765502000,3.606501953125,-0.17397761344909668,-0.1249074935913086,-0.38616156578063965
1684109384775543600,3.61654345703125,-0.20958217978477478,-0.06276798248291016,-0.29826784133911133
1684109384785585200,3.626585205078125,-0.1857939064502716,-0.034590721130371094,-0.2332472801208496
1684109384795626500,3.63662646484375,-0.12932410836219788,-0.0665292739868164,-0.16478300094604492
1684109384805668000,3.646668212890625,-0.02155017852783203,-0.05087471008300781,-0.16890239715576172
1684109384815709700,3.656709716796875,0.06012168526649475,0.00524139404296875,-0.2186298370361328
1684109384825751000,3.6667509765625,0.15544500946998596,0.008589744567871094,-0.23043155670166016
1684109384835792600,3.676792724609375,0.1851569265127182,-0.0025177001953125,-0.2619168758392334
1684109384845834200,3.686834228515625,0.2085905820131302,0.031696319580078125,-0.2890448570251465
1684109384855875600,3.69687548828125,0.1779169738292694,0.0037012100219726562,-0.29738664627075195
1684109384865917200,3.706917236328125,0.1365286111831665,-0.00030231475830078125,-0.37018775939941406
1684109384875958500,3.71695849609375,0.09482569992542267,-0.0305938720703125,-0.34271299839019775
1684109384886000000,3.727000244140625,0.06329494714736938,-0.12055778503417969,-0.3202788829803467
1684109384896041700,3.737041748046875,-0.02512878179550171,-0.13863182067871094,-0.32642316818237305
1684109384906083000,3.7470830078125,-0.05844676494598389,-0.13272762298583984,-0.3466528654098511
1684109384916124700,3.757124755859375,-0.08202964067459106,-0.14112281799316406,-0.3093287944793701
1684109384926166300,3.767166259765625,-0.10774752497673035,-0.12082195281982422,-0.2863044738769531
1684109384936207600,3.77720751953125,-0.11870145797729492,-0.1339588165283203,-0.28698205947875977
1684109384946249200,3.787249267578125,-0.0907483696937561,-0.09923267364501953,-0.2943992614746094
1684109384956290600,3.79729052734375,-0.038053274154663086,-0.0884246826171875,-0.26085543632507324
1684109384966332200,3.807332275390625,0.015272140502929688,-0.06330204010009766,-0.2558608055114746
1684109384976373800,3.817373779296875,0.04469656944274902,-0.08362483978271484,-0.21985554695129395
1684109384986415000,3.8274150390625,0.06370413303375244,-0.03943061828613281,-0.23422670364379883
1684109384996456700,3.837456787109375,0.045504629611968994,-0.031147003173828125,-0.26058316230773926
1684109385006498300,3.847498291015625,0.018877267837524414,0.029703140258789062,-0.291593074798584
1684109385016539600,3.85753955078125,-0.01753830909729004,-0.021879196166992188,-0.263047456741333
1684109385026581200,3.867581298828125,0.02572372555732727,-0.06867122650146484,-0.29943978786468506
1684109385036622800,3.877622802734375,0.10810147225856781,-0.04616260528564453,-0.32154202461242676
1684109385046664200,3.887664306640625,0.17108233273029327,-0.02808380126953125,-0.31754088401794434
1684109385056705800,3.897705810546875,0.18247956037521362,-0.04325580596923828,-0.33253777027130127
1684109385066747100,3.9077470703125,0.17365457117557526,-0.05581474304199219,-0.33798694610595703
1684109385076788700,3.917788818359375,0.1196332573890686,-0.05877399444580078,-0.3741309642791748
1684109385086830300,3.927830322265625,0.06407299637794495,-0.09471797943115234,-0.3723071813583374
1684109385096871700,3.93787158203125,0.005152344703674316,-0.12542724609375,-0.4060630798339844
1684109385106913300,3.947913330078125,-0.004843950271606445,-0.16275501251220703,-0.3994091749191284
1684109385116955000,3.957954833984375,-0.01362869143486023,-0.12659549713134766,-0.4049767255783081
1684109385126996200,3.967996337890625,0.047140926122665405,-0.13116741180419922,-0.4154815673828125
1684109385137037800,3.978037841796875,0.12205679714679718,-0.12396621704101562,-0.37655556201934814
1684109385147079400,3.988079345703125,0.14207471907138824,-0.08159255981445312,-0.38067877292633057
1684109385157120800,3.998120849609375,0.16598355770111084,-0.06578445434570312,-0.3257657289505005
1684109385167162400,4.008162353515625,0.1958819478750229,-0.014866828918457031,-0.3327988386154175
1684109385177204000,4.018203857421875,0.1966332644224167,0.0281982421875,-0.25945568084716797
1684109385187245300,4.028245361328125,0.17816460132598877,0.042328834533691406,-0.255501389503479
1684109385197287000,4.038286865234375,0.15251053869724274,0.10809898376464844,-0.28894269466400146
1684109385207328300,4.048328369140625,0.15295781195163727,0.0197296142578125,-0.14773070812225342
1684109385217369900,4.058369873046875,0.14128977060317993,-0.027161598205566406,-0.08431196212768555
1684109385227411500,4.068411376953125,0.11709585785865784,-0.012033462524414062,-0.03839850425720215
1684109385237452800,4.078452880859375,0.10398353636264801,0.040520668029785156,-0.014508724212646484
1684109385247494400,4.088494384765625,0.07900764048099518,0.045075416564941406,0.006435394287109375
1684109385257536000,4.098535888671875,0.03813710808753967,-0.00228118896484375,0.010377168655395508
1684109385267577300,4.108577392578125,-0.009183928370475769,-0.008822441101074219,-0.03515005111694336
1684109385277619000,4.118618896484375,-0.05119714140892029,-0.010487556457519531,-0.05141019821166992
1684109385287660500,4.12866064453125,-0.0028490275144577026,0.0020294189453125,-0.03427886962890625
1684109385297702000,4.138701904296875,0.03542451560497284,0.011990547180175781,-0.015025854110717773
1684109385307743500,4.148743408203125,0.013892948627471924,0.026564598083496094,-0.06405806541442871
1684109385317784800,4.158784912109375,0.0013045668601989746,0.031538963317871094,-0.0932304859161377
1684109385327826400,4.168826416015625,-0.01844736933708191,-0.02482891082763672,-0.08684468269348145
1684109385337868000,4.178867919921875,-0.05863747000694275,-0.04496955871582031,-0.08061814308166504
1684109385347909400,4.188909423828125,-0.09776495397090912,-0.078887939453125,-0.0861654281616211
1684109385357951000,4.198950927734375,-0.09564116597175598,-0.08876419067382812,-0.06831502914428711
1684109385367992600,4.20899267578125,-0.09734927117824554,-0.08909893035888672,-0.027317523956298828
1684109385378034000,4.219033935546875,-0.09566889703273773,-0.06122112274169922,-0.012995481491088867
1684109385388075500,4.229075439453125,-0.09112448990345001,0.036742210388183594,-0.03217434883117676
1684109385398117000,4.2391171875,-0.03191395103931427,-0.04368305206298828,0.01876544952392578
1684109385408158500,4.249158447265625,-0.003776177763938904,-0.08286857604980469,0.047141075134277344
1684109385418200000,4.259199951171875,0.03841403126716614,-0.03206443786621094,0.12865829467773438
1684109385428241400,4.269241455078125,0.11314155906438828,0.029560089111328125,0.13773822784423828
1684109385438283000,4.279282958984375,0.17967388033866882,0.05010509490966797,0.14181900024414062
1684109385448324600,4.28932470703125,0.2328391969203949,0.0820322036743164,0.1479356288909912
1684109385458366000,4.299365966796875,0.23201242089271545,0.08985042572021484,0.14426922798156738
1684109385468407600,4.309407470703125,0.16598546504974365,0.08344459533691406,0.1124277114868164
1684109385478449200,4.31944921875,0.09037171304225922,0.048943519592285156,0.04123258590698242
1684109385488490500,4.329490478515625,0.0697932317852974,0.06455612182617188,-0.0165560245513916
1684109385498532000,4.339531982421875,0.0570388063788414,0.07288646697998047,-0.030773401260375977
1684109385508573700,4.34957373046875,0.08751603215932846,0.06933116912841797,-0.056351661682128906
1684109385518615000,4.359614990234375,0.1483825147151947,0.025844573974609375,-0.05074048042297363
1684109385528656600,4.36965673828125,0.20536743104457855,0.049071311950683594,-0.0566864013671875
1684109385538698200,4.3796982421875,0.2488691210746765,0.020140647888183594,0.005808115005493164
1684109385548739600,4.389739501953125,0.25096699595451355,0.00582122802734375,0.006056070327758789
1684109385558781200,4.39978125,0.19075170159339905,0.003551483154296875,-0.014727115631103516
1684109385568822800,4.40982275390625,0.10457736253738403,-0.019842147827148438,-0.032709598541259766
1684109385578864000,4.419864013671875,0.028842788189649582,-0.056952476501464844,-0.06440591812133789
1684109385588905700,4.42990576171875,-0.07342081516981125,-0.0863790512084961,-0.0908041000366211
1684109385598947000,4.439947021484375,-0.12079064548015594,-0.05882740020751953,-0.06260919570922852
1684109385608988700,4.44998876953125,-0.10614150017499924,-0.05063438415527344,-0.08453965187072754
1684109385619030300,4.4600302734375,-0.02349570393562317,-0.04738616943359375,-0.09471893310546875
1684109385629071600,4.470071533203125,0.06146937236189842,-0.06072711944580078,-0.10494756698608398
1684109385639113200,4.48011328125,0.0669095516204834,-0.10448837280273438,-0.15049850940704346
1684109385649154800,4.49015478515625,0.05204002559185028,-0.12635231018066406,-0.16953015327453613
1684109385659196200,4.500196044921875,0.0014438219368457794,-0.15017986297607422,-0.21403729915618896
1684109385669237800,4.51023779296875,-0.01654105633497238,-0.1476583480834961,-0.22925567626953125
1684109385679279000,4.520279052734375,-0.0323735810816288,-0.13808727264404297,-0.20872259140014648
1684109385689320700,4.53032080078125,-0.037121761590242386,-0.09803009033203125,-0.1247333288192749
1684109385699362300,4.5403623046875,0.0013659894466400146,-0.07280826568603516,-0.016426801681518555
1684109385709403600,4.550403564453125,0.05173918232321739,-0.01750946044921875,0.0542902946472168
1684109385719445200,4.5604453125,0.11385239660739899,0.04378795623779297,0.07374835014343262
1684109385729486800,4.57048681640625,0.1873883605003357,0.07325172424316406,0.08489084243774414
1684109385739528200,4.580528076171875,0.25525742769241333,0.0926675796508789,0.06931352615356445
1684109385749569800,4.59056982421875,0.32380709052085876,0.09289169311523438,0.05146455764770508
1684109385759611400,4.600611328125,0.34017524123191833,0.08374309539794922,0.008183956146240234
1684109385769652700,4.61065283203125,0.30943405628204346,0.04188728332519531,-0.008081436157226562
1684109385779694300,4.6206943359375,0.2514946460723877,0.03857135772705078,-0.039801836013793945
1684109385789736000,4.63073583984375,0.1961393654346466,0.05195808410644531,-0.03020620346069336
1684109385799777300,4.64077734375,0.15598253905773163,0.05580902099609375,-0.00851750373840332
1684109385809819000,4.65081884765625,0.1473630964756012,0.05261039733886719,0.00846719741821289
1684109385819860500,4.660860595703125,0.1105632483959198,0.04478263854980469,0.04883837699890137
1684109385829901800,4.67090185546875,0.11640758812427521,0.07945060729980469,0.09319281578063965
1684109385839943400,4.680943359375,0.08659949153661728,0.10406112670898438,0.10591506958007812
1684109385849985000,4.690985107421875,0.09734377264976501,0.10930156707763672,0.10607218742370605
1684109385860026400,4.7010263671875,0.06111437827348709,0.08606338500976562,0.07262682914733887
1684109385870068000,4.71106787109375,0.09174040704965591,0.07013511657714844,0.057932138442993164
1684109385880109300,4.721109375,0.11234685033559799,0.03318023681640625,-0.001712799072265625
1684109385890151000,4.73115087890625,0.06614552438259125,-0.0150299072265625,-0.02551746368408203
1684109385900192500,4.741192626953125,-0.005987704731523991,-0.104888916015625,-0.08459043502807617
1684109385910233900,4.75123388671875,-0.09831611067056656,-0.14620494842529297,-0.1663975715637207
1684109385920275500,4.761275390625,-0.1267031580209732,-0.19622802734375,-0.22082972526550293
1684109385930317000,4.771317138671875,-0.1617407500743866,-0.20061302185058594,-0.3022571802139282
1684109385940358400,4.7813583984375,-0.1375376582145691,-0.16948699951171875,-0.37939131259918213
1684109385950400000,4.79139990234375,-0.08190873265266418,-0.12931442260742188,-0.39333248138427734
1684109385960441600,4.801441650390625,-0.045590974390506744,-0.09204387664794922,-0.35702192783355713
1684109385970483000,4.81148291015625,0.011207964271306992,-0.06467533111572266,-0.3371622562408447
1684109385980524500,4.821524658203125,0.04996126890182495,-0.016513824462890625,-0.27027010917663574
1684109385990566000,4.83156591796875,0.10138534754514694,0.04495811462402344,-0.21633470058441162
1684109386000607500,4.841607421875,0.12775692343711853,0.06533527374267578,-0.11174678802490234
1684109386010649000,4.851649169921875,0.14835935831069946,0.05939006805419922,-0.023438453674316406
1684109386020690400,4.8616904296875,0.1138201504945755,0.022879600524902344,0.0325014591217041
1684109386030732000,4.87173193359375,0.0507088303565979,-0.010664939880371094,0.08515262603759766
1684109386040773600,4.881773681640625,0.009017769247293472,-0.0012350082397460938,0.033516645431518555
1684109386050815000,4.89181494140625,-0.015876777470111847,0.04337787628173828,0.029946565628051758
1684109386060856600,4.901856689453125,-0.04953215643763542,0.07547760009765625,0.017028331756591797
1684109386070898200,4.911898193359375,-0.10095346719026566,0.08348941802978516,0.02546215057373047
1684109386080939500,4.921939453125,-0.11111891269683838,0.02541065216064453,0.04300236701965332
1684109386090981000,4.931981201171875,-0.12560027837753296,-0.027019500732421875,0.029529333114624023
1684109386101022700,4.942022705078125,-0.11369246244430542,-0.01969623565673828,0.04229140281677246
1684109386111064000,4.95206396484375,-0.09699021279811859,0.006348609924316406,0.03370785713195801
1684109386121105700,4.962105712890625,-0.07562215626239777,-0.001026153564453125,0.008672237396240234
1684109386131147300,4.972147216796875,-0.02868015691637993,0.008177757263183594,0.028670072555541992
1684109386141188600,4.982188720703125,-0.020667914301156998,0.0007524490356445312,0.010669231414794922
1684109386151230200,4.992230224609375,-0.06564313173294067,-0.03006458282470703,-0.021042585372924805
1684109386161271600,5.002271484375,-0.14118191599845886,-0.04384613037109375,-0.02380228042602539
1684109386171313200,5.012313232421875,-0.16328486800193787,-0.052664756774902344,-0.0028505325317382812
1684109386181354800,5.022354736328125,-0.15511725842952728,-0.059012413024902344,-0.017660856246948242
1684109386191396000,5.03239599609375,-0.1411253660917282,-0.03465461730957031,-0.02750420570373535
1684109386201437700,5.042437744140625,-0.1412520408630371,-0.010655403137207031,-0.027535200119018555
1684109386211479300,5.052479248046875,-0.10391058027744293,-0.015257835388183594,-0.013214111328125
1684109386221520600,5.062520751953125,-0.041191838681697845,-0.0103912353515625,0.012523651123046875
1684109386231562200,5.072562255859375,0.00928787887096405,0.0037670135498046875,-0.018837928771972656
1684109386241603800,5.082603759765625,0.059337180107831955,0.027065277099609375,-0.019243717193603516
1684109386251645200,5.092645263671875,0.11303630471229553,0.0004987716674804688,-0.01746368408203125
1684109386261686800,5.102686767578125,0.1437855213880539,0.014391899108886719,-0.01106715202331543
1684109386271728400,5.112728271484375,0.14253023266792297,0.011593818664550781,-0.0259096622467041
1684109386281769700,5.122769775390625,0.10295569151639938,0.03476715087890625,-0.06158256530761719
1684109386291811300,5.132811279296875,0.054440006613731384,0.045795440673828125,-0.051877498626708984
1684109386301853000,5.14285302734375,0.03735766187310219,0.042514801025390625,-0.00937652587890625
1684109386311894300,5.152894287109375,0.0369989313185215,0.03458118438720703,0.06302332878112793
1684109386321936000,5.162935791015625,0.04335836321115494,0.04559326171875,0.11056256294250488
1684109386331977200,5.172977294921875,0.02573755383491516,0.039905548095703125,0.1288919448852539
1684109386342018800,5.183018798828125,0.008232679218053818,0.03663349151611328,0.13027024269104004
1684109386352060400,5.193060302734375,0.002870813012123108,0.03807353973388672,0.11963129043579102
1684109386362101800,5.203101806640625,0.004827134311199188,0.03237724304199219,0.08069276809692383
1684109386372143400,5.213143310546875,0.004526674747467041,0.019661903381347656,0.0774848461151123
1684109386382185000,5.22318505859375,-0.02179636061191559,0.02358245849609375,0.03171706199645996
1684109386392226300,5.233226318359375,-0.0003894120454788208,-0.029191970825195312,0.03556990623474121
1684109386402268000,5.243267822265625,-0.01466284692287445,-0.05519294738769531,0.008749961853027344
1684109386412309500,5.2533095703125,-0.024110235273838043,-0.07135772705078125,-0.010623931884765625
1684109386422350800,5.263350830078125,-0.0427066832780838,-0.11316394805908203,-0.010901689529418945
1684109386432392400,5.273392333984375,-0.034653209149837494,-0.12837982177734375,-0.053545236587524414
1684109386442433800,5.283433837890625,-0.04714994132518768,-0.10333728790283203,-0.060213327407836914
1684109386452475400,5.293475341796875,-0.0279645174741745,-0.09051322937011719,-0.13514935970306396
1684109386462517000,5.30351708984375,-0.01768466830253601,-0.05434417724609375,-0.19929993152618408
1684109386472558300,5.313558349609375,0.004530362784862518,-0.056397438049316406,-0.25274038314819336
1684109386482600000,5.323599853515625,0.02384231612086296,-0.032433509826660156,-0.22721481323242188
1684109386492641500,5.3336416015625,0.04010092467069626,0.03127861022949219,-0.20626556873321533
1684109386502683000,5.343682861328125,0.06044532731175423,0.05641365051269531,-0.13084006309509277
1684109386512724500,5.353724365234375,0.09198392927646637,0.05297088623046875,-0.04449772834777832
1684109386522766000,5.36376611328125,0.14162927865982056,0.08969974517822266,0.043173789978027344
1684109386532807400,5.373807373046875,0.11922105401754379,0.2319173812866211,-0.041770219802856445
1684109386542849000,5.38384912109375,0.15093746781349182,0.09854316711425781,0.14481115341186523
1684109386552890600,5.393890625,0.13728268444538116,0.05922412872314453,0.17769789695739746
1684109386562932000,5.403931884765625,0.1185416728258133,0.02524089813232422,0.21694159507751465
1684109386572973600,5.4139736328125,0.06386908888816833,0.04351043701171875,0.18909764289855957
1684109386583015200,5.42401513671875,0.009274020791053772,0.04259490966796875,0.18031764030456543
1684109386593056500,5.434056396484375,-0.023194849491119385,0.051018714904785156,0.1053609848022461
1684109386603098000,5.44409814453125,-0.040480367839336395,0.047451019287109375,0.03130769729614258
1684109386613139700,5.4541396484375,-0.040482595562934875,0.0015354156494140625,-0.008670806884765625
1684109386623181000,5.46418115234375,-0.033255092799663544,-0.05298137664794922,-0.04775738716125488
1684109386633222700,5.47422265625,-0.042757369577884674,-0.04530525207519531,-0.10233306884765625
1684109386643264000,5.484263916015625,-0.043000780045986176,-0.049434661865234375,-0.09674406051635742
1684109386653305600,5.4943056640625,-0.05966203659772873,-0.02990245819091797,-0.09337115287780762
1684109386663347200,5.50434716796875,-0.0828118696808815,-0.012999534606933594,-0.04979538917541504
1684109386673388500,5.514388427734375,-0.07708026468753815,0.006026268005371094,-0.03024768829345703
1684109386683430100,5.52443017578125,-0.10194513946771622,-0.010549545288085938,0.055016517639160156
1684109386693471700,5.5344716796875,-0.07940050959587097,0.008493423461914062,0.08483457565307617
1684109386703513000,5.54451318359375,-0.10214032232761383,0.0719747543334961,0.07425260543823242
1684109386713554700,5.5545546875,-0.1151801124215126,0.03789043426513672,0.056841373443603516
1684109386723596000,5.564595947265625,-0.11617394536733627,0.044445037841796875,0.03994894027709961
1684109386733637600,5.5746376953125,-0.1002604141831398,0.05796337127685547,0.061061859130859375
1684109386743679200,5.58467919921875,-0.058548055589199066,0.047713279724121094,0.051221370697021484
1684109386753720600,5.594720458984375,-0.029326707124710083,0.04468536376953125,0.08622097969055176
1684109386763762200,5.60476220703125,0.01092895120382309,0.020470619201660156,0.09921956062316895
1684109386773803800,5.6148037109375,0.017312638461589813,0.022455215454101562,0.10448002815246582
1684109386783845000,5.62484521484375,0.004611551761627197,-0.018096923828125,0.1279125213623047
1684109386793886700,5.63488671875,-0.015227191150188446,-0.03453350067138672,0.1128237247467041
1684109386803928300,5.64492822265625,-0.009114161133766174,-0.055507659912109375,0.08574819564819336
1684109386813969700,5.6549697265625,-0.017123177647590637,-0.050289154052734375,0.04241180419921875
1684109386824011300,5.66501123046875,-0.038438886404037476,-0.009903907775878906,-0.00043082237243652344
1684109386834052900,5.675052978515625,-0.03271545469760895,-0.00323486328125,-0.042902231216430664
1684109386844094200,5.68509423828125,0.0016983374953269958,-0.034348487854003906,-0.11526870727539062
1684109386854135800,5.6951357421875,0.0051115453243255615,-0.036670684814453125,-0.14394330978393555
1684109386864177400,5.705177490234375,-0.00561109185218811,-0.06480026245117188,-0.2001703977584839
1684109386874218800,5.71521875,-0.009085960686206818,-0.06648826599121094,-0.22452116012573242
1684109386884260400,5.72526025390625,-0.009942278265953064,-0.0657205581665039,-0.23635995388031006
1684109386894302000,5.735302001953125,0.008418485522270203,-0.039010047912597656,-0.2547827959060669
1684109386904343300,5.74534326171875,0.03159039095044136,-0.0456695556640625,-0.23506486415863037
1684109386914385000,5.755385009765625,0.0827275738120079,-0.04513072967529297,-0.17318940162658691
1684109386924426200,5.76542626953125,0.09292493760585785,-0.030385971069335938,-0.15196943283081055
1684109386934467800,5.7754677734375,0.10266794264316559,-0.04408454895019531,-0.1120452880859375
1684109386944509400,5.785509521484375,0.12859947979450226,-0.0151519775390625,-0.05854606628417969
1684109386954550800,5.79555078125,0.13300186395645142,-0.010218620300292969,-0.05761122703552246
1684109386964592400,5.80559228515625,0.13726696372032166,0.03232765197753906,-0.04244875907897949
1684109386974634000,5.815634033203125,0.13403117656707764,0.04591560363769531,-0.0440216064453125
1684109386984675300,5.82567529296875,0.1207173764705658,0.06873893737792969,-0.05246543884277344
1684109386994717000,5.835717041015625,0.09290796518325806,0.08414936065673828,-0.03240799903869629
1684109387004758300,5.84575830078125,0.05097338929772377,0.056957244873046875,0.013323307037353516
1684109387014800000,5.8557998046875,0.014131009578704834,0.06083869934082031,0.025390625
1684109387024841500,5.865841552734375,-0.0198458731174469,0.041126251220703125,0.060857295989990234
1684109387034882800,5.8758828125,-0.02489595115184784,0.017022132873535156,0.10038948059082031
1684109387044924400,5.88592431640625,-0.048558689653873444,-0.011411666870117188,0.1226804256439209
1684109387054966000,5.895966064453125,-0.033989936113357544,0.012383460998535156,0.11619210243225098
1684109387065007400,5.90600732421875,-0.03633285313844681,0.014611244201660156,0.11930179595947266
1684109387075049000,5.916049072265625,-0.017824336886405945,-0.006720542907714844,0.08947396278381348
1684109387085090600,5.926090576171875,-0.04476240277290344,-0.011132240295410156,0.06285500526428223
1684109387095132000,5.9361318359375,-0.054969511926174164,0.015187263488769531,0.04162788391113281
1684109387105173500,5.946173583984375,-0.06946973502635956,0.0010852813720703125,0.03505730628967285
1684109387115215000,5.956215087890625,-0.09739124774932861,-0.008063316345214844,0.019237279891967773
1684109387125256400,5.96625634765625,-0.06551250070333481,0.015932083129882812,-0.022047042846679688
1684109387135298000,5.976298095703125,-0.05755554884672165,0.0230712890625,-0.06253409385681152
1684109387145339600,5.986339599609375,-0.04523218423128128,0.016004562377929688,-0.08570599555969238
1684109387155381000,5.996381103515625,-0.045164771378040314,-0.012083053588867188,-0.08237767219543457
1684109387165422600,6.006422607421875,-0.03813432902097702,-0.04437446594238281,-0.0742335319519043
1684109387175464200,6.016464111328125,-0.05718272924423218,-0.0526123046875,-0.05222749710083008
1684109387185505500,6.026505615234375,-0.04513572156429291,-0.07485580444335938,-0.08951020240783691
1684109387195547100,6.036547119140625,-0.03797169774770737,-0.028486251831054688,-0.06037759780883789
1684109387205588500,6.04658837890625,-0.02149677276611328,-0.03712654113769531,0.0055272579193115234
1684109387215630000,6.056630126953125,-0.033501528203487396,-0.012716293334960938,0.04891395568847656
1684109387225671700,6.066671630859375,-0.028910338878631592,-0.017027854919433594,0.06068253517150879
1684109387235713000,6.076713134765625,-0.04573114961385727,0.009286880493164062,0.046123504638671875
1684109387245754600,6.086754638671875,-0.0552988201379776,0.02098846435546875,0.022155284881591797
1684109387255796200,6.096796142578125,-0.07879375666379929,0.027785301208496094,-0.0014119148254394531
1684109387265837600,6.106837646484375,-0.049841709434986115,0.03679656982421875,-0.04352760314941406
1684109387275879200,6.116879150390625,-0.030455224215984344,0.029214859008789062,-0.054154157638549805
1684109387285920500,6.12692041015625,-0.006883218884468079,0.03828144073486328,-0.0785517692565918
1684109387295962000,6.136962158203125,0.0039918795228004456,0.026088714599609375,-0.05276226997375488
1684109387306003700,6.147003662109375,-0.0025955885648727417,0.016483306884765625,-0.03906869888305664
1684109387316045000,6.157045166015625,-0.01907869428396225,-0.0023641586303710938,-0.025559186935424805
1684109387326086700,6.167086669921875,-0.06142415106296539,-0.011495590209960938,-0.03824138641357422
1684109387336128300,6.177128173828125,-0.11457376182079315,-0.03465557098388672,-0.055663108825683594
1684109387346169600,6.187169677734375,-0.1379341185092926,-0.052753448486328125,-0.04231381416320801
1684109387356211200,6.197211181640625,-0.14372868835926056,-0.058875083923339844,-0.06726431846618652
1684109387366252800,6.207252685546875,-0.13226395845413208,-0.06027030944824219,-0.026230573654174805
1684109387376294100,6.217294189453125,-0.09453435987234116,-0.0758209228515625,-0.009655475616455078
1684109387386335700,6.227335693359375,-0.05734311789274216,-0.0652322769165039,0.020708799362182617
1684109387396377300,6.23737744140625,-0.0468478724360466,-0.05718517303466797,0.015191793441772461
1684109387406418700,6.247418701171875,-0.02030017226934433,-0.013981819152832031,0.040256500244140625
1684109387416460300,6.257460205078125,-0.017489001154899597,-0.0021295547485351562,0.09775400161743164
1684109387426501600,6.267501708984375,-0.014246627688407898,-0.0022602081298828125,0.09774637222290039
1684109387436543200,6.277543212890625,0.008125439286231995,-0.00232696533203125,0.10039472579956055
1684109387446584800,6.287584716796875,0.04878174886107445,-0.0046405792236328125,0.07051277160644531
1684109387456626200,6.297626220703125,0.05283461883664131,0.04027843475341797,0.04866194725036621
1684109387466667800,6.307667724609375,0.05385317653417587,0.056281089782714844,0.025174379348754883
1684109387476709400,6.31770947265625,0.06169775873422623,0.08855152130126953,-0.025934934616088867
1684109387486750700,6.327750732421875,0.0459466390311718,0.0850067138671875,-0.0030350685119628906
1684109387496792300,6.337792236328125,0.06369977444410324,0.03913402557373047,0.0005934238433837891
1684109387506834000,6.347833984375,0.09535892307758331,0.03169059753417969,0.032415151596069336
1684109387516875300,6.357875244140625,0.10963124781847,0.04326057434082031,0.05452275276184082
1684109387526916900,6.367916748046875,0.14657658338546753,0.040569305419921875,0.06943321228027344
1684109387536958500,6.37795849609375,0.13740292191505432,0.07800006866455078,0.11964535713195801
1684109387546999800,6.387999755859375,0.1253252774477005,0.10071372985839844,0.15030789375305176
1684109387557041400,6.39804150390625,0.0847591981291771,0.11125469207763672,0.17799639701843262
1684109387567082800,6.408082763671875,0.09860251843929291,0.11450958251953125,0.20264434814453125
1684109387577124400,6.418124267578125,0.08139736205339432,0.09176349639892578,0.15602970123291016
1684109387587166000,6.428166015625,0.03812627121806145,0.05523395538330078,0.11001968383789062
1684109387597207300,6.438207275390625,0.030163303017616272,0.03577899932861328,0.03882002830505371
1684109387607249000,6.448248779296875,0.009957727044820786,0.016648292541503906,0.0041158199310302734
1684109387617290500,6.45829052734375,-0.021856360137462616,-0.020989418029785156,-0.022893190383911133
1684109387627331800,6.468331787109375,-0.033871665596961975,-0.04387855529785156,-0.03061985969543457
1684109387637373400,6.47837353515625,-0.04965249076485634,-0.07111072540283203,-0.03592276573181152
1684109387647414800,6.488414794921875,-0.04576825723052025,-0.08612251281738281,-0.07645082473754883
1684109387657456400,6.498456298828125,-0.04406864941120148,-0.09149646759033203,-0.06227445602416992
1684109387667498000,6.508498046875,-0.06361892074346542,-0.08973217010498047,-0.06487464904785156
1684109387677539300,6.518539306640625,-0.10636645555496216,-0.08097457885742188,-0.06054496765136719
1684109387687581000,6.528580810546875,-0.1289256364107132,-0.07244110107421875,-0.011906623840332031
1684109387697622500,6.53862255859375,-0.13830876350402832,-0.04529380798339844,-0.05153203010559082
1684109387707664000,6.548663818359375,-0.13241362571716309,-0.058658599853515625,-0.06006574630737305
1684109387717705500,6.55870556640625,-0.08347617834806442,-0.05768775939941406,-0.11559784412384033
1684109387727747000,6.5687470703125,-0.06329653412103653,-0.056682586669921875,-0.13936758041381836
1684109387737788400,6.578788330078125,-0.02710954286158085,-0.041480064392089844,-0.13643884658813477
1684109387747830000,6.588830078125,-0.0057613300159573555,-0.042934417724609375,-0.13556551933288574
1684109387757871600,6.59887158203125,0.01972561702132225,-0.011343955993652344,-0.12264609336853027
1684109387767913000,6.608912841796875,0.03759952262043953,0.029186248779296875,-0.06968903541564941
1684109387777954600,6.61895458984375,0.043080270290374756,0.03609466552734375,-0.029328584671020508
1684109387787996000,6.628995849609375,0.03177458420395851,0.0428619384765625,-0.0250704288482666
1684109387798037500,6.63903759765625,0.060359641909599304,0.06832504272460938,-0.013937950134277344
1684109387808079000,6.6490791015625,0.06222832202911377,0.057999610900878906,0.0014841556549072266
1684109387818120400,6.659120361328125,0.07792128622531891,0.05484485626220703,0.032836198806762695
1684109387828162000,6.669162109375,0.0554446280002594,0.04227638244628906,0.023410320281982422
1684109387838203600,6.67920361328125,0.023448433727025986,0.013408660888671875,-0.002454996109008789
1684109387848245000,6.689244873046875,0.008082679472863674,-0.017333030700683594,-0.03024458885192871
1684109387858286600,6.69928662109375,-0.05178695544600487,-0.047588348388671875,-0.029437780380249023
1684109387868328200,6.709328125,-0.08192045986652374,-0.05382251739501953,-0.03582406044006348
1684109387878369500,6.71936962890625,-0.08956456184387207,-0.08584785461425781,-0.07271027565002441
1684109387888411100,6.7294111328125,-0.0986080914735794,-0.10560321807861328,-0.06678056716918945
1684109387898452700,6.73945263671875,-0.09519757330417633,-0.10620880126953125,-0.07983970642089844
1684109387908494000,6.749494140625,-0.07730722427368164,-0.1115102767944336,-0.10444808006286621
1684109387918535700,6.75953564453125,-0.10630378872156143,-0.0955352783203125,-0.08626794815063477
1684109387928577000,6.769576904296875,-0.058621373027563095,-0.06569766998291016,-0.09428608417510986
1684109387938618600,6.77961865234375,-0.008326595649123192,-0.03637218475341797,-0.062207698822021484
1684109387948660200,6.78966015625,0.04185129329562187,-0.047606468200683594,-0.06620907783508301
1684109387958701600,6.79970166015625,0.0960589125752449,-0.030427932739257812,-0.08909285068511963
1684109387968743200,6.8097431640625,0.11122738569974899,-0.025282859802246094,-0.14443790912628174
1684109387978784800,6.81978466796875,0.127974733710289,-0.024906158447265625,-0.1540144681930542
1684109387988826000,6.829826171875,0.08310145139694214,-0.019802093505859375,-0.1350647211074829
1684109387998867700,6.83986767578125,0.06280089169740677,-0.024164199829101562,-0.14921510219573975
1684109388008909000,6.849908935546875,0.048062920570373535,-0.0025196075439453125,-0.13235092163085938
1684109388018950700,6.85995068359375,0.07630472630262375,0.014116287231445312,-0.06839466094970703
1684109388028992300,6.8699921875,0.13703154027462006,0.035256385803222656,-0.04517841339111328
1684109388039033600,6.88003369140625,0.1705431491136551,0.05609416961669922,0.015550374984741211
1684109388049075200,6.8900751953125,0.20279857516288757,0.07659530639648438,0.06355404853820801
1684109388059116800,6.90011669921875,0.20794697105884552,0.07555675506591797,0.08480429649353027
1684109388069158100,6.910158203125,0.20052845776081085,0.08629512786865234,0.10328817367553711
1684109388079199700,6.92019970703125,0.17386044561862946,0.07566452026367188,0.08144283294677734
1684109388089241000,6.930240966796875,0.1257653832435608,0.0699472427368164,0.11893248558044434
1684109388099282700,6.94028271484375,0.08245963603258133,0.04783153533935547,0.1604480743408203
1684109388109324300,6.95032421875,0.027408696711063385,0.03787994384765625,0.1919705867767334
1684109388119365600,6.96036572265625,-0.05269597843289375,0.04457283020019531,0.18294620513916016
1684109388129407200,6.9704072265625,-0.10758926719427109,0.06289958953857422,0.19984960556030273
1684109388139448800,6.98044873046875,-0.1348109096288681,0.06910133361816406,0.21858978271484375
1684109388149490200,6.990490234375,-0.14643821120262146,0.03749656677246094,0.19681930541992188
1684109388159531800,7.00053173828125,-0.13357385993003845,0.015811920166015625,0.19412899017333984
1684109388169573400,7.010573486328125,-0.0993146002292633,-0.03377532958984375,0.16082334518432617
1684109388179614700,7.02061474609375,-0.07957901060581207,-0.0636739730834961,0.11642169952392578
1684109388189656300,7.03065625,-0.04353012144565582,-0.06243324279785156,0.09177112579345703
1684109388199697700,7.04069775390625,-0.007555050775408745,-0.02588939666748047,0.05817604064941406
1684109388209739300,7.0507392578125,0.06368092447519302,0.047725677490234375,0.02520298957824707
1684109388219780900,7.06078076171875,0.12011434882879257,0.04240131378173828,-0.0049784183502197266
1684109388229822200,7.070822265625,0.16611531376838684,0.018306732177734375,-0.008873224258422852
1684109388239863800,7.08086376953125,0.22007761895656586,0.00875091552734375,-0.031477928161621094
1684109388249905400,7.090905517578125,0.21815502643585205,0.013480186462402344,-0.051354408264160156
1684109388259946800,7.10094677734375,0.2321154922246933,0.015776634216308594,-0.023820161819458008
1684109388269988400,7.11098828125,0.1985875517129898,0.020389556884765625,-0.00852060317993164
1684109388280030000,7.121030029296875,0.1846867799758911,0.04846763610839844,0.01122903823852539
1684109388290071300,7.1310712890625,0.1782245934009552,0.07608795166015625,0.00010061264038085938
1684109388300113000,7.14111279296875,0.20458386838436127,0.10322380065917969,0.014935731887817383
1684109388310154500,7.151154541015625,0.24162042140960693,0.1133890151977539,0.003451108932495117
1684109388320195800,7.16119580078125,0.2820027768611908,0.1021575927734375,0.02493762969970703
1684109388330237400,7.171237548828125,0.27387934923171997,0.07230186462402344,0.01086115837097168
1684109388340278800,7.18127880859375,0.26281270384788513,0.02414417266845703,-0.02400493621826172
1684109388350320400,7.1913203125,0.2159123718738556,-0.009042739868164062,-0.048653602600097656
1684109388360362000,7.201362060546875,0.16688181459903717,-0.029886245727539062,-0.05160069465637207
1684109388370403300,7.2114033203125,0.11821751296520233,-0.06677055358886719,-0.044629573822021484
1684109388380445000,7.22144482421875,0.041815415024757385,-0.06764602661132812,-0.0915229320526123
1684109388390486500,7.231486572265625,-0.03796933591365814,-0.06844806671142578,-0.10909700393676758
1684109388400528000,7.24152783203125,-0.08530381321907043,-0.033873558044433594,-0.12143731117248535
1684109388410569500,7.251569580078125,-0.12139064073562622,-0.0751810073852539,-0.11462152004241943
1684109388420611000,7.261611083984375,-0.11558246612548828,-0.11579132080078125,-0.07260668277740479
1684109388430652400,7.27165234375,-0.07560253888368607,-0.10623359680175781,-0.002809286117553711
1684109388440694000,7.281694091796875,-0.05411326140165329,-0.0874013900756836,-0.00944972038269043
1684109388450735400,7.2917353515625,-0.04399413242936134,-0.10420513153076172,0.045177459716796875
1684109388460777000,7.30177685546875,-0.02152971178293228,-0.06899261474609375,0.04211235046386719
1684109388470818600,7.311818603515625,-0.02000822313129902,-0.08623027801513672,0.06465888023376465
1684109388480860000,7.32185986328125,-0.022859062999486923,-0.039673805236816406,0.07007384300231934
1684109388490901500,7.331901611328125,0.012232018634676933,-0.02925395965576172,0.018675565719604492
1684109388500942800,7.34194287109375,0.020939800888299942,-0.011996269226074219,-0.013259172439575195
1684109388510984400,7.351984375,0.06027088314294815,0.04497241973876953,-0.0000457763671875
1684109388521026000,7.362026123046875,0.08019962906837463,0.06801700592041016,-0.02477741241455078
1684109388531067400,7.3720673828125,0.12099042534828186,0.10950946807861328,-0.009074211120605469
1684109388541109000,7.38210888671875,0.1659495085477829,0.08202648162841797,0.03926730155944824
1684109388551150600,7.392150634765625,0.20552383363246918,0.04796314239501953,0.04218935966491699
1684109388561192000,7.40219189453125,0.2253730148077011,0.04504680633544922,0.0567171573638916
1684109388571233500,7.412233642578125,0.23268523812294006,0.042153358459472656,0.05205249786376953
1684109388581275000,7.42227490234375,0.21577459573745728,0.008702278137207031,0.01921534538269043
1684109388591316500,7.43231640625,0.16333548724651337,-0.0030031204223632812,0.038718461990356445
1684109388601358000,7.442358154296875,0.12111834436655045,-0.030992507934570312,-0.010373353958129883
1684109388611399400,7.4523994140625,0.1198250949382782,-0.025531768798828125,0.002680540084838867
1684109388621441000,7.46244091796875,0.09539705514907837,0.03635215759277344,-0.05504870414733887
1684109388631482600,7.472482666015625,0.06737911701202393,-0.025228500366210938,-0.050661563873291016
1684109388641524000,7.48252392578125,0.09500598907470703,-0.08580684661865234,-0.01820993423461914
1684109388651565600,7.492565673828125,0.11121369153261185,-0.032337188720703125,-0.06145524978637695
1684109388661607000,7.50260693359375,0.14171510934829712,-0.024480819702148438,-0.0474168062210083
1684109388671648500,7.5126484375,0.1531755030155182,0.01620197296142578,-0.05950462818145752
1684109388681690000,7.522690185546875,0.1600247621536255,0.044442176818847656,-0.033661484718322754
1684109388691731500,7.5327314453125,0.16214948892593384,0.050998687744140625,-0.03190445899963379
1684109388701773000,7.54277294921875,0.16177070140838623,0.06680011749267578,-0.011632204055786133
1684109388711814700,7.552814697265625,0.14721569418907166,0.06113433837890625,0.012951850891113281
1684109388721856000,7.56285595703125,0.11191495507955551,0.07202529907226562,0.030004024505615234
1684109388731897600,7.572897705078125,0.10098198801279068,0.052138328552246094,0.05389213562011719
1684109388741939200,7.582939208984375,0.09050698578357697,0.08677196502685547,0.06113541126251221
1684109388751980500,7.59298046875,0.08281591534614563,0.11616230010986328,0.06143033504486084
1684109388762022100,7.603022216796875,0.09664145112037659,0.06503772735595703,0.15130245685577393
1684109388772063500,7.6130634765625,0.08433621376752853,0.06894397735595703,0.17865097522735596
1684109388782105000,7.62310498046875,0.10973945260047913,0.07518672943115234,0.23639452457427979
1684109388792146700,7.633146728515625,0.08986511826515198,0.11193180084228516,0.22963130474090576
1684109388802188000,7.64318798828125,0.06548963487148285,0.11038398742675781,0.2629662752151489
1684109388812229600,7.653229736328125,0.05306076630949974,0.14412784576416016,0.2790536880493164
1684109388822271200,7.663271240234375,0.03587242588400841,0.15844154357910156,0.2429218292236328
1684109388832312600,7.6733125,0.021073587238788605,0.12066459655761719,0.27538394927978516
1684109388842354200,7.683354248046875,0.020609907805919647,0.09755611419677734,0.2668936252593994
1684109388852395800,7.693395751953125,0.006365172564983368,0.10532283782958984,0.272167444229126
1684109388862437000,7.70343701171875,-0.00008006393909454346,0.06101512908935547,0.250781774520874
1684109388872478700,7.713478759765625,-0.0246952623128891,0.0689706802368164,0.2568042278289795
1684109388882520000,7.72352001953125,-0.062467947602272034,0.062445640563964844,0.2052457332611084
1684109388892561700,7.733561767578125,-0.08238071203231812,0.029973983764648438,0.09976601600646973
1684109388902603300,7.743603271484375,-0.07292985916137695,0.037964820861816406,0.06867694854736328
1684109388912644600,7.75364453125,-0.01586417853832245,0.022214889526367188,0.06147575378417969
1684109388922686200,7.763686279296875,0.03394941985607147,0.016117095947265625,0.00025272369384765625
1684109388932727800,7.773727783203125,0.09085404127836227,0.021920204162597656,-0.012562990188598633
1684109388942769200,7.78376904296875,0.12881788611412048,0.03235435485839844,-0.06257760524749756
1684109388952810800,7.793810791015625,0.15967394411563873,0.054436683654785156,-0.07136154174804688
1684109388962852000,7.80385205078125,0.19041213393211365,0.09738922119140625,-0.12200677394866943
1684109388972893700,7.813893798828125,0.22533932328224182,0.08079147338867188,-0.1245419979095459
1684109388982935300,7.823935302734375,0.24076101183891296,0.11635017395019531,-0.14304816722869873
1684109388992976600,7.8339765625,0.20418615639209747,0.1372823715209961,-0.14425551891326904
1684109389003018200,7.844018310546875,0.2154558151960373,0.12489128112792969,-0.10773789882659912
1684109389013059800,7.854059814453125,0.20777292549610138,0.10326099395751953,-0.08835959434509277
1684109389023101200,7.86410107421875,0.18852423131465912,0.060814857482910156,-0.07387053966522217
1684109389033142800,7.874142822265625,0.14842848479747772,0.02620220184326172,-0.08983051776885986
1684109389043184000,7.88418408203125,0.0948391854763031,0.041670799255371094,-0.06511640548706055
1684109389053225700,7.894225830078125,0.04237529635429382,0.059319496154785156,-0.0544130802154541
1684109389063267300,7.904267333984375,0.012474417686462402,0.04371166229248047,0.005728483200073242
1684109389073308700,7.91430859375,0.0005262196063995361,0.06828498840332031,0.05763959884643555
1684109389083350300,7.924350341796875,0.02554112672805786,0.10408782958984375,0.15320754051208496
1684109389093392000,7.934391845703125,0.05675286054611206,0.1179800033569336,0.19063639640808105
1684109389103433200,7.94443310546875,0.1269984245300293,0.11280155181884766,0.22095441818237305
1684109389113474800,7.954474853515625,0.1808740198612213,0.0841207504272461,0.32166147232055664
1684109389123516200,7.96451611328125,0.2249646782875061,0.015679359436035156,0.3258676528930664
1684109389133557800,7.974557861328125,0.21397647261619568,-0.004797935485839844,0.32428646087646484
1684109389143599400,7.984599365234375,0.2139720320701599,-0.00634765625,0.2744882106781006
1684109389153640700,7.994640625,0.17252761125564575,-0.008086204528808594,0.21968293190002441
1684109389163682300,8.004682373046874,0.09487438201904297,0.008913040161132812,0.09200906753540039
1684109389173724000,8.014723876953125,0.0006843805313110352,-0.0403594970703125,-0.015204429626464844
1684109389183765200,8.02476513671875,-0.08784866333007812,-0.034728050231933594,-0.10444474220275879
1684109389193806800,8.034806884765626,-0.19803321361541748,-0.07405471801757812,-0.2042909860610962
1684109389203848400,8.044848388671875,-0.2650596499443054,-0.06587600708007812,-0.24881362915039062
1684109389213889800,8.054889892578124,-0.3475751280784607,-0.07223892211914062,-0.3164865970611572
1684109389223931400,8.064931396484376,-0.3883278965950012,-0.1234588623046875,-0.3899693489074707
1684109389233972700,8.07497265625,-0.4044766426086426,-0.1928548812866211,-0.45477592945098877
1684109389244014300,8.085014404296874,-0.4129922389984131,-0.20933914184570312,-0.5267056226730347
1684109389254056000,8.095055908203125,-0.40944457054138184,-0.2560396194458008,-0.5907618999481201
1684109389264097300,8.10509716796875,-0.4036570191383362,-0.2993812561035156,-0.6088275909423828
1684109389274139000,8.115138916015624,-0.42403703927993774,-0.3441438674926758,-0.6028304100036621
1684109389284180500,8.125180419921875,-0.4161940813064575,-0.33392333984375,-0.5712903738021851
1684109389294221800,8.135221923828125,-0.37401115894317627,-0.2650794982910156,-0.553067684173584
1684109389304263400,8.145263427734376,-0.35023558139801025,-0.20948219299316406,-0.4951263666152954
1684109389314304800,8.1553046875,-0.31231796741485596,-0.23058414459228516,-0.4931391477584839
1684109389324346400,8.165346435546875,-0.2612205743789673,-0.25640010833740234,-0.49438416957855225
1684109389334388000,8.175387939453126,-0.2611771821975708,-0.2560758590698242,-0.514803409576416
1684109389344429300,8.18542919921875,-0.23137569427490234,-0.2817878723144531,-0.450342059135437
1684109389354471000,8.195470947265624,-0.284732460975647,-0.2625904083251953,-0.4015389680862427
1684109389364512500,8.205512451171876,-0.32516205310821533,-0.2793922424316406,-0.3471752405166626
1684109389374553900,8.215553955078125,-0.3859257698059082,-0.2680320739746094,-0.3203622102737427
1684109389384595500,8.225595458984374,-0.4270418882369995,-0.24297714233398438,-0.3414252996444702
1684109389394636800,8.23563671875,-0.4162098169326782,-0.23967647552490234,-0.31991255283355713
1684109389404678400,8.245678466796875,-0.4217641353607178,-0.21355915069580078,-0.34565985202789307
1684109389414720000,8.255719970703124,-0.44512200355529785,-0.16352462768554688,-0.3613337278366089
1684109389424761300,8.26576123046875,-0.4172983169555664,-0.18514633178710938,-0.3409613370895386
1684109389434803000,8.275802978515625,-0.38401317596435547,-0.1898517608642578,-0.29189634323120117
1684109389444844500,8.285844482421876,-0.3316025733947754,-0.22539901733398438,-0.24805796146392822
1684109389454886000,8.295885986328125,-0.2888514995574951,-0.23685646057128906,-0.2099916934967041
1684109389464927500,8.305927490234374,-0.2702528238296509,-0.20045852661132812,-0.17823517322540283
1684109389474968800,8.31596875,-0.24954092502593994,-0.21655654907226562,-0.20753037929534912
1684109389485010400,8.326010498046875,-0.20280718803405762,-0.19658374786376953,-0.20667779445648193
1684109389495052000,8.336052001953124,-0.16569340229034424,-0.17404842376708984,-0.2113628387451172
1684109389505093400,8.34609326171875,-0.09729659557342529,-0.11083698272705078,-0.1812382936477661
1684109389515135000,8.356135009765625,-0.07658255100250244,-0.02142047882080078,-0.18118023872375488
1684109389525176600,8.366176513671874,-0.022641301155090332,0.04896259307861328,-0.220117449760437
1684109389535218000,8.376218017578125,0.0021638870239257812,0.11993885040283203,-0.2863020896911621
1684109389545259500,8.386259521484375,-0.0019091367721557617,0.12230300903320312,-0.2503321170806885
1684109389555300900,8.39630078125,-0.043825745582580566,0.12759113311767578,-0.235174298286438
1684109389565342500,8.406342529296875,-0.08933806419372559,0.10455131530761719,-0.21720540523529053
1684109389575384000,8.416384033203125,-0.15458929538726807,0.10083961486816406,-0.18722784519195557
1684109389585425400,8.42642529296875,-0.2103794813156128,0.08999252319335938,-0.19805693626403809
1684109389595467000,8.436467041015625,-0.25509047508239746,0.061489105224609375,-0.17322278022766113
1684109389605508400,8.44650830078125,-0.2917989492416382,0.047476768493652344,-0.1750253438949585
1684109389615550000,8.456550048828126,-0.32727766036987305,0.033522605895996094,-0.1605745553970337
1684109389625591600,8.466591552734375,-0.35196805000305176,-0.020440101623535156,-0.11603856086730957
1684109389635633000,8.4766328125,-0.35881567001342773,0.0040607452392578125,-0.10015368461608887
1684109389645674500,8.486674560546875,-0.38367927074432373,0.011765480041503906,-0.12103068828582764
1684109389655716000,8.496716064453125,-0.409686803817749,0.010301589965820312,-0.14359450340270996
1684109389665757400,8.50675732421875,-0.4344407320022583,-0.023824691772460938,-0.07409882545471191
1684109389675799000,8.516799072265625,-0.45100247859954834,-0.05500221252441406,-0.028386473655700684
1684109389685840400,8.52684033203125,-0.4713146686553955,-0.05518913269042969,-0.013906717300415039
1684109389695882000,8.536882080078126,-0.46223151683807373,-0.1073160171508789,-0.08186852931976318
1684109389705923600,8.546923583984375,-0.4452168941497803,-0.15641212463378906,-0.11786341667175293
1684109389715965000,8.55696484375,-0.41796278953552246,-0.1907672882080078,-0.16471409797668457
1684109389726006500,8.567006591796876,-0.3689088821411133,-0.20113086700439453,-0.2265840768814087
1684109389736047900,8.5770478515625,-0.34331488609313965,-0.19483661651611328,-0.29798591136932373
1684109389746089500,8.58708935546875,-0.3082146644592285,-0.16507244110107422,-0.3696047067642212
1684109389756131000,8.597131103515625,-0.28765201568603516,-0.14046669006347656,-0.42758822441101074
1684109389766172400,8.60717236328125,-0.28873252868652344,-0.12797927856445312,-0.4888758659362793
1684109389776214000,8.617214111328124,-0.29246997833251953,-0.14388084411621094,-0.5347679853439331
1684109389786255600,8.627255615234375,-0.3011815547943115,-0.14293289184570312,-0.5512235164642334
1684109389796297000,8.637296875,-0.2982351779937744,-0.13015270233154297,-0.5670440196990967
1684109389806338600,8.647338623046876,-0.24900317192077637,-0.10570526123046875,-0.5426551103591919
1684109389816380000,8.6573798828125,-0.1900038719177246,-0.029603958129882812,-0.5302271842956543
1684109389826421500,8.66742138671875,-0.11918044090270996,0.0670156478881836,-0.5185432434082031
1684109389836463000,8.677463134765626,-0.03455758094787598,0.10851097106933594,-0.39698076248168945
1684109389846504400,8.68750439453125,0.054184913635253906,0.19218730926513672,-0.2270127534866333
1684109389856546000,8.697546142578124,0.10449814796447754,0.2537059783935547,-0.11128878593444824
1684109389866587600,8.707587646484376,0.17386913299560547,0.3192892074584961,0.02194392681121826
1684109389876629000,8.71762890625,0.23152375221252441,0.346466064453125,0.16064798831939697
1684109389886670600,8.727670654296874,0.2845187187194824,0.3853168487548828,0.2856135368347168
1684109389896712000,8.7377119140625,0.3491497039794922,0.4309520721435547,0.3991122245788574
1684109389906753500,8.74775341796875,0.40358245372772217,0.49036121368408203,0.49620532989501953
1684109389916795100,8.757795166015624,0.4243755340576172,0.5444412231445312,0.5697416067123413
1684109389926836500,8.76783642578125,0.423642635345459,0.5344476699829102,0.6223099231719971
1684109389936878000,8.777878173828125,0.39018499851226807,0.49670886993408203,0.6471964120864868
1684109389946919400,8.78791943359375,0.3339715003967285,0.42458057403564453,0.651699423789978
1684109389956961000,8.7979609375,0.2907768487930298,0.39153480529785156,0.6358287334442139
1684109389967002600,8.808002685546874,0.21578466892242432,0.3238649368286133,0.5996979475021362
1684109389977044000,8.8180439453125,0.12394881248474121,0.2809181213378906,0.5294568538665771
1684109389987085600,8.82808544921875,-0.009912252426147461,0.27630138397216797,0.43746423721313477
1684109389997127200,8.838127197265624,-0.13043212890625,0.26453399658203125,0.39470744132995605
1684109390007168500,8.84816845703125,-0.2538726329803467,0.2385549545288086,0.40498900413513184
1684109390017210000,8.858210205078125,-0.363450288772583,0.22916316986083984,0.3968707323074341
1684109390027251500,8.86825146484375,-0.4661524295806885,0.18903541564941406,0.4183468818664551
1684109390037293000,8.87829296875,-0.5594499111175537,0.16816139221191406,0.3871181011199951
1684109390047334700,8.888334716796875,-0.5987567901611328,0.12390327453613281,0.40092599391937256
1684109390057376000,8.8983759765625,-0.6299924850463867,0.08973121643066406,0.3769420385360718
1684109390067417600,8.90841748046875,-0.6439237594604492,0.06078338623046875,0.3323056697845459
1684109390077459000,8.918458984375,-0.6266756057739258,0.06754302978515625,0.28601670265197754
1684109390087500500,8.92850048828125,-0.6093664169311523,0.0646820068359375,0.23574531078338623
1684109390097542100,8.938542236328125,-0.6057274341583252,0.05464744567871094,0.15575933456420898
1684109390107583500,8.94858349609375,-0.6034698486328125,0.05875205993652344,0.1269739866256714
1684109390117625000,8.958625,-0.6235663890838623,0.048468589782714844,0.11793482303619385
1684109390127666700,8.968666748046875,-0.6136407852172852,0.028632164001464844,0.09492599964141846
1684109390137708000,8.9787080078125,-0.6258835792541504,-0.010113716125488281,0.07893729209899902
1684109390147749600,8.98874951171875,-0.6225943565368652,-0.022724151611328125,0.07178354263305664
1684109390157791000,8.998791015625,-0.6397888660430908,-0.04474639892578125,0.03154134750366211
1684109390167832600,9.00883251953125,-0.656435489654541,-0.1064910888671875,0.015423417091369629
1684109390177874200,9.018874267578125,-0.6725735664367676,-0.15789222717285156,0.006339311599731445
1684109390187915500,9.02891552734375,-0.6671650409698486,-0.16137313842773438,0.0020819902420043945
1684109390197957000,9.03895703125,-0.6570355892181396,-0.14130592346191406,0.02597177028656006
1684109390207998700,9.048998779296875,-0.6164224147796631,-0.08156585693359375,0.042359232902526855
1684109390218040000,9.0590400390625,-0.5625851154327393,-0.006342887878417969,0.060532212257385254
1684109390228081700,9.06908154296875,-0.5076370239257812,0.05113410949707031,0.10378289222717285
1684109390238123000,9.079123046875,-0.44939351081848145,0.08172798156738281,0.1408301591873169
1684109390248164600,9.08916455078125,-0.4303414821624756,0.15180683135986328,0.19997334480285645
1684109390258206200,9.099206298828125,-0.4098236560821533,0.192413330078125,0.22653543949127197
1684109390268247600,9.10924755859375,-0.381011962890625,0.17583084106445312,0.2304849624633789
1684109390278289200,9.1192890625,-0.3535599708557129,0.15955257415771484,0.242925763130188
1684109390288330800,9.129330810546875,-0.2735579013824463,0.11551570892333984,0.18443644046783447
1684109390298372000,9.1393720703125,-0.2222304344177246,0.05609321594238281,0.07311093807220459
1684109390308413700,9.14941357421875,-0.16615509986877441,0.02874279022216797,-0.0471726655960083
1684109390318455000,9.159455078125,-0.15944695472717285,-0.016422271728515625,-0.15679776668548584
1684109390328496600,9.16949658203125,-0.13988637924194336,-0.041339874267578125,-0.2951923608779907
1684109390338538200,9.179538330078126,-0.19434571266174316,-0.0676279067993164,-0.3135172128677368
1684109390348579600,9.18957958984375,-0.2766141891479492,-0.14714813232421875,-0.3858351707458496
1684109390358621200,9.19962109375,-0.34639227390289307,-0.21560287475585938,-0.3521624803543091
1684109390368662800,9.209662841796876,-0.387792706489563,-0.29213714599609375,-0.3284034729003906
1684109390378704100,9.2197041015625,-0.4113842248916626,-0.3790721893310547,-0.303941011428833
1684109390388745700,9.229745849609374,-0.37055933475494385,-0.4621925354003906,-0.2700001001358032
1684109390398787000,9.239787109375,-0.3062710762023926,-0.5344877243041992,-0.2358773946762085
1684109390408828700,9.24982861328125,-0.22555243968963623,-0.5701532363891602,-0.19581031799316406
1684109390418870300,9.259870361328124,-0.11647474765777588,-0.6073389053344727,-0.15802001953125
1684109390428911600,9.26991162109375,-0.04024100303649902,-0.537693977355957,-0.1381828784942627
1684109390438953200,9.279953125,-0.002615809440612793,-0.459686279296875,-0.11016201972961426
1684109390448994800,9.289994873046876,0.04002976417541504,-0.3053617477416992,-0.11684548854827881
1684109390459036200,9.3000361328125,0.0782846212387085,-0.08541488647460938,-0.17881393432617188
1684109390469077800,9.310077880859374,0.12180459499359131,0.19434833526611328,-0.24560308456420898
1684109390479119000,9.320119140625,0.14439082145690918,0.4458589553833008,-0.2324274778366089
1684109390489160700,9.33016064453125,0.23519527912139893,0.5471811294555664,-0.19071471691131592
1684109390499202300,9.340202392578124,0.32878434658050537,0.6043891906738281,-0.13354480266571045
1684109390509243600,9.35024365234375,0.4359201192855835,0.5546741485595703,-0.05493307113647461
1684109390519285200,9.36028515625,0.5175334215164185,0.4398612976074219,0.04379534721374512
1684109390529326800,9.370326904296874,0.5100252628326416,0.35280895233154297,0.12175309658050537
1684109390539368200,9.3803681640625,0.40784895420074463,0.28835487365722656,0.11366915702819824
1684109390549409800,9.390409912109375,0.2791663408279419,0.1895751953125,0.10152363777160645
1684109390559451100,9.400451171875,0.14898788928985596,0.10888481140136719,0.03023707866668701
1684109390569492700,9.41049267578125,0.03274416923522949,0.02245044708251953,-0.043831467628479004
1684109390579534300,9.420534423828125,-0.04307210445404053,-0.013029098510742188,-0.1264638900756836
1684109390589575700,9.43057568359375,-0.0596466064453125,-0.06437110900878906,-0.12553822994232178
1684109390599617300,9.4406171875,-0.017736434936523438,-0.08668041229248047,-0.16771602630615234
1684109390609658600,9.45065869140625,0.10034465789794922,-0.14886474609375,-0.1521512269973755
1684109390619700200,9.4607001953125,0.3001464009284973,-0.170379638671875,-0.10927248001098633
1684109390629741800,9.470741943359375,0.5025562644004822,-0.21160602569580078,-0.12978613376617432
1684109390639783200,9.480783203125,0.7406934499740601,-0.10772037506103516,-0.0960841178894043
1684109390649824800,9.49082470703125,0.9199668765068054,0.13655948638916016,-0.23363876342773438
1684109390659866400,9.500866455078125,1.0348799228668213,0.28966331481933594,-0.31311702728271484
1684109390669907700,9.51090771484375,1.1375343799591064,0.32094860076904297,-0.326745867729187
1684109390679949300,9.52094921875,1.1607428789138794,0.3310060501098633,-0.33931756019592285
1684109390689990700,9.53099072265625,1.130741000175476,0.4011878967285156,-0.32867372035980225
1684109390700032300,9.5410322265625,1.0171126127243042,0.2994709014892578,-0.216888427734375
1684109390710073900,9.551073974609375,0.8613698482513428,0.17864227294921875,-0.10919356346130371
1684109390720115200,9.561115234375,0.6546168923377991,0.06963920593261719,-0.01801896095275879
1684109390730156800,9.57115673828125,0.39944881200790405,0.006062507629394531,0.03649580478668213
1684109390740198100,9.5811982421875,0.1393926739692688,-0.10287189483642578,0.1148827075958252
1684109390750239700,9.59123974609375,-0.09585815668106079,-0.11863327026367188,0.1453855037689209
1684109390760281300,9.60128125,-0.271854043006897,-0.09644889831542969,0.10902571678161621
1684109390770322700,9.61132275390625,-0.384779155254364,-0.05326366424560547,0.06296443939208984
1684109390780364300,9.6213642578125,-0.3925972580909729,0.010660171508789062,-0.03427743911743164
1684109390790406000,9.631406005859375,-0.28701579570770264,0.049938201904296875,-0.22272908687591553
1684109390800447200,9.641447265625,-0.10811716318130493,0.005045890808105469,-0.41318321228027344
1684109390810488800,9.65148876953125,0.092827707529068,0.02675914764404297,-0.6031734943389893
1684109390820530200,9.6615302734375,0.3067656457424164,0.017182350158691406,-0.754153311252594
1684109390830571800,9.67157177734375,0.4884127080440521,0.031350135803222656,-0.8955023288726807
1684109390840613400,9.68161328125,0.6548764705657959,0.1337566375732422,-0.9390726685523987
1684109390850654700,9.69165478515625,0.7786973118782043,0.19324588775634766,-1.0024430751800537
1684109390860696300,9.7016962890625,0.8572015762329102,0.20052719116210938,-0.9605413675308228
1684109390870737700,9.711737548828125,0.8645310401916504,0.2058429718017578,-0.8232525587081909
1684109390880779300,9.721779296875,0.8734478950500488,0.1446380615234375,-0.6674078106880188
1684109390890820900,9.73182080078125,0.8994925022125244,0.07425117492675781,-0.47447502613067627
1684109390900862200,9.7418623046875,0.9358998537063599,-0.0030717849731445312,-0.2717018127441406
1684109390910903800,9.75190380859375,0.9587014317512512,-0.03003406524658203,-0.0641171932220459
1684109390920945400,9.7619453125,0.9651615619659424,0.009901046752929688,0.08335041999816895
1684109390930986800,9.77198681640625,0.9858958125114441,0.05925464630126953,0.21615278720855713
1684109390941028400,9.7820283203125,0.9794244766235352,0.1013040542602539,0.35100865364074707
1684109390951069700,9.792069580078126,0.9379643201828003,0.1240549087524414,0.5065033435821533
1684109390961111300,9.802111328125,0.8734583258628845,0.10594463348388672,0.5672829151153564
1684109390971153000,9.81215283203125,0.8052694201469421,0.06841754913330078,0.7023072242736816
1684109390981194200,9.8221943359375,0.7338598966598511,0.059119224548339844,0.7958780527114868
1684109390991235800,9.83223583984375,0.6765651106834412,0.12810516357421875,0.855210542678833
1684109391001277200,9.842277099609374,0.6530682444572449,0.15098285675048828,0.8326289653778076
1684109391011318800,9.85231884765625,0.661196768283844,0.14937877655029297,0.7905970811843872
1684109391021360400,9.8623603515625,0.6771624684333801,0.15917682647705078,0.6169619560241699
1684109391031401700,9.872401611328126,0.6749373078346252,0.1589488983154297,0.4105501174926758
1684109391041443300,9.882443359375,0.6784042716026306,0.0867910385131836,0.17477619647979736
1684109391051485000,9.89248486328125,0.6583886742591858,0.07677078247070312,-0.07268321514129639
1684109391061526300,9.9025263671875,0.5904491543769836,-0.009650230407714844,-0.17824149131774902
1684109391071568000,9.91256787109375,0.5389522314071655,0.0021600723266601562,-0.24433279037475586
1684109391081609200,9.922609130859374,0.45895522832870483,-0.0073699951171875,-0.2945065498352051
1684109391091650800,9.93265087890625,0.4397788941860199,-0.0070781707763671875,-0.22826015949249268
1684109391101692400,9.9426923828125,0.4555698335170746,-0.03522205352783203,-0.143990159034729
1684109391111733800,9.952733642578124,0.4990885257720947,-0.008217811584472656,-0.015967130661010742
1684109391121775400,9.962775390625,0.5390563011169434,-0.026549339294433594,0.03363978862762451
1684109391131816700,9.972816650390625,0.5797046422958374,0.0006084442138671875,0.12423014640808105
1684109391141858300,9.9828583984375,0.6233014464378357,0.003856658935546875,0.21013188362121582
1684109391151900000,9.99289990234375,0.643240213394165,-0.00965118408203125,0.26473045349121094
1684109391161941200,10.002941162109375,0.6277585625648499,-0.04706859588623047,0.31658804416656494
1684109391171982800,10.01298291015625,0.6411579847335815,-0.04865264892578125,0.3512822389602661
1684109391182024400,10.0230244140625,0.6330168843269348,-0.06945323944091797,0.3734780550003052
1684109391192065800,10.033065673828125,0.593567967414856,-0.061676025390625,0.3807969093322754
1684109391202107400,10.043107421875,0.5658994913101196,-0.008648872375488281,0.3543088436126709
1684109391212148700,10.053148681640625,0.5456677079200745,0.013127326965332031,0.25599658489227295
1684109391222190300,10.0631904296875,0.533313512802124,0.039684295654296875,0.1726287603378296
1684109391232232000,10.07323193359375,0.533767819404602,0.04954719543457031,0.15680336952209473
1684109391242273300,10.083273193359375,0.5039055347442627,0.03318977355957031,0.13185715675354004
1684109391252315000,10.09331494140625,0.4962749183177948,-0.011693954467773438,0.15758180618286133
1684109391262356500,10.1033564453125,0.4604381322860718,-0.008708953857421875,0.14503657817840576
1684109391272397800,10.113397705078125,0.43558964133262634,-0.03857135772705078,0.1308354139328003
1684109391282439400,10.123439453125,0.40213531255722046,-0.051423072814941406,0.12887072563171387
1684109391292480800,10.133480712890625,0.37913259863853455,-0.06164073944091797,0.1037372350692749
1684109391302522400,10.1435224609375,0.37634700536727905,-0.050454139709472656,0.08856570720672607
1684109391312564000,10.15356396484375,0.3702374994754791,-0.0770730972290039,0.028957724571228027
1684109391322605300,10.163605224609375,0.40799596905708313,-0.07483959197998047,-0.02204883098602295
1684109391332647000,10.17364697265625,0.41790005564689636,-0.03481769561767578,-0.019808411598205566
1684109391342688500,10.1836884765625,0.4447154402732849,-0.007137298583984375,0.0016155242919921875
1684109391352729900,10.193729736328125,0.46670493483543396,-0.015079498291015625,0.009257793426513672
1684109391362771500,10.203771484375,0.4650474488735199,-0.0298004150390625,0.04809606075286865
1684109391372812800,10.213812744140625,0.4800887703895569,0.005275726318359375,0.08446502685546875
1684109391382854400,10.2238544921875,0.48783475160598755,0.023408889770507812,0.09259772300720215
1684109391392896000,10.23389599609375,0.4806705713272095,0.02959918975830078,0.1061394214630127
1684109391402937300,10.243937255859375,0.48398464918136597,0.066375732421875,0.16266202926635742
1684109391412979000,10.25397900390625,0.44996631145477295,0.10012054443359375,0.21379363536834717
1684109391423020500,10.2640205078125,0.33883535861968994,0.14735126495361328,0.20085906982421875
1684109391433062000,10.274061767578125,0.23424679040908813,0.13490581512451172,0.21465086936950684
1684109391443103500,10.284103515625,0.11015355587005615,0.11785602569580078,0.20969080924987793
1684109391453144800,10.294144775390626,-0.053745150566101074,0.060950279235839844,0.186102032661438
1684109391463186400,10.3041865234375,-0.22542604804039001,0.012033462524414062,0.08794331550598145
1684109391473228000,10.31422802734375,-0.3753388822078705,-0.05715370178222656,-0.012694835662841797
1684109391483269400,10.324269287109376,-0.486372709274292,-0.10617256164550781,-0.0827786922454834
1684109391493311000,10.33431103515625,-0.5653238296508789,-0.1046915054321289,-0.12755632400512695
1684109391503352600,10.3443525390625,-0.5858165621757507,-0.1100454330444336,-0.10069572925567627
1684109391513394000,10.354393798828125,-0.5668361186981201,-0.07262039184570312,-0.029289722442626953
1684109391523435500,10.364435546875,-0.45977333188056946,-0.06851768493652344,0.04804539680480957
1684109391533476900,10.374476806640626,-0.3477470278739929,-0.043132781982421875,0.14775419235229492
1684109391543518500,10.3845185546875,-0.24620270729064941,-0.02982807159423828,0.21785688400268555
1684109391553560000,10.39456005859375,-0.14602282643318176,0.004496574401855469,0.3363727331161499
1684109391563601400,10.404601318359376,-0.05926191806793213,0.009900093078613281,0.3818025588989258
1684109391573643000,10.41464306640625,0.0023262500762939453,0.04104042053222656,0.4214744567871094
1684109391583684600,10.4246845703125,0.06683516502380371,0.05751514434814453,0.43001794815063477
1684109391593726000,10.434725830078126,0.1079932451248169,0.10656356811523438,0.44293928146362305
1684109391603767600,10.444767578125,0.13509172201156616,0.17113494873046875,0.44135844707489014
1684109391613809000,10.454808837890624,0.11772388219833374,0.19679546356201172,0.4089456796646118
1684109391623850500,10.4648505859375,0.06158405542373657,0.25022029876708984,0.38668501377105713
1684109391633892000,10.47489208984375,0.033258140087127686,0.24858665466308594,0.39108026027679443
1684109391643933400,10.484933349609374,-0.03328585624694824,0.23524951934814453,0.3912832736968994
1684109391653975000,10.49497509765625,-0.0920858383178711,0.21987438201904297,0.38035666942596436
1684109391664016600,10.5050166015625,-0.12398940324783325,0.1813192367553711,0.35603833198547363
1684109391674058000,10.51505810546875,-0.14574956893920898,0.16707706451416016,0.36331260204315186
1684109391684099600,10.525099609375,-0.1271412968635559,0.12963199615478516,0.3851386308670044
1684109391694141000,10.535140869140625,-0.1160997748374939,0.10695075988769531,0.4067767858505249
1684109391704182500,10.5451826171875,-0.08689868450164795,0.11057472229003906,0.3978310823440552
1684109391714224000,10.55522412109375,-0.07790976762771606,0.13533973693847656,0.4059535264968872
1684109391724265500,10.565265380859374,-0.11272138357162476,0.1832275390625,0.39564061164855957
1684109391734307000,10.57530712890625,-0.1457110047340393,0.19740962982177734,0.40273308753967285
1684109391744348700,10.5853486328125,-0.17637640237808228,0.20671939849853516,0.42215442657470703
1684109391754390000,10.59539013671875,-0.21368497610092163,0.3148813247680664,0.402008056640625
1684109391764431600,10.605431640625,-0.20287543535232544,0.22358226776123047,0.44143450260162354
1684109391774473000,10.615472900390625,-0.18442648649215698,0.19756603240966797,0.4480019807815552
1684109391784514600,10.6255146484375,-0.15397566556930542,0.17447662353515625,0.49267446994781494
1684109391794556200,10.63555615234375,-0.12831878662109375,0.1330404281616211,0.4946357011795044
1684109391804597500,10.645597412109375,-0.09838908910751343,0.13470458984375,0.4991898536682129
1684109391814639000,10.65563916015625,-0.10040789842605591,0.12450695037841797,0.48027944564819336
1684109391824680700,10.6656806640625,-0.13451820611953735,0.12145233154296875,0.47145330905914307
1684109391834722000,10.67572216796875,-0.15130406618118286,0.18185806274414062,0.41601550579071045
1684109391844763600,10.685763671875,-0.2779689431190491,0.1752605438232422,0.35744011402130127
1684109391854805000,10.695804931640625,-0.39428216218948364,0.17818260192871094,0.2982215881347656
1684109391864846600,10.7058466796875,-0.49715983867645264,0.11991024017333984,0.21240556240081787
1684109391874888200,10.71588818359375,-0.5954997539520264,0.013369560241699219,0.11254334449768066
1684109391884929500,10.725929443359375,-0.6135461330413818,-0.015903472900390625,0.03609585762023926
1684109391894971100,10.73597119140625,-0.6136857867240906,-0.025773048400878906,0.005731940269470215
1684109391905012700,10.7460126953125,-0.5704879760742188,0.011679649353027344,-0.012232065200805664
1684109391915054000,10.75605419921875,-0.5414003133773804,0.11684608459472656,-0.017932772636413574
1684109391925095700,10.766095703125,-0.5075954794883728,0.12850570678710938,0.09447252750396729
1684109391935137000,10.776136962890625,-0.4787907302379608,0.07889080047607422,0.241072416305542
1684109391945178600,10.7861787109375,-0.4696727991104126,0.04421710968017578,0.4397413730621338
1684109391955220200,10.79622021484375,-0.4732959270477295,0.1135549545288086,0.5972856283187866
1684109391965261600,10.806261474609375,-0.46315687894821167,-0.051464080810546875,0.7895313501358032
1684109391975303200,10.81630322265625,-0.4524226784706116,-0.053610801696777344,0.8796101808547974
1684109391985344500,10.826344482421876,-0.39987289905548096,-0.07211875915527344,0.9723055362701416
1684109391995386000,10.83638623046875,-0.36659544706344604,-0.059601783752441406,0.9918700456619263
1684109392005427700,10.846427734375,-0.32647496461868286,-0.00013256072998046875,0.9581878185272217
1684109392015469000,10.856468994140625,-0.2660197615623474,-0.02874279022216797,0.928591251373291
1684109392025510700,10.8665107421875,-0.19959872961044312,-0.08507633209228516,0.8513461351394653
1684109392035552300,10.87655224609375,-0.09148067235946655,-0.10498714447021484,0.7817476987838745
1684109392045593600,10.886593505859375,0.09346508979797363,-0.16677570343017578,0.7381706237792969
1684109392055635200,10.89663525390625,0.2948122024536133,-0.22048664093017578,0.6746534109115601
1684109392065676500,10.906676513671876,0.41625499725341797,-0.31122303009033203,0.6054260730743408
1684109392075718100,10.91671826171875,0.5272922515869141,-0.35376548767089844,0.4794067144393921
1684109392085759700,10.926759765625,0.5482637882232666,-0.2430400848388672,0.31493568420410156
1684109392095801000,10.936801025390626,0.5674548149108887,-0.20270156860351562,0.16807758808135986
1684109392105842700,10.9468427734375,0.6099448204040527,-0.2548561096191406,0.07447516918182373
1684109392115884300,10.95688427734375,0.6159855127334595,-0.32246875762939453,0.028344273567199707
1684109392125925600,10.966925537109375,0.6668814420700073,-0.3887596130371094,-0.06539928913116455
1684109392135967200,10.97696728515625,0.7259347438812256,-0.5549898147583008,-0.1326216459274292
1684109392146008800,10.9870087890625,0.7537816762924194,-0.7654800415039062,-0.21578645706176758
1684109392156050200,10.99705029296875,0.7370718717575073,-0.8032102584838867,-0.2912921905517578
1684109392166091800,11.007091796875,0.5860261917114258,-0.7702569961547852,-0.26366162300109863
1684109392176133000,11.017133056640626,0.3679248094558716,-0.6847705841064453,-0.2767012119293213
1684109392186174700,11.0271748046875,0.08875715732574463,-0.4683961868286133,-0.3370622396469116
1684109392196216300,11.03721630859375,-0.21079015731811523,-0.4194927215576172,-0.20223188400268555
1684109392206257700,11.047257568359376,-0.4653823971748352,-0.28444766998291016,-0.021054744720458984
1684109392216299300,11.05729931640625,-0.6416040062904358,-0.06837749481201172,0.1171116828918457
1684109392226340900,11.0673408203125,-0.8054823875427246,0.03266620635986328,0.24236547946929932
1684109392236382200,11.07738232421875,-0.8649320602416992,0.18860244750976562,0.2751268148422241
1684109392246423800,11.087423828125,-0.9386954307556152,0.19150543212890625,0.434232234954834
1684109392256465200,11.097465087890624,-1.0506656169891357,0.3139982223510742,0.473278284072876
1684109392266506800,11.1075068359375,-1.205690860748291,0.4053354263305664,0.633846640586853
1684109392276548400,11.11754833984375,-1.3745334148406982,0.4226093292236328,0.8435571193695068
1684109392286589700,11.127589599609376,-1.5509610176086426,0.4329710006713867,0.9990342855453491
1684109392296631300,11.13763134765625,-1.6538243293762207,0.41745853424072266,1.0874828100204468
1684109392306672600,11.147672607421875,-1.7307546138763428,0.3380422592163086,1.1342772245407104
1684109392316714200,11.15771435546875,-1.8421618938446045,0.18544483184814453,1.1159001588821411
1684109392326755800,11.167755859375,-2.108916997909546,0.04358100891113281,1.000762701034546
1684109392336797200,11.177797119140624,-2.420351028442383,-0.15917301177978516,0.8482301235198975
1684109392346838800,11.1878388671875,-2.763313055038452,-0.32477283477783203,0.5738130807876587
1684109392356880400,11.19788037109375,-3.0421597957611084,-0.47265052795410156,0.3283168077468872
1684109392366921700,11.207921630859374,-3.0885815620422363,-0.5340852737426758,0.09172999858856201
1684109392376963300,11.21796337890625,-2.9399003982543945,-0.5650959014892578,-0.19848060607910156
1684109392387004700,11.228004638671875,-2.6268808841705322,-0.47118186950683594,-0.5241686105728149
1684109392397046300,11.23804638671875,-2.305757761001587,-0.37274742126464844,-0.9348474144935608
1684109392407087900,11.248087890625,-2.089390754699707,-0.3589744567871094,-1.0968812704086304
1684109392417129200,11.258129150390625,-1.846803069114685,-0.5094738006591797,-1.2801798582077026
1684109392427170800,11.2681708984375,-1.8047053813934326,-0.7150020599365234,-1.5290247201919556
1684109392437212400,11.27821240234375,-1.283128261566162,-0.8982057571411133,-1.4225738048553467
1684109392447253800,11.288253662109375,-0.6343753337860107,-1.127798080444336,-1.0781311988830566
1684109392457295400,11.29829541015625,0.28680241107940674,-1.3881349563598633,-0.5932031869888306
1684109392467336700,11.308336669921875,1.154578685760498,-1.6048107147216797,-0.2650531530380249
1684109392477378300,11.31837841796875,1.9334958791732788,-1.8838262557983398,0.04723215103149414
1684109392487420000,11.328419921875,2.5830304622650146,-2.303715705871582,0.30879056453704834
1684109392497461200,11.338461181640625,3.2325339317321777,-2.6889123916625977,0.5557229518890381
1684109392507502800,11.3485029296875,3.7880945205688477,-2.8928403854370117,0.7442024946212769
1684109392517544400,11.35854443359375,4.288792610168457,-2.881720542907715,0.850456714630127
1684109392527585800,11.368585693359375,4.407061576843262,-2.441035270690918,0.49168920516967773
1684109392537627400,11.37862744140625,4.501835823059082,-1.9536771774291992,0.6283819675445557
1684109392547668700,11.388668701171875,4.585422039031982,-1.236556053161621,0.8538188934326172
1684109392557710300,11.39871044921875,4.565732955932617,-0.3788156509399414,0.7717113494873047
1684109392567752000,11.408751953125,4.159728050231934,0.3247051239013672,0.40588974952697754
1684109392577793300,11.418793212890625,3.942257881164551,0.4737882614135742,0.3894968032836914
1684109392587835000,11.4288349609375,3.5564820766448975,0.3041563034057617,0.04288625717163086
1684109392597876500,11.43887646484375,3.3216583728790283,0.6018600463867188,-0.4373999834060669
1684109392607917800,11.448917724609375,2.7869129180908203,1.0652151107788086,-0.8053631782531738
1684109392617959400,11.45895947265625,1.965488314628601,1.5198311805725098,-0.9383000135421753
1684109392628000800,11.469000732421875,1.2901374101638794,1.9018583297729492,-0.8814483880996704
1684109392638042400,11.47904248046875,1.462059736251831,1.991285800933838,-0.9341918230056763
1684109392648084000,11.489083984375,2.3156991004943848,1.8469305038452148,-1.5219581127166748
1684109392658125300,11.499125244140625,3.213742971420288,1.6131982803344727,-2.3945512771606445
1684109392668167000,11.5091669921875,3.7106270790100098,1.2466979026794434,-3.0026793479919434
1684109392678208500,11.51920849609375,3.6375484466552734,0.9479598999023438,-3.0998146533966064
1684109392688249900,11.529249755859375,2.9132747650146484,0.5994243621826172,-2.8408775329589844
1684109392698291500,11.53929150390625,0.962986946105957,0.4595327377319336,-1.8144538402557373
1684109392708332800,11.549332763671876,-2.1549441814422607,0.42909908294677734,0.007822275161743164
1684109392718374400,11.55937451171875,-6.7686004638671875,-0.13900089263916016,2.864098072052002
1684109392728416000,11.569416015625,-8.663511276245117,-1.1980972290039062,4.831161975860596
1684109392738457300,11.579457275390626,-3.9375057220458984,-1.3084640502929688,1.9625954627990723
1684109392748499000,11.5894990234375,0.004899501800537109,-1.8226871490478516,-0.2613193988800049
1684109392758540500,11.59954052734375,2.850437879562378,-1.9196147918701172,-1.6027112007141113
1684109392768582000,11.609581787109375,3.412363052368164,-1.5259027481079102,-1.9744377136230469
1684109392778623500,11.61962353515625,2.4747841358184814,-1.350459098815918,-1.8234977722167969
1684109392788664800,11.629664794921876,0.6582119464874268,-1.2127866744995117,-1.5234160423278809
1684109392798706400,11.63970654296875,-0.2863171100616455,-0.8374624252319336,-1.9007916450500488
1684109392808748000,11.649748046875,0.13126826286315918,-0.15197181701660156,-3.235778331756592
1684109392818789400,11.659789306640626,0.38428521156311035,0.19011211395263672,-4.460763931274414
1684109392828831000,11.6698310546875,-0.19287109375,0.2555398941040039,-4.956387519836426
1684109392838872600,11.67987255859375,-1.0899004936218262,0.3262510299682617,-5.275713920593262
1684109392848914000,11.689913818359376,-1.2953124046325684,0.33018970489501953,-5.11471700668335
1684109392858955500,11.69995556640625,-0.5208299160003662,0.3880329132080078,-4.676863670349121
1684109392868997000,11.7099970703125,0.31986570358276367,0.3569154739379883,-3.993551015853882
1684109392879038500,11.72003857421875,0.8656172752380371,0.26464080810546875,-3.1544172763824463
1684109392889080000,11.730080078125,1.1654465198516846,0.36392974853515625,-2.220093011856079
1684109392899121400,11.740121337890624,1.5788675546646118,0.48658275604248047,-0.9348562955856323
1684109392909163000,11.7501630859375,1.9436031579971313,0.6121749877929688,0.29865121841430664
1684109392919204600,11.76020458984375,2.0534467697143555,0.7105274200439453,1.156751275062561
1684109392929246000,11.770245849609376,2.0542213916778564,0.8285980224609375,1.6221569776535034
1684109392939287600,11.78028759765625,2.0306684970855713,1.0505256652832031,1.7083065509796143
1684109392949329200,11.7903291015625,1.9457993507385254,1.1888675689697266,1.5086673498153687
1684109392959370500,11.80037060546875,1.7382175922393799,1.1306028366088867,1.0797065496444702
1684109392969412000,11.810412109375,1.5772705078125,0.9035444259643555,0.5261130332946777
1684109392979453700,11.82045361328125,1.3876389265060425,0.683140754699707,-0.06312096118927002
1684109392989495000,11.8304951171875,1.1102032661437988,0.5650863647460938,-0.5246353149414062
1684109392999536600,11.84053662109375,0.6490476131439209,0.49597740173339844,-0.8621777892112732
1684109393009578000,11.850577880859374,0.17649245262145996,0.4864234924316406,-1.096280813217163
1684109393019619600,11.86061962890625,-0.4766395092010498,0.4875211715698242,-1.5961039066314697
1684109393029661200,11.8706611328125,-0.6277420520782471,0.1591968536376953,-1.5383251905441284
1684109393039702500,11.88070263671875,-0.6584265232086182,-0.19545555114746094,-1.1923311948776245
1684109393049744100,11.890744140625,-0.796710729598999,-0.2306222915649414,-1.0161292552947998
1684109393059785700,11.90078564453125,-0.8833794593811035,-0.2168903350830078,-0.9827240705490112
1684109393069827000,11.9108271484375,-1.1012113094329834,-0.14486312866210938,-1.0779019594192505
1684109393079868700,11.92086865234375,-1.2446980476379395,-0.13699626922607422,-1.2161450386047363
1684109393089910300,11.93091015625,-1.3888298273086548,-0.06963157653808594,-1.4334979057312012
1684109393099951600,11.94095166015625,-1.6938003301620483,0.013400077819824219,-1.7358989715576172
1684109393109993200,11.9509931640625,-2.02370548248291,-0.055907249450683594,-1.9011059999465942
1684109393120034600,11.96103466796875,-1.8476462364196777,-0.5379533767700195,-1.648776888847351
1684109393130076200,11.971076171875,-1.2318298816680908,-1.024942398071289,-1.5772194862365723
1684109393140117800,11.98111767578125,-0.35119128227233887,-1.0518217086791992,-1.6576664447784424
1684109393150159000,11.9911591796875,0.5815362930297852,-0.7873392105102539,-1.9060578346252441
1684109393160200700,12.00120068359375,1.2397284507751465,-0.5262584686279297,-2.3929877281188965
1684109393170242300,12.0112421875,1.2250480651855469,-0.28121376037597656,-2.902883768081665
1684109393180283600,12.02128369140625,0.8279405832290649,-0.14942455291748047,-3.191476345062256
1684109393190325200,12.0313251953125,0.22057592868804932,-0.30318260192871094,-3.316845655441284
1684109393200366800,12.041366943359375,-0.42964744567871094,-0.686274528503418,-3.436741828918457
1684109393210408200,12.051408203125,-0.781118631362915,-1.1453094482421875,-3.3318090438842773
1684109393220449800,12.06144970703125,-0.8586630821228027,-1.5582866668701172,-2.7507834434509277
1684109393230491100,12.0714912109375,-0.7144775390625,-1.843337059020996,-1.8425531387329102
1684109393240532700,12.08153271484375,-0.3094707131385803,-1.850728988647461,-0.8966137170791626
1684109393250574300,12.09157421875,0.29019695520401,-1.6402053833007812,0.1413061022758484
1684109393260615700,12.10161572265625,0.9867658019065857,-1.1702919006347656,0.821246325969696
1684109393270657300,12.1116572265625,1.599379062652588,-0.5761861801147461,1.3864696025848389
1684109393280699000,12.121698974609375,2.0685245990753174,-0.15311717987060547,1.7403998374938965
1684109393290740200,12.131740234375,2.356416702270508,0.052318572998046875,1.9138984680175781
1684109393300781800,12.14178173828125,2.504220485687256,0.2081890106201172,1.7191016674041748
1684109393310823200,12.1518232421875,2.586878776550293,0.5653629302978516,1.314156174659729
1684109393320864800,12.16186474609375,2.6250665187835693,0.8390684127807617,1.2341163158416748
1684109393330906400,12.17190625,2.5432074069976807,0.8909826278686523,1.2574081420898438
1684109393340947700,12.18194775390625,2.3800926208496094,0.7001152038574219,1.3571726083755493
1684109393350989300,12.1919892578125,2.0822227001190186,0.3553428649902344,1.6071913242340088
1684109393361031000,12.202031005859375,1.589228630065918,-0.2983999252319336,1.8506662845611572
1684109393371072300,12.212072265625,0.601453423500061,-1.1583499908447266,1.9251809120178223
1684109393381113900,12.22211376953125,-0.719265878200531,-1.4947071075439453,1.355035424232483
1684109393391155200,12.2321552734375,-2.0681238174438477,-1.3026723861694336,0.3614552915096283
1684109393401196800,12.24219677734375,-3.0401527881622314,-0.9484987258911133,-0.5045515298843384
1684109393411238400,12.25223828125,-3.3842062950134277,-0.5314998626708984,-0.9240505695343018
1684109393421279700,12.26227978515625,-2.8210158348083496,-0.0650796890258789,-0.8186923265457153
1684109393431321300,12.2723212890625,-1.5845081806182861,0.27400970458984375,-0.5273179411888123
1684109393441363000,12.282363037109375,-0.24754203855991364,0.45458030700683594,-0.25524911284446716
1684109393451404300,12.292404296875,0.9314565062522888,0.6080245971679688,0.0012295246124267578
1684109393461446000,12.30244580078125,1.805263876914978,0.7678251266479492,0.2093382030725479
1684109393471487500,12.312487548828125,2.3084983825683594,0.8935470581054688,0.3204357624053955
1684109393481528800,12.32252880859375,2.5492935180664062,0.9545202255249023,0.5189880728721619
1684109393491570400,12.3325703125,2.5785365104675293,0.9010648727416992,0.8047599792480469
1684109393501612000,12.342612060546875,2.520601272583008,0.7121915817260742,1.1010024547576904
1684109393511653400,12.3526533203125,2.4000637531280518,0.5626773834228516,1.360917329788208
1684109393521695000,12.362695068359375,2.296225070953369,0.5214262008666992,1.323354721069336
1684109393531736600,12.372736572265625,2.1376829147338867,0.48746681213378906,1.2358226776123047
1684109393541778000,12.38277783203125,1.9862983226776123,0.3746910095214844,1.3628708124160767
1684109393551819500,12.392819580078125,1.8500056266784668,0.13316726684570312,1.521189570426941
