time,seconds_elapsed,z,y,x
1683931390382639000,0.02963916015625,0,0,0
1683931390392681000,0.039680908203125,0.30780696868896484,0.22080326080322266,0.6803569793701172
1683931390402723000,0.04972314453125,0.6548166275024414,0.887758731842041,1.1179008483886719
1683931390412765200,0.05976513671875,1.2128686904907227,1.8208918571472168,1.1254072189331055
1683931390422807000,0.06980712890625,1.6644997596740723,2.645616054534912,1.437744140625
1683931390432849200,0.07984912109375,1.3236055374145508,2.4282429218292236,2.258944511413574
1683931390442891300,0.089891357421875,0.4656639099121094,2.483581781387329,1.7962894439697266
1683931390452933400,0.099933349609375,-0.5353279113769531,2.0979223251342773,1.5150041580200195
1683931390462975200,0.109975341796875,-0.8779826164245605,2.417745590209961,0.614262580871582
1683931390473017300,0.120017333984375,-0.5139570236206055,2.7011523246765137,-0.0023202896118164062
1683931390483059500,0.1300595703125,-0.8543610572814941,3.010012149810791,-0.7045793533325195
1683931390493101600,0.1401015625,-0.916743278503418,2.2854199409484863,-2.151982307434082
1683931390503143400,0.150143310546875,-1.1346607208251953,0.6308664083480835,-2.7362565994262695
1683931390513185500,0.160185546875,-1.625723123550415,-0.35279381275177,-2.8384132385253906
1683931390523227600,0.1702275390625,-2.3470206260681152,-0.6726614236831665,-3.052335739135742
1683931390533269800,0.180269775390625,-3.0989010334014893,-0.6061336994171143,-3.4562673568725586
1683931390543311600,0.1903115234375,-3.828221559524536,0.23082232475280762,-3.399693489074707
1683931390553353700,0.200353759765625,-3.4744067192077637,0.7689007520675659,-3.0264768600463867
1683931390563395800,0.210395751953125,-2.2468130588531494,0.5377968549728394,-2.6247987747192383
1683931390573438000,0.22043798828125,-0.5040911436080933,-0.08660292625427246,-2.237934112548828
1683931390583479800,0.230479736328125,1.552946925163269,-0.2946128845214844,-2.962897300720215
1683931390593522000,0.24052197265625,2.3383097648620605,-1.4149854183197021,-3.477682113647461
1683931390603564000,0.25056396484375,3.3293771743774414,-2.1866133213043213,-3.753814220428467
1683931390613606000,0.26060595703125,4.38889217376709,-2.774068832397461,-4.60491943359375
1683931390623648000,0.27064794921875,2.838860034942627,-0.9553308486938477,-5.595818996429443
1683931390633690000,0.280690185546875,2.6823573112487793,-3.322772741317749,-3.036529064178467
1683931390643732200,0.290732177734375,2.88889479637146,-3.2786436080932617,-2.4470787048339844
1683931390653774000,0.300774169921875,2.264371156692505,-3.945077896118164,-2.278231620788574
1683931390663816200,0.310816162109375,1.0223361253738403,-4.411571502685547,-1.7167539596557617
1683931390673858300,0.3208583984375,0.7524484395980835,-4.369019985198975,-1.344801902770996
1683931390683900400,0.330900390625,0.21161878108978271,-3.076453924179077,-0.3907003402709961
1683931390693942500,0.340942626953125,-1.0344619750976562,-1.3901066780090332,1.1192741394042969
1683931390703984400,0.350984375,-1.9662597179412842,-0.3776113986968994,2.9523487091064453
1683931390714026500,0.361026611328125,-0.7363016605377197,-0.014201879501342773,4.5245361328125
1683931390724068600,0.371068603515625,0.7116207480430603,-1.00386643409729,4.871975898742676
1683931390734110700,0.38111083984375,0.7060626745223999,-2.252223491668701,3.4783859252929688
1683931390744152600,0.391152587890625,0.9622120261192322,-3.3010177612304688,2.43951416015625
1683931390754194700,0.401194580078125,1.7642487287521362,-2.7034435272216797,2.5047359466552734
1683931390764236800,0.41123681640625,2.2242093086242676,-2.4489731788635254,2.9923009872436523
1683931390774278700,0.421278564453125,1.8494255542755127,-2.447664260864258,2.6578540802001953
1683931390784320800,0.43132080078125,1.0309549570083618,-1.3858919143676758,1.4044380187988281
1683931390794363000,0.44136279296875,0.22675424814224243,-1.425346851348877,1.1962261199951172
1683931390804405000,0.451405029296875,0.3447861671447754,-1.536241054534912,1.2671785354614258
1683931390814446800,0.46144677734375,0.4213583469390869,-1.3584513664245605,0.9638376235961914
1683931390824489000,0.471489013671875,0.8722127079963684,-0.4929490089416504,-0.5826997756958008
1683931390834531000,0.481531005859375,1.0338939428329468,-0.20766448974609375,-1.7745361328125
1683931390844573200,0.4915732421875,2.0434091091156006,0.9922680854797363,-1.8964605331420898
1683931390854615300,0.501615234375,2.648327112197876,0.8865277767181396,-3.619631767272949
1683931390864657200,0.5116572265625,2.925753593444824,0.39864659309387207,-3.186004638671875
1683931390874699300,0.52169921875,1.4089208841323853,1.124213457107544,-2.9782724380493164
1683931390884741400,0.531741455078125,0.4544562101364136,2.362344264984131,-3.6770477294921875
1683931390894783200,0.541783203125,0.4424382448196411,3.578751564025879,-3.975153923034668
1683931390904825300,0.551825439453125,0.727570652961731,4.603229999542236,-4.846856594085693
1683931390914867500,0.561867431640625,1.1025176048278809,5.034802436828613,-4.6396636962890625
1683931390924909600,0.57190966796875,2.4671385288238525,4.86406946182251,-1.4983243942260742
1683931390934951400,0.581951416015625,2.5429203510284424,4.749110221862793,-5.44207763671875
1683931390944993500,0.59199365234375,2.4832191467285156,4.353594779968262,-4.8087053298950195
1683931390955035600,0.60203564453125,3.333167791366577,4.596602916717529,-3.4202027320861816
1683931390965077800,0.612077880859375,3.3742940425872803,4.204598426818848,-2.6315932273864746
1683931390975119600,0.62211962890625,2.296677589416504,2.511333465576172,-2.0224504470825195
1683931390985161700,0.63216162109375,1.5963667631149292,1.3386400938034058,-3.240652561187744
1683931390995203800,0.642203857421875,1.6860127449035645,1.0303447246551514,-4.4326653480529785
1683931391005246000,0.652245849609375,1.4673326015472412,1.0524697303771973,-3.8737993240356445
1683931391015288000,0.6622880859375,0.9168868660926819,-0.7578988075256348,-2.9572391510009766
1683931391025330000,0.672329833984375,0.2285149097442627,-3.322016954421997,-2.3580570220947266
1683931391035372000,0.6823720703125,-0.3851522207260132,-5.81181526184082,-1.0546483993530273
1683931391045414100,0.6924140625,-0.1867121458053589,-7.221392631530762,0.08502388000488281
1683931391055456000,0.7024560546875,0.22170484066009521,-4.744606971740723,-0.5700817108154297
1683931391065498000,0.712498046875,1.888764500617981,0.004092693328857422,-2.3401904106140137
1683931391075540200,0.722540283203125,3.960735559463501,3.8738975524902344,-4.654792785644531
1683931391085582300,0.732582275390625,2.8758656978607178,0.37584352493286133,-0.07642745971679688
1683931391095624200,0.742624267578125,0.36259204149246216,-5.534660816192627,3.52316951751709
1683931391105666300,0.752666259765625,-0.010977625846862793,-6.829839706420898,4.175156593322754
1683931391115708400,0.76270849609375,0.5845627784729004,-4.6327290534973145,1.1951780319213867
1683931391125750500,0.77275048828125,-0.5616601705551147,-3.646331310272217,-1.4121193885803223
1683931391135792600,0.782792724609375,-3.2380638122558594,-3.6715636253356934,-0.17244625091552734
1683931391145834500,0.79283447265625,-5.296472072601318,-3.8002967834472656,-1.3373980522155762
1683931391155876600,0.802876708984375,-6.108360290527344,-3.057621479034424,-0.5807456970214844
1683931391165918700,0.812918701171875,-5.029841899871826,-2.4039254188537598,-0.9783973693847656
1683931391175960600,0.822960693359375,-3.075904607772827,-1.080796241760254,-1.0700550079345703
1683931391186002700,0.833002685546875,-1.340477705001831,-0.6368889808654785,-0.09953498840332031
1683931391196044800,0.843044921875,-0.008112668991088867,-0.6766457557678223,0.49903059005737305
1683931391206087000,0.8530869140625,0.6799298524856567,-0.8945522308349609,0.3319258689880371
1683931391216129000,0.86312890625,1.2658363580703735,-0.9777417182922363,0.8147807121276855
1683931391226171000,0.8731708984375,2.1585323810577393,-0.5946931838989258,2.079400062561035
1683931391236213000,0.883212890625,2.8922829627990723,0.10997962951660156,2.7795305252075195
1683931391246255000,0.893255126953125,3.0298705101013184,0.3605647087097168,3.3682913780212402
1683931391256297200,0.903297119140625,2.205132484436035,0.4818844795227051,3.510887622833252
1683931391266339000,0.913339111328125,0.5651447772979736,0.386446475982666,3.7138686180114746
1683931391276381200,0.923381103515625,-1.1320668458938599,-0.07892465591430664,3.8580732345581055
1683931391286423300,0.93342333984375,-1.5510278940200806,0.5063924789428711,3.2739810943603516
1683931391296465400,0.94346533203125,-1.637847900390625,0.811668872833252,3.276467800140381
1683931391306507300,0.95350732421875,-1.2962164878845215,0.3395075798034668,2.819079875946045
1683931391316549400,0.96354931640625,-0.8863363862037659,0.29384899139404297,1.938558578491211
1683931391326591500,0.973591552734375,-0.6740260124206543,0.8123245239257812,1.3786873817443848
1683931391336633600,0.983633544921875,-0.7546241283416748,-0.2690262794494629,1.423797607421875
1683931391346675700,0.99367578125,-0.45835232734680176,-0.1276540756225586,0.7571320533752441
1683931391356717600,1.003717529296875,-0.05349087715148926,-0.3474149703979492,0.27994871139526367
1683931391366759700,1.013759765625,0.3908191919326782,-0.9439082145690918,0.0751485824584961
1683931391376801800,1.0238017578125,0.5719196200370789,-1.420034408569336,-0.1136937141418457
1683931391386843600,1.03384375,0.7134042382240295,-1.6041531562805176,-0.6301064491271973
1683931391396885800,1.0438857421875,0.347118616104126,-1.2884726524353027,-0.6539969444274902
1683931391406928000,1.053927978515625,-0.17423474788665771,-1.1494927406311035,-0.5036301612854004
1683931391416970000,1.063969970703125,-0.4386436939239502,-0.9330868721008301,-0.5133070945739746
1683931391427012000,1.07401220703125,-0.22960329055786133,-0.4520072937011719,-0.2886366844177246
1683931391437054200,1.08405419921875,0.6910647749900818,-0.3532066345214844,-0.38240766525268555
1683931391447096000,1.094095947265625,1.4170936346054077,-0.6424517631530762,-1.7219305038452148
1683931391457138200,1.10413818359375,1.6203914880752563,-0.4099268913269043,-1.9547762870788574
1683931391467180300,1.11418017578125,1.508246898651123,-0.07936573028564453,-1.3962364196777344
1683931391477222100,1.12422216796875,1.2143113613128662,0.26666688919067383,-1.0729060173034668
1683931391487264300,1.13426416015625,1.0211960077285767,0.8392095565795898,-1.2826871871948242
1683931391497306400,1.144306396484375,1.1374554634094238,1.594186782836914,-1.6959643363952637
1683931391507348500,1.154348388671875,1.21309232711792,2.075227737426758,-2.0495047569274902
1683931391517390600,1.164390625,1.4654550552368164,2.505920886993408,-1.3214902877807617
1683931391527432400,1.174432373046875,0.9307650327682495,1.530634880065918,-2.238664150238037
1683931391537474600,1.184474609375,-0.19789719581604004,0.37987709045410156,-2.4738149642944336
1683931391547516700,1.1945166015625,-0.6164946556091309,0.019522666931152344,-2.820614814758301
1683931391557558800,1.204558837890625,0.0709688663482666,1.0129985809326172,-2.3187499046325684
1683931391567600600,1.2146005859375,-0.12239432334899902,-0.3238849639892578,-1.7172322273254395
1683931391577642800,1.224642822265625,0.900629997253418,0.584108829498291,-1.3536920547485352
1683931391587684900,1.234684814453125,1.7719320058822632,0.2545604705810547,-1.0052433013916016
1683931391597727000,1.24472705078125,2.541728973388672,-0.2598695755004883,-0.09879207611083984
1683931391607769000,1.25476904296875,3.010502338409424,-0.5215325355529785,1.0932869911193848
1683931391617811000,1.26481103515625,3.006282091140747,-0.05944538116455078,1.5151376724243164
1683931391627853000,1.27485302734375,2.3360278606414795,-0.04922008514404297,1.8931083679199219
1683931391637895200,1.284895263671875,1.1600884199142456,-0.395418643951416,2.906372547149658
1683931391647937300,1.294937255859375,0.4402381181716919,-0.5894246101379395,2.566539764404297
1683931391657979100,1.304979248046875,-3.566175699234009,0.6507382392883301,-0.43668651580810547
1683931391668021200,1.315021240234375,-5.500161170959473,0.5717782974243164,-2.8521571159362793
1683931391678063400,1.3250634765625,-4.702339172363281,-0.06035566329956055,-3.1533448696136475
1683931391688105500,1.33510546875,-2.7392539978027344,-0.2660064697265625,-2.347299098968506
1683931391698147300,1.345147216796875,-0.941529393196106,-0.7810783386230469,-1.7138519287109375
1683931391708189400,1.355189453125,0.06861650943756104,-1.237485408782959,-1.4177336692810059
1683931391718231600,1.3652314453125,1.0489057302474976,-0.967930793762207,-0.49871349334716797
1683931391728273700,1.375273681640625,2.2135705947875977,-0.3178534507751465,-0.11589431762695312
1683931391738315800,1.385315673828125,2.662029266357422,0.14494943618774414,-0.010766029357910156
1683931391748357600,1.395357666015625,2.3041067123413086,1.7304539680480957,0.09581518173217773
1683931391758399700,1.405399658203125,1.5699186325073242,3.1842403411865234,-0.1952042579650879
1683931391768441900,1.41544189453125,0.6863075494766235,3.2230730056762695,-0.16774988174438477
1683931391778484000,1.42548388671875,1.0374305248260498,2.8484787940979004,0.4772911071777344
1683931391788526000,1.435526123046875,0.4222606420516968,2.4127306938171387,0.9448375701904297
1683931391798568000,1.44556787109375,-0.004932284355163574,2.5788955688476562,0.6610417366027832
1683931391808610000,1.455610107421875,-0.32330453395843506,2.172682762145996,0.22296905517578125
1683931391818652200,1.465652099609375,-0.9199178218841553,1.319845199584961,-0.7547144889831543
1683931391828694300,1.4756943359375,-1.5255272388458252,-0.6704611778259277,-1.7476468086242676
1683931391838736100,1.485736083984375,-1.286055326461792,-2.823411464691162,-2.524773597717285
1683931391848778200,1.4957783203125,-0.647280216217041,-3.8715415000915527,-2.721865177154541
1683931391858820400,1.5058203125,0.15034079551696777,-3.2030887603759766,-2.6137537956237793
1683931391868862500,1.515862548828125,-0.879051685333252,-2.911050796508789,-2.7897539138793945
1683931391878904600,1.525904541015625,-0.9082345962524414,-2.122511863708496,-1.6541786193847656
1683931391888946400,1.535946533203125,0.676822304725647,-0.17537355422973633,0.3781309127807617
1683931391898988500,1.545988525390625,1.9280126094818115,2.1379213333129883,1.0352811813354492
1683931391909030700,1.55603076171875,1.6306238174438477,2.8664145469665527,0.40357494354248047
1683931391919072800,1.56607275390625,0.6625964641571045,1.4443635940551758,-0.378692626953125
1683931391929114600,1.576114501953125,-0.1752762794494629,0.16445207595825195,-0.8780145645141602
1683931391939156700,1.58615673828125,-0.26852869987487793,0.11536455154418945,-0.9385457038879395
1683931391949198800,1.59619873046875,0.0899651050567627,0.5548744201660156,-1.0537867546081543
1683931391959241000,1.606240966796875,0.11422586441040039,0.6623954772949219,-0.7261343002319336
1683931391969282800,1.61628271484375,0.1285994052886963,0.8333353996276855,-0.6077537536621094
1683931391979325000,1.626324951171875,-0.011176109313964844,0.5491318702697754,-0.3493657112121582
1683931391989367000,1.636366943359375,-0.0899505615234375,0.43902063369750977,0.04782438278198242
1683931391999409200,1.6464091796875,-0.3451359272003174,0.880645751953125,-0.11182594299316406
1683931392009451300,1.656451171875,-0.7053496837615967,0.7136058807373047,-0.118743896484375
1683931392019493400,1.666493408203125,-0.7540333271026611,0.1433544158935547,-0.2331705093383789
1683931392029535200,1.67653515625,-0.5311815738677979,-0.02737140655517578,-0.4392867088317871
1683931392039577300,1.686577392578125,-0.20546746253967285,0.4479379653930664,-0.6514005661010742
1683931392049619500,1.696619384765625,-0.0050165653228759766,0.5972170829772949,-0.738612174987793
1683931392059661600,1.70666162109375,0.0009310245513916016,-0.05649423599243164,-0.9256482124328613
1683931392069703400,1.716703369140625,0.09694457054138184,-0.8679537773132324,-0.930701732635498
1683931392079745500,1.72674560546875,0.369854211807251,-0.6615867614746094,-0.8244833946228027
1683931392089787600,1.73678759765625,0.4152357578277588,-1.122060775756836,-1.2673983573913574
1683931392099829800,1.746829833984375,0.016193628311157227,-0.8759288787841797,-1.1299026012420654
1683931392109871600,1.75687158203125,-0.7601985931396484,-0.24555683135986328,-0.25641679763793945
1683931392119913700,1.766913818359375,-1.2303650379180908,0.11643505096435547,-0.053811073303222656
1683931392129955800,1.776955810546875,-1.5915465354919434,2.8367013931274414,0.8262081146240234
1683931392139998000,1.786998046875,-1.9828126430511475,1.5178775787353516,0.32805824279785156
1683931392150040000,1.7970400390625,-1.5324759483337402,0.30890464782714844,0.04191923141479492
1683931392160082200,1.807082275390625,-0.38820815086364746,0.20673656463623047,0.4719994068145752
1683931392170124000,1.8171240234375,0.6739616394042969,0.940986156463623,0.18894410133361816
1683931392180166100,1.827166259765625,1.0048189163208008,0.47983264923095703,-0.011001348495483398
1683931392190208300,1.837208251953125,0.8565683364868164,-0.21593952178955078,0.0016896724700927734
1683931392200250400,1.84725048828125,0.9498062133789062,-0.5678510665893555,-0.032407283782958984
1683931392210292200,1.857292236328125,0.9765551090240479,-0.5776252746582031,-0.10357451438903809
1683931392220334300,1.867334228515625,0.773770809173584,-1.06317138671875,0.12321925163269043
1683931392230376400,1.87737646484375,0.20892906188964844,-1.4586982727050781,0.13464593887329102
1683931392240418600,1.88741845703125,-0.19682812690734863,-2.5315608978271484,-0.05731511116027832
1683931392250460700,1.897460693359375,-0.9066624641418457,-3.2432079315185547,-0.2902843952178955
1683931392260502500,1.90750244140625,-1.9010634422302246,-2.9720239639282227,0.05369234085083008
1683931392270544600,1.917544677734375,-2.4895875453948975,-2.3419933319091797,0.8939094543457031
1683931392280586800,1.927586669921875,-2.6894047260284424,0.26622581481933594,2.0362682342529297
1683931392290628900,1.93762890625,-2.3230788707733154,-2.5983877182006836,1.5869994163513184
1683931392300671000,1.9476708984375,-2.079298973083496,-2.3646888732910156,2.1580300331115723
1683931392310712800,1.957712890625,-0.6056766510009766,0.03506278991699219,2.8656599521636963
1683931392320755000,1.9677548828125,0.6714707612991333,-0.9625453948974609,1.9471204280853271
1683931392330797000,1.977797119140625,1.4143788814544678,0.6903781890869141,1.8700227737426758
1683931392340839200,1.987839111328125,1.9852347373962402,0.8687314987182617,1.1595709323883057
1683931392350881300,1.99788134765625,2.5817883014678955,0.8082971572875977,0.6143251657485962
1683931392360923100,2.007923095703125,2.275684356689453,-0.38191699981689453,-0.07109367847442627
1683931392370965200,2.01796533203125,1.6056928634643555,-0.7435178756713867,-0.600854754447937
1683931392381007400,2.02800732421875,1.147096872329712,-0.9283609390258789,-0.9530224204063416
1683931392391049500,2.038049560546875,-0.11519443988800049,0.01654815673828125,-2.107022285461426
1683931392401091300,2.04809130859375,-0.840465784072876,1.697549819946289,-3.095090627670288
1683931392411133400,2.058133544921875,-1.0593442916870117,2.6315011978149414,-3.2545084953308105
1683931392421175600,2.068175537109375,-0.7229520082473755,2.4966626167297363,-2.230062484741211
1683931392431217700,2.0782177734375,-0.17100214958190918,2.056002616882324,-1.3067872524261475
1683931392441259800,2.088259765625,0.5240410566329956,1.5066633224487305,-0.6855505704879761
1683931392451301600,2.098301513671875,1.3697543144226074,0.37882137298583984,-0.22853243350982666
1683931392461343700,2.10834375,1.7896207571029663,-0.9146051406860352,0.03425705432891846
1683931392471385900,2.1183857421875,2.3872339725494385,-1.6354484558105469,0.25882506370544434
1683931392481428000,2.128427978515625,2.6554012298583984,-1.9875926971435547,0.3734508752822876
1683931392491470000,2.138469970703125,2.657802104949951,-1.9096031188964844,0.39390408992767334
1683931392501512000,2.148511962890625,2.547184467315674,-1.4743776321411133,0.5771980285644531
1683931392511554000,2.158553955078125,2.106031894683838,-1.3654670715332031,0.765620231628418
1683931392521596200,2.16859619140625,1.4721022844314575,-1.0044384002685547,0.9584064483642578
1683931392531638300,2.17863818359375,0.7919145822525024,-0.4934396743774414,0.9106029272079468
1683931392541680400,2.188680419921875,0.2819046974182129,-0.16211986541748047,0.6641929149627686
1683931392551722200,2.19872216796875,0.14579510688781738,0.14489269256591797,0.33017969131469727
1683931392561764400,2.208764404296875,0.3410743474960327,0.42078590393066406,-0.21309101581573486
1683931392571806500,2.218806396484375,0.6947377920150757,0.409759521484375,-0.6016499400138855
1683931392581848600,2.2288486328125,0.8741602301597595,0.36527442932128906,-0.7510210275650024
1683931392591890700,2.238890625,0.7852249145507812,0.4136638641357422,-0.7762942314147949
1683931392601932800,2.248932861328125,0.48958688974380493,0.5460147857666016,-0.675256609916687
1683931392611974700,2.258974609375,0.3259859085083008,0.6867313385009766,-0.42296600341796875
1683931392622016800,2.269016845703125,0.3562718629837036,0.6330070495605469,-0.22944903373718262
1683931392632059000,2.279058837890625,0.4959881901741028,0.5291929244995117,-0.09297966957092285
1683931392642101000,2.28910107421875,0.7099274396896362,0.4236917495727539,0.017833232879638672
1683931392652143000,2.29914306640625,0.8946389555931091,0.15479469299316406,0.1467430591583252
1683931392662185000,2.30918505859375,1.0448899269104004,-0.06938934326171875,0.36139976978302
1683931392672227000,2.31922705078125,1.1399095058441162,-0.16370201110839844,0.3847154378890991
1683931392682269200,2.329269287109375,1.2081894874572754,-0.18641090393066406,0.320217490196228
1683931392692311300,2.339311279296875,1.2152503728866577,-0.4028749465942383,0.21101951599121094
1683931392702353400,2.349353515625,1.1350023746490479,-0.7598047256469727,0.09066426753997803
1683931392712395300,2.359395263671875,1.1424719095230103,-1.1220178604125977,-0.16050279140472412
1683931392722437400,2.369437255859375,1.2187749147415161,-0.7086811065673828,-0.31436264514923096
1683931392732479500,2.3794794921875,1.1634249687194824,-0.12175846099853516,-0.1966838836669922
1683931392742521600,2.389521484375,0.9855961799621582,-0.12367534637451172,-0.03322279453277588
1683931392752563700,2.399563720703125,0.7174609899520874,-0.46045970916748047,-0.08438241481781006
1683931392762605600,2.40960546875,0.7184088826179504,-0.5579509735107422,-0.269342303276062
1683931392772647700,2.419647705078125,0.7240585088729858,-0.32315635681152344,-0.19524598121643066
1683931392782689800,2.429689697265625,0.693967342376709,-0.11467266082763672,0.005676865577697754
1683931392792732000,2.43973193359375,0.6942405104637146,0.10128402709960938,0.3130573034286499
1683931392802774000,2.44977392578125,0.4990524351596832,0.0645132064819336,0.5681427717208862
1683931392812816000,2.45981591796875,0.33769920468330383,0.2926206588745117,0.9149994850158691
1683931392822858000,2.46985791015625,0.14730653166770935,0.6243743896484375,1.143258810043335
1683931392832900000,2.479900146484375,-0.029807180166244507,0.9755754470825195,1.315307378768921
1683931392842942200,2.489942138671875,-0.17318829894065857,1.429356575012207,1.3670841455459595
1683931392852984300,2.499984375,-0.31546750664711,1.6538238525390625,1.386248230934143
1683931392863026200,2.510026123046875,-0.4250580668449402,1.5331125259399414,1.3417526483535767
1683931392873068300,2.520068359375,-0.45007985830307007,1.1689672470092773,1.297205924987793
1683931392883110400,2.5301103515625,-0.3434544503688812,0.579432487487793,1.2677661180496216
1683931392893152500,2.540152587890625,-0.21050000190734863,0.2116537094116211,1.1206554174423218
1683931392903194600,2.550194580078125,-0.1516980230808258,0.10781478881835938,0.9935599565505981
1683931392913236500,2.560236572265625,-0.03304266184568405,-0.033524513244628906,0.9013532400131226
1683931392923278600,2.570278564453125,0.1762581467628479,-0.05487823486328125,0.8124576210975647
1683931392933320700,2.58032080078125,0.3619545102119446,0.04559898376464844,0.7904483079910278
1683931392943362800,2.59036279296875,0.5448043346405029,0.31976795196533203,0.9218788146972656
1683931392953405000,2.600405029296875,0.6689594984054565,0.49495983123779297,1.0593373775482178
1683931392963447000,2.610447021484375,0.6510693430900574,0.4570589065551758,1.05743408203125
1683931392973489000,2.620489013671875,0.6271570324897766,0.392913818359375,1.0130972862243652
1683931392983531000,2.630531005859375,0.5121186971664429,0.4193582534790039,1.040729284286499
1683931392993573000,2.640572998046875,0.3506743907928467,0.41660308837890625,1.0696585178375244
1683931393003615200,2.650615234375,0.14028406143188477,0.4682912826538086,0.9270630478858948
1683931393013657300,2.6606572265625,0.005162954330444336,0.3837261199951172,0.6413471698760986
1683931393023699200,2.67069921875,-0.11716730892658234,0.2830533981323242,0.3537805676460266
1683931393033741300,2.6807412109375,-0.18191556632518768,0.1761465072631836,0.16614419221878052
1683931393043783400,2.690783447265625,-0.21181122958660126,0.1107492446899414,0.08698397874832153
1683931393053825500,2.700825439453125,-0.22055158019065857,0.14856338500976562,0.06168937683105469
1683931393063867600,2.71086767578125,-0.20474722981452942,0.14577102661132812,0.10997873544692993
1683931393073909800,2.72090966796875,-0.1779993176460266,0.17606449127197266,0.16609609127044678
1683931393083951600,2.73095166015625,-0.0885201096534729,0.20554542541503906,0.2360038459300995
1683931393093993700,2.74099365234375,-0.0583266019821167,0.20536231994628906,0.3165131211280823
1683931393104035800,2.751035888671875,-0.017742455005645752,0.180328369140625,0.3646523952484131
1683931393114078000,2.761077880859375,-0.05191999673843384,0.07335758209228516,0.47056224942207336
1683931393124120000,2.7711201171875,-0.04379361867904663,0.09956169128417969,0.5435545444488525
1683931393134162000,2.781161865234375,-0.04737269878387451,0.06290817260742188,0.5501448512077332
1683931393144204000,2.7912041015625,-0.017574429512023926,0.04226398468017578,0.4603203535079956
1683931393154246100,2.80124609375,-0.0119820237159729,-0.03879547119140625,0.440319687128067
1683931393164288300,2.811288330078125,-0.07585710287094116,-0.14183807373046875,0.3643455505371094
1683931393174330400,2.821330322265625,-0.1765422821044922,-0.24271488189697266,0.2998489439487457
1683931393184372500,2.83137255859375,-0.2789638340473175,-0.2910499572753906,0.13733887672424316
1683931393194414300,2.841414306640625,-0.3786989450454712,-0.3058795928955078,-0.09018296003341675
1683931393204456400,2.85145654296875,-0.560081958770752,-0.2487201690673828,-0.23845183849334717
1683931393214498600,2.86149853515625,-0.7365586161613464,-0.1336202621459961,-0.36159026622772217
1683931393224540700,2.871540771484375,-0.8823785185813904,-0.031960487365722656,-0.525262713432312
1683931393234582800,2.881582763671875,-1.022139549255371,0.2731657028198242,-0.8055387735366821
1683931393244624600,2.891624755859375,-1.0873535871505737,0.3914785385131836,-0.9401124715805054
1683931393254666800,2.901666748046875,-0.8843737244606018,0.3587989807128906,-0.5434870719909668
1683931393264708900,2.911708984375,-0.5414706468582153,0.27086353302001953,0.0828743577003479
1683931393274751000,2.9217509765625,-0.16355037689208984,0.051604270935058594,0.6227848529815674
1683931393284793000,2.93179296875,0.1692066788673401,-0.019512176513671875,1.0357075929641724
1683931393294835200,2.941835205078125,0.4693372845649719,0.004446983337402344,1.3568695783615112
1683931393304877000,2.951876953125,0.6802105903625488,-0.0604705810546875,1.6394270658493042
1683931393314919200,2.961919189453125,0.8529060482978821,-0.030249595642089844,1.8564224243164062
1683931393324961300,2.971961181640625,0.9336217045783997,-0.15099048614501953,2.146015167236328
1683931393335003400,2.98200341796875,1.0073643922805786,-0.30528926849365234,2.393097162246704
1683931393345045500,2.99204541015625,1.0422663688659668,-0.5645723342895508,2.6877832412719727
1683931393355087400,3.00208740234375,1.0115220546722412,-0.7638463973999023,2.900657892227173
1683931393365129500,3.01212939453125,0.886845052242279,-1.1322650909423828,3.1242175102233887
1683931393375171600,3.022171630859375,0.6600698828697205,-1.5235767364501953,3.3721683025360107
1683931393385213700,3.032213623046875,0.3283652663230896,-1.8922853469848633,3.6158807277679443
1683931393395255800,3.042255859375,0.009755611419677734,-2.1999759674072266,3.7762300968170166
1683931393405298000,3.0522978515625,-0.2330235242843628,-2.181276321411133,3.740154266357422
1683931393415340000,3.062340087890625,-0.41509342193603516,-1.843642234802246,3.4004907608032227
1683931393425382000,3.0723818359375,-0.5322299003601074,-1.4189929962158203,3.0562398433685303
1683931393435424000,3.082424072265625,-0.5690076351165771,-1.1673126220703125,2.777744770050049
1683931393445466000,3.092466064453125,-0.579967737197876,-0.9567050933837891,2.474884271621704
1683931393455508200,3.10250830078125,-0.6141623258590698,-0.9259634017944336,2.1507058143615723
1683931393465550300,3.11255029296875,-0.6870825290679932,-0.7078733444213867,1.7077518701553345
1683931393475592200,3.12259228515625,-0.8909355401992798,-0.5519437789916992,1.2187788486480713
1683931393485634300,3.13263427734375,-1.1837224960327148,-0.37949657440185547,0.7717251181602478
1683931393495676400,3.142676513671875,-1.4227875471115112,-0.2025766372680664,0.481628954410553
1683931393505718500,3.152718505859375,-1.7214552164077759,-0.14032554626464844,0.23546075820922852
1683931393515760600,3.1627607421875,-1.9552723169326782,-0.2542247772216797,-0.08000707626342773
1683931393525802800,3.172802734375,-2.1267197132110596,-0.09002208709716797,-0.2584031820297241
1683931393535844600,3.1828447265625,-2.2070608139038086,0.2987823486328125,-0.2469632625579834
1683931393545886700,3.19288671875,-2.2561404705047607,0.7964649200439453,-0.2132781744003296
1683931393555928800,3.2029287109375,-2.063913583755493,1.220677375793457,-0.08117878437042236
1683931393565971000,3.212970947265625,-1.6058316230773926,1.3657922744750977,0.050148963928222656
1683931393576013000,3.223012939453125,-1.1130332946777344,1.2056636810302734,0.03423202037811279
1683931393586055000,3.233054931640625,-0.6241393685340881,0.7620019912719727,-0.13814520835876465
1683931393596097000,3.243096923828125,-0.17797085642814636,0.2905740737915039,-0.4721740484237671
1683931393606139100,3.25313916015625,0.3906107544898987,-0.09190082550048828,-0.6693173050880432
1683931393616181200,3.26318115234375,1.0638357400894165,-0.3330717086791992,-0.6148064732551575
1683931393626223400,3.273223388671875,1.6424763202667236,-0.050971031188964844,-0.33721476793289185
1683931393636265500,3.283265380859375,2.025895357131958,0.2691326141357422,0.08457142114639282
1683931393646307600,3.2933076171875,2.2659788131713867,0.2506380081176758,0.38030391931533813
1683931393656349400,3.303349365234375,2.4433627128601074,-0.19123172760009766,0.33484214544296265
1683931393666391600,3.3133916015625,2.5422730445861816,-0.7760448455810547,0.1424705982208252
1683931393676433700,3.32343359375,2.5795536041259766,-1.3242902755737305,-0.027980387210845947
1683931393686475800,3.333475830078125,2.5662105083465576,-1.7186698913574219,-0.18787872791290283
1683931393696518000,3.343517822265625,2.5998921394348145,-1.8417320251464844,-0.3324242830276489
1683931393706559700,3.353559814453125,2.6486191749572754,-1.6739492416381836,-0.3064088225364685
1683931393716601900,3.363601806640625,2.709980010986328,-1.239044189453125,-0.34087473154067993
1683931393726644000,3.37364404296875,2.665874481201172,-0.7307205200195312,-0.5100428462028503
1683931393736686000,3.38368603515625,2.507232666015625,-0.29261016845703125,-0.7931220531463623
1683931393746728200,3.393728271484375,2.2622268199920654,0.27989673614501953,-1.2551953792572021
1683931393756770300,3.403770263671875,1.8782798051834106,0.7445173263549805,-1.6356438398361206
1683931393766812200,3.413812255859375,1.4107611179351807,1.1129789352416992,-1.804447889328003
1683931393776854300,3.423854248046875,0.9267336130142212,1.304117202758789,-1.7105213403701782
1683931393786896400,3.433896484375,0.49102580547332764,1.3825836181640625,-1.4129911661148071
1683931393796938500,3.4439384765625,0.15636920928955078,1.4271049499511719,-1.0929183959960938
1683931393806980600,3.453980712890625,0.03700995445251465,1.5305280685424805,-0.7697581052780151
1683931393817022700,3.464022705078125,0.20269811153411865,1.5636425018310547,-0.6481097340583801
1683931393827064800,3.47406494140625,0.5806540250778198,1.517256736755371,-0.6689309477806091
1683931393837106700,3.484106689453125,1.0064852237701416,1.4253711700439453,-0.6511222720146179
1683931393847148800,3.494148681640625,1.395188331604004,1.2812423706054688,-0.7789762020111084
1683931393857191000,3.50419091796875,1.647731900215149,0.9539661407470703,-0.8597535490989685
1683931393867233000,3.51423291015625,1.8010894060134888,0.43958473205566406,-0.9484825134277344
1683931393877275100,3.524275146484375,1.7396245002746582,0.11128044128417969,-1.0362049341201782
1683931393887317000,3.53431689453125,1.453757882118225,-0.06242084503173828,-1.0640507936477661
1683931393897359000,3.544359130859375,0.9472790956497192,-0.1991710662841797,-0.9300400614738464
1683931393907401200,3.554401123046875,0.3997405767440796,-0.2494640350341797,-0.7482054829597473
1683931393917443300,3.564443359375,-0.041643381118774414,-0.2401590347290039,-0.5925408005714417
1683931393927485400,3.5744853515625,-0.431010365486145,-0.13107013702392578,-0.6020694971084595
1683931393937527600,3.584527587890625,-0.8639470338821411,-0.13060760498046875,-0.6401177644729614
1683931393947569700,3.594569580078125,-1.3339694738388062,-0.19138431549072266,-0.7232740521430969
1683931393957611500,3.604611572265625,-1.4696853160858154,-0.22065067291259766,-0.9651772975921631
1683931393967653600,3.614653564453125,-1.2627509832382202,-0.15861129760742188,-1.1953890323638916
1683931393977695700,3.62469580078125,-0.7697650194168091,0.14124584197998047,-1.4103174209594727
1683931393987737900,3.63473779296875,-0.35821568965911865,0.32608795166015625,-1.4992659091949463
1683931393997780000,3.644780029296875,-0.16366994380950928,0.5326738357543945,-1.5936118364334106
1683931394007821800,3.65482177734375,-0.04928147792816162,0.7943706512451172,-1.7414796352386475
1683931394017864000,3.664864013671875,0.11737751960754395,1.020254135131836,-1.8885548114776611
1683931394027906000,3.674906005859375,0.2943226099014282,1.2843971252441406,-1.9341998100280762
1683931394037948200,3.6849482421875,0.4464458227157593,1.5747108459472656,-1.8605320453643799
1683931394047990300,3.694990234375,0.5503131151199341,1.7620735168457031,-1.6325774192810059
1683931394058032400,3.705032470703125,0.5869238376617432,1.8896756172180176,-1.4376752376556396
1683931394068074500,3.715074462890625,0.5820728540420532,1.847907543182373,-1.2044994831085205
1683931394078116600,3.72511669921875,0.5250440835952759,1.6779460906982422,-0.9489622116088867
1683931394088158500,3.735158447265625,0.4027695655822754,1.3969097137451172,-0.6123650670051575
1683931394098200600,3.74520068359375,0.13339078426361084,1.000319480895996,-0.2157553881406784
1683931394108242700,3.75524267578125,-0.013446569442749023,0.6389331817626953,0.24729573726654053
1683931394118284800,3.765284912109375,-0.07026362419128418,0.32956600189208984,0.9269099235534668
1683931394128327000,3.775326904296875,-0.07372713088989258,0.07222938537597656,1.5666677951812744
1683931394138368800,3.78536865234375,0.026084423065185547,-0.0591278076171875,2.1468918323516846
1683931394148411000,3.795410888671875,0.1511993408203125,-0.20114517211914062,2.6336302757263184
1683931394158453000,3.805452880859375,0.1694960594177246,-0.20608997344970703,2.8826804161071777
1683931394168495000,3.8154951171875,0.08318150043487549,-0.28964996337890625,3.1375057697296143
1683931394178537200,3.825537109375,-0.060877084732055664,-0.4519357681274414,3.2072463035583496
1683931394188579300,3.835579345703125,-0.4121875762939453,-0.6428613662719727,3.027005910873413
1683931394198621400,3.845621337890625,-1.013925313949585,-0.7648191452026367,2.477269172668457
1683931394208663300,3.855663330078125,-1.7317655086517334,-0.7156448364257812,1.6365188360214233
1683931394218705400,3.865705322265625,-2.147408962249756,-0.6579885482788086,0.8853955268859863
1683931394228747500,3.87574755859375,-2.317533254623413,-0.5934295654296875,0.3861391246318817
1683931394238789600,3.88578955078125,-2.2813549041748047,-0.39191341400146484,0.06607535481452942
1683931394248831700,3.895831787109375,-1.9817662239074707,-0.2228565216064453,-0.10119861364364624
1683931394258873900,3.905873779296875,-1.5947140455245972,-0.07250595092773438,-0.3183027505874634
1683931394268915700,3.915915771484375,-1.2029744386672974,-0.08036422729492188,-0.5381565690040588
1683931394278957800,3.925957763671875,-0.9364452362060547,-0.5739259719848633,-0.8562710285186768
1683931394289000000,3.936,-0.6699886322021484,-1.174875259399414,-1.246246337890625
1683931394299042000,3.9460419921875,-0.6684882640838623,-2.014031410217285,-1.8151854276657104
1683931394309084200,3.956084228515625,-1.20858633518219,-3.0761098861694336,-2.4373257160186768
1683931394319126300,3.966126220703125,-2.341947078704834,-4.350921630859375,-3.2632946968078613
1683931394329168100,3.976168212890625,-3.3980584144592285,-5.279606819152832,-3.803795099258423
1683931394339210200,3.986210205078125,-2.8046207427978516,-5.321331977844238,-3.273749351501465
1683931394349252400,3.99625244140625,-1.0415195226669312,-3.9387454986572266,-1.8718464374542236
1683931394359294500,4.00629443359375,0.6820557713508606,-2.0978689193725586,-0.5439295172691345
1683931394369336600,4.016336669921875,2.1011617183685303,-0.6901836395263672,0.566838800907135
1683931394379378700,4.026378662109375,3.1125221252441406,0.27426910400390625,1.2024567127227783
1683931394389420800,4.0364208984375,3.612215757369995,1.0627117156982422,1.3537726402282715
1683931394399463000,4.046462890625,3.7061169147491455,1.6982078552246094,1.265532374382019
1683931394409504800,4.0565048828125,3.6275477409362793,2.427973747253418,1.1546807289123535
1683931394419547000,4.066546875,3.4366061687469482,2.97037410736084,0.9718199968338013
1683931394429589000,4.076589111328125,3.1408214569091797,3.3089656829833984,0.6327691078186035
1683931394439631000,4.086631103515625,2.79302716255188,3.42681884765625,0.2962387502193451
1683931394449673200,4.096673095703125,2.4735631942749023,3.275824546813965,0.09813490509986877
1683931394459715300,4.10671533203125,2.1535086631774902,2.9440245628356934,-0.2567477226257324
1683931394469757400,4.11675732421875,1.8607978820800781,2.433391571044922,-0.7118943929672241
1683931394479799300,4.12679931640625,1.671839952468872,1.798771858215332,-1.132523536682129
1683931394489841400,4.13684130859375,1.4519872665405273,1.1691064834594727,-1.477067470550537
1683931394499883500,4.146883544921875,1.2001571655273438,0.6182575225830078,-1.683319330215454
1683931394509925600,4.156925537109375,0.9351685643196106,0.053241729736328125,-1.7454431056976318
1683931394519967700,4.1669677734375,0.5755540728569031,-0.4316587448120117,-1.8222126960754395
1683931394530009900,4.177009765625,0.1536676287651062,-0.7191076278686523,-1.934570074081421
1683931394540051700,4.1870517578125,-0.20306921005249023,-0.7265901565551758,-2.0997676849365234
1683931394550093800,4.19709375,-0.34529781341552734,-0.7156915664672852,-2.187472343444824
1683931394560136000,4.207135986328125,-0.2400147020816803,-0.4958372116088867,-2.3116774559020996
1683931394570178000,4.217177978515625,0.056618690490722656,-0.23494815826416016,-2.386486530303955
1683931394580220200,4.22722021484375,0.4487680196762085,-0.11203861236572266,-2.116396188735962
1683931394590262300,4.23726220703125,0.9044390916824341,-0.04491710662841797,-1.427125096321106
1683931394600304000,4.24730419921875,1.2796969413757324,0.1437091827392578,-0.9783355593681335
1683931394610346200,4.25734619140625,1.475506067276001,0.15760135650634766,-0.7095931172370911
1683931394620388400,4.267388427734375,1.5441237688064575,0.06451606750488281,-0.2750570774078369
1683931394630430500,4.277430419921875,1.56159245967865,0.19909381866455078,-0.12049490213394165
1683931394640472600,4.28747265625,1.4118720293045044,0.25953006744384766,-0.15596723556518555
1683931394650514700,4.2975146484375,1.20693039894104,0.26718616485595703,-0.14185220003128052
1683931394660556800,4.307556884765625,0.9482674598693848,0.2865180969238281,-0.08682763576507568
1683931394670598700,4.3175986328125,0.6751543879508972,0.2768697738647461,-0.04174882173538208
1683931394680640800,4.327640869140625,0.39390993118286133,0.19774723052978516,-0.11039841175079346
1683931394690683000,4.337682861328125,0.11455860733985901,0.14486122131347656,-0.3571512699127197
1683931394700725000,4.34772509765625,-0.09774401038885117,0.1348276138305664,-0.6342955231666565
1683931394710767000,4.35776708984375,-0.23560866713523865,0.23675155639648438,-0.8077744245529175
1683931394720809200,4.367809326171875,-0.2586149573326111,0.40024375915527344,-0.8450773358345032
1683931394730851300,4.377851318359375,-0.13056999444961548,0.5393123626708984,-0.7323546409606934
1683931394740893200,4.38789306640625,0.11582440137863159,0.5562410354614258,-0.524113118648529
1683931394750935300,4.397935302734375,0.37005478143692017,0.4418373107910156,-0.34375154972076416
1683931394760977400,4.407977294921875,0.5907530784606934,0.3277263641357422,-0.2011270523071289
1683931394771019500,4.41801953125,0.7800658941268921,0.23770713806152344,-0.08178961277008057
1683931394781061600,4.4280615234375,0.8709462285041809,0.14303016662597656,-0.0031402111053466797
1683931394791103700,4.438103759765625,0.8981344699859619,0.0627593994140625,0.03251957893371582
1683931394801145900,4.448145751953125,0.8473203182220459,0.0086822509765625,-0.07128995656967163
1683931394811187700,4.458187744140625,0.8051807880401611,-0.2148590087890625,-0.054858505725860596
1683931394821229800,4.468229736328125,0.76304030418396,-0.27297401428222656,-0.16838008165359497
1683931394831272000,4.47827197265625,0.6711512207984924,-0.2212696075439453,-0.3815465569496155
1683931394841314000,4.48831396484375,0.6011677980422974,-0.15094566345214844,-0.441359281539917
1683931394851356200,4.498356201171875,0.45535966753959656,-0.03808307647705078,-0.4187105894088745
1683931394861398300,4.508398193359375,0.2856515049934387,0.062453269958496094,-0.4489416480064392
1683931394871440400,4.5184404296875,0.13299697637557983,0.1364879608154297,-0.533941388130188
1683931394881482200,4.528482177734375,0.014106392860412598,0.12448596954345703,-0.596464991569519
1683931394891524400,4.5385244140625,-0.012850582599639893,0.13659191131591797,-0.5456665754318237
1683931394901566500,4.54856640625,-0.004318058490753174,0.24432849884033203,-0.4868054986000061
1683931394911608600,4.558608642578125,0.047192394733428955,0.3207893371582031,-0.3913375735282898
1683931394921650700,4.568650634765625,0.08788228034973145,0.26807117462158203,-0.28088247776031494
1683931394931692800,4.57869287109375,0.15559172630310059,0.23691272735595703,-0.12433141469955444
1683931394941735000,4.58873486328125,0.22147917747497559,0.17711639404296875,0.03509116172790527
1683931394951777000,4.598777099609375,0.2759712338447571,0.07444095611572266,0.17083001136779785
1683931394961819000,4.60881884765625,0.3382856845855713,0.11269474029541016,0.16322267055511475
1683931394971861000,4.618861083984375,0.3622046709060669,-0.03565692901611328,0.32008469104766846
1683931394981903000,4.628903076171875,0.4567651152610779,-0.03570270538330078,0.37642383575439453
1683931394991945200,4.6389453125,0.4662740230560303,0.02126598358154297,0.3482930064201355
1683931395001987300,4.6489873046875,0.46256452798843384,0.1063222885131836,0.36359459161758423
1683931395012029400,4.659029541015625,0.4720611572265625,0.15969276428222656,0.42919766902923584
1683931395022071600,4.669071533203125,0.4807881712913513,0.19581127166748047,0.48984020948410034
1683931395032113400,4.679113525390625,0.4935765862464905,0.1645650863647461,0.535849928855896
1683931395042155500,4.689155517578125,0.4721025824546814,0.1902942657470703,0.6219761371612549
1683931395052197600,4.69919775390625,0.45937567949295044,0.27527427673339844,0.7524104118347168
1683931395062239700,4.70923974609375,0.4719504117965698,0.27371883392333984,0.8596215844154358
1683931395072281900,4.71928173828125,0.4464048147201538,0.2326955795288086,0.9158269166946411
1683931395082324000,4.729323974609375,0.4418492913246155,0.23209571838378906,0.9742252826690674
1683931395092366000,4.739365966796875,0.4577980637550354,0.19349288940429688,1.0163023471832275
1683931395102408000,4.749407958984375,0.430186927318573,0.11748218536376953,1.0471246242523193
1683931395112450000,4.759449951171875,0.3945860266685486,0.044857025146484375,1.19718599319458
1683931395122492200,4.7694921875,0.36981576681137085,-0.10196113586425781,1.3031498193740845
1683931395132534300,4.7795341796875,0.2941857576370239,-0.12417316436767578,1.2516118288040161
1683931395142576400,4.789576416015625,0.22232484817504883,-0.2121715545654297,1.421376347541809
1683931395152618500,4.799618408203125,0.12829220294952393,-0.1976156234741211,1.473816156387329
1683931395162660600,4.80966064453125,0.012843608856201172,-0.2586660385131836,1.5445533990859985
1683931395172702500,4.819702392578125,-0.1254483461380005,-0.24343013763427734,1.4668549299240112
1683931395182744600,4.82974462890625,-0.2904210090637207,-0.32970523834228516,1.4104312658309937
1683931395192786700,4.83978662109375,-0.429279625415802,-0.47765541076660156,1.2803370952606201
1683931395202828800,4.849828857421875,-0.5799989104270935,-0.5849342346191406,1.0491887331008911
1683931395212871000,4.859870849609375,-0.7164226174354553,-0.49013328552246094,0.7188491821289062
1683931395222913000,4.8699130859375,-0.8567199110984802,-0.29361820220947266,0.40797698497772217
1683931395232955100,4.879955078125,-1.0286608934402466,-0.19006824493408203,0.26633572578430176
1683931395242997000,4.8899970703125,-1.1085525751113892,-0.19618606567382812,0.2661947011947632
1683931395253039000,4.9000390625,-1.0965111255645752,-0.15683269500732422,0.3079185485839844
1683931395263081200,4.910081298828125,-0.9872297048568726,-0.24471569061279297,0.39347541332244873
1683931395273123300,4.920123291015625,-0.8103529810905457,-0.40151500701904297,0.5457668304443359
1683931395283165400,4.93016552734375,-0.5867067575454712,-0.522730827331543,0.8543781042098999
1683931395293207600,4.94020751953125,-0.414344847202301,-0.637333869934082,1.1388155221939087
1683931395303249700,4.950249755859375,-0.30146414041519165,-0.6536369323730469,1.3771452903747559
1683931395313291500,4.96029150390625,-0.22400903701782227,-0.6555852890014648,1.5953673124313354
1683931395323333600,4.970333740234375,-0.1689528226852417,-0.6761064529418945,1.7433968782424927
1683931395333375700,4.980375732421875,-0.14898210763931274,-0.7074823379516602,1.8753437995910645
1683931395343417900,4.99041796875,-0.11071443557739258,-0.7044944763183594,1.9174275398254395
1683931395353460000,5.0004599609375,-0.07584917545318604,-0.7701377868652344,2.0614986419677734
1683931395363502000,5.010502197265625,-0.030881047248840332,-0.7219247817993164,2.0464255809783936
1683931395373544200,5.020544189453125,-0.0857466459274292,-0.7223091125488281,1.9739735126495361
1683931395383586000,5.0305859375,-0.12738710641860962,-0.7233457565307617,1.786881923675537
1683931395393628200,5.040628173828125,-0.2594531774520874,-0.69635009765625,1.447809100151062
1683931395403670300,5.050670166015625,-0.4256551265716553,-0.7430229187011719,1.0511634349822998
1683931395413712400,5.06071240234375,-0.621573805809021,-0.766143798828125,0.6293421983718872
1683931395423754500,5.07075439453125,-0.8771811127662659,-0.6363801956176758,0.17118752002716064
1683931395433796600,5.080796630859375,-1.1335768699645996,-0.4483909606933594,-0.3804816007614136
1683931395443838700,5.090838623046875,-1.332452654838562,-0.14503765106201172,-0.8481906652450562
1683931395453880800,5.100880859375,-1.2552428245544434,0.23991775512695312,-1.0673586130142212
1683931395463922700,5.110922607421875,-1.0818822383880615,0.6006813049316406,-1.2797751426696777
1683931395473964800,5.12096484375,-0.8876253366470337,0.8527669906616211,-1.5783486366271973
1683931395484007000,5.1310068359375,-0.786867618560791,1.0027122497558594,-2.1092591285705566
1683931395494049000,5.141049072265625,-0.6519553661346436,1.0217018127441406,-2.5185656547546387
1683931395504091100,5.151091064453125,-0.5501214265823364,0.912384033203125,-2.78939151763916
1683931395514133200,5.16113330078125,-0.5317894816398621,0.6752452850341797,-2.9819517135620117
1683931395524175400,5.17117529296875,-0.5053154826164246,0.4995107650756836,-2.9467759132385254
1683931395534217200,5.18121728515625,-0.4669904112815857,0.23011302947998047,-2.70304799079895
1683931395544259300,5.19125927734375,-0.33913666009902954,-0.032623291015625,-2.722104072570801
1683931395554301400,5.201301513671875,-0.08782592415809631,-0.019525527954101562,-2.7152180671691895
1683931395564343600,5.211343505859375,0.3571872115135193,-0.1539754867553711,-2.3780574798583984
1683931395574385700,5.2213857421875,0.8206931948661804,-0.3371763229370117,-1.9265756607055664
1683931395584427800,5.231427734375,1.161452293395996,-0.42999839782714844,-1.5632330179214478
1683931395594470000,5.241469970703125,1.282726764678955,-0.5801858901977539,-1.2423181533813477
1683931395604512000,5.251511962890625,1.3253172636032104,-0.7176809310913086,-0.9345260262489319
1683931395614553900,5.261553955078125,1.3263310194015503,-0.6824312210083008,-0.8214683532714844
1683931395624596000,5.271595947265625,1.3189136981964111,-0.6160697937011719,-0.811638593673706
1683931395634638000,5.28163818359375,1.235758662223816,-0.5690250396728516,-0.7628224492073059
1683931395644680200,5.29168017578125,1.147587776184082,-0.4481363296508789,-0.635254442691803
1683931395654722300,5.301722412109375,1.0612958669662476,-0.35135364532470703,-0.5070169568061829
1683931395664764400,5.311764404296875,0.9516545534133911,-0.24982643127441406,-0.4590557813644409
1683931395674806500,5.321806640625,0.8075481653213501,-0.11722660064697266,-0.5176942348480225
1683931395684848600,5.3318486328125,0.5877418518066406,0.048752784729003906,-0.5939714312553406
1683931395694890500,5.341890380859375,0.26270586252212524,0.2908639907836914,-0.7364224195480347
1683931395704932600,5.3519326171875,-0.06623446941375732,0.4915800094604492,-0.9041595458984375
1683931395714974700,5.361974609375,-0.3739006519317627,0.6887989044189453,-1.2190768718719482
1683931395725016800,5.372016845703125,-0.42829906940460205,0.9346799850463867,-1.5391227006912231
1683931395735059000,5.382058837890625,-0.2557774782180786,1.1549444198608398,-1.836607813835144
1683931395745101000,5.39210107421875,0.0847705602645874,1.3783721923828125,-1.9894639253616333
1683931395755143200,5.40214306640625,0.3666917085647583,1.516819953918457,-2.170734167098999
1683931395765185000,5.41218505859375,0.5926035046577454,1.4802055358886719,-2.2396020889282227
1683931395775227100,5.42222705078125,0.7607805728912354,1.4580354690551758,-2.3473448753356934
1683931395785269200,5.432269287109375,0.9368763566017151,1.2715082168579102,-2.3964192867279053
1683931395795311400,5.442311279296875,1.057891607284546,0.9547214508056641,-2.5035512447357178
1683931395805353500,5.452353515625,1.1798611879348755,0.651646614074707,-2.578016757965088
1683931395815395600,5.4623955078125,1.1340937614440918,0.25517749786376953,-2.5298497676849365
1683931395825437700,5.472437744140625,0.8857466578483582,0.1904621124267578,-2.508556604385376
1683931395835479600,5.4824794921875,0.43613505363464355,0.048066139221191406,-2.285210609436035
1683931395845521700,5.492521728515625,-0.09538793563842773,-0.1458597183227539,-1.9050188064575195
1683931395855563800,5.502563720703125,-0.62619948387146,-0.32013511657714844,-1.479287028312683
1683931395865606000,5.51260595703125,-1.0368472337722778,-0.41355323791503906,-1.0730156898498535
1683931395875648000,5.52264794921875,-1.2015002965927124,-0.34590721130371094,-0.8125742673873901
1683931395885690000,5.532690185546875,-1.1280468702316284,-0.23508834838867188,-0.7803811430931091
1683931395895732200,5.542732177734375,-0.8632862567901611,-0.18146419525146484,-0.8006089925765991
1683931395905774000,5.552774169921875,-0.5564957857131958,-0.12710094451904297,-0.8061411380767822
1683931395915816200,5.562816162109375,-0.1979210376739502,0.014783859252929688,-0.7749078273773193
1683931395925858300,5.5728583984375,0.13896727561950684,0.1659717559814453,-0.7679771184921265
1683931395935900400,5.582900390625,0.43907177448272705,0.3104114532470703,-0.7619003653526306
1683931395945942500,5.592942626953125,0.6700321435928345,0.553558349609375,-0.8286678194999695
1683931395955984600,5.602984619140625,0.751935601234436,0.7254524230957031,-0.8494192361831665
1683931395966026800,5.61302685546875,0.7638306617736816,0.9332799911499023,-1.0760939121246338
1683931395976068600,5.623068603515625,0.7955998182296753,1.09783935546875,-1.2714678049087524
1683931395986110700,5.63311083984375,0.8236277103424072,1.207219123840332,-1.4188053607940674
1683931395996152800,5.64315283203125,0.8614193201065063,1.3286027908325195,-1.4286130666732788
1683931396006195000,5.65319482421875,0.9051781892776489,1.338099479675293,-1.3637793064117432
1683931396016237000,5.663237060546875,0.8676605224609375,1.2338905334472656,-1.3489525318145752
1683931396026279200,5.673279052734375,0.8169021606445312,1.0093975067138672,-1.2686431407928467
1683931396036321300,5.6833212890625,0.7207038402557373,0.7153024673461914,-1.18221116065979
1683931396046363100,5.693363037109375,0.5485374927520752,0.4662666320800781,-1.1207377910614014
1683931396056405200,5.7034052734375,0.2683241367340088,0.2570466995239258,-1.0694024562835693
1683931396066447400,5.713447265625,-0.134918212890625,0.03934288024902344,-0.9966403841972351
1683931396076489500,5.723489501953125,-0.5295276641845703,-0.11580371856689453,-0.7836818099021912
1683931396086531600,5.733531494140625,-1.1437907218933105,-0.30289363861083984,-0.49385276436805725
1683931396096573700,5.74357373046875,-2.0775046348571777,-0.5522041320800781,-0.04177665710449219
1683931396106615800,5.75361572265625,-3.1059763431549072,-0.8290395736694336,0.5442739129066467
1683931396116657700,5.76365771484375,-3.2505135536193848,-1.0276594161987305,0.8567706346511841
1683931396126699800,5.77369970703125,-2.631148338317871,-0.8094911575317383,0.6233572363853455
1683931396136742000,5.783741943359375,-1.6570208072662354,-0.4340372085571289,0.26485657691955566
1683931396146784000,5.793783935546875,-0.7004823684692383,-0.19201946258544922,0.0327359139919281
1683931396156826000,5.803826171875,-0.07643699645996094,-0.2259998321533203,-0.1337851881980896
1683931396166868200,5.8138681640625,0.34714818000793457,-0.1388683319091797,-0.4273506999015808
1683931396176910300,5.823910400390625,0.7679570913314819,0.03530597686767578,-0.6637191772460938
1683931396186952200,5.8339521484375,1.2390788793563843,0.46756744384765625,-0.8350900411605835
1683931396196994300,5.843994384765625,1.7102375030517578,1.0539970397949219,-0.9741461277008057
1683931396207036400,5.854036376953125,2.0997776985168457,1.553121566772461,-0.9888792037963867
1683931396217078500,5.86407861328125,2.259936571121216,1.6028060913085938,-0.8753535747528076
1683931396227120600,5.87412060546875,2.0480382442474365,1.2932100296020508,-0.7499345541000366
1683931396237162800,5.884162841796875,1.5828295946121216,1.0101604461669922,-0.6920527219772339
1683931396247204900,5.894204833984375,0.981537938117981,0.9256353378295898,-0.6468679904937744
1683931396257246700,5.904246826171875,0.2389688491821289,0.9240779876708984,-0.638751745223999
1683931396267288800,5.914288818359375,-0.43317532539367676,0.9542121887207031,-0.721287190914154
1683931396277331000,5.9243310546875,-0.9617679119110107,0.9027643203735352,-0.7437926530838013
1683931396287373000,5.934373046875,-1.0703096389770508,0.788578987121582,-0.60343337059021
1683931396297415200,5.944415283203125,-0.8295085430145264,0.6645050048828125,-0.4040576219558716
1683931396307457300,5.954457275390625,-0.3422389030456543,0.6646976470947266,-0.20920491218566895
1683931396317499400,5.96449951171875,0.14355182647705078,0.7747659683227539,-0.047757863998413086
1683931396327541200,5.974541259765625,0.5579769611358643,0.7795839309692383,0.105854332447052
1683931396337583400,5.984583251953125,0.8801382780075073,0.6816921234130859,0.1297546923160553
1683931396347625500,5.99462548828125,1.0225411653518677,0.5648326873779297,0.0014182329177856445
1683931396357667600,6.00466748046875,1.0063762664794922,0.4675474166870117,-0.21155253052711487
1683931396367709700,6.014709716796875,0.8510370254516602,0.43347644805908203,-0.46772587299346924
1683931396377751800,6.024751708984375,0.6019879579544067,0.47021961212158203,-0.8833902478218079
1683931396387793700,6.034793701171875,0.26511430740356445,0.5037641525268555,-1.424678921699524
1683931396397835800,6.044835693359375,-0.1499772071838379,0.5052709579467773,-1.9975895881652832
1683931396407878000,6.0548779296875,-0.5919480323791504,0.534022331237793,-2.6109116077423096
1683931396417920000,6.064919921875,-0.9438974857330322,0.4698810577392578,-2.929417133331299
1683931396427962000,6.074962158203125,-1.1724300384521484,0.4223470687866211,-3.0316882133483887
1683931396438004200,6.085004150390625,-1.2632880210876465,0.44814586639404297,-2.941100597381592
1683931396448046300,6.09504638671875,-1.2579748630523682,0.4226665496826172,-2.746314764022827
1683931396458088200,6.105088134765625,-1.1213806867599487,0.34641456604003906,-2.341094732284546
1683931396468130300,6.11513037109375,-0.787195086479187,0.24421024322509766,-1.9748518466949463
1683931396478172400,6.12517236328125,-0.2803325653076172,-0.050357818603515625,-1.624429702758789
1683931396488214500,6.135214599609375,0.11498486995697021,-0.4218721389770508,-1.3081085681915283
1683931396498256600,6.145256591796875,0.19289898872375488,-0.681666374206543,-1.2305073738098145
1683931396508298800,6.155298828125,-0.08627712726593018,-0.7277984619140625,-1.2725250720977783
1683931396518340900,6.1653408203125,-0.5843627452850342,-0.6974039077758789,-1.2149523496627808
1683931396528382700,6.1753828125,-1.1621274948120117,-0.7868890762329102,-0.7920766472816467
1683931396538424800,6.1854248046875,-1.6953212022781372,-1.1703271865844727,-0.020509183406829834
1683931396548467000,6.195467041015625,-2.124335765838623,-1.6344470977783203,0.799480676651001
1683931396558509000,6.205509033203125,-2.453075408935547,-1.7972583770751953,1.5209839344024658
1683931396568551200,6.21555126953125,-2.540445327758789,-1.8149957656860352,2.2038092613220215
1683931396578593300,6.22559326171875,-1.982174277305603,-1.9240350723266602,2.8063242435455322
1683931396588635400,6.235635498046875,-1.1004596948623657,-1.9063282012939453,3.080170154571533
1683931396598677200,6.24567724609375,-0.3950401544570923,-1.8602561950683594,2.941709041595459
1683931396608719400,6.25571923828125,0.1579195261001587,-1.7480030059814453,2.600700616836548
1683931396618761500,6.265761474609375,0.38470619916915894,-1.5218725204467773,2.2451791763305664
1683931396628803600,6.275803466796875,0.5024011731147766,-1.1028881072998047,1.7746055126190186
1683931396638845700,6.285845703125,0.5354570746421814,-0.49810791015625,1.3565961122512817
1683931396648887800,6.2958876953125,0.5173396468162537,0.2281332015991211,0.8694456219673157
1683931396658930000,6.305929931640625,0.36161917448043823,0.9659128189086914,0.21314716339111328
1683931396668971800,6.3159716796875,0.21454870700836182,1.3661308288574219,-0.7178032994270325
1683931396679014000,6.326013916015625,0.15474224090576172,1.3500375747680664,-1.6868830919265747
1683931396689056000,6.336055908203125,0.14405500888824463,1.3095502853393555,-2.5303092002868652
1683931396699098000,6.34609814453125,0.2544974088668823,1.4307775497436523,-2.9306414127349854
1683931396709140200,6.35614013671875,0.2980552315711975,1.4865646362304688,-2.849346876144409
1683931396719182300,6.366182373046875,0.23423463106155396,1.4962730407714844,-2.7290894985198975
1683931396729224200,6.37622412109375,0.19372957944869995,1.4528999328613281,-2.7225825786590576
1683931396739266300,6.386266357421875,0.1117507815361023,1.351729393005371,-2.6843461990356445
1683931396749308400,6.396308349609375,0.07383066415786743,1.376753807067871,-2.435298442840576
1683931396759350500,6.4063505859375,0.23801246285438538,1.5014724731445312,-2.160604953765869
1683931396769392600,6.416392578125,0.438677042722702,1.259760856628418,-1.963423490524292
1683931396779434800,6.426434814453125,0.5615574717521667,0.8386449813842773,-1.6554408073425293
1683931396789476900,6.436476806640625,0.7238506078720093,0.6063899993896484,-1.3595081567764282
1683931396799518700,6.446518798828125,0.9392964839935303,0.3311128616333008,-1.1397669315338135
1683931396809560800,6.456560791015625,1.1567517518997192,0.09441471099853516,-0.9885169863700867
1683931396819603000,6.46660302734375,1.362441062927246,-0.12983322143554688,-0.9951694011688232
1683931396829645000,6.47664501953125,1.467534065246582,-0.2508392333984375,-1.080366849899292
1683931396839687200,6.486687255859375,1.5301867723464966,-0.23780155181884766,-1.1648998260498047
1683931396849729300,6.496729248046875,1.5436503887176514,-0.14836597442626953,-1.1946128606796265
1683931396859771400,6.506771484375,1.5751819610595703,-0.02339935302734375,-1.2174568176269531
1683931396869813200,6.516813232421875,1.6027621030807495,0.09871673583984375,-1.2040767669677734
1683931396879855400,6.52685546875,1.6971182823181152,0.11768722534179688,-1.2426117658615112
1683931396889897500,6.5368974609375,1.7140109539031982,0.11975765228271484,-1.184863567352295
1683931396899939600,6.546939697265625,1.6936537027359009,0.10256576538085938,-1.210348129272461
1683931396909981700,6.556981689453125,1.5158543586730957,0.09475231170654297,-1.2093145847320557
1683931396920023600,6.5670234375,1.273208498954773,0.06276798248291016,-1.274949312210083
1683931396930065700,6.577065673828125,0.9948853850364685,0.03040790557861328,-1.2433323860168457
1683931396940107800,6.587107666015625,0.7804937362670898,0.03345775604248047,-1.1550023555755615
1683931396950150000,6.59714990234375,0.5848895311355591,-0.06665897369384766,-0.9772051572799683
1683931396960192000,6.60719189453125,0.36538147926330566,-0.12636852264404297,-0.7440276145935059
1683931396970234000,6.617234130859375,0.21140941977500916,-0.17435455322265625,-0.4825062155723572
1683931396980276200,6.627276123046875,0.020520776510238647,-0.24148273468017578,-0.27480369806289673
1683931396990318000,6.637318115234375,-0.16567039489746094,-0.23192787170410156,-0.14983129501342773
1683931397000360200,6.647360107421875,-0.27759116888046265,-0.1337738037109375,-0.1278824806213379
1683931397010402300,6.65740234375,-0.2955344021320343,-0.04264545440673828,-0.15096431970596313
1683931397020444400,6.6674443359375,-0.2046104371547699,0.11786365509033203,-0.11597168445587158
1683931397030486500,6.677486572265625,-0.09353911876678467,0.23048877716064453,-0.044893085956573486
1683931397040528600,6.687528564453125,0.002375185489654541,0.24755382537841797,-0.014850854873657227
1683931397050570800,6.69757080078125,0.09255731105804443,0.24815082550048828,-0.05729484558105469
1683931397060612600,6.707612548828125,0.19903355836868286,0.28246498107910156,-0.10221737623214722
1683931397070654700,6.71765478515625,0.3046749234199524,0.26196765899658203,-0.1990317702293396
1683931397080696800,6.72769677734375,0.46996623277664185,0.29176807403564453,-0.22104674577713013
1683931397090739000,6.737739013671875,0.637755274772644,0.2474365234375,-0.2305893898010254
1683931397100781000,6.747781005859375,0.730251669883728,0.19344139099121094,-0.3410876393318176
1683931397110823200,6.7578232421875,0.8127502799034119,0.13704967498779297,-0.2367311716079712
1683931397120865000,6.767864990234375,0.8709389567375183,0.13563156127929688,-0.26959627866744995
1683931397130907100,6.7779072265625,0.9006721377372742,0.1483478546142578,-0.31846320629119873
1683931397140949200,6.78794921875,0.964321494102478,0.11784934997558594,-0.28288233280181885
1683931397150991400,6.797991455078125,0.9597512483596802,-0.020334243774414062,-0.307431161403656
1683931397161033500,6.808033447265625,0.9466083645820618,-0.18941783905029297,-0.10181969404220581
1683931397171075600,6.81807568359375,0.9197155833244324,-0.1242532730102539,-0.04893958568572998
1683931397181117700,6.82811767578125,0.9090836048126221,-0.19313335418701172,0.1702108383178711
1683931397191159600,6.83815966796875,0.8501905798912048,-0.20703983306884766,0.21110093593597412
1683931397201201700,6.84820166015625,0.7418664693832397,-0.24033451080322266,0.23419219255447388
1683931397211243800,6.858243896484375,0.5802125334739685,-0.22859573364257812,0.27665650844573975
1683931397221286000,6.868285888671875,0.4795103073120117,-0.23385047912597656,0.4963885545730591
1683931397231328000,6.878327880859375,0.38204824924468994,-0.24871540069580078,0.6021087169647217
1683931397241369900,6.888369873046875,0.3240606188774109,-0.20155620574951172,0.6878018975257874
1683931397251412000,6.898411865234375,0.19632655382156372,-0.14283275604248047,0.7481211423873901
1683931397261454000,6.9084541015625,0.10047310590744019,-0.05344390869140625,0.8361830711364746
1683931397271496200,6.91849609375,0.0017891526222229004,0.04518699645996094,0.9466860294342041
1683931397281538300,6.928538330078125,-0.07993835210800171,0.050472259521484375,1.0527966022491455
1683931397291580400,6.938580322265625,-0.12795066833496094,0.10124874114990234,1.1562883853912354
1683931397301622500,6.94862255859375,-0.16882503032684326,0.1496896743774414,1.1946316957473755
1683931397311664400,6.958664306640625,-0.1889997124671936,0.15040874481201172,1.2847009897232056
1683931397321706500,6.96870654296875,-0.18970578908920288,0.11780643463134766,1.3806393146514893
1683931397331748600,6.97874853515625,-0.2052828073501587,0.03997325897216797,1.4225908517837524
1683931397341790700,6.988790771484375,-0.22654229402542114,0.05547142028808594,1.4586681127548218
1683931397351832800,6.998832763671875,-0.2817942500114441,0.14969158172607422,1.4703829288482666
1683931397361874700,7.008874755859375,-0.3797573447227478,0.16719913482666016,1.4536100625991821
1683931397371916800,7.018916748046875,-0.4433385133743286,0.12250232696533203,1.3659114837646484
1683931397381959000,7.028958984375,-0.5437164902687073,0.08262920379638672,1.2340850830078125
1683931397392001000,7.0390009765625,-0.6062086820602417,-0.014506340026855469,1.0154883861541748
1683931397402043100,7.049043212890625,-0.697097659111023,-0.05177879333496094,0.7540271878242493
1683931397412085200,7.059085205078125,-0.7054460644721985,-0.06760787963867188,0.5439565777778625
1683931397422127400,7.06912744140625,-0.7171123027801514,-0.13608074188232422,0.44732028245925903
1683931397432169500,7.07916943359375,-0.680579662322998,-0.20215415954589844,0.448744535446167
1683931397442211300,7.08921142578125,-0.5887574553489685,-0.20388126373291016,0.46845388412475586
1683931397452253400,7.09925341796875,-0.4849177598953247,-0.2078075408935547,0.5525778532028198
1683931397462295600,7.109295654296875,-0.39087510108947754,-0.1791400909423828,0.6283898949623108
1683931397472337700,7.119337646484375,-0.3653618097305298,-0.18669986724853516,0.6890089511871338
1683931397482379800,7.1293798828125,-0.37811410427093506,-0.1545095443725586,0.7349495887756348
1683931397492421600,7.139421630859375,-0.424278199672699,-0.13487911224365234,0.7595899105072021
1683931397502463700,7.149463623046875,-0.4827497601509094,-0.04744243621826172,0.8012163639068604
1683931397512505900,7.159505859375,-0.48361632227897644,-0.006258964538574219,0.8622442483901978
1683931397522548000,7.1695478515625,-0.4814503788948059,-0.015223503112792969,0.8976209163665771
1683931397532590000,7.179590087890625,-0.43242254853248596,-0.037906646728515625,1.011617660522461
1683931397542632200,7.189632080078125,-0.35951822996139526,-0.0435028076171875,1.0284030437469482
1683931397552674000,7.199674072265625,-0.32004088163375854,-0.107879638671875,1.070872187614441
1683931397562716200,7.209716064453125,-0.29252439737319946,-0.16406917572021484,1.1427817344665527
1683931397572758300,7.21975830078125,-0.2751239538192749,-0.25919151306152344,1.191016435623169
1683931397582800400,7.22980029296875,-0.25258868932724,-0.35505199432373047,1.2065889835357666
1683931397592842500,7.239842529296875,-0.2747330069541931,-0.44962406158447266,1.1187968254089355
1683931397602884600,7.249884521484375,-0.3620280921459198,-0.6253671646118164,1.099035382270813
1683931397612926500,7.259926513671875,-0.4174504280090332,-0.6851434707641602,1.129746913909912
1683931397622968600,7.269968505859375,-0.4888041317462921,-0.6776409149169922,1.1353850364685059
1683931397633010700,7.2800107421875,-0.5861883163452148,-0.5335969924926758,1.0712788105010986
1683931397643052800,7.290052734375,-0.6456625461578369,-0.4060640335083008,1.0673238039016724
1683931397653095000,7.300094970703125,-0.6825560927391052,-0.41921520233154297,1.1452105045318604
1683931397663137000,7.310136962890625,-0.6890370845794678,-0.44326114654541016,1.2318682670593262
1683931397673179000,7.320178955078125,-0.6181497573852539,-0.5767393112182617,1.3689098358154297
1683931397683221000,7.330220947265625,-0.5214138627052307,-0.6764564514160156,1.4956938028335571
1683931397693263000,7.34026318359375,-0.4010348916053772,-0.742924690246582,1.6419832706451416
1683931397703305200,7.35030517578125,-0.2597913146018982,-0.8191099166870117,1.724208950996399
1683931397713347300,7.360347412109375,-0.12675172090530396,-0.8177604675292969,1.6599034070968628
1683931397723389400,7.370389404296875,-0.10463738441467285,-0.7003984451293945,1.4426087141036987
1683931397733431300,7.380431396484375,-0.1883540153503418,-0.4082612991333008,1.05668306350708
1683931397743473400,7.390473388671875,-0.31931179761886597,-0.04360771179199219,0.7228403091430664
1683931397753515500,7.400515625,-0.46547576785087585,0.265045166015625,0.45671355724334717
1683931397763557600,7.4105576171875,-0.5792345404624939,0.5754165649414062,0.3038874864578247
1683931397773599700,7.420599853515625,-0.6659253239631653,0.8386344909667969,0.2318788766860962
1683931397783641900,7.430641845703125,-0.7037054896354675,1.0678348541259766,0.17759573459625244
1683931397793683700,7.44068359375,-0.6893457770347595,1.2427978515625,0.11916518211364746
1683931397803725800,7.450725830078125,-0.6892458200454712,1.3412837982177734,-0.056760549545288086
1683931397813768000,7.460767822265625,-0.6906337738037109,1.204859733581543,-0.26528024673461914
1683931397823810000,7.47081005859375,-0.7492599487304688,0.986846923828125,-0.5232137441635132
1683931397833852200,7.48085205078125,-0.8568359613418579,0.7677755355834961,-0.9259347915649414
1683931397843894000,7.49089404296875,-0.9492742419242859,0.48243141174316406,-1.1771732568740845
1683931397853936000,7.50093603515625,-1.034575343132019,0.23109722137451172,-1.3620725870132446
1683931397863978200,7.510978271484375,-1.064138650894165,0.023512840270996094,-1.4279099702835083
1683931397874020400,7.521020263671875,-1.0624452829360962,-0.2094879150390625,-1.5372487306594849
1683931397884062500,7.5310625,-1.0697431564331055,-0.4106006622314453,-1.6981950998306274
1683931397894104600,7.5411044921875,-1.1145673990249634,-0.6375837326049805,-1.9382269382476807
1683931397904146700,7.551146728515625,-1.1742184162139893,-0.8047637939453125,-2.1934261322021484
1683931397914188500,7.5611884765625,-1.2240049839019775,-0.9746828079223633,-2.4906063079833984
1683931397924230700,7.571230712890625,-1.209036111831665,-0.9685354232788086,-2.6391148567199707
1683931397934272800,7.581272705078125,-1.0132498741149902,-0.9731769561767578,-2.6390695571899414
1683931397944315000,7.59131494140625,-0.6502183079719543,-0.8596258163452148,-2.5681190490722656
1683931397954357000,7.60135693359375,-0.27651455998420715,-0.7664995193481445,-2.428171157836914
1683931397964399000,7.611399169921875,0.04471483826637268,-0.5836858749389648,-2.215597629547119
1683931397974441000,7.62144091796875,0.3678628206253052,-0.3065919876098633,-2.070323944091797
1683931397984483000,7.631483154296875,0.6517317295074463,-0.10017967224121094,-1.8014602661132812
1683931397994525200,7.641525146484375,0.8746556043624878,-0.0761728286743164,-1.437689185142517
1683931398004567300,7.6515673828125,0.9472901821136475,-0.0594024658203125,-1.1637542247772217
1683931398014609400,7.661609375,0.941462516784668,0.04358863830566406,-0.8965559005737305
1683931398024651300,7.6716513671875,0.9357647895812988,0.08007049560546875,-0.5800026655197144
1683931398034693400,7.681693359375,0.8222090005874634,0.12687969207763672,-0.4013964533805847
1683931398044735500,7.691735595703125,0.5994699001312256,0.19115066528320312,-0.33882641792297363
1683931398054777600,7.701777587890625,0.30383777618408203,0.25112247467041016,-0.2841017246246338
1683931398064819700,7.71181982421875,-0.09099215269088745,0.29689979553222656,-0.3304094076156616
1683931398074861600,7.721861572265625,-0.6146752834320068,0.37102317810058594,-0.6087767481803894
1683931398084903700,7.731903564453125,-0.9183984994888306,0.45386791229248047,-0.8764523863792419
1683931398094945800,7.74194580078125,-1.0444412231445312,0.4998493194580078,-1.0536442995071411
1683931398104988000,7.75198779296875,-1.1910772323608398,0.48267555236816406,-1.349869966506958
1683931398115030000,7.762030029296875,-1.2369823455810547,0.5958318710327148,-1.5792369842529297
1683931398125072100,7.772072021484375,-1.1501011848449707,0.7004871368408203,-1.6861636638641357
1683931398135114200,7.7821142578125,-0.9815701246261597,0.8467998504638672,-1.7874057292938232
1683931398145156000,7.792156005859375,-0.6936451196670532,0.9892330169677734,-1.8203349113464355
1683931398155198200,7.8021982421875,-0.35174763202667236,1.0561790466308594,-1.785325288772583
1683931398165240300,7.812240234375,0.021062612533569336,1.0790529251098633,-1.7004716396331787
1683931398175282400,7.822282470703125,0.34793949127197266,1.0464181900024414,-1.5915265083312988
1683931398185324500,7.832324462890625,0.5592227578163147,0.9540519714355469,-1.5478475093841553
1683931398195366700,7.84236669921875,0.6605066657066345,0.8692235946655273,-1.5332694053649902
1683931398205408500,7.852408447265625,0.5921207070350647,0.7036542892456055,-1.4427515268325806
1683931398215450600,7.86245068359375,0.38582271337509155,0.4743471145629883,-1.186707854270935
1683931398225492700,7.87249267578125,0.03567683696746826,0.3152008056640625,-0.9528721570968628
1683931398235534800,7.882534912109375,-0.3799855709075928,0.2617225646972656,-0.7202524542808533
1683931398245577000,7.892576904296875,-0.7179099321365356,0.2440319061279297,-0.6289049983024597
1683931398255618800,7.902618896484375,-0.937839150428772,0.2855520248413086,-0.5013929009437561
1683931398265661000,7.912660888671875,-0.9029842615127563,0.3525276184082031,-0.37126415967941284
1683931398275703000,7.922703125,-0.7504186630249023,0.5213508605957031,-0.16726696491241455
1683931398285745200,7.9327451171875,-0.4941633939743042,0.6726894378662109,-0.0028114914894104004
1683931398295787300,7.942787353515625,-0.22028648853302002,0.7091274261474609,0.1687895655632019
1683931398305829000,7.9528291015625,0.01430213451385498,0.6003332138061523,0.24630165100097656
1683931398315871200,7.962871337890625,0.19659125804901123,0.4233818054199219,0.37026822566986084
1683931398325913300,7.972913330078125,0.20535993576049805,0.34319210052490234,0.49280160665512085
1683931398335955500,7.98295556640625,0.17390656471252441,0.35919666290283203,0.5050175189971924
1683931398345997600,7.99299755859375,0.165419340133667,0.48753929138183594,0.5071176290512085
1683931398356039700,8.003039794921875,0.23281800746917725,0.6560325622558594,0.51568603515625
1683931398366081500,8.01308154296875,0.30649805068969727,0.7474641799926758,0.551430881023407
1683931398376123600,8.02312353515625,0.3810962438583374,0.7764272689819336,0.6339080929756165
1683931398386165800,8.033165771484375,0.4414792060852051,0.8077116012573242,0.7225102186203003
1683931398396207900,8.043207763671875,0.49624741077423096,0.9036569595336914,0.7592847943305969
1683931398406250000,8.05325,0.4533792734146118,0.9283342361450195,0.8602679371833801
1683931398416292000,8.0632919921875,0.4123222827911377,0.9014434814453125,0.8560693264007568
1683931398426334000,8.073333984375,0.36688530445098877,0.7638378143310547,0.8361728191375732
1683931398436376000,8.0833759765625,0.2517298460006714,0.6187229156494141,0.8620911240577698
1683931398446418200,8.093418212890626,0.045862674713134766,0.423095703125,1.004944920539856
1683931398456460300,8.103460205078125,-0.21801888942718506,0.25324249267578125,1.2305634021759033
1683931398466502400,8.11350244140625,-0.5641077756881714,0.08952808380126953,1.4367778301239014
1683931398476544300,8.123544189453124,-0.9587475061416626,-0.09009647369384766,1.583686351776123
1683931398486586400,8.13358642578125,-1.3138881921768188,-0.26204967498779297,1.7641215324401855
1683931398496628500,8.14362841796875,-1.654466152191162,-0.4361000061035156,1.776656150817871
1683931398506670600,8.153670654296874,-1.843469500541687,-0.4954347610473633,1.6890807151794434
1683931398516712700,8.163712646484376,-1.8755912780761719,-0.4406089782714844,1.4814841747283936
1683931398526754800,8.1737548828125,-1.7324161529541016,-0.3005657196044922,1.3292711973190308
1683931398536796700,8.183796630859375,-1.5250136852264404,-0.1326446533203125,1.1387534141540527
1683931398546838800,8.1938388671875,-1.3258699178695679,0.11816024780273438,0.9526841640472412
1683931398556881000,8.203880859375,-1.1190048456192017,0.3323478698730469,0.6472463607788086
1683931398566923000,8.213923095703125,-0.8676842451095581,0.18305587768554688,0.3474665880203247
1683931398576965000,8.223965087890624,-0.6890522241592407,-0.18030548095703125,0.1392081379890442
1683931398587007200,8.23400732421875,-0.7153816223144531,-0.5034723281860352,-0.0682026743888855
1683931398597049000,8.244049072265625,-0.9613527059555054,-0.681025505065918,-0.29015326499938965
1683931398607091200,8.25409130859375,-1.3286019563674927,-0.5751028060913086,-0.5212111473083496
1683931398617133300,8.26413330078125,-1.6388123035430908,-0.5908632278442383,-0.8190794587135315
1683931398627175400,8.274175537109375,-1.7849607467651367,-0.6929950714111328,-1.0283091068267822
1683931398637217500,8.284217529296875,-1.832388997077942,-0.6025848388671875,-1.1397924423217773
1683931398647259400,8.29425927734375,-1.7768757343292236,-0.4636039733886719,-1.2556151151657104
1683931398657301500,8.304301513671875,-1.4997788667678833,-0.2974557876586914,-1.350907564163208
1683931398667343600,8.314343505859375,-1.2295445203781128,-0.025203704833984375,-1.5001726150512695
1683931398677385700,8.3243857421875,-1.0209771394729614,0.21431827545166016,-1.4999054670333862
1683931398687427800,8.334427734375,-0.8783543109893799,0.1464834213256836,-1.5342439413070679
1683931398697469700,8.3444697265625,-0.941680908203125,-0.1368865966796875,-1.632622241973877
1683931398707511800,8.35451171875,-1.2370550632476807,-0.44606781005859375,-1.7533692121505737
1683931398717554000,8.364553955078126,-1.5677459239959717,-0.5609722137451172,-1.6556453704833984
1683931398727596000,8.374595947265625,-1.5733153820037842,-0.6181020736694336,-1.1211214065551758
1683931398737638100,8.38463818359375,-1.050464153289795,-0.7894649505615234,-0.48015260696411133
1683931398747680000,8.394679931640624,-0.2735872268676758,-1.0197439193725586,0.023369669914245605
1683931398757722000,8.40472216796875,0.42498302459716797,-1.1294851303100586,0.3022993803024292
1683931398767764200,8.41476416015625,0.9528927206993103,-0.8965911865234375,0.45497840642929077
1683931398777806300,8.424806396484374,1.2344517707824707,-0.36464977264404297,0.5273188352584839
1683931398787848400,8.434848388671876,1.429736614227295,0.25073719024658203,0.466796875
1683931398797890600,8.444890625,1.5623445510864258,0.6314563751220703,0.37903130054473877
1683931398807932400,8.454932373046875,1.6247854232788086,0.8708467483520508,0.3129432797431946
1683931398817974500,8.464974609375,1.549657940864563,1.0550470352172852,0.2155287265777588
1683931398828016600,8.4750166015625,1.4070022106170654,1.1486825942993164,0.04958808422088623
1683931398838058800,8.485058837890625,1.1781370639801025,1.1860103607177734,-0.07730603218078613
1683931398848100900,8.495100830078124,0.79030841588974,1.2437820434570312,-0.4055469036102295
1683931398858142700,8.505142822265626,0.2534358501434326,1.1921844482421875,-0.7837181091308594
1683931398868184800,8.515184814453125,-0.28524893522262573,1.0683326721191406,-1.0089867115020752
1683931398878227000,8.52522705078125,-0.6409682631492615,0.9501237869262695,-0.9762692451477051
1683931398888269000,8.53526904296875,-0.7037129402160645,0.6533203125,-0.8069499731063843
1683931398898311200,8.545311279296875,-0.48300209641456604,0.21212005615234375,-0.5367064476013184
1683931398908353000,8.55535302734375,-0.13079440593719482,-0.0811309814453125,-0.3181723356246948
1683931398918395100,8.56539501953125,0.3497653007507324,-0.07828617095947266,-0.15328741073608398
1683931398928437200,8.575437255859375,0.8446358442306519,-0.061547279357910156,-0.04603445529937744
1683931398938479400,8.585479248046875,1.25472891330719,-0.07592010498046875,0.14399003982543945
1683931398948521500,8.595521484375,1.5237867832183838,-0.15201282501220703,0.20763909816741943
1683931398958563600,8.6055634765625,1.6471408605575562,-0.1173858642578125,0.24632751941680908
1683931398968605400,8.61560546875,1.6623919010162354,-0.06531143188476562,0.1540597677230835
1683931398978647600,8.6256474609375,1.5457797050476074,-0.09628582000732422,-0.03292214870452881
1683931398988689700,8.635689697265626,1.3393696546554565,-0.0767221450805664,-0.2944217920303345
1683931398998731800,8.645731689453125,1.1226576566696167,-0.08120059967041016,-0.5735791921615601
1683931399008774000,8.65577392578125,0.9708306193351746,-0.02152538299560547,-0.8309286832809448
1683931399018815700,8.665815673828124,0.8487012982368469,0.16418075561523438,-1.0135315656661987
1683931399028857900,8.67585791015625,0.7644691467285156,0.30368709564208984,-1.1814934015274048
1683931399038900000,8.68589990234375,0.6376482844352722,0.37320518493652344,-1.28004789352417
1683931399048942000,8.695942138671874,0.4984975755214691,0.43491077423095703,-1.4333202838897705
1683931399058984200,8.705984130859376,0.31892797350883484,0.4003467559814453,-1.5593202114105225
1683931399069026000,8.716026123046875,0.12035918235778809,0.32459259033203125,-1.6618462800979614
1683931399079068200,8.726068115234375,-0.08671948313713074,0.3271312713623047,-1.777660846710205
1683931399089110300,8.7361103515625,-0.2624531388282776,0.2503805160522461,-1.660391926765442
1683931399099152400,8.74615234375,-0.41011232137680054,0.2167348861694336,-1.4950323104858398
1683931399109194500,8.756194580078125,-0.38686925172805786,0.21679115295410156,-1.2815550565719604
1683931399119236600,8.766236572265624,-0.23787462711334229,0.19084644317626953,-1.018268346786499
1683931399129278500,8.776278564453126,-0.06276935338973999,0.1675100326538086,-0.7749667167663574
1683931399139320600,8.786320556640625,0.1327860951423645,0.2182455062866211,-0.580257773399353
1683931399149362700,8.79636279296875,0.2917478084564209,0.18047523498535156,-0.4039984941482544
1683931399159404800,8.80640478515625,0.4205244779586792,0.22184276580810547,-0.23673725128173828
1683931399169447000,8.816447021484375,0.49939489364624023,0.22027015686035156,-0.23570120334625244
1683931399179488800,8.82648876953125,0.5826355814933777,0.14945411682128906,-0.21581339836120605
1683931399189531000,8.83653076171875,0.5861034393310547,0.08347892761230469,-0.1931248903274536
1683931399199573000,8.846572998046875,0.5904319882392883,0.08420562744140625,-0.22363746166229248
1683931399209615000,8.856614990234375,0.5618039965629578,-0.05594635009765625,-0.07394468784332275
1683931399219657200,8.8666572265625,0.5118970274925232,-0.07853412628173828,-0.03031158447265625
1683931399229699000,8.876698974609376,0.4437522292137146,-0.10829734802246094,-0.13062286376953125
1683931399239741200,8.8867412109375,0.31784963607788086,-0.10474586486816406,-0.1747671365737915
1683931399249783300,8.896783203125,0.2283000946044922,-0.08459186553955078,-0.12011444568634033
1683931399259825400,8.906825439453126,0.14476805925369263,-0.0429840087890625,-0.12735271453857422
1683931399269867500,8.916867431640625,0.0941159725189209,-0.04685783386230469,-0.14803969860076904
1683931399279909400,8.926909423828125,0.06904995441436768,-0.0102081298828125,-0.1767280101776123
1683931399289951500,8.936951416015624,0.06448733806610107,0.06195545196533203,-0.14084792137145996
1683931399299993600,8.94699365234375,0.054173946380615234,0.01667022705078125,-0.11907577514648438
1683931399310035700,8.95703564453125,0.03998672962188721,-0.06421756744384766,0.07653474807739258
1683931399320077800,8.967077880859375,0.049846768379211426,-0.054042816162109375,0.06297421455383301
1683931399330120000,8.977119873046876,0.05266183614730835,-0.04883384704589844,0.026777267456054688
1683931399340161800,8.987161865234375,0.03847867250442505,-0.06302356719970703,0.09992861747741699
1683931399350204000,8.997203857421875,0.047740399837493896,-0.02492046356201172,0.14105796813964844
1683931399360246000,9.00724609375,0.021151721477508545,-0.008759498596191406,0.1271282434463501
1683931399370288000,9.0172880859375,-0.010685324668884277,-0.10737895965576172,0.30448412895202637
1683931399380330200,9.027330322265625,-0.04789191484451294,-0.04333972930908203,0.2990705966949463
1683931399390372000,9.0373720703125,-0.09461700916290283,0.013212203979492188,0.27062559127807617
1683931399400414200,9.047414306640626,-0.11914074420928955,0.028882980346679688,0.34841012954711914
1683931399410456300,9.057456298828125,-0.1429782509803772,0.03439140319824219,0.4348832368850708
1683931399420498400,9.06749853515625,-0.14889442920684814,0.04915332794189453,0.4713834524154663
1683931399430540500,9.07754052734375,-0.15895932912826538,0.03994560241699219,0.5156416893005371
1683931399440582400,9.08758251953125,-0.17112255096435547,-0.028252601623535156,0.5255981683731079
1683931399450624500,9.09762451171875,-0.18534475564956665,-0.12150955200195312,0.5677697062492371
1683931399460666600,9.10766650390625,-0.1664373278617859,-0.21823406219482422,0.618001401424408
1683931399470708700,9.117708740234375,-0.1456526517868042,-0.24778461456298828,0.6739848852157593
1683931399480750800,9.127750732421875,-0.16558468341827393,-0.2255268096923828,0.6561588644981384
1683931399490793000,9.13779296875,-0.17863279581069946,-0.19259929656982422,0.7735822200775146
1683931399500834800,9.147834716796876,-0.1943742036819458,-0.1217803955078125,0.843504011631012
1683931399510877000,9.157876953125,-0.2270326018333435,-0.015563011169433594,0.8923967480659485
1683931399520919000,9.1679189453125,-0.25000423192977905,0.006545066833496094,0.9491506218910217
1683931399530961200,9.177961181640624,-0.2844700813293457,-0.0026378631591796875,1.0684276819229126
1683931399541003300,9.188003173828125,-0.2586236000061035,-0.021533966064453125,1.102015733718872
1683931399551045000,9.198045166015625,-0.24544507265090942,-0.011753082275390625,1.145909309387207
1683931399561087200,9.208087158203124,-0.2275766134262085,-0.05181694030761719,1.183056116104126
1683931399571129300,9.21812939453125,-0.2099434733390808,-0.14322566986083984,1.227447748184204
1683931399581171500,9.22817138671875,-0.20645689964294434,-0.20734786987304688,1.2456512451171875
1683931399591213600,9.238213623046875,-0.197984516620636,-0.3199443817138672,1.245027780532837
1683931399601255400,9.24825537109375,-0.17498379945755005,-0.37897205352783203,1.2165569067001343
1683931399611297500,9.258297607421875,-0.16661125421524048,-0.24392986297607422,1.3008763790130615
1683931399621339600,9.268339599609375,-0.18031156063079834,-0.14864444732666016,1.2315523624420166
1683931399631381800,9.2783818359375,-0.22744899988174438,-0.09023094177246094,1.1484060287475586
1683931399641424000,9.288423828125,-0.28832536935806274,-0.12693214416503906,1.0024046897888184
1683931399651465700,9.2984658203125,-0.3640022277832031,-0.16988372802734375,0.8813177347183228
1683931399661507800,9.3085078125,-0.44046497344970703,-0.20276355743408203,0.6998857259750366
1683931399671550000,9.318550048828126,-0.4554841220378876,-0.19510459899902344,0.6806396245956421
1683931399681592000,9.328592041015625,-0.39705270528793335,-0.1780843734741211,0.718530535697937
1683931399691634200,9.33863427734375,-0.3089410066604614,-0.08614826202392578,0.7088577747344971
1683931399701676000,9.348676025390626,-0.24330568313598633,-0.059680938720703125,0.725506067276001
1683931399711718100,9.35871826171875,-0.2149437665939331,-0.06719970703125,0.7426698207855225
1683931399721760300,9.36876025390625,-0.21331477165222168,-0.16235828399658203,0.8173621892929077
1683931399731802400,9.37880224609375,-0.22610169649124146,-0.3295001983642578,0.9530103206634521
1683931399741844200,9.38884423828125,-0.23913675546646118,-0.43306446075439453,1.152461290359497
1683931399751886300,9.39888623046875,-0.28905004262924194,-0.4974098205566406,1.2845838069915771
1683931399761928400,9.408928466796874,-0.3212023973464966,-0.5816440582275391,1.3921148777008057
1683931399771970600,9.418970458984376,-0.337435781955719,-0.5675067901611328,1.4325826168060303
1683931399782012700,9.4290126953125,-0.3186826705932617,-0.6728515625,1.4825129508972168
1683931399792054800,9.4390546875,-0.3033396601676941,-0.7167348861694336,1.4606245756149292
1683931399802096600,9.4490966796875,-0.3576691150665283,-0.7640819549560547,1.3388150930404663
1683931399812138800,9.459138671875,-0.4382251501083374,-0.8714313507080078,1.2542941570281982
1683931399822180900,9.469180908203125,-0.5037147402763367,-0.9197568893432617,1.2747547626495361
1683931399832223000,9.479222900390624,-0.5306383371353149,-0.8298969268798828,1.333268165588379
1683931399842265000,9.48926513671875,-0.5044057369232178,-0.8111381530761719,1.4713163375854492
1683931399852307000,9.499306884765625,-0.43987083435058594,-0.7656078338623047,1.6375058889389038
1683931399862349000,9.50934912109375,-0.3476085662841797,-0.712672233581543,1.7514238357543945
1683931399872391200,9.51939111328125,-0.26742100715637207,-0.797846794128418,1.921291708946228
1683931399882433300,9.529433349609375,-0.15133577585220337,-0.9052696228027344,1.9369248151779175
1683931399892475400,9.539475341796875,-0.07078570127487183,-0.9688310623168945,1.6720616817474365
1683931399902517200,9.549517333984374,-0.13127756118774414,-0.9170703887939453,1.2604659795761108
1683931399912559400,9.559559326171875,-0.31664377450942993,-0.6446781158447266,0.7713156938552856
1683931399922601500,9.5696015625,-0.6078066825866699,-0.3747234344482422,0.39410626888275146
1683931399932643600,9.5796435546875,-0.905121922492981,-0.10425281524658203,0.17906975746154785
1683931399942685700,9.589685791015626,-1.1709574460983276,0.1250143051147461,-0.014159917831420898
1683931399952727600,9.5997275390625,-1.3792349100112915,0.43410205841064453,-0.3038874864578247
1683931399962769700,9.609769775390625,-1.536521077156067,0.6286296844482422,-0.6154862642288208
1683931399972811800,9.619811767578126,-1.7024599313735962,0.8399496078491211,-1.0026570558547974
1683931399982854000,9.62985400390625,-1.8695663213729858,0.8105030059814453,-1.2866533994674683
1683931399992896000,9.63989599609375,-1.908972978591919,0.7368183135986328,-1.4863466024398804
1683931400002938000,9.649938232421874,-1.7683684825897217,0.637847900390625,-1.5941036939620972
1683931400012980000,9.65997998046875,-1.5499054193496704,0.5368185043334961,-1.7350939512252808
1683931400023022000,9.67002197265625,-1.2646772861480713,0.47340869903564453,-1.927599549293518
1683931400033064200,9.680064208984374,-0.9260827302932739,0.46827030181884766,-2.1174139976501465
1683931400043106300,9.690106201171876,-0.5739450454711914,0.48982906341552734,-2.1383113861083984
1683931400053148400,9.7001484375,-0.22994083166122437,0.3852977752685547,-1.9768811464309692
1683931400063190300,9.710190185546875,0.14627283811569214,0.24131107330322266,-1.8854957818984985
1683931400073232400,9.720232421875,0.4990088641643524,0.15371036529541016,-1.8681464195251465
1683931400083274500,9.7302744140625,0.7311481237411499,0.12009429931640625,-1.8989518880844116
1683931400093316600,9.740316650390625,0.8983422517776489,-0.03150177001953125,-1.935747742652893
1683931400103358500,9.7503583984375,1.0002652406692505,-0.2503490447998047,-1.8266412019729614
1683931400113400600,9.760400634765626,1.1081091165542603,-0.5956697463989258,-1.7197908163070679
1683931400123442700,9.770442626953125,1.1986935138702393,-0.8617153167724609,-1.6367158889770508
1683931400133484800,9.78048486328125,1.2429994344711304,-0.9795846939086914,-1.6462947130203247
1683931400143527000,9.79052685546875,1.2325067520141602,-0.9376792907714844,-1.5187416076660156
1683931400153568800,9.80056884765625,1.1672184467315674,-0.731114387512207,-1.1353092193603516
1683931400163611000,9.81061083984375,1.0685163736343384,-0.4312267303466797,-0.6851881742477417
1683931400173653000,9.820653076171874,0.885951817035675,-0.1954813003540039,-0.30187511444091797
1683931400183695000,9.830695068359375,0.6696674823760986,-0.09312152862548828,-0.1692965030670166
1683931400193737200,9.8407373046875,0.4873168468475342,-0.03826141357421875,-0.11128020286560059
1683931400203779000,9.850779052734374,0.23500794172286987,0.08810043334960938,-0.1762559413909912
1683931400213821200,9.8608212890625,0.00026798248291015625,0.29484081268310547,-0.31518447399139404
1683931400223863300,9.87086328125,-0.09981167316436768,0.5145740509033203,-0.41973233222961426
1683931400233905400,9.880905517578125,-0.08325648307800293,0.6372594833374023,-0.5878086090087891
1683931400243947500,9.890947509765626,0.0162431001663208,0.7992706298828125,-0.8215570449829102
1683931400253989400,9.9009892578125,0.15899670124053955,0.9386396408081055,-1.045262336730957
1683931400264031500,9.911031494140625,0.4432714581489563,0.9912538528442383,-1.2623677253723145
1683931400274073600,9.921073486328124,0.6999483704566956,1.022054672241211,-1.4897575378417969
1683931400284115700,9.93111572265625,0.9709229469299316,1.0527400970458984,-1.8123008012771606
1683931400294157800,9.94115771484375,1.2736940383911133,1.0286121368408203,-2.0728232860565186
1683931400304200000,9.951199951171875,1.5227762460708618,0.9095287322998047,-2.1851446628570557
1683931400314241800,9.96124169921875,1.6774094104766846,0.705805778503418,-2.1929476261138916
1683931400324284000,9.971283935546875,1.697737455368042,0.5278873443603516,-2.238412857055664
1683931400334326000,9.981325927734375,1.5572547912597656,0.48800182342529297,-2.1343979835510254
1683931400344368000,9.9913681640625,1.3040920495986938,0.4281167984008789,-2.1113133430480957
1683931400354410200,10.00141015625,0.9584879875183105,0.33376216888427734,-1.9176533222198486
1683931400364452000,10.0114521484375,0.5790303945541382,0.1976451873779297,-1.6434069871902466
1683931400374494200,10.021494140625,0.11088681221008301,0.019474029541015625,-1.2219184637069702
1683931400384536300,10.031536376953126,-0.44443249702453613,-0.055538177490234375,-0.8055409789085388
1683931400394578400,10.041578369140625,-1.002859354019165,-0.12624835968017578,-0.5664494037628174
1683931400404620500,10.05162060546875,-1.4277509450912476,-0.17420101165771484,-0.38438475131988525
1683931400414662400,10.061662353515626,-1.6383916139602661,-0.2429370880126953,-0.25336021184921265
1683931400424704500,10.07170458984375,-1.7199203968048096,-0.2635202407836914,-0.1403215229511261
1683931400434746600,10.08174658203125,-1.6040055751800537,-0.28134632110595703,-0.050980910658836365
1683931400444788700,10.091788818359374,-1.3602503538131714,-0.25531864166259766,-0.05950583517551422
1683931400454830600,10.10183056640625,-1.1152502298355103,-0.11102104187011719,-0.3252516984939575
1683931400464872700,10.111872802734375,-0.9028148651123047,0.12294769287109375,-0.7743027210235596
1683931400474914800,10.121914794921874,-0.700371503829956,0.4131746292114258,-1.1990877389907837
1683931400484957000,10.13195703125,-0.4420006275177002,0.7430238723754883,-1.6265803575515747
1683931400494999000,10.1419990234375,-0.17837870121002197,1.079111099243164,-1.9074671268463135
1683931400505041000,10.152041015625,0.12394177913665771,1.3355388641357422,-2.117445230484009
1683931400515083000,10.1620830078125,0.4021732807159424,1.5102529525756836,-2.2370965480804443
1683931400525125000,10.172125,0.6331396102905273,1.6204805374145508,-2.3233144283294678
1683931400535167200,10.182167236328125,0.8435706496238708,1.657160758972168,-2.2613258361816406
1683931400545209300,10.192209228515624,1.0407460927963257,1.6160078048706055,-2.0458152294158936
1683931400555251200,10.202251220703126,1.1797404289245605,1.4759397506713867,-1.7394726276397705
1683931400565293300,10.212293212890625,1.1714942455291748,1.2754669189453125,-1.438186764717102
1683931400575335400,10.22233544921875,1.0954588651657104,1.0456962585449219,-1.1030972003936768
1683931400585377500,10.23237744140625,0.9316574931144714,0.8007793426513672,-0.7928051948547363
1683931400595419600,10.242419677734375,0.7416892647743225,0.5189609527587891,-0.49876683950424194
1683931400605461800,10.252461669921875,0.576767086982727,0.23119831085205078,-0.17660395801067352
1683931400615503600,10.262503662109374,0.45361757278442383,-0.0028295516967773438,0.1770724505186081
1683931400625545700,10.272545654296875,0.32651615142822266,-0.18561267852783203,0.43044066429138184
1683931400635587800,10.282587890625,0.18588674068450928,-0.3029470443725586,0.598709225654602
1683931400645630000,10.2926298828125,0.04744899272918701,-0.36235618591308594,0.7670726180076599
1683931400655672000,10.302672119140626,-0.07999157905578613,-0.32123756408691406,0.9174807667732239
1683931400665714000,10.3127138671875,-0.1452866792678833,-0.2707376480102539,1.028713345527649
1683931400675756000,10.322756103515625,-0.224786639213562,-0.2825603485107422,1.0646183490753174
1683931400685798100,10.332798095703126,-0.3870735168457031,-0.3375253677368164,0.9540312886238098
1683931400695840300,10.34284033203125,-0.5922423601150513,-0.3712272644042969,0.7166516780853271
1683931400705882000,10.352882080078125,-0.7410645484924316,-0.33369922637939453,0.5062827467918396
1683931400715924200,10.36292431640625,-0.8381509780883789,-0.23945140838623047,0.3379122018814087
1683931400725966300,10.37296630859375,-0.9175987243652344,-0.1625690460205078,0.1878085881471634
1683931400736008400,10.383008544921875,-1.0228499174118042,-0.059952735900878906,0.04198542982339859
1683931400746050600,10.393050537109374,-1.11820650100708,-0.008055686950683594,-0.03705976530909538
1683931400756092400,10.403092529296876,-1.2031320333480835,0.07677078247070312,-0.03450682759284973
1683931400766134500,10.413134521484375,-1.167654275894165,0.10845756530761719,0.02847275882959366
1683931400776176600,10.4231767578125,-1.0410435199737549,0.027457237243652344,0.058773744851350784
1683931400786218800,10.43321875,-0.7791213989257812,-0.14913272857666016,0.05859769135713577
1683931400796260900,10.4432607421875,-0.5914572477340698,-0.29434680938720703,0.06765728443861008
1683931400806302700,10.453302734375,-0.48621153831481934,-0.3412666320800781,0.01615312322974205
1683931400816344800,10.4633447265625,-0.49469172954559326,-0.3330821990966797,-0.08841819316148758
1683931400826387000,10.473386962890626,-0.530266284942627,-0.21984481811523438,-0.15737390518188477
1683931400836429000,10.483428955078125,-0.4118223190307617,-0.0996856689453125,-0.20096632838249207
1683931400846471200,10.49347119140625,-0.21004796028137207,-0.02981281280517578,-0.16273373365402222
1683931400856513000,10.503512939453126,0.049744248390197754,-0.0768280029296875,-0.18161748349666595
1683931400866555100,10.51355517578125,0.1833919882774353,-0.22133541107177734,-0.18333256244659424
1683931400876597200,10.52359716796875,0.07251179218292236,-0.32229137420654297,-0.12990117073059082
1683931400886639400,10.533639404296874,-0.14257800579071045,-0.3488950729370117,0.023245036602020264
1683931400896681500,10.543681396484375,-0.3432718515396118,-0.3802490234375,0.18867675960063934
1683931400906723600,10.5537236328125,-0.46595489978790283,-0.5048065185546875,0.33625128865242004
1683931400916765400,10.563765380859374,-0.6222639083862305,-0.78204345703125,0.41220924258232117
1683931400926807600,10.5738076171875,-0.8305319547653198,-1.0754890441894531,0.40490031242370605
1683931400936849700,10.583849609375,-1.178754210472107,-1.3134851455688477,0.30581778287887573
1683931400946891800,10.593891845703125,-1.5486607551574707,-1.3864259719848633,0.2761410176753998
1683931400956933600,10.60393359375,-1.5047451257705688,-1.366450309753418,0.25143903493881226
1683931400966975700,10.613975830078125,-1.0815470218658447,-1.354104995727539,-0.07570391893386841
1683931400977017900,10.624017822265625,-0.5438569784164429,-1.3206987380981445,-0.48725590109825134
1683931400987060000,10.63406005859375,-0.10047125816345215,-1.2233190536499023,-0.8760027885437012
1683931400997102000,10.64410205078125,0.2673189043998718,-0.9283075332641602,-1.0564197301864624
1683931401007144000,10.65414404296875,0.7392860651016235,-0.26868534088134766,-1.1481194496154785
1683931401017186000,10.66418603515625,1.143135905265808,0.4731111526489258,-1.3160979747772217
1683931401027228200,10.674228271484376,1.2535569667816162,1.1679534912109375,-1.544339895248413
1683931401037270300,10.684270263671875,1.2147550582885742,1.5245532989501953,-1.6842118501663208
1683931401047312400,10.6943125,1.0794750452041626,1.6392736434936523,-1.740491509437561
1683931401057354200,10.704354248046876,0.8988546133041382,1.6991453170776367,-1.7085533142089844
1683931401067396400,10.714396240234375,0.7133579254150391,1.6281671524047852,-1.620104432106018
1683931401077438500,10.7244384765625,0.4952462315559387,1.4291658401489258,-1.5375008583068848
1683931401087480600,10.73448046875,0.31974947452545166,1.1213178634643555,-1.5078110694885254
1683931401097522700,10.744522705078126,0.22336018085479736,0.7570095062255859,-1.3348958492279053
1683931401107564500,10.754564453125,0.21216607093811035,0.4793233871459961,-1.101492166519165
1683931401117606700,10.764606689453124,0.3346690535545349,0.2735404968261719,-0.8453425765037537
1683931401127648800,10.774648681640626,0.5377285480499268,0.20870399475097656,-0.5964756608009338
1683931401137691000,10.78469091796875,0.7566969990730286,0.150848388671875,-0.4296005964279175
1683931401147733000,10.79473291015625,0.9320619702339172,0.18134212493896484,-0.35356760025024414
1683931401157774800,10.80477490234375,1.0958092212677002,0.19756507873535156,-0.3103221654891968
1683931401167817000,10.81481689453125,1.1886861324310303,0.2356891632080078,-0.30935102701187134
1683931401177859000,10.824859130859375,1.1908631324768066,0.19556140899658203,-0.3723539113998413
1683931401187901200,10.834901123046874,1.0786528587341309,0.16559410095214844,-0.46305638551712036
1683931401197943300,10.844943359375,0.8946593999862671,0.10972023010253906,-0.5815849304199219
1683931401207985200,10.854985107421875,0.6488490700721741,0.08510112762451172,-0.7593107223510742
1683931401218027300,10.86502734375,0.3688321113586426,0.10332393646240234,-0.993362307548523
1683931401228069400,10.8750693359375,0.12415459752082825,0.30725860595703125,-1.1368428468704224
1683931401238111500,10.885111572265625,-0.07534965872764587,0.4646930694580078,-1.165908694267273
1683931401248153300,10.8951533203125,-0.11567440629005432,0.4134483337402344,-1.141125202178955
1683931401258195500,10.905195556640624,-0.03609831631183624,0.3190183639526367,-1.0918519496917725
1683931401268237600,10.915237548828125,0.21842825412750244,0.27718257904052734,-1.0586068630218506
1683931401278279700,10.92527978515625,0.5564402341842651,0.25693607330322266,-0.9816766977310181
1683931401288321800,10.93532177734375,0.8646837472915649,0.21539688110351562,-0.9497078657150269
1683931401298363600,10.94536376953125,1.1530040502548218,0.2673521041870117,-0.9244095087051392
1683931401308405800,10.95540576171875,1.3164801597595215,0.1976480484008789,-0.9843063354492188
1683931401318447900,10.96544775390625,1.4073482751846313,0.12349510192871094,-1.070961833000183
1683931401328490000,10.975489990234376,1.418714165687561,0.13081836700439453,-1.1625820398330688
1683931401338532000,10.985531982421875,1.3916511535644531,0.14528846740722656,-1.1870317459106445
1683931401348574200,10.99557421875,1.3101780414581299,0.20740699768066406,-1.2278048992156982
1683931401358616000,11.005615966796874,1.2322163581848145,0.2310047149658203,-1.2416119575500488
1683931401368658200,11.015658203125,1.124166488647461,0.27820491790771484,-1.2426573038101196
1683931401378700300,11.0257001953125,1.0028036832809448,0.2844400405883789,-1.1905007362365723
1683931401388742400,11.035742431640625,0.8068066835403442,0.2903461456298828,-1.1448694467544556
1683931401398784500,11.045784423828126,0.5619602799415588,0.28159427642822266,-0.9936648607254028
1683931401408826400,11.055826416015625,0.3332655429840088,0.31797313690185547,-0.8638938665390015
1683931401418868500,11.065868408203125,0.10934950411319733,0.2991304397583008,-0.693131685256958
1683931401428910600,11.07591064453125,-0.08103755116462708,0.2659130096435547,-0.5626187324523926
1683931401438952700,11.08595263671875,-0.16458633542060852,0.24237823486328125,-0.46758580207824707
1683931401448994600,11.09599462890625,-0.16067160665988922,0.24287986755371094,-0.4077812433242798
1683931401459036700,11.10603662109375,-0.02591034770011902,0.23629474639892578,-0.37596404552459717
1683931401469078800,11.116078857421876,0.12194368243217468,0.2034587860107422,-0.3600348234176636
1683931401479121000,11.126120849609375,0.2725003957748413,0.19686603546142578,-0.32885241508483887
1683931401489163000,11.1361630859375,0.39741894602775574,0.18536090850830078,-0.26120781898498535
1683931401499204900,11.146204833984376,0.4620901048183441,0.18558311462402344,-0.21180641651153564
1683931401509247000,11.1562470703125,0.5240377187728882,0.19276142120361328,-0.15229332447052002
1683931401519289000,11.1662890625,0.5434039831161499,0.1663351058959961,-0.090171217918396
1683931401529331200,11.176331298828124,0.5473993420600891,0.09210681915283203,-0.06383669376373291
1683931401539373300,11.186373291015625,0.5361427068710327,0.0036745071411132812,0.0028725862503051758
1683931401549415200,11.196415283203125,0.5020464062690735,-0.02490234375,0.01892721652984619
1683931401559457300,11.206457275390624,0.43015751242637634,-0.04154014587402344,0.05829775333404541
1683931401569499400,11.21649951171875,0.3064519464969635,-0.03190135955810547,0.06563806533813477
1683931401579541500,11.22654150390625,0.15606051683425903,-0.08195209503173828,0.06238710880279541
1683931401589583600,11.23658349609375,0.014081478118896484,-0.10792064666748047,0.05608344078063965
1683931401599625500,11.24662548828125,-0.08991354703903198,-0.1458892822265625,0.0533977746963501
1683931401609667600,11.25666748046875,-0.13628295063972473,-0.12648391723632812,0.02691364288330078
1683931401619709700,11.266709716796875,-0.11853086948394775,-0.11182594299316406,-0.04420042037963867
1683931401629751800,11.276751708984374,-0.040302932262420654,-0.07358360290527344,-0.10033309459686279
1683931401639794000,11.2867939453125,0.0632469654083252,0.0018606185913085938,-0.16492712497711182
1683931401649835800,11.296835693359375,0.14301997423171997,0.12786483764648438,-0.23275160789489746
1683931401659878000,11.3068779296875,0.21168291568756104,0.20218944549560547,-0.31986963748931885
1683931401669920000,11.316919921875,0.26369255781173706,0.22084712982177734,-0.38775622844696045
1683931401679962000,11.326962158203125,0.29458677768707275,0.23647117614746094,-0.4009205102920532
1683931401690004000,11.33700390625,0.30752265453338623,0.23497295379638672,-0.3906625509262085
1683931401700046000,11.347046142578124,0.29826974868774414,0.27076148986816406,-0.33607685565948486
1683931401710088200,11.357088134765625,0.3121974468231201,0.22788143157958984,-0.31569695472717285
1683931401720130300,11.36713037109375,0.3421557545661926,0.15706443786621094,-0.2817251682281494
1683931401730172400,11.37717236328125,0.3286646008491516,0.12230110168457031,-0.24851608276367188
1683931401740214300,11.38721435546875,0.3261731266975403,0.12528133392333984,-0.2277439832687378
1683931401750256400,11.39725634765625,0.3200492262840271,0.07587623596191406,-0.13681352138519287
1683931401760298500,11.407298583984375,0.2820277810096741,0.019712448120117188,-0.040773868560791016
1683931401770340600,11.417340576171876,0.22700917720794678,-0.012518882751464844,0.10985660552978516
1683931401780382700,11.4273828125,0.15569257736206055,-0.0517730712890625,0.24574792385101318
1683931401790424800,11.4374248046875,0.10433733463287354,-0.09075164794921875,0.4255383014678955
1683931401800466700,11.447466796875,0.017090260982513428,-0.09168720245361328,0.5800689458847046
1683931401810508800,11.4575087890625,0.0035448074340820312,-0.09743785858154297,0.7563506364822388
1683931401820551000,11.467551025390625,0.013627886772155762,-0.06306838989257812,0.9183452129364014
1683931401830593000,11.477593017578124,0.02594083547592163,-0.026845932006835938,1.0236930847167969
1683931401840635000,11.487634765625,0.03127366304397583,-0.04045677185058594,1.162255048751831
1683931401850677000,11.497677001953125,0.05072450637817383,-0.07950878143310547,1.2344799041748047
1683931401860719000,11.507718994140625,0.07134997844696045,-0.11541748046875,1.328670859336853
1683931401870761200,11.51776123046875,0.10155397653579712,-0.17875957489013672,1.4154378175735474
1683931401880803300,11.52780322265625,0.1311018466949463,-0.1091299057006836,1.4129676818847656
1683931401890845200,11.53784521484375,0.1154126524925232,-0.23347949981689453,1.4939688444137573
1683931401900887300,11.54788720703125,0.14090710878372192,-0.31503963470458984,1.5185680389404297
1683931401910929400,11.557929443359376,0.15599465370178223,-0.31927490234375,1.3943148851394653
1683931401920971500,11.567971435546875,0.17777079343795776,-0.2736015319824219,1.2922292947769165
1683931401931013600,11.578013671875,0.20315754413604736,-0.10828971862792969,1.2614083290100098
1683931401941055500,11.588055419921876,0.24675875902175903,0.040640830993652344,1.237858533859253
1683931401951097600,11.59809765625,0.2800202965736389,0.05824851989746094,1.1962202787399292
1683931401961139700,11.6081396484375,0.3006352186203003,0.040683746337890625,1.0897510051727295
1683931401971181800,11.618181884765624,0.25513505935668945,-0.06130218505859375,0.9630582332611084
1683931401981224000,11.628223876953125,0.1584753394126892,-0.1947469711303711,0.8668716549873352
1683931401991265800,11.638265869140625,-0.01104891300201416,-0.3801259994506836,0.847061812877655
1683931402001308000,11.648307861328124,-0.18416458368301392,-0.36481761932373047,0.6943950653076172
1683931402011350000,11.65835009765625,-0.3813638687133789,-0.2724456787109375,0.6183552742004395
1683931402021392100,11.66839208984375,-0.5774490833282471,-0.14421749114990234,0.548382043838501
1683931402031434200,11.678434326171875,-0.702427327632904,-0.05100250244140625,0.5741857290267944
1683931402041476000,11.68847607421875,-0.7188537120819092,-0.04586315155029297,0.6439067125320435
1683931402051518200,11.698518310546875,-0.6062256097793579,-0.12209796905517578,0.8370240926742554
1683931402061560300,11.708560302734375,-0.4311303496360779,-0.10396575927734375,0.9451323747634888
1683931402071602400,11.7186025390625,-0.25330257415771484,-0.3130054473876953,1.179091215133667
1683931402081644500,11.72864453125,-0.09898525476455688,-0.45824337005615234,1.205768346786499
1683931402091686400,11.738686279296875,-0.04553675651550293,-0.9317207336425781,1.2046926021575928
1683931402101728500,11.748728515625,-0.008178174495697021,-1.455026626586914,1.0841810703277588
1683931402111770600,11.7587705078125,0.04875993728637695,-1.8039608001708984,0.9039613008499146
1683931402121812700,11.768812744140625,0.0655929446220398,-2.0339746475219727,0.7182878851890564
1683931402131854600,11.7788544921875,0.06890320777893066,-2.0571413040161133,0.505399227142334
1683931402141896700,11.788896728515626,-0.0012704133987426758,-1.8811311721801758,0.10859048366546631
1683931402151938800,11.798938720703125,-0.19868475198745728,-1.3636054992675781,-0.4125019311904907
1683931402161981000,11.80898095703125,-0.5098636150360107,-0.8474531173706055,-0.9416701793670654
1683931402172023000,11.81902294921875,-0.8471460342407227,-0.39968395233154297,-1.4264169931411743
1683931402182065000,11.82906494140625,-1.0299854278564453,0.09675312042236328,-1.8264856338500977
1683931402192107000,11.83910693359375,-1.0682389736175537,0.5866413116455078,-2.2294721603393555
1683931402202149000,11.849149169921875,-1.1171424388885498,1.0579404830932617,-2.6496734619140625
1683931402212191200,11.859191162109376,-1.4294369220733643,1.3816967010498047,-3.210977554321289
1683931402222233300,11.8692333984375,-1.7583699226379395,1.541499137878418,-3.7636587619781494
1683931402232275500,11.879275390625,-1.7932411432266235,1.5327730178833008,-4.05289888381958
1683931402242317300,11.8893173828125,-1.4710789918899536,1.379481315612793,-4.045754432678223
1683931402252359400,11.899359375,-0.9042288064956665,1.1508760452270508,-3.749377727508545
1683931402262401500,11.909401611328125,-0.26582878828048706,0.9949760437011719,-3.2874975204467773
1683931402272443600,11.919443603515624,0.2640622556209564,0.8256921768188477,-2.868276596069336
1683931402282485800,11.92948583984375,0.6104182600975037,0.6268091201782227,-2.3250765800476074
1683931402292527600,11.939527587890625,0.8377521634101868,0.4514455795288086,-1.7955303192138672
1683931402302569700,11.94956982421875,0.9314628839492798,0.30954551696777344,-1.305301547050476
1683931402312611800,11.95961181640625,0.929008960723877,0.08212852478027344,-1.0002793073654175
1683931402322654000,11.969654052734375,0.7726103663444519,-0.001186370849609375,-0.8662552833557129
1683931402332695800,11.97969580078125,0.5209305286407471,-0.005391120910644531,-0.7522168159484863
1683931402342738000,11.989738037109374,0.3132658898830414,-0.021432876586914062,-0.5831477642059326
1683931402352780000,11.999780029296875,0.19180828332901,-0.06819725036621094,-0.4120757579803467
1683931402362822100,12.009822265625,0.09537649154663086,-0.09544181823730469,-0.3432657718658447
1683931402372864300,12.0198642578125,0.13639605045318604,-0.10572433471679688,-0.4078899621963501
1683931402382906000,12.029906005859376,0.2683313488960266,-0.03725910186767578,-0.5993719100952148
1683931402392948200,12.0399482421875,0.45770537853240967,0.002197265625,-0.844022274017334
1683931402402990300,12.049990234375,0.6125572919845581,0.027190208435058594,-1.0442752838134766
1683931402413032400,12.060032470703124,0.7001609802246094,0.06200408935546875,-1.2579495906829834
1683931402423074600,12.070074462890625,0.7687659859657288,0.0713663101196289,-1.2992935180664062
1683931402433116400,12.080116455078125,0.8285293579101562,0.1586475372314453,-1.2526154518127441
1683931402443158500,12.090158447265624,0.718550980091095,0.29996490478515625,-1.1926555633544922
1683931402453200600,12.10020068359375,0.47943031787872314,0.3588829040527344,-1.0279936790466309
1683931402463242800,12.11024267578125,0.13310062885284424,0.4162311553955078,-0.9076303243637085
1683931402473284900,12.120284912109375,-0.1578683853149414,0.47823333740234375,-0.7463659644126892
1683931402483326700,12.13032666015625,-0.2249969244003296,0.5011501312255859,-0.6131601929664612
1683931402493368800,12.140368896484375,-0.103401780128479,0.5586395263671875,-0.7334389090538025
1683931402503411000,12.150410888671875,0.20418381690979004,0.5909013748168945,-0.9397474527359009
1683931402513453000,12.160453125,0.5629281401634216,0.6223201751708984,-1.2009605169296265
1683931402523495200,12.1704951171875,0.8869348168373108,0.64166259765625,-1.4765357971191406
1683931402533537000,12.180537109375,1.0805511474609375,0.6926593780517578,-1.6864161491394043
1683931402543579100,12.1905791015625,1.066351056098938,0.7089786529541016,-1.8927918672561646
1683931402553621200,12.200621337890626,0.8478646874427795,0.7267971038818359,-2.0115582942962646
1683931402563663400,12.210663330078125,0.5043588876724243,0.734156608581543,-2.0451748371124268
1683931402573705200,12.220705322265625,0.07790136337280273,0.6640481948852539,-1.880316138267517
1683931402583747300,12.230747314453126,-0.39749395847320557,0.5496902465820312,-1.7080260515213013
1683931402593789400,12.24078955078125,-0.8437715768814087,0.34992313385009766,-1.6233727931976318
1683931402603831600,12.25083154296875,-1.1997292041778564,0.20039939880371094,-1.4831854104995728
1683931402613873700,12.260873779296874,-1.458951473236084,0.10515022277832031,-1.4701426029205322
1683931402623915500,12.27091552734375,-1.6344506740570068,0.044422149658203125,-1.420210361480713
1683931402633957600,12.28095751953125,-1.6593128442764282,0.0154571533203125,-1.3380241394042969
1683931402643999700,12.290999755859374,-1.6075271368026733,0.00623321533203125,-1.3980610370635986
1683931402654041900,12.301041748046876,-1.4071704149246216,0.09815216064453125,-1.4608051776885986
1683931402664084000,12.311083984375,-1.1832572221755981,0.11938190460205078,-1.4039973020553589
1683931402674126000,12.3211259765625,-0.9239281415939331,0.13731002807617188,-1.3103430271148682
1683931402684168000,12.33116796875,-0.6862634420394897,0.16658687591552734,-1.2507188320159912
1683931402694210000,12.3412099609375,-0.44082367420196533,0.19548797607421875,-1.244873046875
1683931402704252200,12.351252197265625,-0.21296584606170654,0.23377609252929688,-1.2040154933929443
1683931402714294300,12.361294189453124,-0.08500480651855469,0.24581146240234375,-1.0907809734344482
1683931402724336400,12.37133642578125,0.028408408164978027,0.2772026062011719,-0.9775652885437012
1683931402734378200,12.381378173828125,0.08632862567901611,0.3709697723388672,-0.869403600692749
1683931402744420400,12.39142041015625,0.13652527332305908,0.41477108001708984,-0.7811853885650635
1683931402754462500,12.40146240234375,0.1882690191268921,0.4183492660522461,-0.6555257439613342
1683931402764504600,12.411504638671875,0.1650913953781128,0.3746681213378906,-0.5571615099906921
1683931402774546400,12.42154638671875,0.02310800552368164,0.3218727111816406,-0.3772173523902893
1683931402784588500,12.431588623046874,-0.11380696296691895,0.38147926330566406,-0.36420297622680664
1683931402794630700,12.441630615234375,-0.20152044296264648,0.34998035430908203,-0.36560460925102234
1683931402804672800,12.4516728515625,-0.225256085395813,0.3707542419433594,-0.38199353218078613
1683931402814715000,12.46171484375,-0.22528815269470215,0.3456535339355469,-0.3528345227241516
1683931402824756700,12.4717568359375,-0.1683211326599121,0.2843513488769531,-0.2949278950691223
1683931402834798800,12.481798828125,-0.06696414947509766,0.24434375762939453,-0.2686258554458618
1683931402844841000,12.491841064453125,0.027720332145690918,0.2281179428100586,-0.21001385152339935
1683931402854883000,12.501883056640626,0.07454836368560791,0.2548351287841797,-0.21070000529289246
1683931402864925200,12.51192529296875,0.13447153568267822,0.2840394973754883,-0.18290062248706818
1683931402874967000,12.521967041015625,0.15384173393249512,0.31354808807373047,-0.2225821614265442
1683931402885009200,12.532009033203124,0.08882999420166016,0.25281429290771484,-0.25614243745803833
