time,seconds_elapsed,z,y,x
1684110569013279500,0.032279541015625,0,0,0
1684110569023321000,0.042321044921875,0.1213369369506836,0.2322864532470703,-0.2158656120300293
1684110569033363000,0.052363037109375,0.14434289932250977,0.46390342712402344,-0.6933095455169678
1684110569043404300,0.062404296875,-0.05150318145751953,0.11667633056640625,-0.42253661155700684
1684110569053446000,0.07244580078125,-0.15493488311767578,1.0650854110717773,-1.1130125522613525
1684110569063487500,0.082487548828125,-0.2542119026184082,-0.575477123260498,0.24062228202819824
1684110569073529000,0.092529052734375,-2.0153050422668457,-0.25425148010253906,-1.676966667175293
1684110569083570700,0.10257080078125,0.3622307777404785,0.6151337623596191,-0.19143939018249512
1684110569093612300,0.1126123046875,0.6274857521057129,0.4024930000305176,0.679389476776123
1684110569103654000,0.12265380859375,-0.30506134033203125,0.9529390335083008,-0.09187960624694824
1684110569113695500,0.132695556640625,-0.9169745445251465,0.36861515045166016,0.8474011421203613
1684110569123737000,0.142737060546875,-0.741612434387207,0.41178369522094727,0.588876485824585
1684110569133778700,0.15277880859375,-0.6220860481262207,0.5837316513061523,0.589167594909668
1684110569143820300,0.1628203125,-0.45867443084716797,-0.21609067916870117,1.123945713043213
1684110569153862000,0.17286181640625,-0.5641059875488281,0.3095674514770508,0.350618839263916
1684110569163903500,0.182903564453125,-0.8111958503723145,-0.1031808853149414,0.2229628562927246
1684110569173945000,0.192945068359375,-0.8110017776489258,0.005794525146484375,0.15341806411743164
1684110569183986700,0.202986572265625,-0.8017959594726562,0.18566513061523438,-0.13416671752929688
1684110569194028300,0.2130283203125,-0.6473264694213867,-0.06814336776733398,-0.2503948211669922
1684110569204070000,0.22306982421875,-0.36895132064819336,-0.24927854537963867,-0.22924327850341797
1684110569214111500,0.233111572265625,-0.17435503005981445,0.0792994499206543,-0.22621440887451172
1684110569224153000,0.243153076171875,-0.026395320892333984,0.0655221939086914,-0.30172014236450195
1684110569234194700,0.253194580078125,0.23270416259765625,-0.1884317398071289,-0.703132152557373
1684110569244236300,0.263236328125,0.38017892837524414,-0.1923966407775879,-0.8584504127502441
1684110569254278000,0.27327783203125,0.9009990692138672,0.07112884521484375,-0.7139034271240234
1684110569264319500,0.283319580078125,0.333463191986084,2.5850157737731934,-1.8290505409240723
1684110569274361000,0.293361083984375,-0.9518532752990723,-1.8095812797546387,0.9463629722595215
1684110569284402700,0.303402587890625,-0.4272794723510742,-2.233551025390625,0.8343162536621094
1684110569294444300,0.3134443359375,0.4403676986694336,-0.0523533821105957,-0.8216924667358398
1684110569304486000,0.32348583984375,0.9569296836853027,-0.7019014358520508,-0.6036925315856934
1684110569314527500,0.333527587890625,1.562145709991455,-1.351468563079834,-0.1796259880065918
1684110569324569000,0.343569091796875,1.258561134338379,-1.2630767822265625,0.0490717887878418
1684110569334610700,0.353610595703125,0.4363245964050293,-0.8365144729614258,0.47220945358276367
1684110569344652300,0.36365234375,-0.7257792949676514,-0.329376220703125,0.6598010063171387
1684110569354694000,0.37369384765625,-1.566495418548584,0.08962774276733398,0.7813472747802734
1684110569364735500,0.383735595703125,-1.7600436210632324,0.34181809425354004,0.15225982666015625
1684110569374777000,0.393777099609375,-1.1029832363128662,0.04666948318481445,-0.12615299224853516
1684110569384818700,0.403818603515625,-0.8053708076477051,-0.21332359313964844,-0.008273601531982422
1684110569394860300,0.4138603515625,-0.627230167388916,-0.5791053771972656,0.2538747787475586
1684110569404902000,0.42390185546875,-0.5291585922241211,-0.8206462860107422,0.6057014465332031
1684110569414943500,0.433943603515625,-0.3459289073944092,-0.9163608551025391,0.5891270637512207
1684110569424985000,0.443985107421875,-0.006749391555786133,-0.8325443267822266,0.4940319061279297
1684110569435026700,0.454026611328125,0.2701406478881836,-0.8821568489074707,0.5811610221862793
1684110569445068300,0.464068359375,-0.1796257495880127,-0.4975624084472656,0.6696901321411133
1684110569455110000,0.47410986328125,-0.5599443912506104,-0.4304041862487793,0.6233100891113281
1684110569465151500,0.4841513671875,-0.6810600757598877,-0.24266958236694336,0.43461036682128906
1684110569475193000,0.494193115234375,-0.07391977310180664,0.1982731819152832,-0.23212051391601562
1684110569485234700,0.504234619140625,-1.1751899719238281,0.0864725112915039,-1.487546443939209
1684110569495276300,0.5142763671875,-0.7053900957107544,-0.04516315460205078,-0.9954562187194824
1684110569505318000,0.52431787109375,0.3569146394729614,-0.13666677474975586,-0.5550007820129395
1684110569515359500,0.534359375,0.302048921585083,-0.21108770370483398,-0.2999143600463867
1684110569525401000,0.544401123046875,0.36475229263305664,-0.5568780899047852,0.2614893913269043
1684110569535442700,0.554442626953125,0.6709989309310913,-0.594569206237793,0.4781198501586914
1684110569545484300,0.564484375,0.7432159781455994,-0.5487861633300781,0.8634939193725586
1684110569555526000,0.57452587890625,0.601718008518219,-0.5396733283996582,1.2898616790771484
1684110569565567500,0.5845673828125,0.3682158589363098,-0.1876540184020996,1.0186271667480469
1684110569575609000,0.594609130859375,-0.18398889899253845,-0.41118907928466797,1.3555870056152344
1684110569585650400,0.604650390625,-0.8636355400085449,-0.19006872177124023,1.4878721237182617
1684110569595692000,0.614692138671875,-1.2617526054382324,0.21185874938964844,1.675872802734375
1684110569605734000,0.62473388671875,-1.3537962436676025,0.4121527671813965,1.6911230087280273
1684110569615775200,0.634775146484375,-1.1721030473709106,0.3484210968017578,1.6873846054077148
1684110569625816800,0.64481689453125,-1.0517092943191528,0.4852619171142578,1.1927299499511719
1684110569635858400,0.6548583984375,-0.9457767009735107,0.3785719871520996,0.8929538726806641
1684110569645900000,0.664900146484375,-0.8242543935775757,0.356905460357666,0.5302143096923828
1684110569655941600,0.674941650390625,-0.6540910005569458,-0.0326080322265625,0.6316089630126953
1684110569665983200,0.684983154296875,-0.5740637183189392,-0.23714971542358398,0.5085639953613281
1684110569676024800,0.69502490234375,-0.29029279947280884,-0.3320317268371582,0.2470102310180664
1684110569686066400,0.70506640625,-0.09833532571792603,-0.5374817848205566,0.32060718536376953
1684110569696108000,0.71510791015625,0.2036592662334442,-0.6849236488342285,0.5113792419433594
1684110569706149600,0.725149658203125,0.37498947978019714,-0.4538130760192871,0.3693809509277344
1684110569716191200,0.735191162109375,0.16626876592636108,-0.31453514099121094,0.08080863952636719
1684110569726232800,0.74523291015625,-0.09181392192840576,-0.3471217155456543,0.24318599700927734
1684110569736274400,0.7552744140625,-0.3423486351966858,-0.1853961944580078,0.048048973083496094
1684110569746316000,0.76531591796875,-0.5149168968200684,0.08356189727783203,-0.13405942916870117
1684110569756357600,0.775357666015625,-0.6486523151397705,0.44826507568359375,-0.4198722839355469
1684110569766399200,0.785399169921875,-0.6386769413948059,0.6904516220092773,-1.0489449501037598
1684110569776440800,0.79544091796875,-0.3731541037559509,0.604827880859375,-1.3385324478149414
1684110569786482400,0.805482421875,0.2717103958129883,-0.017471790313720703,-1.2934799194335938
1684110569796524000,0.81552392578125,0.8274787068367004,-0.8474383354187012,-0.38048458099365234
1684110569806565600,0.825565673828125,0.9305925369262695,-1.211268424987793,0.7490553855895996
1684110569816607200,0.835607177734375,0.6418797969818115,-1.2587347030639648,1.5778937339782715
1684110569826648800,0.84564892578125,0.26115354895591736,-0.9115142822265625,1.7818961143493652
1684110569836690400,0.8556904296875,0.10965186357498169,-0.20405101776123047,1.468775749206543
1684110569846732000,0.86573193359375,0.2053520381450653,0.4497833251953125,0.8766012191772461
1684110569856773600,0.875773681640625,0.25529757142066956,0.8002076148986816,0.4479227066040039
1684110569866815200,0.885815185546875,0.2518734633922577,0.7498579025268555,-0.019762516021728516
1684110569876856800,0.89585693359375,0.3983345925807953,0.31513452529907227,-0.4864044189453125
1684110569886898400,0.9058984375,0.5338444113731384,-0.14586544036865234,-0.799954891204834
1684110569896940000,0.91593994140625,0.5889873504638672,0.07664060592651367,-0.9373207092285156
1684110569906981600,0.925981689453125,0.7064293622970581,0.0822000503540039,-0.756434440612793
1684110569917023200,0.936023193359375,0.7553848624229431,0.3365631103515625,-0.8201212882995605
1684110569927064800,0.94606494140625,0.8955379128456116,0.39412784576416016,-0.7352437973022461
1684110569937106400,0.9561064453125,0.7753026485443115,0.3731193542480469,-0.6120309829711914
1684110569947148000,0.96614794921875,0.7244051694869995,-0.02933216094970703,-0.0049495697021484375
1684110569957189600,0.976189697265625,0.5771036148071289,-0.3780989646911621,0.3048439025878906
1684110569967231200,0.986231201171875,0.6160149574279785,-0.405120849609375,0.4496941566467285
1684110569977272800,0.99627294921875,0.6071293354034424,-0.18364191055297852,0.21669960021972656
1684110569987314400,1.006314453125,0.45079344511032104,-0.43898487091064453,0.21435546875
1684110569997356000,1.01635595703125,0.3719700574874878,-0.4694514274597168,0.32542991638183594
1684110570007397600,1.026397705078125,0.3655364513397217,-0.43506479263305664,0.14156723022460938
1684110570017439200,1.036439208984375,0.3964603543281555,-0.586240291595459,-0.1701974868774414
1684110570027480800,1.046480712890625,0.45646825432777405,-0.7945780754089355,-0.15250539779663086
1684110570037522400,1.0565224609375,0.5880226492881775,-3.425436019897461,1.2746915817260742
1684110570047564000,1.06656396484375,0.8643600344657898,-2.4498205184936523,-0.0021686553955078125
1684110570057605600,1.076605712890625,1.242034912109375,-0.40365028381347656,-1.3312430381774902
1684110570067647200,1.086647216796875,1.4222718477249146,0.3712277412414551,-0.8689217567443848
1684110570077688800,1.096688720703125,1.0631601810455322,0.4782538414001465,-0.3040752410888672
1684110570087730400,1.10673046875,0.8086434006690979,-0.013118267059326172,-0.011671066284179688
1684110570097772000,1.11677197265625,0.6619966626167297,-0.6853423118591309,0.47569894790649414
1684110570107813600,1.126813720703125,0.48687902092933655,-1.0424275398254395,0.3764915466308594
1684110570117855200,1.136855224609375,0.2516223192214966,-1.342637062072754,-0.12104415893554688
1684110570127896800,1.146896728515625,0.15354475378990173,-1.5669374465942383,-0.7355356216430664
1684110570137938400,1.1569384765625,0.43381035327911377,-1.428164005279541,-0.9124665260314941
1684110570147980000,1.16697998046875,0.7712448835372925,-1.237396240234375,-0.6837000846862793
1684110570158021600,1.177021728515625,0.9821476340293884,-1.3089337348937988,-0.2716555595397949
1684110570168063200,1.187063232421875,0.9198780655860901,-1.4731645584106445,-0.0036568641662597656
1684110570178104800,1.197104736328125,0.6518430709838867,-1.694237232208252,-0.08018684387207031
1684110570188146400,1.207146484375,0.5795909762382507,-0.9217705726623535,-0.284515380859375
1684110570198188000,1.21718798828125,1.0186430215835571,-0.32550668716430664,0.13848495483398438
1684110570208229600,1.227229736328125,0.8670173287391663,-0.07338190078735352,0.34059858322143555
1684110570218271200,1.237271240234375,0.6749318838119507,0.13904809951782227,0.4632258415222168
1684110570228312800,1.247312744140625,0.744683563709259,0.47440004348754883,0.49842166900634766
1684110570238354400,1.2573544921875,0.6727021336555481,0.30766916275024414,0.5495147705078125
1684110570248396000,1.26739599609375,0.7573462724685669,0.3107309341430664,0.5979166030883789
1684110570258437600,1.277437744140625,0.9394879341125488,0.2517232894897461,0.43932628631591797
1684110570268479200,1.287479248046875,0.841150164604187,0.1578669548034668,-0.05701923370361328
1684110570278520800,1.297520751953125,0.8138487935066223,0.3199491500854492,-0.24169635772705078
1684110570288562400,1.3075625,0.833648681640625,0.8062410354614258,-0.05177116394042969
1684110570298604000,1.31760400390625,0.6124773025512695,1.0019125938415527,0.1680760383605957
1684110570308645600,1.327645751953125,0.31325632333755493,1.344160556793213,-0.09123945236206055
1684110570318687200,1.337687255859375,-0.4253402352333069,2.7039456367492676,-0.4664468765258789
1684110570328728800,1.347728759765625,-0.2488977611064911,0.6379256248474121,0.09880781173706055
1684110570338770400,1.3577705078125,0.4589043855667114,0.3401932716369629,0.12956571578979492
1684110570348812000,1.36781201171875,0.5955774784088135,0.32978296279907227,0.09588098526000977
1684110570358853600,1.377853515625,0.23016059398651123,0.1344280242919922,0.34920263290405273
1684110570368895200,1.387895263671875,-0.2455565631389618,0.1119699478149414,0.5269308090209961
1684110570378936800,1.397936767578125,-0.4419271945953369,0.1499471664428711,0.6070866584777832
1684110570388978400,1.407978515625,-0.32388508319854736,0.2851872444152832,0.4893531799316406
1684110570399020000,1.41802001953125,-0.15624290704727173,0.3314661979675293,0.25299072265625
1684110570409061600,1.4280615234375,-0.06249845027923584,0.1455974578857422,0.23824405670166016
1684110570419103200,1.438103271484375,-0.06757324934005737,0.1421799659729004,0.11781501770019531
1684110570429144800,1.448144775390625,0.10038512945175171,-0.19713973999023438,0.7187623977661133
1684110570439186400,1.4581865234375,0.18770241737365723,-0.16982316970825195,0.9579291343688965
1684110570449228000,1.46822802734375,0.0033625364303588867,0.465207576751709,0.20405149459838867
1684110570459269400,1.478269287109375,-0.2475009560585022,0.4895973205566406,-0.332456111907959
1684110570469311200,1.488311279296875,-0.2940644919872284,0.3771510124206543,-0.5732502937316895
1684110570479352800,1.498352783203125,-0.17232945561408997,0.18681573867797852,-0.5805516242980957
1684110570489394400,1.50839453125,0.37166064977645874,0.1608877182006836,-0.1810622215270996
1684110570499435800,1.518435791015625,0.726070761680603,0.21597766876220703,0.18221187591552734
1684110570509477600,1.5284775390625,0.5878674983978271,0.2353954315185547,0.5632643699645996
1684110570519519200,1.538519287109375,0.19244858622550964,0.43543481826782227,0.7854256629943848
1684110570529560600,1.548560546875,-0.04814311861991882,0.4220438003540039,0.9014749526977539
1684110570539602400,1.5586025390625,-0.06947427988052368,0.3709855079650879,0.8751635551452637
1684110570549644000,1.56864404296875,-0.17379522323608398,0.3168344497680664,0.9132461547851562
1684110570559685400,1.578685302734375,-0.34025925397872925,0.2066192626953125,0.9045467376708984
1684110570569727000,1.58872705078125,-0.2733522057533264,0.25345802307128906,0.8854637145996094
1684110570579768800,1.598768798828125,-0.07709559798240662,0.4614553451538086,0.8272585868835449
1684110570589810400,1.608810546875,-0.07369130849838257,0.48506879806518555,0.6111259460449219
1684110570599851800,1.618851806640625,-0.47229933738708496,0.34334421157836914,0.16016721725463867
1684110570609893600,1.6288935546875,-0.8686187267303467,0.3183574676513672,-0.2264113426208496
1684110570619935200,1.638935302734375,-0.6996772289276123,0.4221210479736328,-0.30181074142456055
1684110570629976600,1.6489765625,-0.43240684270858765,0.2431926727294922,-0.24875450134277344
1684110570640018200,1.65901806640625,-0.13487190008163452,0.19673633575439453,-0.016318798065185547
1684110570650060000,1.66906005859375,-0.010204024612903595,0.5257806777954102,-0.14262866973876953
1684110570660101400,1.679101318359375,-0.05619753897190094,0.6642842292785645,-0.593470573425293
1684110570670143000,1.68914306640625,-0.10231520235538483,0.6498317718505859,-0.9580488204956055
1684110570680184600,1.6991845703125,-0.01367250457406044,0.3912200927734375,-0.8383479118347168
1684110570690226200,1.70922607421875,0.2715994715690613,0.19724082946777344,-0.2541680335998535
1684110570700267800,1.719267822265625,0.40230631828308105,0.021646499633789062,0.7530922889709473
1684110570710309400,1.729309326171875,0.35827451944351196,-0.09708309173583984,1.4605374336242676
1684110570720351200,1.739351318359375,0.4162118136882782,-0.3728752136230469,1.759934425354004
1684110570730392600,1.749392578125,0.546074390411377,-0.2431163787841797,1.7439322471618652
1684110570740434200,1.75943408203125,0.46650150418281555,-0.1832418441772461,1.4829883575439453
1684110570750475800,1.769475830078125,0.2777870297431946,0.3163638114929199,1.2818222045898438
1684110570760517400,1.779517333984375,0.06505890190601349,0.6876707077026367,0.7107100486755371
1684110570770559000,1.78955908203125,-0.8177859783172607,0.9307365417480469,0.6643776893615723
1684110570780600600,1.7996005859375,-1.2633095979690552,0.024219512939453125,-0.5781455039978027
1684110570790642200,1.80964208984375,-0.4144628643989563,-0.7646989822387695,-0.26102733612060547
1684110570800683800,1.819683837890625,0.16224732995033264,-0.1896495819091797,0.45708274841308594
1684110570810725400,1.829725341796875,0.5102789402008057,0.2615823745727539,0.7968473434448242
1684110570820767000,1.83976708984375,0.6967920064926147,0.39875078201293945,1.0527167320251465
1684110570830808600,1.84980859375,0.6760610342025757,0.48999881744384766,1.0700902938842773
1684110570840850200,1.85985009765625,0.5084758996963501,0.1668224334716797,0.7910761833190918
1684110570850891800,1.869891845703125,0.3367554247379303,0.16430950164794922,0.8541989326477051
1684110570860933400,1.879933349609375,0.24252301454544067,0.16068363189697266,0.9702119827270508
1684110570870975000,1.88997509765625,0.27420780062675476,-0.11836528778076172,0.963343620300293
1684110570881016600,1.9000166015625,0.3730398416519165,-0.29717063903808594,1.165700912475586
1684110570891058200,1.91005810546875,0.5515354871749878,-0.2913799285888672,1.1651077270507812
1684110570901099800,1.920099853515625,0.7414265871047974,-0.1417713165283203,0.9760341644287109
1684110570911141400,1.930141357421875,0.8318111300468445,-0.6001853942871094,1.1006159782409668
1684110570921183000,1.940182861328125,1.2996690273284912,-0.6296567916870117,1.170032024383545
1684110570931224600,1.950224609375,1.6211175918579102,-0.5774173736572266,1.323763370513916
1684110570941266200,1.96026611328125,1.5415948629379272,-0.4853181838989258,1.4716181755065918
1684110570951307800,1.970307861328125,1.0951159000396729,-0.7176895141601562,1.420487403869629
1684110570961349400,1.980349365234375,0.4790300130844116,-0.4022665023803711,1.2703924179077148
1684110570971391000,1.990390869140625,-0.4057060778141022,-0.1515979766845703,0.9578590393066406
1684110570981432600,2.0004326171875,-1.0696377754211426,-0.0254669189453125,0.6663608551025391
1684110570991474200,2.01047412109375,-1.4671049118041992,-0.014047622680664062,0.4461784362792969
1684110571001515800,2.020515869140625,-1.4610512256622314,0.18134212493896484,0.271512508392334
1684110571011557400,2.030557373046875,-1.1702297925949097,0.12775230407714844,0.3309035301208496
1684110571021599000,2.040598876953125,-0.8002429008483887,0.24378299713134766,0.27605485916137695
1684110571031640600,2.050640625,-0.4457860291004181,0.28336334228515625,-0.07303905487060547
1684110571041682200,2.06068212890625,-0.21143469214439392,0.21675395965576172,-0.5158329010009766
1684110571051723800,2.070723876953125,-0.325825035572052,-0.0091094970703125,-0.3669924736022949
1684110571061765400,2.080765380859375,-0.2415352761745453,0.1795940399169922,-0.18379688262939453
1684110571071807000,2.090806884765625,-0.23651421070098877,-0.2274150848388672,0.17717456817626953
1684110571081848600,2.1008486328125,-0.05067530274391174,0.6994428634643555,0.008530139923095703
1684110571091890200,2.11089013671875,-0.27341902256011963,0.6721620559692383,-0.3168654441833496
1684110571101931800,2.120931884765625,-0.503814697265625,0.6844558715820312,-0.41394948959350586
1684110571111973400,2.130973388671875,-0.6205531358718872,0.9579119682312012,-0.5310537815093994
1684110571122015000,2.141014892578125,-0.6662296056747437,1.9397506713867188,-0.6108145713806152
1684110571132056600,2.151056640625,-0.5292897820472717,2.4030447006225586,0.05352592468261719
1684110571142098200,2.16109814453125,-0.7489582300186157,1.629122257232666,0.00023174285888671875
1684110571152139800,2.171139892578125,-1.044668436050415,1.013028621673584,0.18271875381469727
1684110571162181400,2.181181396484375,-1.425541639328003,-0.03048992156982422,0.6465251445770264
1684110571172223000,2.191222900390625,-1.5989254713058472,-1.4188556671142578,1.0552639961242676
1684110571182264600,2.2012646484375,-1.5876469612121582,-3.1766414642333984,1.7280378341674805
1684110571192306200,2.21130615234375,-1.4377305507659912,-2.890531539916992,2.3544092178344727
1684110571202347800,2.22134765625,-0.7441465258598328,-0.045769691467285156,2.887251615524292
1684110571212389400,2.231389404296875,-0.8802157640457153,1.0607671737670898,2.5443003177642822
1684110571222431000,2.241430908203125,-1.552811861038208,0.2381601333618164,1.3603005409240723
1684110571232472600,2.25147265625,-1.439821481704712,-0.008501052856445312,-0.05646800994873047
1684110571242514200,2.26151416015625,-0.6399165987968445,0.1353893280029297,-0.8315460681915283
1684110571252555800,2.2715556640625,-0.07600009441375732,0.1962738037109375,-1.158827781677246
1684110571262597400,2.281597412109375,0.006086468696594238,0.14971351623535156,-1.5566837787628174
1684110571272639000,2.291638916015625,0.2009221315383911,1.9786629676818848,-1.2864930629730225
1684110571282680600,2.3016806640625,0.03282153606414795,0.3707733154296875,-1.6542775630950928
1684110571292722200,2.31172216796875,0.426066517829895,-1.1832361221313477,-1.5170660018920898
1684110571302763800,2.321763671875,0.8671969771385193,-1.7869291305541992,-1.1991217136383057
1684110571312805400,2.331805419921875,0.7638787031173706,-2.6811580657958984,-1.1356914043426514
1684110571322847000,2.341846923828125,0.8366526365280151,-2.454071044921875,-0.9356486797332764
1684110571332888600,2.351888671875,0.6037207841873169,-1.950967788696289,-0.40857362747192383
1684110571342930200,2.36193017578125,0.3662528991699219,-1.7037038803100586,0.2573375701904297
1684110571352971800,2.3719716796875,0.15990996360778809,-1.8731765747070312,0.9553399085998535
1684110571363013400,2.382013427734375,0.2235555648803711,-1.4763574600219727,1.173959732055664
1684110571373055000,2.392054931640625,0.3599128723144531,-1.2242670059204102,1.1435322761535645
1684110571383096600,2.4020966796875,0.5957244634628296,-1.0457754135131836,1.1247777938842773
1684110571393138200,2.41213818359375,1.059188961982727,-0.8069686889648438,1.0323371887207031
1684110571403179800,2.4221796875,1.55772864818573,-0.7144718170166016,0.7227587699890137
1684110571413221400,2.432221435546875,2.0045652389526367,-0.4057302474975586,0.03312349319458008
1684110571423263000,2.442262939453125,2.0211212635040283,-0.17969608306884766,-0.6910231113433838
1684110571433304600,2.4523046875,1.9682798385620117,0.1130361557006836,-1.393279790878296
1684110571443346200,2.46234619140625,1.8067463636398315,-0.06468677520751953,-2.2222490310668945
1684110571453387800,2.4723876953125,1.8151367902755737,0.14506244659423828,-2.6792054176330566
1684110571463429400,2.482429443359375,1.7592121362686157,0.7430639266967773,-2.8224191665649414
1684110571473471000,2.492470947265625,1.6948440074920654,1.1870861053466797,-2.4656386375427246
1684110571483512600,2.5025126953125,1.6747355461120605,1.3547797203063965,-2.0562663078308105
1684110571493554200,2.51255419921875,1.4569177627563477,1.0567235946655273,-1.9516880512237549
1684110571503595800,2.522595703125,1.0120692253112793,0.5040440559387207,-1.8333494663238525
1684110571513637400,2.532637451171875,0.6968421936035156,0.20261001586914062,-1.5663442611694336
1684110571523679000,2.542678955078125,0.32228899002075195,0.06479740142822266,-1.2083442211151123
1684110571533720600,2.552720458984375,-0.13755416870117188,-0.5743780136108398,-0.6567440032958984
1684110571543762200,2.56276220703125,-0.040169477462768555,-0.5705957412719727,-0.2573390007019043
1684110571553803800,2.5728037109375,-0.39524340629577637,-0.6563549041748047,0.107452392578125
1684110571563845400,2.582845458984375,-0.36438488960266113,-0.7694997787475586,0.39412593841552734
1684110571573887000,2.592886962890625,-0.3480079174041748,-0.6169548034667969,0.21325922012329102
1684110571583928600,2.602928466796875,-0.7201776504516602,-1.2408571243286133,0.15645790100097656
1684110571593970200,2.61297021484375,-0.8250718116760254,-1.1055469512939453,0.046669960021972656
1684110571604011800,2.62301171875,-0.8381626605987549,-1.0338678359985352,-0.0524139404296875
1684110571614053400,2.633053466796875,-0.6616241931915283,-0.8127269744873047,-0.16243934631347656
1684110571624095000,2.643094970703125,-0.5157182216644287,-0.6037559509277344,-0.46646595001220703
1684110571634136600,2.653136474609375,-0.3816351890563965,-0.45833873748779297,-0.6797318458557129
1684110571644178200,2.66317822265625,-0.1940898895263672,-0.2871112823486328,-0.8495218753814697
1684110571654219800,2.6732197265625,-0.03145766258239746,-0.14664077758789062,-1.1147325038909912
1684110571664261400,2.683261474609375,0.08375000953674316,0.01575183868408203,-1.3053710460662842
1684110571674303000,2.693302978515625,0.34393811225891113,0.3611154556274414,-1.5802781581878662
1684110571684344600,2.703344482421875,0.1233055591583252,0.22922229766845703,-1.2598612308502197
1684110571694386200,2.71338623046875,0.22913622856140137,0.6916265487670898,-0.9773538112640381
1684110571704427800,2.723427734375,0.2987782955169678,0.7372798919677734,-1.2037146091461182
1684110571714469400,2.733469482421875,0.1589522361755371,0.35570716857910156,-0.9729955196380615
1684110571724511000,2.743510986328125,0.26823949813842773,0.20699691772460938,-0.5870420932769775
1684110571734552600,2.753552490234375,0.06940484046936035,0.2703056335449219,-0.1942148208618164
1684110571744594200,2.76359423828125,-0.03676319122314453,0.5646476745605469,0.06435680389404297
1684110571754635800,2.7736357421875,-0.10425686836242676,0.46915245056152344,0.2768712043762207
1684110571764677400,2.783677490234375,-0.1562209129333496,0.3885364532470703,0.41655921936035156
1684110571774719000,2.793718994140625,-0.16468191146850586,0.4012784957885742,0.5520310401916504
1684110571784760600,2.803760498046875,-0.2413344383239746,0.574732780456543,0.7719993591308594
1684110571794802200,2.81380224609375,-0.46956706047058105,0.16316699981689453,0.5464615821838379
1684110571804843800,2.82384375,-0.6251959800720215,-0.2103271484375,0.4889187812805176
1684110571814885400,2.833885498046875,-0.6210834980010986,-0.1027212142944336,0.6648893356323242
1684110571824927000,2.843927001953125,-0.3655862808227539,0.11665534973144531,0.6034584045410156
1684110571834968600,2.853968505859375,-0.14131879806518555,0.31127166748046875,0.3873777389526367
1684110571845010200,2.86401025390625,0.029906749725341797,0.441375732421875,0.32856178283691406
1684110571855051800,2.8740517578125,0.22252869606018066,0.48320865631103516,0.24502992630004883
1684110571865093400,2.88409326171875,0.3887157440185547,0.3874082565307617,0.018462657928466797
1684110571875135000,2.894135009765625,0.4945260286331177,0.45180797576904297,-0.20837807655334473
1684110571885176600,2.904176513671875,0.43845856189727783,0.4788942337036133,-0.38292360305786133
1684110571895218200,2.91421826171875,0.18563485145568848,0.4612255096435547,-0.5750865936279297
1684110571905259800,2.924259765625,-0.09593796730041504,0.47942066192626953,-0.7439615726470947
1684110571915301400,2.93430126953125,-0.4233860969543457,0.5329370498657227,-0.8488016128540039
1684110571925343000,2.944343017578125,-0.7150475978851318,0.580963134765625,-0.8516173362731934
1684110571935384600,2.954384521484375,-0.7022910118103027,0.9712467193603516,-0.7276866436004639
1684110571945426200,2.96442626953125,-1.0148134231567383,0.1844005584716797,-0.7300715446472168
1684110571955467800,2.9744677734375,-0.9082143306732178,-0.5586271286010742,-0.6944005489349365
1684110571965509400,2.98450927734375,-0.4840679168701172,-1.1061620712280273,-0.5741457939147949
1684110571975551000,2.994551025390625,-0.3865344524383545,-1.6151723861694336,-0.44332289695739746
1684110571985592600,3.004592529296875,-0.44197022914886475,-1.3901176452636719,-0.26642441749572754
1684110571995634200,3.01463427734375,-1.1034412384033203,-1.1614084243774414,-0.221221923828125
1684110572005675800,3.02467578125,-2.172463893890381,-0.7933673858642578,0.06008195877075195
1684110572015717400,3.03471728515625,-3.1819968223571777,-1.7226409912109375,-0.2242579460144043
1684110572025759000,3.044759033203125,-3.6098976135253906,-1.8588247299194336,0.17813777923583984
1684110572035800600,3.054800537109375,-3.7275583744049072,-2.589200019836426,0.6272952556610107
1684110572045842200,3.06484228515625,-3.0452957153320312,-2.7147083282470703,1.3312273025512695
1684110572055883800,3.0748837890625,-1.8324205875396729,-2.5458250045776367,1.9515950679779053
1684110572065925400,3.08492529296875,-0.41808462142944336,-2.131319999694824,1.9541618824005127
1684110572075967000,3.094967041015625,0.7588996887207031,-1.3755807876586914,1.2401118278503418
1684110572086008600,3.105008544921875,1.5157982110977173,0.034981727600097656,0.213775634765625
1684110572096050200,3.11505029296875,2.1398682594299316,1.4565057754516602,-0.20364093780517578
1684110572106091800,3.125091796875,2.540011167526245,2.193805694580078,-0.44257521629333496
1684110572116133400,3.13513330078125,2.4855947494506836,2.058844566345215,-0.8856804370880127
1684110572126175000,3.145175048828125,2.2461674213409424,1.7463946342468262,-1.3439401388168335
1684110572136216600,3.155216552734375,1.834962010383606,1.3590693473815918,-1.7296510934829712
1684110572146258200,3.165258056640625,1.3302806615829468,0.9081306457519531,-2.0473716259002686
1684110572156299800,3.1752998046875,0.8659309148788452,0.5716657638549805,-2.2302794456481934
1684110572166341400,3.18534130859375,0.4465498924255371,0.2868623733520508,-2.312469959259033
1684110572176383000,3.195383056640625,0.1291574239730835,0.025951385498046875,-2.201042652130127
1684110572186424600,3.205424560546875,-0.07966792583465576,-0.1052389144897461,-1.700145959854126
1684110572196466200,3.215466064453125,-0.22719216346740723,-0.010908126831054688,-0.9920917749404907
1684110572206507800,3.2255078125,-0.30491673946380615,0.016661643981933594,-0.38306570053100586
1684110572216549400,3.23554931640625,-0.2390958070755005,0.19989967346191406,0.05745816230773926
1684110572226591000,3.245591064453125,-0.06263434886932373,0.27777576446533203,0.344759464263916
1684110572236632600,3.255632568359375,0.15979552268981934,0.2684478759765625,0.5324342250823975
1684110572246674200,3.265674072265625,0.33026123046875,0.1804180145263672,0.5548129081726074
1684110572256715800,3.2757158203125,0.34995800256729126,-0.1310892105102539,0.5282533168792725
1684110572266757400,3.28575732421875,0.3010815382003784,-0.38580894470214844,0.4328444004058838
1684110572276799000,3.295799072265625,0.2646993398666382,-0.5379476547241211,0.28520703315734863
1684110572286840600,3.305840576171875,0.3238255977630615,-0.5130271911621094,0.1335604190826416
1684110572296882200,3.315882080078125,0.33463966846466064,-0.47835540771484375,0.01826763153076172
1684110572306923800,3.325923828125,0.41688287258148193,-0.27258968353271484,-0.08985519409179688
1684110572316965400,3.33596533203125,0.4747390151023865,-0.2486124038696289,0.25105738639831543
1684110572327007000,3.346007080078125,0.6083783507347107,-0.22580337524414062,0.25042009353637695
1684110572337048600,3.356048583984375,0.6001371145248413,-0.33541107177734375,0.012911796569824219
1684110572347090200,3.366090087890625,0.6943139433860779,-0.24415302276611328,-0.24044418334960938
1684110572357131800,3.3761318359375,0.8195139765739441,-0.0957193374633789,-0.30730199813842773
1684110572367173400,3.38617333984375,0.9941409826278687,-0.017409324645996094,-0.3044462203979492
1684110572377215000,3.396215087890625,1.2830722332000732,0.12209510803222656,-0.2741568088531494
1684110572387256600,3.406256591796875,1.6813526153564453,0.22970104217529297,-0.19401788711547852
1684110572397298200,3.416298095703125,2.0688273906707764,0.4325103759765625,-0.18640804290771484
1684110572407339800,3.42633984375,2.383267879486084,0.5016202926635742,-0.1033632755279541
1684110572417381400,3.43638134765625,2.647134780883789,0.43053245544433594,-0.05569815635681152
1684110572427423000,3.446423095703125,2.7536392211914062,0.27223968505859375,-0.06282496452331543
1684110572437464600,3.456464599609375,2.617015838623047,0.009987831115722656,-0.22228968143463135
1684110572447506200,3.466506103515625,2.4660346508026123,-0.010226249694824219,-0.3471662998199463
1684110572457547800,3.4765478515625,2.3229994773864746,0.11038970947265625,-0.3580789566040039
1684110572467589400,3.48658935546875,2.1474947929382324,0.1685962677001953,-0.4590085744857788
1684110572477631000,3.496630859375,1.9910820722579956,0.14095687866210938,-0.5739060640335083
1684110572487672600,3.506672607421875,1.8104097843170166,0.1255483627319336,-0.6853867769241333
1684110572497714200,3.516714111328125,1.6097023487091064,-0.045012474060058594,-0.8441488742828369
1684110572507755800,3.526755859375,1.5825130939483643,0.038268089294433594,-0.9419108629226685
1684110572517797400,3.53679736328125,1.4176181554794312,-0.0066986083984375,-1.0841234922409058
1684110572527839000,3.5468388671875,1.165944218635559,-0.1049947738647461,-1.1463279724121094
1684110572537880600,3.556880615234375,0.8797488212585449,-0.2633934020996094,-1.2246649265289307
1684110572547922400,3.56692236328125,0.6319698095321655,-0.20463085174560547,-1.23598313331604
1684110572557963800,3.5769638671875,0.36568066477775574,-0.1993112564086914,-1.1271698474884033
1684110572568005400,3.58700537109375,0.08937689661979675,-0.24829864501953125,-1.0399296283721924
1684110572578047000,3.597046875,-0.10471419990062714,-0.22107696533203125,-0.8058447241783142
1684110572588088800,3.6070888671875,-0.1266559511423111,-0.2402486801147461,-0.5455122590065002
1684110572598130200,3.617130126953125,-0.044385239481925964,-0.09352970123291016,-0.29481208324432373
1684110572608171800,3.627171875,0.08210589736700058,0.04904747009277344,-0.04041707515716553
1684110572618213600,3.637213623046875,0.2146943211555481,0.12301445007324219,0.16220557689666748
1684110572628255200,3.647255126953125,0.2973328232765198,0.10698604583740234,0.3098231554031372
1684110572638296600,3.657296630859375,0.3444286584854126,0.029689788818359375,0.5175957083702087
1684110572648338200,3.667338134765625,0.39493024349212646,-0.008543968200683594,0.6924446225166321
1684110572658380000,3.677380126953125,0.3907933831214905,-0.06997108459472656,0.8697344660758972
1684110572668421600,3.687421630859375,0.3781058192253113,-0.19499778747558594,0.9969676733016968
1684110572678463000,3.697462890625,0.27926650643348694,-0.34492015838623047,1.0829434394836426
1684110572688504600,3.707504638671875,0.21425190567970276,-0.4141807556152344,1.1331532001495361
1684110572698546400,3.71754638671875,0.15802216529846191,-0.5624961853027344,0.9949904680252075
1684110572708588000,3.727588134765625,0.15664181113243103,-0.5362997055053711,0.9126690626144409
1684110572718629400,3.73762939453125,0.19425731897354126,-0.35509777069091797,0.8452335000038147
1684110572728671200,3.747671142578125,0.2743120491504669,-0.11480140686035156,0.7040045857429504
1684110572738712800,3.757712890625,0.34421515464782715,0.0793447494506836,0.5928153991699219
1684110572748754400,3.76775439453125,0.3702331483364105,0.1916646957397461,0.4833586812019348
1684110572758795800,3.777795654296875,0.3768603503704071,0.2988605499267578,0.32155686616897583
1684110572768837600,3.787837646484375,0.36964696645736694,0.3533048629760742,0.21631360054016113
1684110572778879200,3.797879150390625,0.3755066394805908,0.3600606918334961,0.02635246515274048
1684110572788920800,3.8079208984375,0.377768874168396,0.29787158966064453,-0.15277069807052612
1684110572798962400,3.81796240234375,0.39715296030044556,0.24094104766845703,-0.23346874117851257
1684110572809004000,3.828004150390625,0.38409578800201416,0.2249622344970703,-0.2840786874294281
1684110572819045600,3.838045654296875,0.3898125886917114,0.2830924987792969,-0.3303384482860565
1684110572829087200,3.848087158203125,0.36833512783050537,0.2669181823730469,-0.34111207723617554
1684110572839128800,3.85812890625,0.31803643703460693,0.23618698120117188,-0.27134186029434204
1684110572849170400,3.86817041015625,0.2582964301109314,0.2122354507446289,-0.2673119902610779
1684110572859212000,3.8782119140625,0.20360374450683594,0.16617870330810547,-0.27466610074043274
1684110572869253600,3.888253662109375,0.15213006734848022,0.107452392578125,-0.2677053213119507
1684110572879295200,3.898295166015625,0.1030084490776062,0.028818130493164062,-0.3181590139865875
1684110572889336800,3.9083369140625,0.0699310302734375,-0.043476104736328125,-0.2859797477722168
1684110572899378400,3.91837841796875,0.04444378614425659,-0.09754180908203125,-0.2547265589237213
1684110572909420000,3.928419921875,-0.04173636436462402,-0.17152881622314453,-0.15624791383743286
1684110572919461600,3.938461669921875,-0.10924416780471802,-0.2626838684082031,0.03484296798706055
1684110572929503200,3.948503173828125,-0.17504823207855225,-0.4062528610229492,0.2477928102016449
1684110572939544800,3.958544921875,-0.14290815591812134,-0.47513389587402344,0.207167387008667
1684110572949586400,3.96858642578125,0.021894872188568115,-0.5029230117797852,-0.011588871479034424
1684110572959628000,3.9786279296875,0.09198534488677979,-0.4612722396850586,-0.4096251130104065
1684110572969669600,3.988669677734375,0.0061154961585998535,-0.4004249572753906,-0.49313706159591675
1684110572979711200,3.998711181640625,-0.04585683345794678,-0.2987384796142578,-0.5258099436759949
1684110572989752800,4.0087529296875,-0.09713476896286011,-0.17287158966064453,-0.5751259922981262
1684110572999794400,4.01879443359375,-0.19740569591522217,-0.06337451934814453,-0.5980020761489868
1684110573009836000,4.0288359375,-0.278772234916687,-0.018075942993164062,-0.6660395264625549
1684110573019877600,4.038877685546875,-0.33925074338912964,0.1200265884399414,-0.8332952857017517
1684110573029919200,4.048919189453125,-0.4195975661277771,0.056728363037109375,-0.5123564004898071
1684110573039960800,4.0589609375,-0.41186004877090454,-0.04941558837890625,-0.07162576913833618
1684110573050002400,4.06900244140625,-0.40514832735061646,-0.09783077239990234,0.2546982765197754
1684110573060044000,4.0790439453125,-0.3879234790802002,-0.15789508819580078,0.48305952548980713
1684110573070085600,4.089085693359375,-0.3632948398590088,-0.17950916290283203,0.7117246985435486
1684110573080127200,4.099127197265625,-0.32266801595687866,-0.1508474349975586,0.928075909614563
1684110573090168800,4.1091689453125,-0.2669527530670166,-0.1317729949951172,1.0958964824676514
1684110573100210400,4.11921044921875,-0.24211382865905762,-0.16286849975585938,1.2340599298477173
1684110573110252000,4.129251953125,-0.19567883014678955,-0.11986541748046875,1.3166388273239136
1684110573120293600,4.139293701171875,-0.12967580556869507,-0.15574169158935547,1.3795230388641357
1684110573130335200,4.149335205078125,-0.06259810924530029,-0.17708206176757812,1.413078784942627
1684110573140376800,4.159376953125,0.004159092903137207,-0.2578458786010742,1.405344843864441
1684110573150418400,4.16941845703125,0.09055405855178833,-0.30465221405029297,1.3610248565673828
1684110573160460000,4.1794599609375,0.20445317029953003,-0.3676137924194336,1.334688425064087
1684110573170501600,4.189501708984375,0.3390694260597229,-0.4847888946533203,1.308958888053894
1684110573180543200,4.199543212890625,0.5009871125221252,-0.5795698165893555,1.2519636154174805
1684110573190584800,4.209584716796875,0.6930482983589172,-0.5637617111206055,1.2111260890960693
1684110573200626400,4.21962646484375,0.8793370127677917,-0.5453433990478516,1.143713355064392
1684110573210668000,4.22966796875,1.043297529220581,-0.5292901992797852,1.1383930444717407
1684110573220709600,4.239709716796875,1.1543934345245361,-0.4822807312011719,1.106553077697754
1684110573230751200,4.249751220703125,1.2021334171295166,-0.4569969177246094,1.026862382888794
1684110573240792800,4.259792724609375,1.2151273488998413,-0.4247274398803711,0.8492727279663086
1684110573250834400,4.26983447265625,1.1990795135498047,-0.4117860794067383,0.6487931609153748
1684110573260876000,4.2798759765625,1.1146131753921509,-0.3799457550048828,0.45017319917678833
1684110573270917600,4.289917724609375,1.0205512046813965,-0.21484661102294922,0.15071940422058105
1684110573280959200,4.299959228515625,0.9039852619171143,-0.08198356628417969,-0.1263362169265747
1684110573291000800,4.310000732421875,0.8136325478553772,0.016210556030273438,-0.34146034717559814
1684110573301042400,4.32004248046875,0.6767545342445374,0.09894275665283203,-0.5157982110977173
1684110573311084000,4.330083984375,0.5542708039283752,0.1280956268310547,-0.6327434778213501
1684110573321125600,4.340125732421875,0.4487958550453186,0.15633678436279297,-0.6925915479660034
1684110573331167200,4.350167236328125,0.28330373764038086,0.1454305648803711,-0.7342897653579712
1684110573341208800,4.360208740234375,0.05377417802810669,0.1195840835571289,-0.6222786903381348
1684110573351250400,4.37025048828125,-0.2898327708244324,-0.004117012023925781,-0.44372880458831787
1684110573361292000,4.3802919921875,-0.625665009021759,-0.1860208511352539,-0.19896173477172852
1684110573371333600,4.390333740234375,-0.8600002527236938,-0.21735382080078125,0.03467750549316406
1684110573381375200,4.400375244140625,-1.0032386779785156,0.15079021453857422,-0.11569690704345703
1684110573391416800,4.410416748046875,-1.1212166547775269,0.14984512329101562,0.16348886489868164
1684110573401458400,4.42045849609375,-1.0897088050842285,0.20185375213623047,0.7681455612182617
1684110573411500000,4.4305,-0.9329703450202942,0.27625465393066406,1.2172163724899292
1684110573421541600,4.440541748046875,-0.7113894820213318,0.41095542907714844,1.37265944480896
1684110573431583200,4.450583251953125,-0.4890744090080261,0.4550914764404297,1.4842257499694824
1684110573441624800,4.460624755859375,-0.2645881772041321,0.4567098617553711,1.5632169246673584
1684110573451666400,4.47066650390625,-0.04301249980926514,0.36344432830810547,1.559113621711731
1684110573461708000,4.4807080078125,0.1448216438293457,0.2948789596557617,1.4415102005004883
1684110573471749600,4.49074951171875,0.30636054277420044,0.14820575714111328,1.31855046749115
1684110573481791200,4.500791259765625,0.40381407737731934,0.07161903381347656,1.1572753190994263
1684110573491832800,4.510832763671875,0.4520267844200134,-0.009130477905273438,0.9915087223052979
1684110573501874400,4.52087451171875,0.4344083070755005,-0.09168434143066406,0.7831957340240479
1684110573511916000,4.530916015625,0.40574830770492554,-0.13314056396484375,0.5900756120681763
1684110573521957600,4.54095751953125,0.3369578719139099,-0.11223030090332031,0.3433462381362915
1684110573531999200,4.550999267578125,0.23769637942314148,-0.0937032699584961,0.1894528865814209
1684110573542040800,4.561040771484375,0.09216246008872986,-0.08713054656982422,0.018639802932739258
1684110573552082400,4.57108251953125,-0.10553169250488281,-0.0829172134399414,-0.09011340141296387
1684110573562124000,4.5811240234375,-0.4032284915447235,-0.14308929443359375,-0.14418244361877441
1684110573572165600,4.59116552734375,-0.6977391839027405,-0.214874267578125,-0.12249529361724854
1684110573582207200,4.601207275390625,-0.9700999855995178,-0.20517921447753906,-0.09439432621002197
1684110573592248800,4.611248779296875,-1.2252333164215088,-0.13823795318603516,-0.05976581573486328
1684110573602290400,4.62129052734375,-1.4107415676116943,-0.09072017669677734,0.04025459289550781
1684110573612332000,4.63133203125,-1.5512661933898926,-0.1009979248046875,0.12080001831054688
1684110573622373600,4.64137353515625,-1.6362295150756836,-0.09533500671386719,0.2171940803527832
1684110573632415200,4.651415283203125,-1.6369831562042236,-0.0480194091796875,0.2831552028656006
1684110573642456800,4.661456787109375,-1.4977402687072754,-0.009881973266601562,0.35853755474090576
1684110573652498400,4.67149853515625,-1.1886157989501953,0.028135299682617188,0.4881710410118103
1684110573662540000,4.6815400390625,-0.7508621215820312,-0.03210258483886719,0.5924879908561707
1684110573672581600,4.69158154296875,-0.2648813724517822,-0.13049793243408203,0.6687718033790588
1684110573682623200,4.701623291015625,0.21807098388671875,-0.2759723663330078,0.6974638104438782
1684110573692664800,4.711664794921875,0.5766986012458801,-0.46063232421875,0.6049607992172241
1684110573702706400,4.72170654296875,0.9102859497070312,-0.5839080810546875,0.30133873224258423
1684110573712748000,4.731748046875,1.17499840259552,-0.7797317504882812,0.04220324754714966
1684110573722789600,4.74178955078125,1.393662691116333,-0.9575347900390625,-0.16682255268096924
1684110573732831200,4.751831298828125,1.8044242858886719,-1.0555486679077148,-0.36450517177581787
1684110573742872800,4.761872802734375,2.2000529766082764,-1.138136863708496,-0.5613141059875488
1684110573752914400,4.77191455078125,2.486906051635742,-1.3072481155395508,-0.7323468327522278
1684110573762956000,4.7819560546875,2.5332250595092773,-1.4160346984863281,-1.029528021812439
1684110573772997600,4.79199755859375,2.5702357292175293,-1.3845949172973633,-1.2023015022277832
1684110573783039200,4.802039306640625,2.6287176609039307,-1.393655776977539,-1.2321436405181885
1684110573793080800,4.812080810546875,2.6219146251678467,-1.2777729034423828,-1.2017884254455566
1684110573803122400,4.822122314453125,2.6058592796325684,-0.9989614486694336,-1.0743420124053955
1684110573813164000,4.8321640625,2.46858811378479,-0.6917171478271484,-0.7574232220649719
1684110573823205600,4.84220556640625,2.217066764831543,-0.30440425872802734,-0.2913852334022522
1684110573833247200,4.852247314453125,1.9609068632125854,0.013846397399902344,0.18910153210163116
1684110573843288800,4.862288818359375,1.8790645599365234,0.3200817108154297,0.7101718187332153
1684110573853330400,4.872330322265625,1.9992390871047974,0.5380802154541016,1.1223673820495605
1684110573863372000,4.8823720703125,2.258413553237915,0.6854677200317383,1.3255994319915771
1684110573873414000,4.892413818359375,2.472292423248291,0.7486801147460938,1.4418840408325195
1684110573883455200,4.902455322265625,2.452439308166504,0.7922935485839844,1.2596248388290405
1684110573893496800,4.912496826171875,2.1648924350738525,0.7843074798583984,0.8695386648178101
1684110573903538400,4.922538330078125,1.8373888731002808,0.7450780868530273,0.474138468503952
1684110573913580300,4.932580322265625,1.528977632522583,0.5949382781982422,0.18488892912864685
1684110573923622000,4.942621826171875,1.3598718643188477,0.4748992919921875,-0.05475785210728645
1684110573933663200,4.952663330078125,1.215805172920227,0.3040962219238281,-0.3149338960647583
1684110573943705000,4.962705078125,1.1351627111434937,0.16434860229492188,-0.5688942074775696
1684110573953746700,4.97274658203125,0.9946445226669312,0.08455371856689453,-0.9054392576217651
1684110573963788300,4.982788330078125,0.8529874086380005,-0.064117431640625,-1.1706527471542358
1684110573973829600,4.99282958984375,0.7217724323272705,-0.17154407501220703,-1.3692954778671265
1684110573983871500,5.00287158203125,0.5757162570953369,-0.2810239791870117,-1.5321191549301147
1684110573993913000,5.0129130859375,0.3999161720275879,-0.2376871109008789,-1.6891095638275146
1684110574003954700,5.02295458984375,0.17544984817504883,-0.14033889770507812,-1.8084458112716675
1684110574013996300,5.032996337890625,-0.012030839920043945,-0.04206562042236328,-1.82393479347229
1684110574024038000,5.043037841796875,-0.03603863716125488,0.03564167022705078,-1.8441323041915894
1684110574034079500,5.05307958984375,0.05560493469238281,-0.009419441223144531,-1.786800742149353
1684110574044121000,5.06312109375,0.2020258903503418,-0.1571369171142578,-1.777681589126587
1684110574054162700,5.07316259765625,0.31964099407196045,-0.20373821258544922,-1.813868522644043
1684110574064204300,5.083204345703125,0.4407660961151123,-0.14435863494873047,-1.9317469596862793
1684110574074246000,5.093245849609375,0.4802354574203491,-0.019937515258789062,-2.0473761558532715
1684110574084287500,5.10328759765625,0.44280004501342773,0.013773918151855469,-2.1268582344055176
1684110574094329000,5.1133291015625,0.39281225204467773,0.042565345764160156,-2.114177703857422
1684110574104370700,5.12337060546875,0.32625722885131836,0.1450815200805664,-1.9978985786437988
1684110574114412300,5.133412353515625,0.3316168785095215,0.21836471557617188,-1.8294345140457153
1684110574124454000,5.143453857421875,0.3246877193450928,0.2672872543334961,-1.68905770778656
1684110574134495500,5.15349560546875,0.3569427728652954,0.3876056671142578,-1.5395996570587158
1684110574144537000,5.163537109375,0.3958317041397095,0.3931083679199219,-1.4448710680007935
1684110574154578700,5.17357861328125,0.4214603900909424,0.41075801849365234,-1.3445618152618408
1684110574164620300,5.183620361328125,0.3971090316772461,0.43832874298095703,-1.1437833309173584
1684110574174662000,5.193661865234375,0.31637799739837646,0.4499378204345703,-0.8328943848609924
1684110574184703500,5.203703369140625,0.184906005859375,0.3958244323730469,-0.4017796814441681
1684110574194745000,5.2137451171875,0.03598451614379883,0.3932018280029297,0.024785153567790985
1684110574204786700,5.22378662109375,-0.10477209091186523,0.39617156982421875,0.38545435667037964
1684110574214828300,5.233828369140625,-0.18697428703308105,0.24653148651123047,0.6240687966346741
1684110574224870000,5.243869873046875,-0.1079566478729248,-0.1179666519165039,0.8423706889152527
1684110574234911500,5.253911376953125,0.18813157081604004,-0.34601593017578125,1.1424241065979004
1684110574244953000,5.263953125,0.6544793844223022,-0.2586326599121094,1.3182194232940674
1684110574254994700,5.27399462890625,1.1945183277130127,0.09630107879638672,1.1974773406982422
1684110574265036300,5.284036376953125,1.5066347122192383,0.38918304443359375,0.9585503935813904
1684110574275078000,5.294077880859375,1.5431588888168335,0.4793386459350586,0.6710488796234131
1684110574285119500,5.304119384765625,1.3634724617004395,0.41709136962890625,0.37069451808929443
1684110574295161000,5.3141611328125,1.0436861515045166,0.27649497985839844,0.17597174644470215
1684110574305202700,5.32420263671875,0.5732406377792358,0.12437725067138672,0.14107437431812286
1684110574315244300,5.334244384765625,0.044030070304870605,0.034636497497558594,0.2516685128211975
1684110574325286000,5.344285888671875,-0.40709924697875977,-0.04552936553955078,0.4272049069404602
1684110574335327500,5.354327392578125,-0.7104063034057617,-0.11864280700683594,0.554327130317688
1684110574345369000,5.364369140625,-0.8963718414306641,-0.11321830749511719,0.5802142024040222
1684110574355410700,5.37441064453125,-0.9995161294937134,-0.09180641174316406,0.6036660075187683
1684110574365452300,5.384452392578125,-0.9568415880203247,-0.04268455505371094,0.6074081063270569
1684110574375494000,5.394493896484375,-0.7570092678070068,0.024608612060546875,0.30305659770965576
1684110574385535500,5.404535400390625,-0.36441195011138916,0.05077171325683594,-0.04231996834278107
1684110574395577000,5.4145771484375,0.02165663242340088,-0.028009414672851562,-0.4443768858909607
1684110574405618700,5.42461865234375,0.3938804864883423,-0.2850532531738281,-0.8335334062576294
1684110574415660300,5.434660400390625,0.602857232093811,-0.6695413589477539,-1.275598406791687
1684110574425702000,5.444701904296875,0.5941035747528076,-1.014052391052246,-1.6430692672729492
1684110574435743500,5.454743408203125,0.35760247707366943,-1.104081153869629,-1.9052238464355469
1684110574445785000,5.46478515625,-0.029459834098815918,-1.0554237365722656,-1.9992499351501465
1684110574455826700,5.47482666015625,-0.5705053806304932,-1.1460599899291992,-2.044828176498413
1684110574465868300,5.484868408203125,-1.2899353504180908,-1.4192533493041992,-2.1152141094207764
1684110574475910000,5.494909912109375,-2.097296953201294,-1.6148624420166016,-1.9353065490722656
1684110574485951500,5.504951416015625,-2.697323799133301,-1.6544857025146484,-1.4790866374969482
1684110574495993000,5.5149931640625,-2.4289016723632812,-1.2703266143798828,-0.6945888996124268
1684110574506034700,5.52503466796875,-1.4438374042510986,-0.5527858734130859,0.1250743418931961
1684110574516076300,5.535076171875,-0.3497370481491089,0.22856998443603516,0.7218554615974426
1684110574526118000,5.545117919921875,0.5628583431243896,0.8900165557861328,0.9788624048233032
1684110574536159500,5.555159423828125,1.1559414863586426,1.3240432739257812,0.8602904081344604
1684110574546201000,5.565201171875,1.564832329750061,1.4351263046264648,0.4357967674732208
1684110574556242700,5.57524267578125,1.8317031860351562,1.4554462432861328,0.20050223171710968
1684110574566284300,5.5852841796875,1.963497519493103,1.3613662719726562,0.1168535053730011
1684110574576326000,5.595325927734375,1.9763407707214355,1.1700210571289062,0.16245415806770325
1684110574586367500,5.605367431640625,1.9033560752868652,0.7981710433959961,0.2068609595298767
1684110574596409000,5.6154091796875,1.7372684478759766,0.4564085006713867,0.2575984001159668
1684110574606450700,5.62545068359375,1.5017625093460083,0.1016702651977539,0.38394367694854736
1684110574616492300,5.6354921875,1.1781136989593506,-0.2302846908569336,0.5355175137519836
1684110574626534000,5.645533935546875,0.8026366233825684,-0.3868074417114258,0.6721029877662659
1684110574636575500,5.655575439453125,0.439330518245697,-0.6002473831176758,0.8220109939575195
1684110574646617000,5.6656171875,0.17169541120529175,-0.5411605834960938,0.9033306837081909
1684110574656658700,5.67565869140625,0.06849437952041626,-0.5350675582885742,0.973456621170044
1684110574666700300,5.6857001953125,-0.04077470302581787,-0.5269107818603516,0.9708336591720581
1684110574676742000,5.695741943359375,-0.10252618789672852,-0.4594001770019531,0.8431396484375
1684110574686783500,5.705783447265625,-0.16668009757995605,-0.31601524353027344,0.6231785416603088
1684110574696825000,5.7158251953125,-0.22137576341629028,-0.1160421371459961,0.2524324655532837
1684110574706866700,5.72586669921875,-0.16872769594192505,0.0018453598022460938,-0.22219353914260864
1684110574716908300,5.735908203125,-0.04254567623138428,0.09266471862792969,-0.6738458275794983
1684110574726950000,5.745949951171875,0.08566462993621826,0.07281970977783203,-0.9985253214836121
1684110574736991700,5.75599169921875,0.19489693641662598,0.05483722686767578,-1.115480661392212
1684110574747033000,5.766033203125,0.26611560583114624,0.08179759979248047,-1.0978267192840576
1684110574757074700,5.77607470703125,0.3537003695964813,0.20147323608398438,-1.032511591911316
1684110574767116500,5.786116455078125,0.4565960466861725,0.3539438247680664,-0.9808093309402466
1684110574777158100,5.796158203125,0.6098964810371399,0.515228271484375,-0.8796077370643616
1684110574787199500,5.806199462890625,0.8077121376991272,0.6352243423461914,-0.7577017545700073
1684110574797241000,5.816240966796875,1.008338451385498,0.5708246231079102,-0.6272432804107666
1684110574807283000,5.826282958984375,1.2277209758758545,0.4252510070800781,-0.5004914999008179
1684110574817324500,5.836324462890625,1.4425694942474365,0.3588409423828125,-0.4230625629425049
1684110574827366100,5.8463662109375,1.6054521799087524,0.31420230865478516,-0.35413551330566406
1684110574837407700,5.85640771484375,1.7064268589019775,0.2459115982055664,-0.2744414806365967
1684110574847449300,5.866449462890625,1.7794976234436035,0.12532901763916016,-0.23907673358917236
1684110574857491000,5.876490966796875,1.7895584106445312,0.005021095275878906,-0.19497311115264893
1684110574867532500,5.886532470703125,1.804024338722229,-0.05299091339111328,-0.16831213235855103
1684110574877574100,5.89657421875,1.7852437496185303,-0.07990646362304688,-0.14296090602874756
1684110574887615700,5.90661572265625,1.7575799226760864,-0.09009647369384766,-0.08874017000198364
1684110574897657300,5.9166572265625,1.7242215871810913,-0.05727577209472656,-0.05461663007736206
1684110574907699000,5.926698974609375,1.6807501316070557,-0.043613433837890625,-0.036212146282196045
1684110574917740500,5.936740478515625,1.6343262195587158,-0.008398056030273438,-0.022189617156982422
1684110574927782100,5.9467822265625,1.567590594291687,0.034137725830078125,-0.042291879653930664
1684110574937823700,5.95682373046875,1.489670991897583,0.06492805480957031,-0.10399067401885986
1684110574947865300,5.966865234375,1.3910109996795654,0.08395671844482422,-0.18528437614440918
1684110574957907000,5.976906982421875,1.2434011697769165,0.043426513671875,-0.2427382469177246
1684110574967948500,5.986948486328125,1.0975114107131958,0.0007762908935546875,-0.347988486289978
1684110574977990100,5.996990234375,0.8917466402053833,-0.05360698699951172,-0.38825786113739014
1684110574988031700,6.00703173828125,0.6747593283653259,-0.07917594909667969,-0.4538232088088989
1684110574998073300,6.0170732421875,0.5028199553489685,-0.059363365173339844,-0.5081615447998047
1684110575008115000,6.027114990234375,0.33862578868865967,-0.0731201171875,-0.5199261903762817
1684110575018156500,6.037156494140625,0.223624587059021,-0.0797719955444336,-0.5319052934646606
1684110575028198100,6.0471982421875,0.1581280529499054,-0.07695293426513672,-0.460224986076355
1684110575038239700,6.05723974609375,0.16113893687725067,-0.11243438720703125,-0.4052358865737915
1684110575048281300,6.06728125,0.1984734833240509,-0.09059619903564453,-0.2902655601501465
1684110575058323000,6.077322998046875,0.23607376217842102,-0.10950279235839844,-0.20361864566802979
1684110575068364500,6.087364501953125,0.30935490131378174,-0.0687856674194336,-0.09941411018371582
1684110575078406100,6.09740625,0.39161747694015503,-0.006791114807128906,-0.04222428798675537
1684110575088447700,6.10744775390625,0.45847105979919434,0.014357566833496094,0.022818684577941895
1684110575098489300,6.1174892578125,0.5239078402519226,0.018655776977539062,0.06453084945678711
1684110575108531000,6.127531005859375,0.5945086479187012,0.006192207336425781,0.09210336208343506
1684110575118572500,6.137572509765625,0.6125978231430054,0.017601966857910156,0.11989885568618774
1684110575128614100,6.1476142578125,0.6326736807823181,0.028967857360839844,0.10469192266464233
1684110575138655700,6.15765576171875,0.6208715438842773,-0.00030994415283203125,0.08951449394226074
1684110575148697300,6.167697265625,0.6030212640762329,0.02296161651611328,0.0006871223449707031
1684110575158739000,6.177739013671875,0.5623579621315002,0.015081405639648438,-0.044771671295166016
1684110575168780500,6.187780517578125,0.5278996825218201,0.03822612762451172,-0.06853008270263672
1684110575178822100,6.197822265625,0.4718340039253235,0.03737354278564453,-0.10384631156921387
1684110575188863700,6.20786376953125,0.4453836977481842,0.007830619812011719,-0.10537421703338623
1684110575198905300,6.2179052734375,0.4144226610660553,-0.01900768280029297,-0.1497746706008911
1684110575208947000,6.227947021484375,0.39766713976860046,-0.02897930145263672,-0.17393600940704346
1684110575218988500,6.237988525390625,0.406575471162796,-0.036454200744628906,-0.1996527910232544
1684110575229030100,6.248030029296875,0.43109849095344543,0.017398834228515625,-0.2152862548828125
1684110575239071700,6.25807177734375,0.4376317262649536,0.01619434356689453,-0.2068648338317871
1684110575249113300,6.26811328125,0.44273293018341064,0.019728660583496094,-0.20325231552124023
1684110575259155000,6.278155029296875,0.4369804859161377,0.02555561065673828,-0.19015765190124512
1684110575269196500,6.288196533203125,0.46072855591773987,-0.032286643981933594,-0.1746668815612793
1684110575279238100,6.298238037109375,0.4878830909729004,-0.025628089904785156,-0.11191773414611816
1684110575289279700,6.30827978515625,0.561109185218811,-0.014425277709960938,-0.03061497211456299
1684110575299321300,6.3183212890625,0.6674691438674927,0.005970001220703125,0.07343065738677979
1684110575309363000,6.328363037109375,0.7492529153823853,0.03536701202392578,0.15526580810546875
1684110575319404500,6.338404541015625,0.8083660006523132,0.01471710205078125,0.24603885412216187
1684110575329446100,6.348446044921875,0.820768415927887,0.010717391967773438,0.30343395471572876
1684110575339487700,6.35848779296875,0.7983257174491882,-0.014574050903320312,0.3442908525466919
1684110575349529300,6.368529296875,0.769772469997406,-0.03254127502441406,0.4016845226287842
1684110575359571000,6.378571044921875,0.7168335914611816,-0.012631416320800781,0.4866517186164856
1684110575369612800,6.38861279296875,0.6480071544647217,-0.016626358032226562,0.556178867816925
1684110575379654400,6.398654296875,0.5693100094795227,-0.04882049560546875,0.5847787857055664
1684110575389695700,6.40869580078125,0.5072106122970581,-0.11107540130615234,0.570759117603302
1684110575399737300,6.4187373046875,0.4617117643356323,-0.09454059600830078,0.5756625533103943
1684110575409779200,6.428779296875,0.4560109078884125,-0.1605377197265625,0.5609340667724609
1684110575419820800,6.43882080078125,0.4751894474029541,-0.16877460479736328,0.5079182386398315
1684110575429862400,6.4488623046875,0.4924067556858063,-0.1414165496826172,0.40542590618133545
1684110575439904000,6.458904052734375,0.5001296997070312,-0.10972309112548828,0.29699230194091797
1684110575449945600,6.468945556640625,0.5076299905776978,-0.08793258666992188,0.19233226776123047
1684110575459987200,6.4789873046875,0.5431163311004639,-0.08768653869628906,0.08692169189453125
1684110575470028800,6.48902880859375,0.5917718410491943,-0.03573894500732422,0.004912614822387695
1684110575480070400,6.4990703125,0.6019964218139648,-0.04126167297363281,-0.0020521879196166992
1684110575490112000,6.509112060546875,0.6339148283004761,-0.04210662841796875,-0.010275006294250488
1684110575500153600,6.519153564453125,0.6358122825622559,-0.05480480194091797,0.0037071704864501953
1684110575510195200,6.5291953125,0.6648432016372681,-0.05088233947753906,-0.021831750869750977
1684110575520236800,6.53923681640625,0.6849735975265503,-0.023595809936523438,-0.04131877422332764
1684110575530278400,6.5492783203125,0.7004439830780029,-0.003978729248046875,-0.01479041576385498
1684110575540320000,6.559320068359375,0.6923495531082153,-0.022553443908691406,0.03135824203491211
1684110575550361600,6.569361572265625,0.6188411712646484,-0.07159614562988281,0.1884174346923828
1684110575560403200,6.5794033203125,0.5165566802024841,-0.07284259796142578,0.30584847927093506
1684110575570444800,6.58944482421875,0.4639691412448883,0.008275985717773438,0.3651907444000244
1684110575580486400,6.599486328125,0.4533456265926361,0.01742839813232422,0.4046640396118164
1684110575590528000,6.609528076171875,0.44640639424324036,0.007618904113769531,0.40336108207702637
1684110575600569600,6.619569580078125,0.43794673681259155,-0.03734779357910156,0.378523588180542
1684110575610611200,6.629611083984375,0.425458699464798,-0.07220172882080078,0.34016358852386475
1684110575620652800,6.63965283203125,0.3927197754383087,-0.031226158142089844,0.3899725675582886
1684110575630694400,6.6496943359375,0.4087761640548706,-0.021610260009765625,0.4299342632293701
1684110575640736000,6.659736083984375,0.4304368495941162,-0.014547348022460938,0.4811842441558838
1684110575650777600,6.669777587890625,0.4407906234264374,-0.017023086547851562,0.5031882524490356
1684110575660819200,6.679819091796875,0.45328113436698914,-0.014722824096679688,0.5125550031661987
1684110575670860800,6.68986083984375,0.4201917350292206,-0.05709075927734375,0.5537201166152954
1684110575680902400,6.69990234375,0.35382285714149475,-0.049103736877441406,0.5572237968444824
1684110575690944000,6.709944091796875,0.27331414818763733,-0.010399818420410156,0.5564430952072144
1684110575700985600,6.719985595703125,0.1713947057723999,0.08910179138183594,0.4761819839477539
1684110575711027200,6.730027099609375,0.04113559424877167,0.17996692657470703,0.3845546245574951
1684110575721068800,6.74006884765625,-0.10435111075639725,0.23859310150146484,0.3113369941711426
1684110575731110400,6.7501103515625,-0.24395062029361725,0.18069171905517578,0.3204761743545532
1684110575741152000,6.760152099609375,-0.26750636100769043,0.13060379028320312,0.39201951026916504
1684110575751193600,6.770193603515625,-0.20367848873138428,0.08359718322753906,0.5784858465194702
1684110575761235200,6.780235107421875,-0.017792917788028717,0.058541297912597656,0.785515308380127
1684110575771276800,6.79027685546875,0.2295766919851303,0.031592369079589844,1.0499122142791748
1684110575781318400,6.800318359375,0.4851631820201874,-0.041873931884765625,1.2664872407913208
1684110575791360000,6.810360107421875,0.7572002410888672,-0.017393112182617188,1.4730256795883179
1684110575801401600,6.820401611328125,1.016931414604187,0.03287029266357422,1.6478440761566162
1684110575811443200,6.830443115234375,1.2443422079086304,0.056842803955078125,1.7435895204544067
1684110575821484800,6.84048486328125,1.4103373289108276,0.07390975952148438,1.685842514038086
1684110575831526400,6.8505263671875,1.4324458837509155,0.08642292022705078,1.5299724340438843
1684110575841568000,6.860568115234375,1.3229243755340576,0.10181713104248047,1.4172120094299316
1684110575851609600,6.870609619140625,1.1121454238891602,0.1344137191772461,1.2274364233016968
1684110575861651200,6.880651123046875,0.7680789828300476,0.2568693161010742,0.9499213099479675
1684110575871693000,6.890693115234375,0.3922599256038666,0.40387535095214844,0.6272322535514832
1684110575881734700,6.900734619140625,-0.12548547983169556,0.5630245208740234,0.228440523147583
1684110575891776000,6.91077587890625,-0.6433079242706299,0.6421079635620117,-0.2060866355895996
1684110575901817600,6.920817626953125,-1.0490398406982422,0.6731119155883789,-0.5913347005844116
1684110575911859500,6.930859375,-1.3452937602996826,0.6275968551635742,-0.9732489585876465
1684110575921901000,6.940901123046875,-1.4562153816223145,0.5816946029663086,-1.5491596460342407
1684110575931942700,6.950942626953125,-1.5051006078720093,0.4559917449951172,-2.0564584732055664
1684110575941984300,6.960984375,-1.5328761339187622,0.22635364532470703,-2.6021993160247803
1684110575952025900,6.97102587890625,-1.4187722206115723,-0.14744949340820312,-2.5930750370025635
1684110575962067500,6.9810673828125,-1.2295503616333008,-0.43773365020751953,-2.414191722869873
1684110575972109000,6.991109130859375,-0.9780566096305847,-0.6872777938842773,-2.2770419120788574
1684110575982150700,7.001150634765625,-0.7133727669715881,-0.8051652908325195,-2.0231399536132812
1684110575992192300,7.011192138671875,-0.42152491211891174,-0.9084491729736328,-1.706669807434082
1684110576002233900,7.02123388671875,-0.2140347957611084,-0.9398841857910156,-1.474797248840332
1684110576012275500,7.031275390625,-0.057552337646484375,-0.8186836242675781,-1.2893426418304443
1684110576022317000,7.041317138671875,0.0010082125663757324,-0.8602275848388672,-0.9772861003875732
1684110576032358700,7.051358642578125,-0.07485249638557434,-0.851130485534668,-0.7688852548599243
1684110576042400300,7.061400146484375,-0.22053703665733337,-0.8152370452880859,-0.7801220417022705
1684110576052441900,7.07144189453125,-0.45533013343811035,-0.7933082580566406,-0.9268656969070435
1684110576062483500,7.0814833984375,-0.6915742754936218,-0.7712135314941406,-1.1266897916793823
1684110576072525000,7.091525146484375,-0.9423385858535767,-0.7372217178344727,-1.2952326536178589
1684110576082566700,7.101566650390625,-1.1275370121002197,-0.6367263793945312,-1.4434878826141357
1684110576092608300,7.111608154296875,-1.2728521823883057,-0.5418033599853516,-1.5538994073867798
1684110576102649900,7.12164990234375,-1.3640027046203613,-0.45018863677978516,-1.5666347742080688
1684110576112691500,7.13169140625,-1.4183228015899658,-0.40249156951904297,-1.4679417610168457
1684110576122733000,7.141733154296875,-1.4651756286621094,-0.3245830535888672,-1.2966437339782715
1684110576132774700,7.151774658203125,-1.4793002605438232,-0.2142782211303711,-1.0927283763885498
1684110576142816300,7.161816162109375,-1.4099221229553223,-0.1290721893310547,-0.8573446273803711
1684110576152857900,7.17185791015625,-1.2686420679092407,-0.03541851043701172,-0.5611221790313721
1684110576162899500,7.1818994140625,-1.1858073472976685,0.05490875244140625,-0.32628560066223145
1684110576172941000,7.191941162109375,-1.1160293817520142,0.14683246612548828,-0.194008469581604
1684110576182982700,7.201982666015625,-1.0443474054336548,0.23328781127929688,-0.09355056285858154
1684110576193024300,7.212024169921875,-0.9507783651351929,0.24984073638916016,-0.10715830326080322
1684110576203065900,7.22206591796875,-0.8061940670013428,0.3160514831542969,-0.24225068092346191
1684110576213107500,7.232107421875,-0.6894924640655518,0.3863945007324219,-0.40548980236053467
1684110576223149000,7.242149169921875,-0.5057814121246338,0.434783935546875,-0.5569764375686646
1684110576233190700,7.252190673828125,-0.22816812992095947,0.45209312438964844,-0.644939661026001
1684110576243232300,7.262232177734375,0.055266380310058594,0.41738033294677734,-0.7062058448791504
1684110576253273900,7.27227392578125,0.28569495677948,0.3718137741088867,-0.6031428575515747
1684110576263315500,7.2823154296875,0.42610180377960205,0.40656375885009766,-0.4370439052581787
1684110576273357000,7.292357177734375,0.48797404766082764,0.5336217880249023,-0.2085644006729126
1684110576283398700,7.302398681640625,0.5072801113128662,0.6310634613037109,0.06964027881622314
1684110576293440300,7.312440185546875,0.5866426229476929,0.7658557891845703,0.33528995513916016
1684110576303482000,7.322482177734375,0.7289031744003296,0.944544792175293,0.21445083618164062
1684110576313523700,7.332523681640625,1.1664763689041138,1.015620231628418,-0.12204331159591675
1684110576323565000,7.34256494140625,1.7606935501098633,0.8791418075561523,-0.31555479764938354
1684110576333607000,7.35260693359375,2.625291347503662,0.6515121459960938,-0.5418291091918945
1684110576343648500,7.3626484375,3.37107253074646,0.5210466384887695,-0.12282758951187134
1684110576353690000,7.372690185546875,3.0394484996795654,0.533574104309082,-0.2213125228881836
1684110576363731700,7.382731689453125,2.22096848487854,0.45590972900390625,-0.35771000385284424
1684110576373773300,7.392773193359375,1.0590534210205078,0.21250438690185547,-0.3225501775741577
1684110576383815000,7.40281494140625,-0.2649650573730469,-0.08550834655761719,-0.06106066703796387
1684110576393856500,7.4128564453125,-1.2433295249938965,-0.3244667053222656,0.16433241963386536
1684110576403898000,7.422898193359375,-1.7562345266342163,-0.49775123596191406,0.39632025361061096
1684110576413939700,7.432939697265625,-1.9524208307266235,-0.571955680847168,0.4592147171497345
1684110576423981300,7.442981201171875,-1.7136623859405518,-0.5823640823364258,0.46709853410720825
1684110576434023000,7.45302294921875,-1.2752177715301514,-0.4662284851074219,0.30614227056503296
1684110576444064500,7.463064453125,-0.9439330101013184,-0.3765525817871094,0.07487040758132935
1684110576454106000,7.473106201171875,-0.7306003570556641,-0.2540855407714844,-0.28299450874328613
1684110576464147700,7.483147705078125,-0.601739764213562,-0.14503002166748047,-0.6301448345184326
1684110576474189300,7.493189208984375,-0.5038723945617676,-0.04029655456542969,-1.0654847621917725
1684110576484231000,7.50323095703125,-0.37676775455474854,0.043366432189941406,-1.4577363729476929
1684110576494272500,7.5132724609375,-0.16087329387664795,0.04675483703613281,-1.6374036073684692
1684110576504314000,7.523314208984375,0.00533449649810791,-0.014801025390625,-1.6292879581451416
1684110576514355700,7.533355712890625,0.11714804172515869,-0.16896343231201172,-1.4229120016098022
1684110576524397300,7.543397216796875,0.22815513610839844,-0.3145761489868164,-1.1681010723114014
1684110576534439000,7.55343896484375,0.234788179397583,-0.39429473876953125,-0.9912512302398682
1684110576544480500,7.56348046875,0.1921941041946411,-0.37534618377685547,-0.8572797179222107
1684110576554522000,7.573522216796875,0.09522342681884766,-0.29694080352783203,-0.7949965596199036
1684110576564563700,7.583563720703125,-0.10827052593231201,-0.19346904754638672,-0.6863057017326355
1684110576574605300,7.593605224609375,-0.3486008644104004,-0.09675788879394531,-0.6475183963775635
1684110576584647000,7.60364697265625,-0.5270992517471313,-0.088409423828125,-0.5927308797836304
1684110576594688500,7.6136884765625,-0.565237283706665,-0.15859317779541016,-0.5296053886413574
1684110576604730000,7.623730224609375,-0.47836506366729736,-0.26603221893310547,-0.5229711532592773
1684110576614771700,7.633771728515625,-0.3623868227005005,-0.3859701156616211,-0.5298979878425598
1684110576624813300,7.643813232421875,-0.3152257204055786,-0.40296268463134766,-0.600520133972168
1684110576634855000,7.65385498046875,-0.255099892616272,-0.39061641693115234,-0.5828282833099365
1684110576644896500,7.663896484375,-0.20350003242492676,-0.31755638122558594,-0.6752894520759583
1684110576654938400,7.6739384765625,-0.2423086166381836,-0.23182964324951172,-0.7588778138160706
1684110576664980000,7.68397998046875,-0.31745779514312744,-0.19838809967041016,-0.874858021736145
1684110576675021600,7.694021484375,-0.21375513076782227,-0.05255699157714844,-1.0671205520629883
1684110576685063000,7.70406298828125,-0.032350897789001465,0.12402820587158203,-1.191217064857483
1684110576695104800,7.714104736328125,-0.03165280818939209,0.29763031005859375,-1.3807004690170288
1684110576705146400,7.724146484375,-0.07971525192260742,0.4654083251953125,-1.4287487268447876
1684110576715188000,7.73418798828125,0.017233729362487793,0.617854118347168,-1.5146584510803223
1684110576725229600,7.7442294921875,0.27071356773376465,0.8057594299316406,-1.5866678953170776
1684110576735271200,7.754271240234375,0.3447563648223877,0.9556713104248047,-1.6683754920959473
1684110576745312800,7.764312744140625,0.379927396774292,1.0777206420898438,-1.6959341764450073
1684110576755354400,7.774354248046875,0.3781784772872925,1.1722946166992188,-1.699759602546692
1684110576765396000,7.78439599609375,0.28816652297973633,1.237269401550293,-1.8210082054138184
1684110576775437600,7.7944375,0.20703113079071045,1.2272920608520508,-1.9430376291275024
1684110576785479200,7.804479248046875,0.10167098045349121,1.149287223815918,-1.9530351161956787
1684110576795520800,7.814520751953125,0.007870316505432129,1.0913162231445312,-1.9090352058410645
1684110576805562400,7.824562255859375,-0.07340967655181885,0.9718122482299805,-1.9077640771865845
1684110576815604000,7.83460400390625,-0.12069571018218994,0.8934898376464844,-1.8639500141143799
1684110576825645600,7.8446455078125,-0.2227843999862671,0.748748779296875,-1.8521721363067627
1684110576835687200,7.854687255859375,-0.4013206958770752,0.6237392425537109,-1.8173344135284424
1684110576845728800,7.864728759765625,-0.551654577255249,0.48740673065185547,-1.7117676734924316
1684110576855770400,7.874770263671875,-0.5694574117660522,0.3899526596069336,-1.6003663539886475
1684110576865812000,7.88481201171875,-0.551335334777832,0.2524681091308594,-1.3692572116851807
1684110576875853600,7.894853515625,-0.48327600955963135,0.16567039489746094,-1.0560272932052612
1684110576885895200,7.904895263671875,-0.32289719581604004,0.0218658447265625,-0.6390010714530945
1684110576895936800,7.914936767578125,-0.1593862771987915,-0.06898784637451172,-0.23009300231933594
1684110576905978400,7.924978271484375,0.04477834701538086,-0.13325786590576172,0.22209316492080688
1684110576916020000,7.93502001953125,0.23873686790466309,-0.23542118072509766,0.6239190697669983
1684110576926061600,7.9450615234375,0.37998324632644653,-0.37783050537109375,0.9613639116287231
1684110576936103200,7.955103271484375,0.3774956464767456,-0.5892848968505859,1.218451738357544
1684110576946144800,7.965144775390625,0.2847546339035034,-0.7410240173339844,1.4144046306610107
1684110576956186400,7.975186279296875,0.04538536071777344,-0.7881603240966797,1.5538674592971802
1684110576966228000,7.98522802734375,-0.19933831691741943,-0.6785888671875,1.5706901550292969
1684110576976269800,7.995269775390625,-0.3936392068862915,-0.4580574035644531,1.4897637367248535
1684110576986311200,8.005311279296874,-0.4641737937927246,-0.31536197662353516,1.3830820322036743
1684110576996352800,8.015352783203125,-0.4945824146270752,-0.19510555267333984,1.2100430727005005
1684110577006394400,8.025394287109375,-0.508729100227356,-0.15424156188964844,0.9480453729629517
1684110577016436200,8.035436279296874,-0.5156873464584351,-0.15889835357666016,0.6508435606956482
1684110577026477800,8.045477783203125,-0.580715537071228,-0.16827774047851562,0.40963345766067505
1684110577036519400,8.05551953125,-0.6723925471305847,-0.1656627655029297,0.14602959156036377
1684110577046561000,8.06556103515625,-0.7374821305274963,-0.31353187561035156,-0.03913944959640503
1684110577056602600,8.0756025390625,-0.7373460531234741,-0.5733451843261719,-0.22677947580814362
1684110577066644200,8.085644287109375,-0.6559696793556213,-0.9256877899169922,-0.3338480591773987
1684110577076685800,8.095685791015624,-0.49000751972198486,-1.2603883743286133,-0.4451342225074768
1684110577086727400,8.1057275390625,-0.39889979362487793,-1.4149599075317383,-0.5415298938751221
1684110577096769000,8.11576904296875,-0.41554439067840576,-1.4687061309814453,-0.6059920787811279
1684110577106810600,8.125810546875,-0.4683248996734619,-1.531926155090332,-0.72364741563797
1684110577116852200,8.135852294921875,-0.5066516399383545,-1.3540925979614258,-0.7510913610458374
1684110577126893800,8.145893798828125,-0.4478799104690552,-1.0481834411621094,-0.6109856367111206
1684110577136935400,8.155935302734376,-0.3435487747192383,-0.7123270034790039,-0.379530668258667
1684110577146977000,8.16597705078125,-0.3535293936729431,-0.3750591278076172,-0.05892479047179222
1684110577157018600,8.1760185546875,-0.5974971055984497,-0.08884811401367188,0.08927614986896515
1684110577167060200,8.186060302734376,-0.8566229939460754,0.12966537475585938,0.09368057548999786
1684110577177101800,8.196101806640625,-0.832852303981781,0.3236980438232422,0.010153839364647865
1684110577187143400,8.206143310546874,-0.750784158706665,0.3621101379394531,-0.30230629444122314
1684110577197185000,8.21618505859375,-0.8663815259933472,0.20948410034179688,-0.7309935092926025
1684110577207226600,8.2262265625,-1.1774874925613403,-0.12428951263427734,-1.173130750656128
1684110577217268200,8.236268310546874,-1.6304960250854492,-0.5100345611572266,-1.5313992500305176
1684110577227309800,8.246309814453125,-1.9690840244293213,-0.7973947525024414,-1.7423087358474731
1684110577237351400,8.256351318359375,-1.9647787809371948,-0.9055976867675781,-1.75521981716156
1684110577247393000,8.26639306640625,-1.5774524211883545,-0.8590631484985352,-1.5063483715057373
1684110577257434600,8.2764345703125,-0.940498411655426,-0.6629409790039062,-1.1502798795700073
1684110577267476200,8.286476318359375,-0.20756202936172485,-0.37000179290771484,-0.650408148765564
1684110577277517800,8.296517822265624,0.5172561407089233,0.010228157043457031,-0.2259974181652069
1684110577287559400,8.306559326171875,1.1160306930541992,0.30826854705810547,0.11944186687469482
1684110577297601300,8.316601318359375,1.5344675779342651,0.5102272033691406,0.2821643054485321
1684110577307643000,8.326642822265624,1.781732439994812,0.5400810241699219,0.2611069083213806
1684110577317684500,8.3366845703125,1.929854154586792,0.6371698379516602,0.15568146109580994
1684110577327726000,8.34672607421875,1.9167628288269043,0.7631864547729492,0.003994762897491455
1684110577337767700,8.356767578125,1.8043887615203857,0.8632087707519531,-0.1078866720199585
1684110577347809300,8.366809326171875,1.6211066246032715,0.8418216705322266,-0.2347935438156128
1684110577357851000,8.376850830078125,1.4210774898529053,0.7113246917724609,-0.3071823716163635
1684110577367892500,8.386892578125,1.1181137561798096,0.4934654235839844,-0.38964009284973145
1684110577377934000,8.39693408203125,0.75844407081604,0.2576141357421875,-0.5059278011322021
1684110577387975700,8.4069755859375,0.37051185965538025,-0.017972946166992188,-0.6855209469795227
1684110577398017300,8.417017333984376,-0.052565574645996094,-0.21888256072998047,-0.8551145792007446
1684110577408059000,8.427058837890625,-0.4581543803215027,-0.3072853088378906,-0.9594794511795044
1684110577418100500,8.4371005859375,-0.7748736143112183,-0.26929187774658203,-1.0626530647277832
1684110577428142000,8.44714208984375,-0.9701229333877563,-0.15309906005859375,-1.0898585319519043
1684110577438183700,8.45718359375,-0.9925360679626465,-0.13088226318359375,-1.0317052602767944
1684110577448225300,8.467225341796874,-0.8658185005187988,-0.07342815399169922,-0.9291161894798279
1684110577458267000,8.477266845703125,-0.6502039432525635,0.021636962890625,-0.7682587504386902
1684110577468308500,8.48730859375,-0.3418451249599457,0.137603759765625,-0.6382153630256653
1684110577478350000,8.49735009765625,-0.04496967792510986,0.18619537353515625,-0.5254000425338745
1684110577488391700,8.5073916015625,0.2200663983821869,0.22259140014648438,-0.4204491972923279
1684110577498433300,8.517433349609375,0.46838876605033875,0.23259544372558594,-0.3379780054092407
1684110577508475000,8.527474853515624,0.622195839881897,0.20203304290771484,-0.24490588903427124
1684110577518516500,8.5375166015625,0.6758196353912354,0.13823509216308594,-0.18203258514404297
1684110577528558000,8.54755810546875,0.6672183275222778,0.11295890808105469,-0.05877286195755005
1684110577538599700,8.557599609375,0.6303310990333557,0.12612628936767578,0.05514204502105713
1684110577548641300,8.567641357421875,0.5450215935707092,0.07730388641357422,0.11194604635238647
1684110577558683000,8.577682861328125,0.47497570514678955,0.011943817138671875,0.10269123315811157
1684110577568724500,8.587724365234376,0.4520776867866516,0.0017004013061523438,0.07311761379241943
1684110577578766300,8.597766357421875,0.4499956965446472,-0.013222694396972656,0.06833899021148682
1684110577588808000,8.607807861328125,0.5067054033279419,-0.0065746307373046875,-0.009169518947601318
1684110577598849500,8.617849609375,0.5836209058761597,0.009706497192382812,-0.0258980393409729
1684110577608891100,8.62789111328125,0.6736876964569092,-0.0026721954345703125,-0.17960286140441895
1684110577618932700,8.6379326171875,0.75836181640625,0.008805274963378906,-0.3400220274925232
1684110577628974300,8.647974365234376,0.8185878396034241,0.022583961486816406,-0.48323142528533936
1684110577639016000,8.658015869140625,0.8753799796104431,0.05069255828857422,-0.5909190773963928
1684110577649057500,8.6680576171875,0.913449764251709,0.054945945739746094,-0.7328924536705017
1684110577659099100,8.67809912109375,0.9272452592849731,0.07359886169433594,-0.8777182102203369
1684110577669140700,8.688140625,0.9423408508300781,0.10181331634521484,-1.0155140161514282
1684110577679182300,8.698182373046874,0.9728714227676392,0.11330699920654297,-1.1177141666412354
1684110577689224000,8.708223876953125,0.9712399244308472,0.21059036254882812,-1.2277227640151978
1684110577699265500,8.718265625,0.9450098872184753,0.2999839782714844,-1.294737458229065
1684110577709307100,8.72830712890625,0.88030606508255,0.2719564437866211,-1.1786013841629028
1684110577719348700,8.7383486328125,0.8376584053039551,0.1248159408569336,-1.1247608661651611
1684110577729390300,8.748390380859375,0.8310694098472595,0.02615070343017578,-1.186653971672058
1684110577739432000,8.758431884765624,0.8403275012969971,-0.06714344024658203,-1.2588456869125366
1684110577749473500,8.7684736328125,0.8212813138961792,-0.0572052001953125,-1.3289457559585571
1684110577759515100,8.77851513671875,0.811100959777832,-0.042232513427734375,-1.3586161136627197
1684110577769556700,8.788556640625,0.7950111031532288,0.027706146240234375,-1.3963584899902344
1684110577779598300,8.798598388671875,0.7254524827003479,0.1304941177368164,-1.421194076538086
1684110577789640000,8.808639892578125,0.6492325067520142,0.2110309600830078,-1.2772520780563354
1684110577799681500,8.818681640625,0.525263249874115,0.22408580780029297,-1.1162283420562744
1684110577809723100,8.82872314453125,0.4293878674507141,0.2057046890258789,-0.9576404094696045
1684110577819764700,8.8387646484375,0.36242300271987915,0.13931655883789062,-0.8210318088531494
1684110577829806600,8.848806640625,0.29820138216018677,0.1206674575805664,-0.6378947496414185
1684110577839848000,8.858847900390625,0.22910691797733307,0.08764362335205078,-0.4378037452697754
1684110577849889500,8.8688896484375,0.17826521396636963,0.05701923370361328,-0.29985976219177246
1684110577859931400,8.878931396484376,0.14727315306663513,0.026426315307617188,-0.17644810676574707
1684110577869973000,8.888972900390625,0.15493009984493256,0.038878440856933594,-0.05821835994720459
1684110577880014600,8.8990146484375,0.13898836076259613,0.0203094482421875,0.04946708679199219
1684110577890056200,8.90905615234375,0.12859304249286652,-0.0028409957885742188,0.1626969575881958
1684110577900097800,8.919097900390625,0.1168404221534729,-0.011369705200195312,0.2021072506904602
1684110577910139400,8.929139404296874,0.11341416835784912,-0.019622802734375,0.23706316947937012
1684110577920181000,8.939180908203125,0.08027160167694092,-0.05859661102294922,0.22190314531326294
1684110577930222600,8.94922265625,0.07970866560935974,-0.07091999053955078,0.13073265552520752
1684110577940264200,8.95926416015625,0.05678313970565796,-0.09737014770507812,0.007688164710998535
1684110577950305800,8.969305908203125,0.04468831419944763,-0.12607860565185547,-0.15589189529418945
1684110577960347400,8.979347412109375,0.054259806871414185,-0.06076335906982422,-0.32799386978149414
1684110577970389000,8.989388916015624,0.05506408214569092,-0.010855674743652344,-0.44373226165771484
1684110577980430600,8.9994306640625,0.07564446330070496,0.04033660888671875,-0.5225375890731812
1684110577990472200,9.00947216796875,0.11607310175895691,0.015101432800292969,-0.5272748470306396
1684110578000513800,9.019513671875,0.16669327020645142,0.020620346069335938,-0.4872487783432007
1684110578010555400,9.029555419921875,0.24569454789161682,0.009294509887695312,-0.4269425868988037
1684110578020597000,9.039596923828125,0.3258676826953888,0.03322410583496094,-0.3330131769180298
1684110578030638600,9.049638671875,0.39925068616867065,0.0235595703125,-0.24402129650115967
1684110578040680200,9.05968017578125,0.4251467287540436,0.0067653656005859375,-0.1436833143234253
1684110578050721800,9.0697216796875,0.4577535092830658,-0.0029277801513671875,-0.03469216823577881
1684110578060763400,9.079763427734376,0.4634784162044525,-0.0173797607421875,0.04241299629211426
1684110578070805000,9.089804931640625,0.407090425491333,-0.031798362731933594,0.13505542278289795
1684110578080846800,9.099846923828125,0.29696348309516907,-0.09087944030761719,0.20273065567016602
1684110578090888400,9.109888427734376,0.1630929708480835,-0.1491250991821289,0.23878800868988037
1684110578100930000,9.119929931640625,-0.016834139823913574,-0.2041606903076172,0.26018762588500977
1684110578110971600,9.1299716796875,-0.18699617683887482,-0.17365646362304688,0.27696049213409424
1684110578121013200,9.14001318359375,-0.31828826665878296,-0.155517578125,0.28920018672943115
1684110578131054800,9.150054931640625,-0.43634337186813354,-0.15184497833251953,0.2781745195388794
1684110578141096400,9.160096435546874,-0.5048831701278687,-0.150604248046875,0.237420916557312
1684110578151138000,9.170137939453125,-0.5237935781478882,-0.14235210418701172,0.21958410739898682
1684110578161179600,9.1801796875,-0.45581990480422974,-0.12251758575439453,0.24333584308624268
1684110578171221200,9.19022119140625,-0.3637450635433197,-0.10772991180419922,0.2981882095336914
1684110578181262800,9.200262939453125,-0.23727816343307495,-0.1214895248413086,0.3246697187423706
1684110578191304400,9.210304443359375,-0.07149350643157959,-0.10453224182128906,0.3279060125350952
1684110578201346000,9.220345947265624,0.03006705641746521,-0.0716085433959961,0.34615981578826904
1684110578211387600,9.2303876953125,0.11436593532562256,-0.11483383178710938,0.40498054027557373
1684110578221429200,9.24042919921875,0.1625087559223175,-0.10578250885009766,0.49165964126586914
1684110578231470800,9.250470947265624,0.16360199451446533,-0.0853414535522461,0.5469096899032593
1684110578241512400,9.260512451171875,0.14715826511383057,-0.15250682830810547,0.608637809753418
1684110578251554000,9.270553955078125,0.1398600935935974,-0.13865184783935547,0.6555460691452026
1684110578261595600,9.280595703125,0.15099096298217773,-0.10396671295166016,0.7042943239212036
1684110578271637200,9.29063720703125,0.135416179895401,-0.06757068634033203,0.7568485736846924
1684110578281678800,9.300678955078125,0.1359478235244751,-0.06479072570800781,0.791896641254425
1684110578291720400,9.310720458984376,0.13302326202392578,-0.019741058349609375,0.8355703949928284
1684110578301762000,9.320761962890625,0.1213618814945221,0.0009288787841796875,0.8571087121963501
1684110578311803600,9.3308037109375,0.1005939245223999,0.021169662475585938,0.8708902597427368
1684110578321845500,9.340845458984376,0.047427088022232056,-0.0061092376708984375,0.9312564134597778
1684110578331887000,9.35088720703125,0.0004089772701263428,-0.07531547546386719,0.997016191482544
1684110578341928700,9.3609287109375,-0.05657699704170227,-0.14797306060791016,1.0652947425842285
1684110578351970300,9.37097021484375,-0.11536353826522827,-0.19327926635742188,1.109684705734253
1684110578362012000,9.381011962890625,-0.20758000016212463,-0.20907020568847656,1.1814360618591309
1684110578372053500,9.391053466796874,-0.2696530222892761,-0.26140689849853516,1.2200043201446533
1684110578382095000,9.40109521484375,-0.3312177062034607,-0.3235015869140625,1.2226173877716064
1684110578392136700,9.41113671875,-0.36324286460876465,-0.2867546081542969,1.1705279350280762
1684110578402178300,9.42117822265625,-0.3613031506538391,-0.22333335876464844,1.094670057296753
1684110578412220000,9.431219970703125,-0.32599806785583496,-0.08665084838867188,0.9201821088790894
1684110578422261500,9.441261474609375,-0.28319621086120605,-0.054721832275390625,0.7792991399765015
1684110578432303000,9.45130322265625,-0.17540964484214783,-0.16373157501220703,0.653995156288147
1684110578442344700,9.4613447265625,-0.02233031392097473,-0.2537384033203125,0.6951022148132324
1684110578452386300,9.47138623046875,0.16703936457633972,-0.26389026641845703,0.7510542869567871
1684110578462428000,9.481427978515624,0.3257458508014679,-0.2049541473388672,0.8301520347595215
1684110578472469500,9.491469482421875,0.5026177167892456,-0.1231546401977539,0.7776743769645691
1684110578482511000,9.501510986328125,0.6287438273429871,-0.050281524658203125,0.5483241081237793
1684110578492552700,9.511552734375,0.7403827905654907,-0.09469985961914062,0.3394920825958252
1684110578502594300,9.52159423828125,0.8108316659927368,-0.068359375,0.13395905494689941
1684110578512636000,9.531635986328125,0.8380776643753052,-0.040703773498535156,-0.19519031047821045
1684110578522677500,9.541677490234376,0.7994192242622375,0.05169200897216797,-0.538949728012085
1684110578532719400,9.55171923828125,0.7083820700645447,0.04033660888671875,-0.9658013582229614
1684110578542761000,9.561760986328125,0.5741465091705322,-0.08756637573242188,-1.5022915601730347
1684110578552802600,9.571802490234376,0.32395148277282715,-0.2714414596557617,-1.982799768447876
1684110578562844200,9.58184423828125,0.0359167754650116,-0.45296764373779297,-2.389739513397217
1684110578572885800,9.5918857421875,-0.3439931869506836,-0.5485963821411133,-2.6610512733459473
1684110578582927400,9.60192724609375,-0.7887693643569946,-0.5671215057373047,-3.0268566608428955
1684110578592969000,9.611968994140625,-1.1577824354171753,-0.6197938919067383,-3.1852591037750244
1684110578603010600,9.622010498046874,-1.600280523300171,-0.645721435546875,-3.3219456672668457
1684110578613052200,9.63205224609375,-1.9036178588867188,-0.45917415618896484,-3.4322659969329834
1684110578623093800,9.64209375,-2.0268054008483887,-0.08299541473388672,-3.6540865898132324
1684110578633135400,9.65213525390625,-2.103262424468994,-0.1809101104736328,-2.8433690071105957
1684110578643177000,9.662177001953125,-2.1133644580841064,-0.35411643981933594,-1.698050856590271
1684110578653218600,9.672218505859375,-1.8911381959915161,-0.36734867095947266,-0.7658594846725464
1684110578663260200,9.68226025390625,-1.5957183837890625,-0.1994009017944336,-0.22748780250549316
1684110578673301800,9.6923017578125,-1.2869459390640259,-0.03474140167236328,0.158660888671875
1684110578683343400,9.70234326171875,-0.96288001537323,0.08841800689697266,0.3849940299987793
1684110578693385000,9.712385009765624,-0.6907849907875061,0.196624755859375,0.5771639347076416
1684110578703426600,9.722426513671875,-0.47418051958084106,0.3354978561401367,0.6622236967086792
1684110578713468400,9.732468505859375,-0.22760462760925293,0.42850303649902344,0.661833643913269
1684110578723510000,9.742510009765626,0.06514871120452881,0.5113401412963867,0.5056194067001343
1684110578733551600,9.752551513671875,0.3363511562347412,0.5766887664794922,0.31435608863830566
1684110578743593200,9.76259326171875,0.6078487634658813,0.5434246063232422,0.18447697162628174
1684110578753634800,9.772634765625,0.7260571718215942,0.5385713577270508,0.08818602561950684
1684110578763676400,9.782676513671875,0.6499333381652832,0.4691953659057617,0.053177714347839355
1684110578773718000,9.792718017578125,0.5645853281021118,0.4193382263183594,0.10166764259338379
1684110578783759600,9.802759521484376,0.4458574056625366,0.3127870559692383,0.18588590621948242
1684110578793801200,9.81280126953125,0.39530670642852783,0.22604656219482422,0.26346564292907715
1684110578803842800,9.8228427734375,0.29792320728302,0.06802558898925781,0.3377584218978882
1684110578813884400,9.832884521484376,0.12744414806365967,-0.15184402465820312,0.43074893951416016
1684110578823926000,9.842926025390625,-0.05294620990753174,-0.4048042297363281,0.46110695600509644
1684110578833967600,9.852967529296874,-0.17867612838745117,-0.6547079086303711,0.4826509952545166
1684110578844009200,9.86300927734375,-0.15394961833953857,-0.7963266372680664,0.4726395606994629
1684110578854050800,9.87305078125,-0.014178752899169922,-0.7678260803222656,0.4828588366508484
1684110578864092400,9.883092529296874,0.24324870109558105,-0.5863780975341797,0.3910929560661316
1684110578874134000,9.893134033203125,0.6625399589538574,-0.38108062744140625,0.24962902069091797
1684110578884175600,9.903175537109375,1.1245636940002441,-0.09432697296142578,-0.01785874366760254
1684110578894217200,9.91321728515625,1.5557348728179932,0.0017061233520507812,-0.3408132791519165
1684110578904258800,9.9232587890625,1.8594446182250977,0.0820159912109375,-0.6896791458129883
1684110578914300400,9.933300537109375,2.0159952640533447,0.1755962371826172,-0.9550532102584839
1684110578924342300,9.94334228515625,2.0298800468444824,0.2444477081298828,-1.1426376104354858
1684110578934383900,9.9533837890625,1.9179397821426392,0.33405113220214844,-1.2669934034347534
1684110578944425500,9.963425537109375,1.6643065214157104,0.42508602142333984,-1.2730313539505005
1684110578954467000,9.973467041015626,1.2564706802368164,0.5005483627319336,-1.144876480102539
1684110578964508700,9.9835087890625,0.7325780391693115,0.5242433547973633,-0.8926896452903748
1684110578974550300,9.99355029296875,0.1763460636138916,0.46957969665527344,-0.5602521300315857
1684110578984592000,10.003591796875,-0.23063874244689941,0.3791370391845703,-0.2852720618247986
1684110578994633500,10.013633544921875,-0.5510212182998657,0.2572460174560547,0.09829974174499512
1684110579004675000,10.023675048828125,-0.7827671766281128,0.07007503509521484,0.390321284532547
1684110579014716700,10.033716552734376,-0.9571800231933594,-0.09189891815185547,0.5912944078445435
1684110579024758300,10.04375830078125,-1.0175985097885132,-0.248199462890625,0.5872759819030762
1684110579034799900,10.0537998046875,-0.9369398355484009,-0.3274116516113281,0.38631394505500793
1684110579044841500,10.063841552734376,-0.7327653169631958,-0.35111141204833984,0.07442396879196167
1684110579054883000,10.073883056640625,-0.38624095916748047,-0.3428945541381836,-0.2624322175979614
1684110579064924700,10.083924560546874,-0.024401545524597168,-0.3477640151977539,-0.5143705606460571
1684110579074966300,10.09396630859375,0.2692604064941406,-0.3007802963256836,-0.7224338054656982
1684110579085008000,10.1040078125,0.5715254545211792,-0.2852153778076172,-0.834361732006073
1684110579095049500,10.114049560546874,0.8208796977996826,-0.22179508209228516,-0.9368860721588135
1684110579105091300,10.12409130859375,1.0116115808486938,-0.15100955963134766,-1.077528953552246
1684110579115133000,10.1341328125,1.134084701538086,-0.09670257568359375,-1.1576186418533325
1684110579125174500,10.144174560546874,1.215130090713501,0.019899368286132812,-1.2502174377441406
1684110579135216000,10.154216064453125,1.2393579483032227,0.15779972076416016,-1.3016552925109863
1684110579145257700,10.1642578125,1.1893633604049683,0.3285808563232422,-1.3587398529052734
1684110579155299300,10.17429931640625,1.073744297027588,0.4316282272338867,-1.469072699546814
1684110579165341000,10.1843408203125,0.9263609647750854,0.45036983489990234,-1.48673677444458
1684110579175382500,10.194382568359375,0.8015556335449219,0.43056488037109375,-1.5179193019866943
1684110579185424100,10.204424072265626,0.6768254041671753,0.4059743881225586,-1.4823793172836304
1684110579195465700,10.2144658203125,0.584532618522644,0.3792572021484375,-1.4023135900497437
1684110579205507300,10.22450732421875,0.4691810607910156,0.3577079772949219,-1.3158515691757202
1684110579215549000,10.234548828125,0.3573716878890991,0.3245525360107422,-1.19222891330719
1684110579225590500,10.244590576171875,0.2855520248413086,0.2199878692626953,-1.1321465969085693
1684110579235632000,10.254632080078125,0.24907100200653076,0.12056827545166016,-1.0880125761032104
1684110579245673700,10.264673828125,0.17450237274169922,-0.021640777587890625,-1.032274842262268
1684110579255715300,10.27471533203125,0.010915756225585938,-0.22360992431640625,-1.0512217283248901
1684110579265757000,10.2847568359375,-0.20186781883239746,-0.4568605422973633,-1.0247712135314941
1684110579275798800,10.294798828125,-0.3481175899505615,-0.6069278717041016,-0.8895375728607178
1684110579285840400,10.30484033203125,-0.24724578857421875,-0.5616235733032227,-0.550205647945404
1684110579295882000,10.314882080078124,0.25011348724365234,-0.21329021453857422,-0.25033822655677795
1684110579305923600,10.324923583984376,0.8788689374923706,0.19707870483398438,-0.16758859157562256
1684110579315965200,10.334965087890625,1.2667948007583618,0.5026435852050781,-0.33577418327331543
1684110579326006800,10.3450068359375,1.334399938583374,0.7631368637084961,-0.7968329787254333
1684110579336048400,10.35504833984375,1.3051828145980835,0.8853759765625,-1.1172707080841064
1684110579346090000,10.365090087890625,1.1787277460098267,0.9223918914794922,-1.3920897245407104
1684110579356131600,10.375131591796874,0.9477429389953613,0.9103326797485352,-1.7173833847045898
1684110579366173200,10.385173095703125,0.6860907077789307,0.8183879852294922,-1.9278624057769775
1684110579376214800,10.39521484375,0.46721601486206055,0.6922540664672852,-1.8644546270370483
1684110579386256400,10.40525634765625,0.35532116889953613,0.5439062118530273,-1.5774548053741455
1684110579396298000,10.415298095703125,0.3817121982574463,0.514042854309082,-1.2236944437026978
1684110579406339600,10.425339599609375,0.4921691417694092,0.4682579040527344,-0.9889945983886719
1684110579416381200,10.435381103515626,0.584918737411499,0.31308746337890625,-0.853370189666748
1684110579426422800,10.4454228515625,0.67828369140625,0.15584659576416016,-0.7159590125083923
1684110579436464400,10.45546435546875,0.7734209299087524,-0.0729665756225586,-0.5814892053604126
1684110579446506000,10.465506103515626,0.7559241056442261,-0.2895622253417969,-0.49058225750923157
1684110579456547800,10.4755478515625,0.6510835886001587,-0.5198593139648438,-0.4325430989265442
1684110579466589400,10.48558935546875,0.38808465003967285,-0.677342414855957,-0.28950396180152893
1684110579476631000,10.495631103515626,-0.037627220153808594,-0.8909769058227539,-0.16173991560935974
1684110579486672600,10.505672607421875,-0.5293946266174316,-1.2160463333129883,-0.13507506251335144
1684110579496714200,10.51571435546875,-1.044514775276184,-1.631643295288086,-0.28501302003860474
1684110579506755800,10.525755859375,-1.0719307661056519,-1.939920425415039,-0.7598636150360107
1684110579516797400,10.53579736328125,-0.8437830209732056,-2.1289825439453125,-1.2806695699691772
1684110579526839000,10.545839111328124,-0.4453268051147461,-2.079148292541504,-1.9065290689468384
1684110579536880600,10.555880615234376,-0.2464885711669922,-1.8237953186035156,-2.493196964263916
1684110579546922200,10.565922119140625,-0.3643782138824463,-1.3320369720458984,-2.975553274154663
1684110579556963800,10.5759638671875,-0.7075977325439453,-0.2821636199951172,-3.2749276161193848
1684110579567005400,10.58600537109375,-1.1197073459625244,0.8892049789428711,-3.240711212158203
1684110579577047000,10.596047119140625,-1.5991039276123047,1.602762222290039,-3.1100575923919678
1684110579587088600,10.606088623046874,-1.845800757408142,2.0211005210876465,-2.8925158977508545
1684110579597130200,10.616130126953125,-1.609790563583374,2.1255555152893066,-2.5698118209838867
1684110579607171800,10.626171875,-0.8779902458190918,2.0032997131347656,-2.041229486465454
1684110579617213400,10.63621337890625,0.12695848941802979,1.6507463455200195,-1.4469486474990845
1684110579627255300,10.64625537109375,1.088184118270874,1.0905218124389648,-0.8657429814338684
1684110579637297000,10.656296875,1.8365650177001953,0.5289297103881836,-0.3484117388725281
1684110579647338500,10.66633837890625,2.327772378921509,0.09537220001220703,0.08015233278274536
1684110579657380000,10.676380126953125,2.602932929992676,-0.17877960205078125,0.4660586714744568
1684110579667421700,10.686421630859375,2.7806410789489746,-0.3622932434082031,0.8457332253456116
1684110579677463300,10.69646337890625,2.8658366203308105,-0.3804178237915039,1.0679142475128174
1684110579687505000,10.7065048828125,2.9069013595581055,-0.32142066955566406,1.1771513223648071
1684110579697546500,10.71654638671875,2.75693678855896,-0.314666748046875,1.1990638971328735
1684110579707588000,10.726588134765626,2.362039804458618,-0.32968997955322266,1.168643593788147
1684110579717629700,10.736629638671875,1.8756741285324097,-0.28128814697265625,1.0315711498260498
1684110579727671300,10.74667138671875,1.4288480281829834,-0.24922943115234375,0.7543953061103821
1684110579737713000,10.756712890625,1.0434931516647339,-0.07174968719482422,0.45549899339675903
1684110579747754500,10.76675439453125,0.7195112705230713,0.1571807861328125,0.2192676067352295
1684110579757796000,10.776796142578124,0.5288537740707397,0.39649391174316406,0.0577390193939209
1684110579767837700,10.786837646484376,0.4309343099594116,0.5813980102539062,-0.14793264865875244
1684110579777879300,10.79687939453125,0.3868425786495209,0.7094039916992188,-0.4103891849517822
1684110579787921000,10.8069208984375,0.31823045015335083,0.7400064468383789,-0.6781022548675537
1684110579797962800,10.816962646484376,0.2578757405281067,0.5805263519287109,-0.9797194004058838
1684110579808004400,10.82700439453125,0.09995728731155396,0.16718482971191406,-1.246245265007019
1684110579818046000,10.8370458984375,-0.1490967869758606,-0.16756248474121094,-1.5100374221801758
1684110579828087600,10.847087646484376,-0.44425278902053833,-0.4072694778442383,-1.589328646659851
1684110579838129200,10.857129150390625,-0.6433495879173279,-0.4828004837036133,-1.475921869277954
1684110579848170800,10.867170654296874,-0.550014853477478,-0.37537479400634766,-1.2446959018707275
1684110579858212400,10.87721240234375,-0.10778909921646118,-0.35504817962646484,-0.8255358934402466
1684110579868254000,10.88725390625,0.5957486629486084,-0.26358604431152344,-0.48831307888031006
1684110579878295600,10.897295654296874,1.330702781677246,-0.21790218353271484,-0.20737779140472412
1684110579888337200,10.907337158203125,1.900622844696045,-0.15075016021728516,-0.035483598709106445
1684110579898378800,10.917378662109375,2.3106846809387207,-0.08092498779296875,0.06301259994506836
1684110579908420400,10.92742041015625,2.5786991119384766,0.023008346557617188,0.08811759948730469
1684110579918462000,10.9374619140625,2.7548470497131348,0.12546730041503906,0.1309833526611328
1684110579928503600,10.947503662109375,2.8412585258483887,0.21238422393798828,0.16283190250396729
1684110579938545200,10.957545166015626,2.866295337677002,0.22649765014648438,0.18153536319732666
1684110579948587000,10.9675869140625,2.8362436294555664,0.19649314880371094,0.13478171825408936
1684110579958628600,10.977628662109375,2.763474941253662,0.1174325942993164,0.05874812602996826
1684110579968670200,10.987670166015626,2.6040031909942627,0.06317520141601562,-0.048838138580322266
1684110579978711800,10.9977119140625,2.4284451007843018,0.03574371337890625,-0.20902276039123535
1684110579988753400,11.00775341796875,2.2415878772735596,0.09208488464355469,-0.3825622797012329
1684110579998795000,11.017794921875,2.0185091495513916,0.10274887084960938,-0.5801092386245728
1684110580008836600,11.027836669921875,1.7577698230743408,0.11780929565429688,-0.7887139320373535
1684110580018878200,11.037878173828124,1.5261536836624146,0.08455753326416016,-1.0097054243087769
1684110580028919800,11.047919921875,1.2499021291732788,0.0698843002319336,-1.2137091159820557
1684110580038961400,11.05796142578125,0.8867030143737793,0.12384223937988281,-1.4220746755599976
1684110580049003000,11.0680029296875,0.3680506944656372,0.22455787658691406,-1.6939517259597778
1684110580059044600,11.078044677734376,-0.2194766402244568,0.2951698303222656,-1.819993019104004
1684110580069086200,11.088086181640625,-0.7373502850532532,0.36438465118408203,-1.8521708250045776
1684110580079127800,11.0981279296875,-1.0072236061096191,0.39434242248535156,-1.6832743883132935
1684110580089169700,11.108169677734375,-0.9911506772041321,0.35216236114501953,-1.381372094154358
1684110580099211300,11.118211181640625,-0.6668959856033325,0.2214794158935547,-1.018773078918457
1684110580109252900,11.1282529296875,-0.15121306478977203,0.11957359313964844,-0.5513584613800049
1684110580119294500,11.13829443359375,0.33595430850982666,0.039287567138671875,-0.11957693099975586
1684110580129336000,11.148336181640625,0.6722724437713623,0.02122783660888672,0.22286581993103027
1684110580139377700,11.158377685546874,0.8951761722564697,-0.025426864624023438,0.4705144166946411
1684110580149419300,11.168419189453125,1.0317003726959229,-0.1052703857421875,0.6252238750457764
1684110580159460900,11.1784609375,1.0786192417144775,-0.21575641632080078,0.7225819826126099
1684110580169502500,11.18850244140625,1.068812370300293,-0.3257331848144531,0.7648855447769165
1684110580179544000,11.1985439453125,1.0336607694625854,-0.34932613372802734,0.7671210765838623
1684110580189585700,11.208585693359375,0.9601339101791382,-0.32259273529052734,0.7916367053985596
1684110580199627300,11.218627197265626,0.8484271168708801,-0.22889232635498047,0.8216893672943115
1684110580209668900,11.2286689453125,0.682397723197937,-0.15194225311279297,0.7524459362030029
1684110580219710500,11.23871044921875,0.5570626258850098,-0.09890460968017578,0.665908932685852
1684110580229752300,11.24875244140625,0.5228801965713501,-0.09598922729492188,0.5742268562316895
1684110580239794000,11.2587939453125,0.5076904892921448,-0.10961151123046875,0.5393991470336914
1684110580249835500,11.26883544921875,0.5803210735321045,-0.12057971954345703,0.5538462400436401
1684110580259877000,11.278877197265626,0.6377019882202148,-0.11929893493652344,0.5527342557907104
1684110580269918700,11.288918701171875,0.6962069869041443,-0.08905696868896484,0.540696382522583
1684110580279960300,11.298960205078124,0.7261248230934143,-0.04905223846435547,0.5033243894577026
1684110580290002000,11.309001953125,0.7095444798469543,-0.011380195617675781,0.40524744987487793
1684110580300043500,11.31904345703125,0.6292295455932617,0.05253410339355469,0.29943370819091797
1684110580310085000,11.329085205078124,0.5548608899116516,0.016076087951660156,0.1762855052947998
1684110580320126700,11.339126708984375,0.4587475657463074,-0.08705329895019531,0.09089767932891846
1684110580330168300,11.349168212890625,0.39472123980522156,-0.17786693572998047,-0.02344346046447754
1684110580340210000,11.3592099609375,0.3419201374053955,-0.16562461853027344,-0.11162745952606201
1684110580350251500,11.36925146484375,0.3677175045013428,-0.06496047973632812,-0.17331159114837646
1684110580360293000,11.379293212890625,0.39101099967956543,0.03074169158935547,-0.2250227928161621
1684110580370334700,11.389334716796874,0.4857466220855713,0.11677837371826172,-0.23844432830810547
1684110580380376300,11.399376220703125,0.601296067237854,0.13109111785888672,-0.275860071182251
1684110580390418000,11.40941796875,0.7101830840110779,0.1477804183959961,-0.3441358804702759
1684110580400459800,11.419459716796876,0.811173141002655,0.07122516632080078,-0.4120272397994995
1684110580410501400,11.42950146484375,0.8697716593742371,0.004240989685058594,-0.4458777904510498
1684110580420543000,11.43954296875,0.8901404142379761,-0.06997203826904297,-0.4600365161895752
1684110580430584600,11.44958447265625,0.8579814434051514,-0.06783294677734375,-0.4449141025543213
1684110580440626200,11.459626220703125,0.8311700820922852,-0.07076263427734375,-0.42182207107543945
1684110580450667800,11.469667724609375,0.7869157791137695,0.007258415222167969,-0.35719072818756104
1684110580460709400,11.47970947265625,0.7356274724006653,0.08255195617675781,-0.2586190700531006
1684110580470751000,11.4897509765625,0.6897500157356262,0.10269355773925781,-0.19107115268707275
1684110580480792600,11.49979248046875,0.6370788812637329,0.039168357849121094,-0.14261090755462646
1684110580490834200,11.509834228515626,0.5412625670433044,-0.0027608871459960938,-0.08221280574798584
1684110580500875800,11.519875732421875,0.4453273415565491,-0.05655670166015625,-0.04828357696533203
1684110580510917400,11.52991748046875,0.33319640159606934,-0.11493206024169922,0.01393115520477295
1684110580520959000,11.539958984375,0.2536157965660095,-0.12288093566894531,0.10434961318969727
1684110580531000600,11.55000048828125,0.2480478286743164,-0.10434722900390625,0.09397852420806885
1684110580541042400,11.56004248046875,0.26676422357559204,-0.07849311828613281,0.10987734794616699
1684110580551084000,11.570083984375,0.3000373840332031,-0.0024013519287109375,0.03516709804534912
1684110580561125600,11.580125732421875,0.35646092891693115,0.040093421936035156,-0.024531841278076172
1684110580571167200,11.590167236328124,0.4086526036262512,0.07282638549804688,-0.07135307788848877
1684110580581208800,11.600208740234375,0.40700650215148926,0.08022880554199219,-0.08241355419158936
1684110580591250400,11.61025048828125,0.4097030758857727,0.04725456237792969,-0.06872737407684326
1684110580601292000,11.6202919921875,0.4003797769546509,0.040436744689941406,-0.05155158042907715
1684110580611333600,11.630333740234375,0.41248059272766113,0.03812885284423828,-0.0024911165237426758
1684110580621375200,11.640375244140625,0.42975831031799316,0.04496192932128906,0.02164459228515625
1684110580631416800,11.650416748046876,0.4954606294631958,0.09142589569091797,0.07084274291992188
1684110580641458400,11.66045849609375,0.5856437087059021,0.1133871078491211,0.24090003967285156
1684110580651500000,11.6705,0.7276026010513306,0.05718994140625,0.3691064119338989
1684110580661541600,11.680541748046876,0.8294426202774048,-0.0052814483642578125,0.4369697570800781
1684110580671583200,11.690583251953125,0.8524916768074036,-0.06228065490722656,0.44312334060668945
1684110580681625000,11.700625,0.7968744039535522,-0.09977531433105469,0.43756675720214844
1684110580691666700,11.710666748046876,0.6756917834281921,-0.052123069763183594,0.38254988193511963
1684110580701708300,11.720708251953125,0.545535683631897,-0.005389213562011719,0.3189113140106201
1684110580711750000,11.73075,0.46457797288894653,0.057036399841308594,0.263302206993103
1684110580721791500,11.74079150390625,0.4141427278518677,0.01962757110595703,0.18964886665344238
1684110580731833000,11.7508330078125,0.3982904553413391,-0.017101287841796875,0.10069406032562256
1684110580741874700,11.760874755859374,0.3875200152397156,-0.0038099288940429688,0.006220579147338867
1684110580751916300,11.770916259765626,0.3739907145500183,0.04679107666015625,-0.06523728370666504
1684110580761958000,11.7809580078125,0.30799955129623413,0.096343994140625,-0.14920544624328613
1684110580771999500,11.79099951171875,0.22816169261932373,0.15895843505859375,-0.2170720100402832
1684110580782041000,11.801041015625,0.1566179394721985,0.2273712158203125,-0.24068331718444824
1684110580792082700,11.811082763671875,0.08765697479248047,0.24748992919921875,-0.23732614517211914
1684110580802124500,11.82112451171875,0.11716097593307495,0.20855426788330078,-0.1817760467529297
1684110580812166100,11.831166259765626,0.23521965742111206,0.038680076599121094,-0.07020139694213867
1684110580822207700,11.841207763671875,0.4208260178565979,-0.01025390625,0.0437467098236084
1684110580832249300,11.851249267578124,0.5974093079566956,-0.020374298095703125,0.18761897087097168
1684110580842291000,11.861291015625,0.7607525587081909,-0.016031265258789062,0.30909454822540283
1684110580852332500,11.87133251953125,0.8956567049026489,-0.06827449798583984,0.4582793712615967
1684110580862374100,11.8813740234375,0.9785411357879639,-0.14093017578125,0.5901838541030884
1684110580872415700,11.891415771484375,1.026309847831726,-0.15844249725341797,0.6842039823532104
1684110580882457300,11.901457275390625,1.029592752456665,-0.09585285186767578,0.7455168962478638
1684110580892499000,11.9114990234375,0.9776292443275452,-0.08617496490478516,0.7458091974258423
1684110580902540500,11.92154052734375,0.9073832035064697,-0.031876564025878906,0.7140659093856812
1684110580912582100,11.93158203125,0.8626260757446289,-0.030134201049804688,0.6696913242340088
1684110580922623700,11.941623779296876,0.8323960304260254,-0.035256385803222656,0.6295281648635864
1684110580932665600,11.95166552734375,0.7515833377838135,-0.06589317321777344,0.6219682693481445
1684110580942707200,11.961707275390625,0.6739825010299683,-0.1450967788696289,0.5714244842529297
1684110580952748800,11.971748779296876,0.6164841651916504,-0.19428730010986328,0.5256369113922119
1684110580962790400,11.981790283203125,0.547870397567749,-0.19734859466552734,0.4532430171966553
1684110580972832000,11.99183203125,0.4608430862426758,-0.15496063232421875,0.3682633638381958
1684110580982873600,12.00187353515625,0.4001384973526001,-0.1762866973876953,0.2524073123931885
1684110580992915200,12.011915283203125,0.3555786609649658,-0.154449462890625,0.1866011619567871
1684110581002956800,12.021956787109374,0.3379145860671997,-0.1255044937133789,0.09909749031066895
1684110581012998400,12.031998291015626,0.2725827693939209,-0.08027839660644531,0.013738870620727539
1684110581023040000,12.0420400390625,0.17581117153167725,-0.016973495483398438,-0.1606581211090088
1684110581033081600,12.05208154296875,0.0595928430557251,0.007390022277832031,-0.3182661533355713
1684110581043123200,12.062123291015626,-0.12008976936340332,-0.01843738555908203,-0.39505863189697266
1684110581053164800,12.072164794921875,-0.30451083183288574,-0.027631759643554688,-0.5380330085754395
1684110581063206400,12.082206298828124,-0.4610471725463867,-0.05574226379394531,-0.6887097358703613
1684110581073248300,12.092248291015625,-0.5879102349281311,-0.12356758117675781,-0.7801921367645264
1684110581083289900,12.102289794921875,-0.6155422329902649,-0.058594703674316406,-0.8102066516876221
1684110581093331500,12.11233154296875,-0.5867452621459961,-0.07229804992675781,-0.7874488830566406
1684110581103373000,12.122373046875,-0.431660532951355,-0.052623748779296875,-0.69211745262146
1684110581113414700,12.13241455078125,-0.24067145586013794,0.0068645477294921875,-0.5941667556762695
1684110581123456300,12.142456298828124,-0.06068915128707886,-0.036029815673828125,-0.5263597965240479
1684110581133497900,12.152497802734375,0.14433658123016357,-0.08332157135009766,-0.41046619415283203
1684110581143539500,12.16253955078125,0.31070995330810547,-0.14676189422607422,-0.24330925941467285
1684110581153581000,12.1725810546875,0.406577467918396,-0.18370342254638672,-0.0735785961151123
1684110581163622700,12.18262255859375,0.4671761989593506,-0.23916149139404297,0.019962310791015625
1684110581173664300,12.192664306640625,0.4640781879425049,-0.3480091094970703,0.13438963890075684
1684110581183705900,12.202705810546876,0.39555203914642334,-0.25747108459472656,0.18459486961364746
1684110581193747500,12.21274755859375,0.2749898433685303,-0.10744190216064453,0.22852826118469238
1684110581203789300,12.222789306640625,0.17984730005264282,0.025777816772460938,0.2549278736114502
1684110581213831000,12.232830810546876,0.16998863220214844,0.15681838989257812,0.26613664627075195
1684110581223872500,12.24287255859375,0.2263803482055664,0.2107086181640625,0.31342267990112305
1684110581233914000,12.2529140625,0.2618105411529541,0.20068359375,0.3511784076690674
1684110581243955700,12.262955810546876,0.2912445664405823,0.13956069946289062,0.37511563301086426
1684110581253997300,12.272997314453125,0.2631787061691284,0.09420108795166016,0.42520713806152344
1684110581264039000,12.283038818359374,0.2138652205467224,0.07620048522949219,0.47712087631225586
1684110581274080500,12.29308056640625,0.1437806487083435,-0.023036956787109375,0.42667675018310547
1684110581284122000,12.3031220703125,0.05355966091156006,-0.07977771759033203,0.2710700035095215
1684110581294163700,12.313163818359374,-0.08877158164978027,-0.05954742431640625,0.11157417297363281
1684110581304205300,12.323205322265625,-0.23184752464294434,-0.010776519775390625,-0.08185601234436035
1684110581314247200,12.3332470703125,-0.3538270592689514,0.03059864044189453,-0.2680232524871826
1684110581324288800,12.343288818359374,-0.4146459996700287,0.04338550567626953,-0.41605067253112793
1684110581334330400,12.353330322265625,-0.4569869339466095,0.054579734802246094,-0.5170581340789795
1684110581344372000,12.3633720703125,-0.4919220805168152,-0.024909019470214844,-0.5889008045196533
1684110581354413600,12.37341357421875,-0.5010548233985901,-0.08768749237060547,-0.6548275947570801
1684110581364455200,12.383455078125,-0.5514624714851379,-0.19850826263427734,-0.6545469760894775
1684110581374496800,12.393496826171875,-0.5417980551719666,-0.29047584533691406,-0.6261694431304932
1684110581384538400,12.403538330078124,-0.4665323495864868,-0.3516988754272461,-0.5532412528991699
1684110581394580000,12.413580078125,-0.36095166206359863,-0.3966178894042969,-0.5005979537963867
1684110581404621600,12.42362158203125,-0.24731677770614624,-0.3728952407836914,-0.45627689361572266
1684110581414663200,12.4336630859375,-0.14414414763450623,-0.3477306365966797,-0.47526073455810547
1684110581424704800,12.443704833984375,-0.06062421202659607,-0.2231588363647461,-0.4816739559173584
1684110581434746400,12.453746337890625,0.08349111676216125,-0.056652069091796875,-0.38774871826171875
1684110581444788000,12.4637880859375,0.27535000443458557,0.12813854217529297,-0.23090553283691406
1684110581454829800,12.473829833984375,0.42871806025505066,0.27415943145751953,-0.04587244987487793
1684110581464871400,12.483871337890625,0.5032145977020264,0.329193115234375,0.1855325698852539
1684110581474913000,12.4939130859375,0.4449901580810547,0.29659461975097656,0.3968315124511719
