time,seconds_elapsed,z,y,x
1683928211891139300,0.028139404296875,0,0,0
1683928211901181400,0.038181396484375,-0.0008707046508789062,-0.0718834400177002,-0.026114583015441895
1683928211911223800,0.048223876953125,-0.15489482879638672,-0.23509573936462402,0.46032166481018066
1683928211921266200,0.05826611328125,-0.08005714416503906,-0.11723136901855469,-0.007334709167480469
1683928211931308500,0.06830859375,-0.14346885681152344,0.2426304817199707,-0.0705254077911377
1683928211941351000,0.078350830078125,-0.08663558959960938,0.4725468158721924,-0.1090707778930664
1683928211951393300,0.088393310546875,-0.30022430419921875,0.40187835693359375,0.031008481979370117
1683928211961435600,0.098435546875,-0.39363670349121094,0.14598417282104492,0.16275787353515625
1683928211971478000,0.10847802734375,-0.5176987648010254,0.05544471740722656,0.18248224258422852
1683928211981520400,0.118520263671875,-0.42893266677856445,0.045577049255371094,-0.011622190475463867
1683928211991562800,0.128562744140625,0.057854652404785156,0.13996267318725586,-0.5431067943572998
1683928212001605000,0.138605224609375,0.48382091522216797,0.07578563690185547,-0.8796167373657227
1683928212011647200,0.148647216796875,1.1813230514526367,-0.4160275459289551,-1.3419642448425293
1683928212021689600,0.158689697265625,1.9957199096679688,-0.6488263607025146,-1.738279938697815
1683928212031732000,0.16873193359375,2.174562454223633,-0.6348781585693359,-1.4061083793640137
1683928212041774300,0.1787744140625,1.8872766494750977,-0.3150191307067871,-0.5604438781738281
1683928212051816700,0.188816650390625,1.7105770111083984,0.6351096630096436,-0.8698315620422363
1683928212061859000,0.198859130859375,0.4531288146972656,-0.3625938892364502,0.2812678813934326
1683928212071901400,0.2089013671875,-1.4788522720336914,-2.058095932006836,1.569427490234375
1683928212081943800,0.21894384765625,-1.5154304504394531,-0.4512155055999756,0.03288888931274414
1683928212091986200,0.228986083984375,-0.6395177841186523,1.095322847366333,-0.9715597629547119
1683928212102028500,0.239028564453125,-0.7713222503662109,0.7268416881561279,-0.6938290596008301
1683928212112071000,0.24907080078125,-0.09448719024658203,-0.8813729286193848,-0.15564537048339844
1683928212122113300,0.25911328125,0.8958244323730469,-1.3924274444580078,0.33712005615234375
1683928212132155400,0.2691552734375,1.1694035530090332,-1.626013994216919,0.6908669471740723
1683928212142197800,0.27919775390625,1.0758600234985352,-1.3937253952026367,0.6205615997314453
1683928212152240000,0.289240234375,0.5830116271972656,-1.026850938796997,0.6527175903320312
1683928212162282500,0.299282470703125,0.32820987701416016,-0.6847102642059326,0.5150637626647949
1683928212172324900,0.309324951171875,0.14232206344604492,-0.5593979358673096,0.31823062896728516
1683928212182367200,0.3193671875,0.13834333419799805,-0.7268524169921875,-0.046248435974121094
1683928212192409600,0.32940966796875,0.2277536392211914,-0.7134385108947754,-0.7097654342651367
1683928212202452000,0.339451904296875,0.22600793838500977,-0.78865647315979,-0.8291935920715332
1683928212212494300,0.349494384765625,0.08876848220825195,-0.912893533706665,-0.905980110168457
1683928212222536700,0.35953662109375,0.17539167404174805,-0.8745467662811279,-1.2217521667480469
1683928212232579000,0.3695791015625,0.7264280319213867,-0.873009204864502,-0.7145857810974121
1683928212242621200,0.37962109375,1.227691650390625,-0.8535342216491699,-0.5256228446960449
1683928212252663600,0.38966357421875,1.6542024612426758,-0.9095513820648193,-0.18517589569091797
1683928212262706000,0.399705810546875,0.9297389984130859,-1.0393757820129395,0.8261551856994629
1683928212272748300,0.409748291015625,-0.49327516555786133,-1.257361888885498,0.9794960021972656
1683928212282790700,0.419790771484375,-1.5775666236877441,-0.8598144054412842,0.7853131294250488
1683928212292833000,0.4298330078125,-2.5523087978363037,-0.11382722854614258,1.2397289276123047
1683928212302875400,0.43987548828125,-2.6857211589813232,0.3303368091583252,0.5722284317016602
1683928212312917800,0.449917724609375,-1.2520263195037842,0.26198387145996094,-0.20044565200805664
1683928212322960100,0.459960205078125,-1.0837903022766113,0.6859232187271118,2.242190361022949
1683928212333002500,0.47000244140625,-0.9982113838195801,0.7717852592468262,2.2022705078125
1683928212343044900,0.480044921875,-0.032277584075927734,0.8074343204498291,2.420928955078125
1683928212353087200,0.490087158203125,-0.4661695957183838,1.558767318725586,2.8787622451782227
1683928212363129600,0.500129638671875,-4.225466251373291,1.7938337326049805,1.4435606002807617
1683928212373171700,0.510171630859375,-2.3612284660339355,2.262382984161377,0.6877946853637695
1683928212383214000,0.520214111328125,0.2310786247253418,1.2267401218414307,0.5517539978027344
1683928212393256400,0.53025634765625,1.9612672328948975,-0.03474998474121094,0.6468753814697266
1683928212403298800,0.540298828125,1.5519049167633057,1.241296648979187,0.858881950378418
1683928212413341200,0.550341064453125,0.6691038608551025,1.2842620611190796,-0.4383983612060547
1683928212423383600,0.560383544921875,-0.1592564582824707,0.7036683559417725,-0.7096185684204102
1683928212433426000,0.570426025390625,-1.5001590251922607,0.6828014850616455,-1.0717973709106445
1683928212443468300,0.58046826171875,-1.4839872121810913,0.44186997413635254,-1.142129898071289
1683928212453510700,0.5905107421875,-0.7123309969902039,0.34717392921447754,-0.8286867141723633
1683928212463553000,0.600552978515625,-0.564023494720459,0.18764173984527588,-0.4740943908691406
1683928212473595100,0.61059521484375,-0.5197819471359253,0.3312094211578369,0.24729442596435547
1683928212483637500,0.620637451171875,-0.801397442817688,0.42866194248199463,0.506648063659668
1683928212493679900,0.630679931640625,-0.7567735910415649,0.38574981689453125,0.32651805877685547
1683928212503722200,0.64072216796875,0.23404639959335327,0.22916722297668457,-0.28606700897216797
1683928212513764600,0.6507646484375,0.548730731010437,-0.06903326511383057,-0.956578254699707
1683928212523807000,0.660806884765625,0.8826063871383667,-0.2995694875717163,-1.8407740592956543
1683928212533849300,0.670849365234375,1.5515767335891724,-0.5885082483291626,-2.093942642211914
1683928212543891700,0.6808916015625,2.0908260345458984,0.3425014019012451,-2.618931770324707
1683928212553934000,0.69093408203125,-0.5129679441452026,-2.662909507751465,1.5043420791625977
1683928212563976400,0.7009765625,-1.0714095830917358,-0.06720447540283203,2.445484161376953
1683928212574018800,0.711018798828125,-2.014950752258301,-0.848915696144104,3.235039710998535
1683928212584061200,0.721061279296875,-2.693319320678711,-1.0390212535858154,3.160611152648926
1683928212594103600,0.731103515625,-2.868464946746826,-1.0626065731048584,2.594411849975586
1683928212604145700,0.741145751953125,-2.1169931888580322,-1.711419939994812,2.104982376098633
1683928212614188000,0.75118798828125,-1.3963855504989624,-2.3941760063171387,1.5651016235351562
1683928212624230400,0.76123046875,-0.9065903425216675,-2.907132625579834,1.0531377792358398
1683928212634272800,0.771272705078125,0.07115799188613892,-3.0644724369049072,1.198756217956543
1683928212644315100,0.781315185546875,0.4076635241508484,-2.6720972061157227,1.4692535400390625
1683928212654357500,0.791357421875,0.2561769485473633,-2.1436095237731934,1.810049057006836
1683928212664400000,0.80139990234375,-0.27687036991119385,-1.9126054048538208,1.8127622604370117
1683928212674442200,0.811442138671875,-1.5094658136367798,-1.6210838556289673,2.183964729309082
1683928212684484600,0.821484619140625,-2.264888048171997,-0.8028296232223511,2.029256820678711
1683928212694527000,0.83152685546875,-2.0288643836975098,-0.4222090244293213,1.356247901916504
1683928212704569300,0.8415693359375,-0.9982942342758179,-0.6471725702285767,-0.4158754348754883
1683928212714611500,0.851611572265625,0.09469091892242432,-0.5082643032073975,-1.5253410339355469
1683928212724653800,0.86165380859375,0.18109512329101562,0.0025441646575927734,-1.981637954711914
1683928212734696200,0.8716962890625,0.4826810359954834,0.20459389686584473,-1.579106330871582
1683928212744738600,0.881738525390625,0.733221173286438,0.8153852820396423,-0.7033634185791016
1683928212754781000,0.891781005859375,0.9667462110519409,1.233117699623108,0.10302925109863281
1683928212764823300,0.9018232421875,1.2245832681655884,1.6274231672286987,-0.00920867919921875
1683928212774865700,0.91186572265625,1.4673844575881958,2.0525357723236084,-0.6707754135131836
1683928212784908000,0.921907958984375,1.8514149188995361,2.4473164081573486,-1.8981924057006836
1683928212794950400,0.931950439453125,2.7803990840911865,2.6571803092956543,-2.5854620933532715
1683928212804992800,0.94199267578125,3.2152342796325684,2.909214496612549,-2.7203545570373535
1683928212815035100,0.95203515625,3.0841429233551025,2.6398732662200928,-2.1000843048095703
1683928212825077500,0.962077392578125,2.6733310222625732,2.9691076278686523,-1.3282079696655273
1683928212835119600,0.97211962890625,3.25905179977417,3.2067065238952637,-0.6606054306030273
1683928212845162000,0.982161865234375,4.294402122497559,2.2993011474609375,-0.2536487579345703
1683928212855204400,0.992204345703125,4.5322585105896,1.606014370918274,-2.125814914703369
1683928212865246700,1.002246826171875,4.7100653648376465,1.5219860076904297,-1.1628379821777344
1683928212875289000,1.0122890625,4.3007659912109375,0.5614171624183655,-1.1949615478515625
1683928212885331500,1.02233154296875,3.4870619773864746,0.148298978805542,-1.8943767547607422
1683928212895373800,1.032373779296875,1.93701171875,-0.6567438840866089,-3.201618194580078
1683928212905416200,1.042416259765625,0.09490728378295898,-1.3649258613586426,-3.647082805633545
1683928212915458600,1.05245849609375,-1.4565443992614746,-1.466036081314087,-1.886070728302002
1683928212925501000,1.0625009765625,-2.3476200103759766,-1.444421648979187,-0.0782613754272461
1683928212935543300,1.072543212890625,-2.1827986240386963,-1.3450286388397217,2.0748291015625
1683928212945585700,1.082585693359375,-1.9631898403167725,-1.1930838823318481,3.0608034133911133
1683928212955628000,1.0926279296875,-1.5818147659301758,-1.8286519050598145,2.1513023376464844
1683928212965670100,1.102670166015625,-0.5005526542663574,-2.4276411533355713,0.7411136627197266
1683928212975712500,1.11271240234375,0.29901957511901855,-2.2112224102020264,-0.8279600143432617
1683928212985755000,1.1227548828125,1.5424059629440308,-1.2342185974121094,-3.060239315032959
1683928212995797200,1.13279736328125,0.9964867830276489,-0.8325209617614746,-3.5307230949401855
1683928213005839600,1.142839599609375,0.8856093883514404,-1.1912949085235596,-3.1385698318481445
1683928213015882000,1.152882080078125,0.5683333873748779,-1.6923155784606934,-1.3018431663513184
1683928213025924400,1.16292431640625,-0.0936741828918457,-1.3171815872192383,0.5174951553344727
1683928213035966700,1.172966796875,-0.33722376823425293,-0.8163191080093384,1.8827362060546875
1683928213046009000,1.183009033203125,0.21741938591003418,-0.3288956880569458,2.3191308975219727
1683928213056051500,1.193051513671875,0.6171241998672485,0.1114269495010376,2.680455207824707
1683928213066093600,1.203093505859375,0.6960067749023438,0.2541360855102539,2.869363784790039
1683928213076136000,1.213135986328125,0.18747222423553467,0.41024088859558105,3.632369041442871
1683928213086178300,1.22317822265625,-0.5543519258499146,0.8371453285217285,3.7972679138183594
1683928213096220700,1.233220703125,-1.2002663612365723,0.9713470935821533,3.3192062377929688
1683928213106263000,1.243262939453125,-1.3149220943450928,0.8960444331169128,2.1362838745117188
1683928213116305400,1.253305419921875,-0.8827915191650391,0.5635958909988403,1.2342519760131836
1683928213126347800,1.26334765625,-0.33605051040649414,-0.43642115592956543,0.745142936706543
1683928213136390100,1.27339013671875,0.1251298189163208,-0.5321335792541504,0.2539405822753906
1683928213146432500,1.2834326171875,0.4485931396484375,-0.14430737495422363,-0.009572029113769531
1683928213156475000,1.293474853515625,0.5814499258995056,0.1082766056060791,-0.48602867126464844
1683928213166517200,1.303517333984375,0.5291192531585693,0.03906130790710449,-0.5438213348388672
1683928213176559400,1.313559326171875,0.5828932523727417,0.007647991180419922,-0.109130859375
1683928213186602000,1.32360205078125,0.3299427032470703,-0.3057692050933838,1.1409635543823242
1683928213196644000,1.33364404296875,-0.29381459951400757,0.13771629333496094,1.0012483596801758
1683928213206686500,1.3436865234375,-0.5408331751823425,0.4629099369049072,0.5762205123901367
1683928213216728800,1.353728759765625,-0.3399220108985901,0.176483154296875,0.3910360336303711
1683928213226771200,1.363771240234375,-0.07363897562026978,0.16672682762145996,0.16493606567382812
1683928213236813600,1.3738134765625,-0.028161346912384033,-0.19522786140441895,0.10028076171875
1683928213246856000,1.38385595703125,-0.20689743757247925,-0.48876428604125977,-0.04836845397949219
1683928213256898300,1.393898193359375,-0.16836047172546387,-0.3803093433380127,0.15978622436523438
1683928213266940700,1.403940673828125,0.3232758343219757,-0.12378048896789551,0.286529541015625
1683928213276983000,1.413983154296875,0.9063658714294434,-0.11347413063049316,0.21591949462890625
1683928213287025400,1.424025390625,1.022811770439148,0.05578494071960449,-0.4776735305786133
1683928213297067800,1.43406787109375,0.7680215835571289,0.0004563331604003906,-0.3958263397216797
1683928213307110000,1.44410986328125,0.5315439701080322,-0.41652774810791016,-0.4000120162963867
1683928213317152300,1.45415234375,0.11325308680534363,-0.5045919418334961,-0.6577920913696289
1683928213327194600,1.464194580078125,-0.06221204996109009,-0.33574485778808594,-1.0882587432861328
1683928213337237000,1.474237060546875,-0.09865963459014893,-0.25711894035339355,-1.2415523529052734
1683928213347279400,1.484279296875,-0.1393965482711792,-0.20601248741149902,-1.1784353256225586
1683928213357321700,1.49432177734375,0.08160088956356049,-0.10379910469055176,-0.9663267135620117
1683928213367364000,1.504364013671875,-0.08632269501686096,0.009975910186767578,-0.47574710845947266
1683928213377406500,1.514406494140625,-0.21878692507743835,0.23290252685546875,-0.02222728729248047
1683928213387448800,1.52444873046875,-0.21270474791526794,0.3768153190612793,0.4709014892578125
1683928213397491200,1.5344912109375,-0.3177472949028015,0.43686699867248535,0.791569709777832
1683928213407533600,1.544533447265625,-0.6992132663726807,0.35803699493408203,0.5767116546630859
1683928213417576000,1.554575927734375,-0.9463416337966919,-0.10715508460998535,1.216339111328125
1683928213427618000,1.5646181640625,-0.9120960235595703,0.11001920700073242,1.4302692413330078
1683928213437660400,1.574660400390625,-0.874749481678009,0.3551661968231201,1.0866031646728516
1683928213447702800,1.584702880859375,-0.9417405724525452,0.2626347541809082,1.1142511367797852
1683928213457745200,1.5947451171875,-1.1398009061813354,0.3783423900604248,1.5020408630371094
1683928213467787500,1.60478759765625,-1.1730479001998901,0.541010856628418,1.4501476287841797
1683928213477830000,1.614829833984375,-1.0716419219970703,0.5436537265777588,1.2867841720581055
1683928213487872300,1.624872314453125,-0.8966575264930725,0.3629801273345947,0.9031782150268555
1683928213497914600,1.63491455078125,-0.5688304305076599,0.15823602676391602,0.6865625381469727
1683928213507957000,1.64495703125,-0.25820833444595337,-0.14503192901611328,0.5371971130371094
1683928213517999400,1.654999267578125,0.04835919290781021,-0.42792534828186035,0.5396699905395508
1683928213528041700,1.665041748046875,-0.03665919601917267,-0.8995053768157959,0.2516441345214844
1683928213538083800,1.675083740234375,0.7523567080497742,-1.4924240112304688,0.4272289276123047
1683928213548126200,1.685126220703125,2.8489813804626465,-1.7110638618469238,1.519552230834961
1683928213558168600,1.69516845703125,3.5697293281555176,-1.388885259628296,2.1088714599609375
1683928213568211000,1.7052109375,-1.4367434978485107,-0.04726362228393555,-1.6393604278564453
1683928213578253300,1.71525341796875,-3.68804931640625,-0.14459228515625,-1.3589038848876953
1683928213588295700,1.725295654296875,-3.4173874855041504,-0.012224435806274414,-0.7074871063232422
1683928213598338000,1.735338134765625,-2.8113832473754883,-0.005980730056762695,-0.09571647644042969
1683928213608380400,1.74538037109375,-2.342573642730713,-0.2521812915802002,0.13086509704589844
1683928213618422800,1.7554228515625,-1.6898088455200195,-0.4722963571548462,-0.43927764892578125
1683928213628465200,1.765465087890625,-1.4710693359375,-0.6949101686477661,-1.260345458984375
1683928213638507500,1.775507568359375,-0.9147247076034546,-0.7318764925003052,-1.6420879364013672
1683928213648550000,1.7855498046875,-0.5192039012908936,-0.7657076120376587,-0.8000717163085938
1683928213658592300,1.79559228515625,0.8516393303871155,-0.6128940582275391,-0.38163280487060547
1683928213668634400,1.80563427734375,1.5626137256622314,-0.41465914249420166,-0.7665929794311523
1683928213678676700,1.8156767578125,0.979559600353241,-0.5663195848464966,-1.0505590438842773
1683928213688719000,1.825718994140625,1.1680465936660767,-0.24385523796081543,-1.0818252563476562
1683928213698761500,1.835761474609375,1.4617204666137695,-0.041831016540527344,-0.8969898223876953
1683928213708803800,1.845803955078125,1.622369647026062,0.11221778392791748,-0.8369112014770508
1683928213718846200,1.85584619140625,1.7263679504394531,0.2369229793548584,-0.39591407775878906
1683928213728888600,1.865888671875,1.830877423286438,0.27315330505371094,0.0011987686157226562
1683928213738931000,1.875930908203125,1.922105073928833,0.3223382234573364,0.7651700973510742
1683928213748973300,1.885973388671875,1.554309606552124,0.45201385021209717,1.4762821197509766
1683928213759015700,1.896015625,0.7282432317733765,0.6620404720306396,1.8419561386108398
1683928213769057800,1.906057861328125,-0.07725346088409424,0.8754904270172119,1.5956192016601562
1683928213779100200,1.91610009765625,-0.8611135482788086,0.7925938367843628,1.216958999633789
1683928213789142500,1.926142578125,-1.1103527545928955,0.35916638374328613,0.6450319290161133
1683928213799185000,1.936184814453125,-0.46470677852630615,0.6036319732666016,0.8405132293701172
1683928213809227300,1.946227294921875,0.11929941177368164,-0.6253056526184082,1.5884628295898438
1683928213819269600,1.95626953125,0.7111325860023499,-0.9177908897399902,1.8481330871582031
1683928213829312000,1.96631201171875,0.39238524436950684,-0.7622802257537842,1.508946418762207
1683928213839354400,1.976354248046875,0.013885021209716797,-0.7845251560211182,0.7530641555786133
1683928213849396700,1.986396728515625,-0.3589975833892822,-0.697324275970459,-0.5941705703735352
1683928213859439000,1.996439208984375,-0.9928979873657227,-0.6156108379364014,-1.6754579544067383
1683928213869481500,2.0064814453125,-1.7462084293365479,-1.2734382152557373,-2.6382827758789062
1683928213879523800,2.01652392578125,-1.0268580913543701,-1.3655974864959717,-2.147803783416748
1683928213889566200,2.026566162109375,-0.07055878639221191,-0.5622730255126953,-1.5643792152404785
1683928213899608300,2.0366083984375,0.10198283195495605,-0.14826679229736328,-2.07961368560791
1683928213909650700,2.046650634765625,-0.5122230052947998,-0.5864710807800293,-2.176823616027832
1683928213919693000,2.056693115234375,-0.6432480812072754,-1.0236148834228516,-2.070631980895996
1683928213929735400,2.0667353515625,-0.18615078926086426,-0.762134313583374,-1.9239521026611328
1683928213939777800,2.07677783203125,0.16005682945251465,-0.08318305015563965,-1.1531457901000977
1683928213949820200,2.086820068359375,-0.19503545761108398,0.13951611518859863,-1.0024652481079102
1683928213959862500,2.096862548828125,-0.3968236446380615,0.17658281326293945,-1.0798931121826172
1683928213969905000,2.10690478515625,-0.22644281387329102,0.4050588607788086,-0.8331623077392578
1683928213979947300,2.116947265625,-0.007192850112915039,0.37218236923217773,-0.8104095458984375
1683928213989989600,2.12698974609375,-0.07663559913635254,0.1923978328704834,-0.6734704971313477
1683928214000031700,2.13703173828125,-0.044785261154174805,0.5405628681182861,-0.6589670181274414
1683928214010074000,2.14707421875,-0.16899776458740234,0.7511734962463379,-0.0005826950073242188
1683928214020116500,2.157116455078125,-0.33348989486694336,0.8424434661865234,0.6825714111328125
1683928214030158800,2.167158935546875,1.3361554145812988,2.667076587677002,0.18670082092285156
1683928214040201200,2.177201171875,0.6948884725570679,2.4422998428344727,0.23190593719482422
1683928214050243600,2.18724365234375,0.3109872341156006,1.9686269760131836,-0.4259605407714844
1683928214060286000,2.197285888671875,-0.08561825752258301,0.9182767868041992,-0.5492982864379883
1683928214070328300,2.207328369140625,-0.027028799057006836,0.5356128215789795,-0.3665151596069336
1683928214080370700,2.21737060546875,0.18991661071777344,-0.16353392601013184,0.5524330139160156
1683928214090413000,2.2274130859375,0.45142054557800293,-0.9959321022033691,0.6695995330810547
1683928214100455400,2.237455322265625,0.16994047164916992,-0.6172459125518799,-0.05928516387939453
1683928214110497500,2.24749755859375,-0.3447079658508301,0.2629849910736084,-1.4972457885742188
1683928214120540000,2.257539794921875,-0.26598119735717773,0.910595178604126,-1.9887914657592773
1683928214130582300,2.267582275390625,-0.7179133892059326,-0.40094780921936035,-0.07715988159179688
1683928214140624600,2.277624755859375,0.0196382999420166,-0.38952016830444336,0.7355308532714844
1683928214150667000,2.2876669921875,0.5208683013916016,-1.3949031829833984,1.142014503479004
1683928214160709400,2.29770947265625,0.2754993438720703,-1.1496877670288086,0.5258655548095703
1683928214170751700,2.307751708984375,-0.3712272644042969,-0.7153763771057129,-0.3566474914550781
1683928214180794000,2.317794189453125,-0.2781534194946289,0.11552286148071289,-1.688096046447754
1683928214190836500,2.32783642578125,0.46039319038391113,1.6003670692443848,-1.787881851196289
1683928214200878800,2.33787890625,0.9515995979309082,2.4854371547698975,-1.7158737182617188
1683928214210921200,2.347921142578125,0.6168897151947021,0.8580942153930664,-0.39769554138183594
1683928214220963600,2.357963623046875,0.2595953941345215,-0.6373329162597656,0.6250247955322266
1683928214231006000,2.368005859375,0.3999929428100586,-0.5965700149536133,0.47821521759033203
1683928214241048000,2.378048095703125,0.40222883224487305,-0.8484611511230469,0.2212076187133789
1683928214251090400,2.38809033203125,0.07073140144348145,-0.9019966125488281,0.1822519302368164
1683928214261132800,2.3981328125,0.04363107681274414,-0.7141761779785156,-0.7868380546569824
1683928214271175200,2.408175048828125,-0.16865921020507812,-1.030951976776123,-1.047102451324463
1683928214281217500,2.418217529296875,-0.14444684982299805,-1.0075955390930176,0.30418968200683594
1683928214291260000,2.428260009765625,0.14674067497253418,-1.1134247779846191,1.3546228408813477
1683928214301302300,2.43830224609375,-0.018729209899902344,-1.13995361328125,1.5709271430969238
1683928214311344600,2.4483447265625,-0.9031813144683838,-0.7519431114196777,2.0541181564331055
1683928214321387000,2.458386962890625,-1.697080373764038,0.1341838836669922,2.2163572311401367
1683928214331429400,2.468429443359375,-3.0240771770477295,2.9199798107147217,4.325603485107422
1683928214341471500,2.478471435546875,-2.5946781635284424,3.2193939685821533,4.787722587585449
1683928214351513900,2.488513916015625,-2.2406082153320312,2.965789794921875,2.853708267211914
1683928214361556200,2.49855615234375,-1.7338001728057861,1.8263893127441406,2.065840721130371
1683928214371598600,2.5085986328125,-0.7318201065063477,-0.20621776580810547,0.9142618179321289
1683928214381641000,2.518640869140625,0.3185725212097168,-2.339484214782715,-0.98944091796875
1683928214391683300,2.528683349609375,0.9142787456512451,-3.452338218688965,-2.0102734565734863
1683928214401725700,2.5387255859375,1.1856262683868408,-3.7213783264160156,-1.8083281517028809
1683928214411768000,2.54876806640625,1.3437023162841797,-3.173670768737793,-0.9642586708068848
1683928214421810400,2.558810546875,0.8828625679016113,-2.384960651397705,-0.35125064849853516
1683928214431852800,2.568852783203125,0.2955310344696045,-1.3362336158752441,-0.41567325592041016
1683928214441895200,2.578895263671875,0.06202054023742676,-0.11336708068847656,-1.1791105270385742
1683928214451937300,2.588937255859375,0.12395310401916504,1.040438175201416,-2.1792287826538086
1683928214461979600,2.598979736328125,-0.11648082733154297,1.6223478317260742,-2.725330352783203
1683928214472022000,2.60902197265625,-0.10637760162353516,1.675926685333252,-2.271596908569336
1683928214482064400,2.619064453125,-0.26247191429138184,0.6887779235839844,-1.3643889427185059
1683928214492106800,2.629106689453125,-0.06459307670593262,-0.5678882598876953,-1.1551413536071777
1683928214502149000,2.639149169921875,0.17058062553405762,-1.246199607849121,-1.4746694564819336
1683928214512191500,2.64919140625,0.14977002143859863,-1.054734230041504,-1.655052661895752
1683928214522233900,2.65923388671875,1.0739333629608154,-0.33695507049560547,-1.5834174156188965
1683928214532276200,2.669276123046875,2.160393476486206,-0.39588451385498047,-2.0727901458740234
1683928214542318600,2.679318603515625,2.205284595489502,0.41240549087524414,-1.879836082458496
1683928214552361000,2.68936083984375,1.7586594820022583,0.2203998565673828,-1.2794747352600098
1683928214562403300,2.6994033203125,1.308123230934143,-0.20308637619018555,-0.34501123428344727
1683928214572445700,2.70944580078125,-0.1092231273651123,-0.3635115623474121,-0.3868293762207031
1683928214582487800,2.71948779296875,-0.9495327472686768,-0.5052890777587891,-0.24801254272460938
1683928214592530200,2.7295302734375,-1.9400455951690674,-1.3150744438171387,0.5530524253845215
1683928214602572500,2.739572509765625,-2.586268901824951,-1.9194283485412598,1.4225425720214844
1683928214612615000,2.749614990234375,-2.3888158798217773,-1.3478856086730957,1.3867874145507812
1683928214622657300,2.7596572265625,-1.7492001056671143,-0.1923074722290039,1.1599416732788086
1683928214632699600,2.76969970703125,-0.973045825958252,0.53680419921875,0.7420158386230469
1683928214642742000,2.779741943359375,0.2333376407623291,0.6933622360229492,-0.3389301300048828
1683928214652784400,2.789784423828125,0.7165275812149048,0.6113286018371582,-1.3064398765563965
1683928214662826800,2.79982666015625,0.6152797937393188,1.109354019165039,-2.0677003860473633
1683928214672869000,2.809869140625,0.34317469596862793,1.2753863334655762,-2.5038204193115234
1683928214682911200,2.8199111328125,0.05205714702606201,0.9008946418762207,-2.408470630645752
1683928214692953600,2.82995361328125,-0.046071529388427734,0.29723691940307617,-1.8619651794433594
1683928214702996000,2.839995849609375,0.02978825569152832,-0.5576376914978027,-1.2204279899597168
1683928214713038300,2.850038330078125,0.48227834701538086,-1.1539030075073242,-0.1946277618408203
1683928214723080700,2.860080810546875,1.1464239358901978,-1.4361400604248047,1.1011848449707031
1683928214733123000,2.870123046875,1.5836617946624756,-1.7527728080749512,2.065396785736084
1683928214743165400,2.88016552734375,2.1382105350494385,-1.786731243133545,2.411301612854004
1683928214753207800,2.890207763671875,1.9521706104278564,-1.3287744522094727,1.98170804977417
1683928214763250200,2.900250244140625,1.6800236701965332,-0.7192239761352539,0.8418383598327637
1683928214773292500,2.91029248046875,1.2719701528549194,-0.05931234359741211,-0.3238964080810547
1683928214783335000,2.9203349609375,1.7572530508041382,-0.4776735305786133,0.4440765380859375
1683928214793377000,2.930376953125,0.32318830490112305,-1.259559154510498,-0.01826333999633789
1683928214803419400,2.94041943359375,1.3143973350524902,-1.6980938911437988,0.08339071273803711
1683928214813461800,2.950461669921875,1.3682456016540527,-1.097947597503662,0.7785186767578125
1683928214823504100,2.960504150390625,1.577851414680481,0.009026050567626953,0.1314554214477539
1683928214833546500,2.97054638671875,0.6232972741127014,0.4183793067932129,-0.5734257698059082
1683928214843588900,2.9805888671875,-0.35459911823272705,0.552192211151123,-0.8000555038452148
1683928214853631200,2.99063134765625,-1.3120787143707275,0.16206693649291992,-0.7366518974304199
1683928214863673600,3.000673583984375,-1.4345217943191528,0.4266934394836426,-0.9481334686279297
1683928214873716000,3.010716064453125,-1.0185229778289795,-0.4577674865722656,-1.2362499237060547
1683928214883758300,3.02075830078125,-0.23668742179870605,-0.32179880142211914,-0.9028511047363281
1683928214893800400,3.030800537109375,1.3512027263641357,-0.890904426574707,-1.6585378646850586
1683928214903842800,3.0408427734375,3.5158348083496094,-0.39003896713256836,-2.0410256385803223
1683928214913885200,3.05088525390625,3.8688530921936035,-0.17754697799682617,-2.1396942138671875
1683928214923927600,3.060927490234375,2.405367612838745,-0.28235673904418945,-1.9243168830871582
1683928214933970000,3.070969970703125,0.9455496668815613,-0.9885663986206055,-1.066148281097412
1683928214944012300,3.08101220703125,0.057128190994262695,-1.9343714714050293,0.20511245727539062
1683928214954054700,3.0910546875,0.15459752082824707,-1.8368687629699707,0.9352874755859375
1683928214964097000,3.101096923828125,0.547451376914978,-1.2925820350646973,1.8123197555541992
1683928214974139400,3.111139404296875,0.6537674069404602,-0.42719268798828125,2.6115164756774902
1683928214984181800,3.121181640625,0.6790404319763184,0.4426393508911133,3.237957000732422
1683928214994224000,3.13122412109375,0.3265033960342407,0.813136100769043,3.5523767471313477
1683928215004266200,3.141266357421875,-0.06597423553466797,0.7368950843811035,3.2089085578918457
1683928215014308600,3.15130859375,-0.6154283285140991,0.41917943954467773,2.195974826812744
1683928215024351000,3.16135107421875,-0.9170740842819214,-0.19910717010498047,1.2741451263427734
1683928215034393300,3.171393310546875,-0.2574101686477661,-0.328338623046875,0.04733467102050781
1683928215044435700,3.181435791015625,0.4979274868965149,0.11130666732788086,-0.8752374649047852
1683928215054478000,3.19147802734375,0.9218398928642273,0.7859177589416504,-1.1142616271972656
1683928215064520400,3.2015205078125,1.0972585678100586,1.375253677368164,-0.5867218971252441
1683928215074562800,3.211562744140625,1.0285077095031738,1.1683106422424316,-0.09123516082763672
1683928215084605200,3.221605224609375,0.6968263983726501,1.0275259017944336,0.8127975463867188
1683928215094647600,3.2316474609375,0.7313083410263062,1.0753602981567383,2.3763656616210938
1683928215104689700,3.241689697265625,0.47368764877319336,0.6614704132080078,2.908945083618164
1683928215114732000,3.25173193359375,-0.12296134233474731,0.46596765518188477,2.566105365753174
1683928215124774400,3.2617744140625,-0.6170967221260071,0.6897444725036621,2.2221603393554688
1683928215134816800,3.271816650390625,-0.8801651000976562,0.873382568359375,1.6847662925720215
1683928215144859100,3.281859130859375,-0.4991297423839569,1.195930004119873,1.1811552047729492
1683928215154901500,3.291901611328125,0.43752455711364746,1.6208314895629883,0.7068443298339844
1683928215164944000,3.30194384765625,1.0381323099136353,0.9668340682983398,0.10437440872192383
1683928215174986200,3.311986328125,0.9977226853370667,0.39227819442749023,-0.39771604537963867
1683928215185028600,3.322028564453125,0.49162501096725464,0.6490459442138672,-1.0520410537719727
1683928215195071000,3.332071044921875,0.32510554790496826,1.1912603378295898,-1.3978800773620605
1683928215205113300,3.34211328125,0.027486488223075867,2.412228584289551,-1.5353283882141113
1683928215215155700,3.35215576171875,0.755246639251709,3.7011704444885254,-0.908076286315918
1683928215225198000,3.362197998046875,0.5585732460021973,3.858034610748291,-0.32865047454833984
1683928215235240200,3.372240234375,0.30147629976272583,4.4428911209106445,-0.105010986328125
1683928215245282600,3.382282470703125,0.47075027227401733,3.9678874015808105,0.20231342315673828
1683928215255325000,3.392324951171875,0.4487242102622986,2.044924736022949,0.33069610595703125
1683928215265367300,3.4023671875,0.5927327871322632,-0.16458415985107422,-0.2075333595275879
1683928215275409700,3.41240966796875,0.8479441404342651,-0.9316387176513672,-1.4986815452575684
1683928215285452000,3.4224521484375,0.8516246676445007,-1.2038135528564453,-2.6850154399871826
1683928215295494400,3.432494384765625,1.0327413082122803,-1.0519895553588867,-3.546380043029785
1683928215305536800,3.442536865234375,0.4319419860839844,-0.31812191009521484,-3.4589896202087402
1683928215315579100,3.4525791015625,-0.41546404361724854,-1.478078842163086,-3.483534336090088
1683928215325621500,3.46262158203125,-0.916183590888977,-1.8453235626220703,-2.4119110107421875
1683928215335663900,3.472663818359375,-0.9132434725761414,-2.0873842239379883,-1.5962142944335938
1683928215345706000,3.4827060546875,-0.6426961421966553,-2.2159080505371094,-0.784233570098877
1683928215355748400,3.492748291015625,0.03956031799316406,-1.9673137664794922,0.36249232292175293
1683928215365790700,3.502790771484375,1.0600521564483643,-1.1295299530029297,1.7285032272338867
1683928215375833000,3.5128330078125,1.7967774868011475,-0.25563716888427734,2.640204429626465
1683928215385875500,3.52287548828125,2.1525068283081055,-0.12244606018066406,2.9412760734558105
1683928215395917800,3.532917724609375,2.2368760108947754,-0.3196277618408203,2.8767027854919434
1683928215405960200,3.542960205078125,1.9791045188903809,-0.012477874755859375,2.4757657051086426
1683928215416002600,3.55300244140625,1.5164320468902588,0.21949005126953125,2.247582197189331
1683928215426045000,3.563044921875,1.0415698289871216,0.39574241638183594,2.366030216217041
1683928215436087300,3.57308740234375,0.7571626901626587,0.29213809967041016,2.3158724308013916
1683928215446129400,3.58312939453125,0.011097431182861328,0.12769508361816406,2.1308653354644775
1683928215456171800,3.593171875,-1.386993408203125,-0.8189859390258789,1.1788383722305298
1683928215466214100,3.603214111328125,-0.412193238735199,-0.9828348159790039,0.8258314728736877
1683928215476256500,3.613256591796875,1.5927449464797974,0.7923002243041992,1.808379054069519
1683928215486299000,3.623298828125,1.4009037017822266,1.5044374465942383,1.5235698223114014
1683928215496341200,3.63334130859375,-0.18025076389312744,0.9956026077270508,0.2376406192779541
1683928215506383600,3.643383544921875,-1.4324431419372559,0.2203502655029297,-0.4232790172100067
1683928215516426000,3.653426025390625,-2.127478837966919,0.011243820190429688,-0.3890877068042755
1683928215526468400,3.66346826171875,-1.369452953338623,-0.220367431640625,-0.5004648566246033
1683928215536510700,3.6735107421875,-0.7973155975341797,-0.10588741302490234,-0.10214684903621674
1683928215546553000,3.683552978515625,-0.6457173228263855,-0.4678802490234375,0.09153500199317932
1683928215556595200,3.69359521484375,-0.5696937441825867,-1.6111335754394531,0.13097546994686127
1683928215566637600,3.703637451171875,-0.27694734930992126,-3.0048933029174805,0.4675629138946533
1683928215576680000,3.713679931640625,-0.031964778900146484,-3.842709541320801,1.3831863403320312
1683928215586722300,3.723722412109375,-0.37076905369758606,-4.268796920776367,2.517963409423828
1683928215596764700,3.7337646484375,-1.0066521167755127,-4.828287124633789,3.867100715637207
1683928215606807000,3.74380712890625,-1.0444748401641846,-5.1709136962890625,4.916769027709961
1683928215616849400,3.753849365234375,-1.1409800052642822,-5.492944717407227,5.243503093719482
1683928215626891800,3.763891845703125,-1.833716869354248,-4.906201362609863,4.897075653076172
1683928215636934100,3.77393408203125,-2.4668493270874023,-3.8812637329101562,3.893838882446289
1683928215646976500,3.7839765625,-1.504387378692627,-2.5058536529541016,2.8145925998687744
1683928215657018600,3.7940185546875,0.7552058696746826,-2.064281463623047,1.9604089260101318
1683928215667061000,3.80406103515625,1.5870299339294434,-1.6066999435424805,0.49912548065185547
1683928215677103400,3.814103271484375,1.075400471687317,-0.9024200439453125,-0.8622467517852783
1683928215687145700,3.824145751953125,0.35410675406455994,-0.07416343688964844,-1.5338537693023682
1683928215697188000,3.83418798828125,-0.30977463722229004,0.6583957672119141,-2.003117322921753
1683928215707230500,3.84423046875,-0.7044779062271118,1.035984992980957,-2.371699094772339
1683928215717272800,3.85427294921875,-0.9381023049354553,1.2248163223266602,-2.7868053913116455
1683928215727315200,3.864315185546875,-0.9895371198654175,1.3377399444580078,-3.0680384635925293
1683928215737357600,3.874357666015625,-0.6545943021774292,1.7428531646728516,-2.498962163925171
1683928215747400000,3.88439990234375,-0.17388391494750977,1.7258110046386719,-1.9735920429229736
1683928215757442300,3.8944423828125,0.2967768907546997,1.8256120681762695,-1.350156307220459
1683928215767484400,3.904484375,0.707379162311554,1.7130470275878906,-0.8632400631904602
1683928215777526800,3.91452685546875,0.9555181264877319,1.5372209548950195,-0.698621392250061
1683928215787569200,3.924569091796875,1.062756061553955,1.1149368286132812,-0.6784678101539612
1683928215797611500,3.934611572265625,1.0981563329696655,0.8075847625732422,-0.3688037693500519
1683928215807654000,3.94465380859375,0.8074651956558228,0.3779287338256836,-0.23449455201625824
1683928215817696300,3.9546962890625,0.4125298261642456,-0.1030588150024414,-0.13635767996311188
1683928215827738600,3.964738525390625,0.09420347213745117,-0.5164718627929688,-0.025350213050842285
1683928215837781000,3.974781005859375,0.053952693939208984,-0.9247875213623047,0.11876225471496582
1683928215847823400,3.9848232421875,0.3183804750442505,-0.8856678009033203,0.4338773488998413
1683928215857865500,3.994865478515625,0.6098225116729736,-0.8202009201049805,0.5221084356307983
1683928215867907800,4.004907958984375,0.702215313911438,-0.7668485641479492,0.40137189626693726
1683928215877950200,4.0149501953125,0.6772890090942383,-0.5637903213500977,0.36962461471557617
1683928215887992600,4.02499267578125,0.47832202911376953,-0.3482666015625,0.21269404888153076
1683928215898035000,4.035034912109375,0.23872041702270508,-0.031955718994140625,-0.07847625017166138
1683928215908077300,4.045077392578125,0.001252293586730957,-0.03813362121582031,-0.2263202667236328
1683928215918119700,4.05511962890625,-0.34713172912597656,0.19939708709716797,-0.4228332042694092
1683928215928162000,4.065162109375,-0.13745832443237305,0.546661376953125,-0.42245984077453613
1683928215938204400,4.075204345703125,0.07323503494262695,0.8129720687866211,-0.6067118048667908
1683928215948246800,4.085246826171875,0.085579514503479,0.8959426879882812,-0.7585824131965637
1683928215958289000,4.095288818359375,-0.06840229034423828,0.8941125869750977,-0.9812746047973633
1683928215968331300,4.105331298828125,-0.25150632858276367,0.9750900268554688,-1.1770504713058472
1683928215978373600,4.11537353515625,-0.44491100311279297,1.0565433502197266,-1.171962022781372
1683928215988416000,4.125416015625,-0.6663632392883301,1.0414819717407227,-1.2801125049591064
1683928215998458400,4.135458251953125,-0.6798038482666016,0.4837198257446289,-1.5242266654968262
1683928216008500700,4.145500732421875,-0.5323469638824463,0.31458091735839844,-1.6856156587600708
1683928216018543000,4.155543212890625,-0.20813488960266113,0.9197158813476562,-1.615269422531128
1683928216028585500,4.16558544921875,-1.9406003952026367,-4.293203353881836,-2.933180809020996
1683928216038627800,4.1756279296875,-1.69305419921875,-0.30394458770751953,-2.454066276550293
1683928216048670200,4.185670166015625,-0.5328285694122314,0.26690196990966797,-2.074068546295166
1683928216058712300,4.19571240234375,0.05320239067077637,0.1294116973876953,-1.9541703462600708
1683928216068754700,4.205754638671875,0.1300513744354248,0.2220773696899414,-2.0437257289886475
1683928216078797000,4.215797119140625,0.3072328567504883,0.7148771286010742,-1.964950680732727
1683928216088839400,4.22583935546875,0.47345757484436035,0.9293642044067383,-1.780123233795166
1683928216098881800,4.2358818359375,0.4649074077606201,0.8569536209106445,-1.5944068431854248
1683928216108924200,4.245924072265625,0.2643911838531494,0.6934089660644531,-1.3407044410705566
1683928216118966500,4.255966552734375,-0.07102274894714355,0.38160133361816406,-1.2553462982177734
1683928216129009000,4.2660087890625,-0.29314756393432617,0.16112041473388672,-1.182331919670105
1683928216139051300,4.27605126953125,-0.25073766708374023,0.15050029754638672,-1.0672169923782349
1683928216149093600,4.28609375,-0.17953920364379883,0.22157955169677734,-0.7923307418823242
1683928216159136000,4.296135986328125,-0.12008142471313477,0.40418434143066406,-0.5637235641479492
1683928216169178000,4.30617822265625,0.1358165740966797,0.9256687164306641,-0.2688274383544922
1683928216179220500,4.316220458984375,0.4369525909423828,1.0204410552978516,-0.19683384895324707
1683928216189262800,4.326262939453125,0.5996942520141602,0.9906425476074219,-0.2631242275238037
1683928216199305200,4.33630517578125,0.6667797565460205,0.9112834930419922,-0.32972145080566406
1683928216209347600,4.34634765625,0.6319258213043213,0.9433908462524414,-0.278209924697876
1683928216219390000,4.356389892578125,0.4254798889160156,1.1584405899047852,-0.11606407165527344
1683928216229432300,4.366432373046875,0.2541215419769287,1.187635898590088,0.028624534606933594
1683928216239474700,4.376474609375,0.14270830154418945,0.9237556457519531,0.16967487335205078
1683928216249517000,4.38651708984375,0.17406320571899414,0.8577051162719727,0.2715644836425781
1683928216259559400,4.396559326171875,0.039095163345336914,0.5638790130615234,0.13143086433410645
1683928216269601800,4.406601806640625,0.014299869537353516,0.4989585876464844,0.09597277641296387
1683928216279644000,4.416643798828125,-0.021668195724487305,0.6393575668334961,0.008589506149291992
1683928216289686300,4.426686279296875,-0.01701641082763672,0.9346222877502441,-0.042360782623291016
1683928216299728600,4.436728759765625,0.08205580711364746,1.0391931533813477,-0.06026744842529297
1683928216309771000,4.44677099609375,0.001316070556640625,1.2369318008422852,0.06438326835632324
1683928216319813400,4.4568134765625,-0.14875078201293945,1.2311725616455078,0.2512989044189453
1683928216329855700,4.466855712890625,-0.12658953666687012,1.1881299018859863,0.44487857818603516
1683928216339898000,4.476898193359375,0.39378833770751953,1.458324909210205,0.5420675277709961
1683928216349940500,4.4869404296875,0.7455296516418457,-0.3316507339477539,0.4297621250152588
1683928216359982800,4.49698291015625,-1.0651500225067139,0.4525136947631836,0.32248592376708984
1683928216370025200,4.507025146484375,-1.6615657806396484,-0.9593410491943359,0.16875004768371582
1683928216380067300,4.5170673828125,-2.508566379547119,-1.1723222732543945,0.15890002250671387
1683928216390109700,4.527109619140625,-2.8294036388397217,-0.8570356369018555,0.2968595027923584
1683928216400152000,4.537152099609375,-2.4446756839752197,-0.2121429443359375,0.44664978981018066
1683928216410194400,4.5471943359375,-1.9084973335266113,0.3376140594482422,0.3705739974975586
1683928216420236800,4.55723681640625,-1.5999581813812256,0.25522613525390625,0.02888035774230957
1683928216430279200,4.567279052734375,-1.6517655849456787,0.19744396209716797,-0.21597695350646973
1683928216440321500,4.577321533203125,-1.7081894874572754,-0.013861656188964844,-0.2337188720703125
1683928216450364000,4.587364013671875,-1.2546730041503906,-0.22702598571777344,-0.42081356048583984
1683928216460406300,4.59740625,-0.8040468692779541,-0.44115638732910156,-0.5098682641983032
1683928216470448600,4.60744873046875,-0.40057992935180664,-0.9530963897705078,-0.5340583324432373
1683928216480491000,4.617490966796875,-0.34366607666015625,-1.3359689712524414,-0.5138576030731201
1683928216490533000,4.627533203125,-0.5351688861846924,-1.679281234741211,-0.672173023223877
1683928216500575500,4.637575439453125,-0.6834075450897217,-1.880462646484375,-0.8278101682662964
1683928216510617900,4.647617919921875,-0.7744007110595703,-2.128833770751953,-0.8933088779449463
1683928216520660200,4.65766015625,-0.9395530223846436,-2.2506513595581055,-0.668735146522522
1683928216530702600,4.66770263671875,-1.3816132545471191,-2.315521240234375,-0.45734572410583496
1683928216540745000,4.677744873046875,-2.0321247577667236,-2.5170583724975586,0.0044596195220947266
1683928216550787300,4.687787353515625,-2.204915761947632,-3.0232458114624023,0.549379825592041
1683928216560829700,4.69782958984375,-1.2793028354644775,-3.280750274658203,1.3335776329040527
1683928216570872000,4.7078720703125,-0.008798837661743164,-3.585813522338867,1.6493546962738037
1683928216580914400,4.71791455078125,1.1895089149475098,-3.4748172760009766,1.4271297454833984
1683928216590956500,4.72795654296875,2.2553277015686035,-2.253765106201172,0.760016918182373
1683928216600999000,4.7379990234375,2.9587936401367188,-0.9408092498779297,-0.16068458557128906
1683928216611041300,4.748041259765625,3.098507881164551,-0.12207794189453125,-0.9634331464767456
1683928216621083600,4.758083740234375,2.984950304031372,0.5183000564575195,-1.6589398384094238
1683928216631126000,4.7681259765625,2.866762161254883,1.0506877899169922,-2.305689811706543
1683928216641168400,4.77816845703125,2.672775983810425,1.4940786361694336,-2.9113898277282715
1683928216651210800,4.788210693359375,2.4792773723602295,1.9758243560791016,-3.4863734245300293
1683928216661253000,4.798253173828125,2.282947540283203,2.3189754486083984,-4.0832905769348145
1683928216671295500,4.80829541015625,2.1191375255584717,2.374795913696289,-4.444737434387207
1683928216681337900,4.818337890625,1.5566221475601196,2.181697368621826,-4.4910688400268555
1683928216691380200,4.828380126953125,0.9915134906768799,1.8539128303527832,-3.9229888916015625
1683928216701422300,4.83842236328125,0.5058987140655518,1.1659135818481445,-3.27154803276062
1683928216711464700,4.848464599609375,0.018364787101745605,0.2925901412963867,-2.279453754425049
1683928216721507000,4.858507080078125,-0.280359148979187,-0.5253849029541016,-1.1523741483688354
1683928216731549400,4.868549560546875,-0.3389444351196289,-1.1091947555541992,-0.2731637954711914
1683928216741591800,4.878591796875,-0.244454026222229,-1.4887218475341797,0.03180289268493652
1683928216751634200,4.88863427734375,-0.048356056213378906,-1.6533584594726562,-0.10025644302368164
1683928216761676500,4.898676513671875,0.7886931896209717,-1.5305280685424805,-0.45847034454345703
1683928216771719000,4.908718994140625,0.9154497385025024,-1.303053855895996,-0.26248037815093994
1683928216781761300,4.91876123046875,0.951678454875946,-1.019723892211914,-0.06837821006774902
1683928216791803600,4.9288037109375,0.9406508207321167,-0.7016639709472656,-0.10827231407165527
1683928216801845800,4.938845703125,0.8897042274475098,-0.45580291748046875,-0.3656599521636963
1683928216811888000,4.94888818359375,0.8522502183914185,-0.3879108428955078,-0.7902116775512695
1683928216821930500,4.958930419921875,0.7434112429618835,-0.41222476959228516,-1.1796488761901855
1683928216831972900,4.968972900390625,0.6546136140823364,-0.3982505798339844,-1.386904239654541
1683928216842015200,4.97901513671875,0.5563948154449463,-0.2673473358154297,-1.2932320833206177
1683928216852057600,4.9890576171875,0.37846389412879944,-0.008546829223632812,-1.1151182651519775
1683928216862100000,4.999099853515625,0.22021909058094025,0.11238574981689453,-0.709700345993042
1683928216872142300,5.009142333984375,0.16682662069797516,0.1584911346435547,-0.3432154655456543
1683928216882184700,5.019184814453125,0.2644626200199127,0.1285419464111328,-0.11187958717346191
1683928216892227000,5.02922705078125,0.28520578145980835,0.020379066467285156,0.06357645988464355
1683928216902269400,5.03926953125,0.16431859135627747,0.0105743408203125,0.2917816638946533
1683928216912311800,5.049311767578125,0.0509205162525177,0.0029993057250976562,0.2939547300338745
1683928216922354200,5.059354248046875,0.036530278623104095,0.05706501007080078,0.1475294828414917
1683928216932396300,5.069396240234375,0.0911194384098053,0.17483139038085938,0.13051128387451172
1683928216942438700,5.079438720703125,0.21209895610809326,0.3249959945678711,0.20782804489135742
1683928216952481000,5.08948095703125,0.3747754693031311,0.45749759674072266,0.30583763122558594
1683928216962523400,5.0995234375,0.5603151917457581,0.48679161071777344,0.319311261177063
1683928216972565800,5.109565673828125,0.7789309024810791,0.5447483062744141,0.38872337341308594
1683928216982608100,5.119608154296875,1.0031347274780273,0.5550031661987305,0.5410583019256592
1683928216992650500,5.129650390625,1.187486171722412,0.527247428894043,0.6783696413040161
1683928217002692900,5.13969287109375,1.278164267539978,0.49478912353515625,0.8612967729568481
1683928217012735200,5.1497353515625,1.3393269777297974,0.37381935119628906,1.0355521440505981
1683928217022777600,5.159777587890625,1.2896506786346436,0.26961231231689453,1.1938037872314453
1683928217032820000,5.169820068359375,1.1442526578903198,0.10813331604003906,1.2552146911621094
1683928217042862000,5.179862060546875,0.9707545638084412,-0.010144233703613281,1.3158668279647827
1683928217052904400,5.189904541015625,0.7741839289665222,-0.11154365539550781,1.29514479637146
1683928217062946800,5.19994677734375,0.5685805082321167,-0.09346961975097656,1.3005666732788086
1683928217072989200,5.2099892578125,0.3587784469127655,-0.10673713684082031,1.264991283416748
1683928217083031600,5.220031494140625,0.1476603001356125,-0.11312484741210938,1.1810907125473022
1683928217093074000,5.230073974609375,-0.02966870367527008,-0.06257152557373047,1.136857271194458
1683928217103116300,5.2401162109375,-0.15121674537658691,-0.034073829650878906,0.9761439561843872
1683928217113158700,5.25015869140625,-0.23804175853729248,0.05131340026855469,0.7325680255889893
1683928217123201000,5.260200927734375,-0.2744547724723816,0.12424182891845703,0.5373286008834839
1683928217133243400,5.270243408203125,-0.2703050374984741,0.23976421356201172,0.38828563690185547
1683928217143285500,5.280285400390625,-0.25319844484329224,0.3835945129394531,0.18631231784820557
1683928217153327900,5.290327880859375,-0.28404247760772705,0.46024322509765625,0.01623547077178955
1683928217163370200,5.300370361328125,-0.2955975830554962,0.48426246643066406,-0.09066462516784668
1683928217173412600,5.31041259765625,-0.317527711391449,0.4989175796508789,-0.15286999940872192
1683928217183455000,5.320455078125,-0.36755162477493286,0.34929943084716797,-0.26233434677124023
1683928217193497300,5.330497314453125,-0.4776010811328888,0.19838619232177734,-0.34454023838043213
1683928217203539700,5.340539794921875,-0.3306131958961487,0.19638729095458984,-0.3621678948402405
1683928217213582000,5.35058203125,-0.0002002418041229248,0.2543315887451172,-0.5314962863922119
1683928217223624400,5.36062451171875,0.2508612871170044,0.2598419189453125,-0.5720875263214111
1683928217233666800,5.370666748046875,0.37875595688819885,0.10319232940673828,-0.42830052971839905
1683928217243709200,5.380709228515625,0.4510187804698944,-0.04570770263671875,-0.22530627250671387
1683928217253751300,5.390751220703125,0.5025221109390259,-0.031749725341796875,0.11644548177719116
1683928217263793700,5.400793701171875,0.5018752813339233,-0.06090736389160156,0.4390489459037781
1683928217273836000,5.4108359375,0.5245553255081177,-0.1117706298828125,0.688451886177063
1683928217283878400,5.42087841796875,0.5211907029151917,-0.09845352172851562,0.9189096689224243
1683928217293920800,5.430920654296875,0.481383353471756,-0.03549957275390625,1.1041357517242432
1683928217303963100,5.440963134765625,0.43979814648628235,0.019685745239257812,1.2754790782928467
1683928217314005500,5.451005615234375,0.42658957839012146,0.1435699462890625,1.485123872756958
1683928217324048000,5.4610478515625,0.3992915153503418,0.20224857330322266,1.73251473903656
1683928217334090200,5.47109033203125,0.2825756371021271,-0.01659679412841797,1.8744587898254395
1683928217344132600,5.481132568359375,0.19109874963760376,-0.1875009536743164,2.0375661849975586
1683928217354175000,5.491175048828125,0.1267012059688568,-0.27480411529541016,2.2345409393310547
1683928217364217300,5.50121728515625,0.06559085845947266,-0.35988807678222656,2.2836570739746094
1683928217374259500,5.511259521484375,0.09894108772277832,-0.2993793487548828,2.23319673538208
1683928217384301800,5.5213017578125,0.12577980756759644,-0.0697164535522461,2.271268606185913
1683928217394344200,5.53134423828125,0.08893299102783203,-0.017564773559570312,2.343940496444702
1683928217404386600,5.541386474609375,0.06698358058929443,0.058116912841796875,2.458881139755249
1683928217414429000,5.551428955078125,0.11402052640914917,0.05215167999267578,2.5902726650238037
1683928217424471300,5.56147119140625,0.10876017808914185,-0.18091392517089844,2.750981092453003
1683928217434513700,5.571513671875,0.11936819553375244,-0.37775516510009766,2.9597373008728027
1683928217444556000,5.58155615234375,0.12684065103530884,-0.9706602096557617,3.1884231567382812
1683928217454598400,5.591598388671875,0.24371707439422607,-1.4452619552612305,3.4933364391326904
1683928217464640800,5.601640869140625,0.27247220277786255,-1.9500503540039062,3.7390358448028564
1683928217474683100,5.61168310546875,0.19745224714279175,-2.229339599609375,3.924616575241089
1683928217484725200,5.621725341796875,-0.00007480382919311523,-2.328679084777832,3.919191360473633
1683928217494767600,5.631767578125,-0.2090570330619812,-2.2600021362304688,3.6267354488372803
1683928217504810000,5.64181005859375,-0.2336530089378357,-2.0736351013183594,3.341848134994507
1683928217514852400,5.651852294921875,-0.28526192903518677,-1.9370641708374023,3.0106325149536133
1683928217524894700,5.661894775390625,-0.2982347309589386,-1.7453126907348633,2.788010835647583
1683928217534937000,5.67193701171875,-0.34170085191726685,-1.3962268829345703,2.538125991821289
1683928217544979500,5.6819794921875,-0.6553993225097656,-1.007615089416504,2.0768046379089355
1683928217555021800,5.692021728515625,-1.272323727607727,-0.9019994735717773,1.509865641593933
1683928217565064200,5.702064208984375,-2.2067039012908936,-0.7439870834350586,0.8526779413223267
1683928217575106600,5.7121064453125,-2.9865176677703857,1.5632610321044922,0.8048363327980042
1683928217585148700,5.722148681640625,-4.647648811340332,1.5472021102905273,0.3741956949234009
1683928217595191300,5.73219140625,-5.657948017120361,1.001194953918457,0.20652347803115845
1683928217605233700,5.742233642578125,-4.595568656921387,0.6754779815673828,0.16032041609287262
1683928217615275800,5.75227587890625,-2.490635633468628,0.7026872634887695,0.009497517719864845
1683928217625318100,5.762318115234375,-0.7034648060798645,0.859553337097168,-0.44308334589004517
1683928217635360500,5.772360595703125,0.1250828355550766,1.0061397552490234,-1.0936416387557983
1683928217645403000,5.78240283203125,0.2708451747894287,1.1116619110107422,-1.7972084283828735
1683928217655445200,5.7924453125,0.3927592635154724,0.974273681640625,-2.233309030532837
1683928217665487600,5.802487548828125,0.8528012037277222,0.7322235107421875,-2.3022074699401855
1683928217675530000,5.812530029296875,1.4351332187652588,0.5329732894897461,-2.0884127616882324
1683928217685572400,5.822572265625,1.9545869827270508,0.28680419921875,-1.7246224880218506
1683928217695614700,5.83261474609375,2.296398401260376,0.042179107666015625,-1.5162029266357422
1683928217705657000,5.842656982421875,2.481252431869507,-0.37516307830810547,-1.445569634437561
1683928217715699200,5.85269921875,2.476959228515625,-0.8933067321777344,-1.3207104206085205
1683928217725741600,5.862741455078125,2.213484287261963,-1.383427619934082,-1.1295084953308105
1683928217735784000,5.872783935546875,1.8963332176208496,-1.8863372802734375,-1.0040332078933716
1683928217745826300,5.882826416015625,1.5591909885406494,-2.4351863861083984,-1.0005476474761963
1683928217755868700,5.89286865234375,1.1789320707321167,-2.881453514099121,-0.8808494806289673
1683928217765911000,5.9029111328125,0.8650794625282288,-3.155877113342285,-0.8069376945495605
1683928217775953400,5.912953369140625,0.6597784757614136,-2.8502941131591797,-0.8650597333908081
1683928217785995800,5.922995849609375,0.5031037330627441,-2.0925121307373047,-1.049430251121521
1683928217796038100,5.9330380859375,0.5381687879562378,-0.6236743927001953,-1.242912769317627
1683928217806080500,5.94308056640625,0.45846331119537354,0.7390098571777344,-1.6667238473892212
1683928217816123000,5.953122802734375,0.4384150505065918,1.5795116424560547,-1.9432721138000488
1683928217826165000,5.9631650390625,0.5960429906845093,1.913304328918457,-1.9395793676376343
1683928217836207600,5.97320751953125,0.8087023496627808,1.8732805252075195,-1.6765216588974
1683928217846249700,5.983249755859375,1.1078622341156006,1.883575439453125,-1.503528356552124
1683928217856292000,5.9932919921875,1.502687692642212,1.6795969009399414,-1.59000825881958
1683928217866334500,6.00333447265625,1.8184213638305664,1.4129533767700195,-1.8615949153900146
1683928217876376800,6.013376953125,1.93949294090271,1.2393360137939453,-1.9886819124221802
1683928217886419200,6.023419189453125,1.8172855377197266,1.127279281616211,-2.0153491497039795
1683928217896461600,6.033461669921875,1.4968540668487549,0.9975032806396484,-2.011282444000244
1683928217906504000,6.04350390625,1.01046621799469,0.8713617324829102,-1.8362114429473877
1683928217916546300,6.05354638671875,0.42079734802246094,0.6938314437866211,-1.4591518640518188
1683928217926588700,6.063588623046875,0.003926992416381836,0.8874273300170898,-1.1557104587554932
1683928217936631000,6.073631103515625,-0.16851806640625,0.7107629776000977,-1.2064757347106934
1683928217946673200,6.083673095703125,-0.13709712028503418,0.38672351837158203,-1.3453166484832764
1683928217956715500,6.093715576171875,-0.09449291229248047,0.19010162353515625,-1.378608226776123
1683928217966758000,6.1037578125,-0.08135223388671875,0.06285285949707031,-1.3400059938430786
1683928217976800300,6.11380029296875,-0.14605200290679932,0.20990562438964844,-1.2118943929672241
1683928217986842600,6.123842529296875,-0.3212718963623047,0.3677787780761719,-0.9768897294998169
1683928217996885000,6.133885009765625,-0.535812258720398,0.45248985290527344,-0.7449188828468323
1683928218006927400,6.14392724609375,-0.6371307373046875,0.6094350814819336,-0.47030794620513916
1683928218016969700,6.1539697265625,-0.5964846611022949,0.7929210662841797,-0.25248637795448303
1683928218027012000,6.16401220703125,-0.4660649299621582,0.9363279342651367,-0.15069584548473358
1683928218037054500,6.174054443359375,-0.3322715759277344,0.9519586563110352,-0.2393019199371338
1683928218047096800,6.184096923828125,-0.11188602447509766,0.9243507385253906,-0.36317506432533264
1683928218057139200,6.19413916015625,0.10156559944152832,0.9759941101074219,-0.44524168968200684
1683928218067181600,6.204181640625,0.2921692132949829,0.9996252059936523,-0.6116513013839722
1683928218077223700,6.2142236328125,0.49529027938842773,0.7687158584594727,-0.9949501752853394
1683928218087266000,6.22426611328125,0.6082470417022705,0.4822044372558594,-1.1721404790878296
1683928218097308400,6.234308349609375,0.6499254703521729,0.19045257568359375,-1.3112776279449463
1683928218107350800,6.244350830078125,0.665360689163208,0.10609722137451172,-1.3810862302780151
1683928218117393200,6.25439306640625,0.7304015159606934,0.1355457305908203,-1.2052216529846191
1683928218127435500,6.264435546875,0.7991224527359009,0.15667724609375,-0.9287595152854919
1683928218137478000,6.274477783203125,0.8022192716598511,0.1813030242919922,-0.49215394258499146
1683928218147520300,6.284520263671875,0.707126259803772,0.20911312103271484,0.03374709188938141
1683928218157562600,6.294562744140625,0.45088350772857666,0.45467472076416016,0.5559194684028625
1683928218167605000,6.30460498046875,0.15995991230010986,0.5564460754394531,0.9852977991104126
1683928218177647400,6.3146474609375,-0.32045960426330566,0.42833423614501953,1.2459675073623657
1683928218187689500,6.324689453125,-0.8269383907318115,0.05846977233886719,1.423667550086975
1683928218197731800,6.33473193359375,-1.2104833126068115,-0.38070011138916016,1.4399783611297607
1683928218207774200,6.344774169921875,-1.1297204494476318,-0.4849519729614258,1.2391505241394043
1683928218217816600,6.354816650390625,-0.7555801868438721,-0.30715370178222656,0.8885303735733032
1683928218227859000,6.36485888671875,-0.4114556312561035,-0.15843772888183594,0.33126020431518555
1683928218237901300,6.3749013671875,-0.013167500495910645,0.020885467529296875,-0.2287243902683258
1683928218247943700,6.384943603515625,0.3807857036590576,0.17846965789794922,-0.7299390435218811
1683928218257986000,6.394986083984375,0.7848004102706909,0.18115806579589844,-1.1123783588409424
1683928218268028400,6.4050283203125,1.0271247625350952,0.3115673065185547,-1.4173516035079956
1683928218278070800,6.41507080078125,1.0191456079483032,0.45957374572753906,-1.5631976127624512
1683928218288113200,6.425113037109375,0.8907961249351501,0.5222187042236328,-1.5180308818817139
1683928218298155500,6.435155517578125,0.6454800367355347,0.5949230194091797,-1.4250969886779785
1683928218308197600,6.44519775390625,0.3666951656341553,0.8089027404785156,-1.1221054792404175
1683928218318240000,6.455239990234375,0.08282244205474854,0.908207893371582,-0.7226436734199524
1683928218328282400,6.465282470703125,-0.13899922370910645,0.8261528015136719,-0.08040711283683777
1683928218338324700,6.47532470703125,-0.3099815845489502,0.5821399688720703,0.5767385363578796
1683928218348367000,6.4853671875,-0.47089409828186035,0.15235328674316406,1.160609245300293
1683928218358409500,6.495409423828125,-0.635382890701294,-0.45594215393066406,1.5855010747909546
1683928218368451800,6.505451904296875,-0.8352106809616089,-1.199690818786621,1.681561827659607
1683928218378494200,6.515494140625,-1.0954228639602661,-1.7086877822875977,1.4890016317367554
1683928218388536600,6.52553662109375,-1.5263742208480835,-2.2033605575561523,0.9459068775177002
1683928218398579000,6.535578857421875,-2.0459189414978027,-2.6694793701171875,0.2948875427246094
1683928218408621300,6.545621337890625,-2.58011531829834,-3.0688648223876953,-0.39225155115127563
1683928218418663700,6.55566357421875,-3.208805561065674,-3.1723365783691406,-0.9386873245239258
1683928218428706000,6.5657060546875,-3.681614875793457,-3.0212364196777344,-1.218136191368103
1683928218438748200,6.575748046875,-3.2780587673187256,-2.222179412841797,-1.1967374086380005
1683928218448790500,6.58579052734375,-2.136638879776001,-1.1203279495239258,-0.8613420724868774
1683928218458833000,6.5958330078125,-0.7443010807037354,0.15058231353759766,-0.4048381745815277
1683928218468875300,6.605875244140625,0.7980539798736572,1.242518424987793,-0.047371506690979004
1683928218478917600,6.615917724609375,1.9836804866790771,1.7769436836242676,0.3189660310745239
1683928218488960000,6.6259599609375,2.600311279296875,1.8578925132751465,0.46064674854278564
1683928218499002400,6.63600244140625,2.8204593658447266,1.7845778465270996,0.31717896461486816
1683928218509044700,6.646044677734375,2.5643410682678223,1.4470462799072266,0.27586591243743896
1683928218519087000,6.656087158203125,2.1843740940093994,1.1086063385009766,0.2580513060092926
1683928218529129500,6.66612939453125,1.612383484840393,0.6598653793334961,0.29082801938056946
1683928218539171800,6.676171875,0.7310601472854614,0.013293266296386719,0.3340364098548889
1683928218549214200,6.686214111328125,-0.4866337776184082,-0.4441566467285156,0.10516601800918579
1683928218559256600,6.696256591796875,-1.7388038635253906,-0.4854154586791992,-0.2142837643623352
1683928218569298700,6.706298583984375,-2.6789379119873047,-0.24925518035888672,-0.2715640664100647
1683928218579341000,6.716341064453125,-2.8302769660949707,-0.0402374267578125,-0.06065565347671509
1683928218589383400,6.726383544921875,-2.228821277618408,0.044098854064941406,0.19666588306427002
1683928218599425800,6.73642578125,-1.1013786792755127,-0.06430339813232422,0.34455806016921997
1683928218609468200,6.74646826171875,0.05552017688751221,-0.05829334259033203,0.3135957717895508
1683928218619510500,6.756510498046875,0.9709880352020264,0.342010498046875,0.18507540225982666
1683928218629553000,6.766552978515625,1.555426836013794,0.9688949584960938,-0.08689820766448975
1683928218639595300,6.77659521484375,1.7755556106567383,1.3632659912109375,-0.4221082329750061
1683928218649637600,6.7866376953125,1.9047112464904785,1.4632797241210938,-0.7204874157905579
1683928218659680000,6.796679931640625,1.9079859256744385,1.269352912902832,-0.8473870754241943
1683928218669722000,6.80672216796875,1.8493046760559082,0.865666389465332,-0.8870134353637695
1683928218679764500,6.816764404296875,1.768563985824585,0.40561866760253906,-0.8443924188613892
1683928218689806800,6.826806884765625,1.6852011680603027,0.22604084014892578,-0.9608420729637146
1683928218699849200,6.83684912109375,1.6254286766052246,-0.0010614395141601562,-1.0194931030273438
1683928218709891600,6.8468916015625,1.5277268886566162,-0.1945810317993164,-1.1643187999725342
1683928218719934000,6.856933837890625,1.484968662261963,-0.16351699829101562,-1.1805734634399414
1683928218729976300,6.866976318359375,1.508059024810791,-0.0826416015625,-1.1986510753631592
1683928218740018700,6.877018798828125,1.5322303771972656,-0.06197929382324219,-1.194359540939331
1683928218750061000,6.88706103515625,1.5725479125976562,-0.10159778594970703,-1.2833454608917236
1683928218760103400,6.897103515625,1.6320216655731201,-0.21337032318115234,-1.2457581758499146
1683928218770145800,6.907145751953125,1.6776072978973389,-0.4066896438598633,-1.2162373065948486
1683928218780188200,6.917188232421875,1.6994633674621582,-0.52130126953125,-1.1931309700012207
1683928218790230500,6.92723046875,1.651144027709961,-0.5716075897216797,-1.1439387798309326
1683928218800272600,6.937272705078125,1.628915786743164,-0.6602163314819336,-1.0584275722503662
1683928218810315000,6.94731494140625,1.5561864376068115,-0.6695127487182617,-0.9114522933959961
1683928218820357400,6.957357421875,1.485398769378662,-0.46293067932128906,-0.7169986963272095
1683928218830399700,6.967399658203125,1.3194488286972046,0.02178955078125,-0.554404616355896
1683928218840442000,6.977442138671875,1.0819565057754517,0.5357475280761719,-0.4040980339050293
1683928218850484500,6.987484375,0.7548534274101257,0.8431339263916016,-0.7846839427947998
1683928218860526800,6.99752685546875,0.5185860991477966,0.8192367553710938,-0.7203205823898315
1683928218870569200,7.0075693359375,0.38537630438804626,0.4605598449707031,-0.48059844970703125
1683928218880611600,7.017611572265625,0.32794180512428284,0.18134307861328125,-0.41388022899627686
1683928218890654000,7.027654052734375,0.22547292709350586,0.033771514892578125,-0.434773325920105
1683928218900696300,7.0376962890625,0.11612101644277573,-0.11394691467285156,-0.38219285011291504
1683928218910738700,7.04773876953125,-0.01279204711318016,-0.1900348663330078,-0.2286396026611328
1683928218920781000,7.057781005859375,-0.13765102624893188,-0.24944019317626953,-0.09459233283996582
1683928218930823200,7.0678232421875,-0.2210266888141632,-0.19414234161376953,0.00750887393951416
1683928218940865500,7.077865478515625,-0.2601611614227295,-0.13173675537109375,0.1344614028930664
1683928218950908000,7.087907958984375,-0.269955039024353,-0.24126720428466797,0.20484542846679688
1683928218960950300,7.0979501953125,-0.24920694530010223,-0.4315299987792969,0.3000054359436035
1683928218970992600,7.10799267578125,-0.21056708693504333,-0.5805625915527344,0.37963616847991943
1683928218981035000,7.118034912109375,-0.16682380437850952,-0.5285196304321289,0.46568548679351807
1683928218991077400,7.128077392578125,-0.12829843163490295,-0.41199493408203125,0.5507209897041321
1683928219001119700,7.13811962890625,-0.11412626504898071,-0.21180152893066406,0.6141031384468079
1683928219011162000,7.148162109375,-0.09747086465358734,-0.17384910583496094,0.6351208686828613
1683928219021204500,7.15820458984375,-0.07802416384220123,-0.0206298828125,0.570465087890625
1683928219031246600,7.16824658203125,-0.05388706922531128,0.21408653259277344,0.480319619178772
1683928219041289000,7.1782890625,-0.023336678743362427,0.3435859680175781,0.37812840938568115
1683928219051331300,7.188331298828125,0.016133129596710205,0.02399921417236328,0.2106412649154663
1683928219061373700,7.198373779296875,0.07426771521568298,-0.28046417236328125,0.060671210289001465
1683928219071416000,7.208416015625,0.1314864456653595,-0.36226463317871094,-0.07537472248077393
1683928219081458400,7.21845849609375,0.222427099943161,-0.300933837890625,-0.10586047172546387
1683928219091500800,7.228500732421875,0.2649603486061096,-0.046794891357421875,-0.12590157985687256
1683928219101543200,7.238543212890625,0.2736249566078186,0.0056591033935546875,-0.06884121894836426
1683928219111585500,7.24858544921875,0.25799110531806946,-0.13096046447753906,-0.05544579029083252
1683928219121628000,7.2586279296875,0.26371631026268005,-0.09332942962646484,-0.0774221420288086
1683928219131670300,7.268670166015625,0.30026790499687195,0.17055416107177734,-0.024195551872253418
1683928219141712600,7.278712646484375,0.2818184196949005,0.3856077194213867,0.031571388244628906
1683928219151754800,7.288754638671875,0.3238550126552582,0.3873405456542969,0.10793399810791016
1683928219161797000,7.298797119140625,0.35815170407295227,-0.3941812515258789,0.15055453777313232
1683928219171839500,7.308839599609375,0.4443848133087158,0.21981430053710938,0.12885785102844238
1683928219181881900,7.3188818359375,0.5658257007598877,0.4861106872558594,0.17130708694458008
1683928219191924200,7.32892431640625,0.6288449764251709,0.365814208984375,0.3279370069503784
1683928219201966600,7.338966552734375,0.6889755725860596,0.39128589630126953,0.4590933322906494
1683928219212009000,7.349009033203125,0.7087080478668213,0.38018321990966797,0.5382968187332153
1683928219222051300,7.35905126953125,0.7339088916778564,0.30161094665527344,0.6678636074066162
1683928219232093700,7.36909375,0.7268663644790649,0.1940603256225586,0.7657219171524048
1683928219242136000,7.379135986328125,0.6572993993759155,-0.0807199478149414,0.8667036890983582
1683928219252178400,7.389178466796875,0.6047234535217285,-0.23584461212158203,0.9714199900627136
1683928219262220800,7.399220703125,0.570315420627594,0.1581125259399414,1.10416579246521
1683928219272263000,7.409262939453125,0.505988597869873,-0.2181253433227539,1.253324031829834
1683928219282305300,7.41930517578125,0.39973947405815125,-0.9066867828369141,1.15038001537323
1683928219292347600,7.42934765625,0.34509867429733276,-1.302907943725586,1.1843749284744263
1683928219302390000,7.43939013671875,0.29975584149360657,-1.225480079650879,1.3828366994857788
1683928219312432400,7.449432373046875,0.25167757272720337,-0.6107721328735352,1.4853534698486328
1683928219322474800,7.459474853515625,0.1515285074710846,-0.0046215057373046875,1.5373640060424805
1683928219332517000,7.46951708984375,-0.0020440220832824707,0.3327779769897461,1.6104577779769897
1683928219342559500,7.4795595703125,-0.18358978629112244,0.1897430419921875,1.71171236038208
1683928219352601900,7.489601806640625,-0.27504944801330566,-0.17429733276367188,1.8127081394195557
1683928219362644200,7.499644287109375,-0.2755707800388336,-0.4843282699584961,1.9071102142333984
1683928219372686300,7.509686279296875,-0.23796287178993225,-0.7694559097290039,1.9479541778564453
1683928219382728700,7.519728759765625,-0.12128695845603943,-0.987548828125,1.994442105293274
1683928219392771000,7.52977099609375,0.003931134939193726,-1.1898412704467773,1.963077187538147
1683928219402813400,7.5398134765625,0.10087272524833679,-1.352433204650879,1.8631893396377563
1683928219412855800,7.549855712890625,0.19336774945259094,-1.3273744583129883,1.773817777633667
1683928219422898200,7.559898193359375,0.2859190106391907,-1.193924903869629,1.7234536409378052
1683928219432940500,7.5699404296875,0.408792644739151,-1.2344560623168945,1.648714303970337
1683928219442983000,7.57998291015625,0.5054924488067627,-1.4827947616577148,1.3978807926177979
1683928219453025300,7.590025390625,0.5523337125778198,-1.8025741577148438,1.256527066230774
1683928219463067600,7.600067626953125,0.5765987634658813,-2.124258041381836,1.1351211071014404
1683928219473110000,7.610110107421875,0.5214755535125732,-2.5001678466796875,0.9295815229415894
1683928219483152100,7.620152099609375,0.3411005139350891,-2.4279327392578125,0.6986744403839111
1683928219493194500,7.630194580078125,-0.10932399332523346,-2.1178083419799805,0.5145778656005859
1683928219503236900,7.64023681640625,-0.6984947919845581,-0.8428382873535156,0.06148219108581543
1683928219513279200,7.650279296875,-1.2230850458145142,0.4826927185058594,-0.42585325241088867
1683928219523321600,7.660321533203125,-1.7853161096572876,0.862879753112793,-0.5646038055419922
1683928219533364000,7.670364013671875,-2.1367225646972656,1.053410530090332,-0.7270019054412842
1683928219543406300,7.68040625,-2.2667689323425293,1.3633012771606445,-0.8474209308624268
1683928219553448700,7.69044873046875,-2.0983948707580566,1.7657208442687988,-0.8465001583099365
1683928219563491000,7.700490966796875,-1.6153215169906616,1.980696201324463,-0.7056794166564941
1683928219573533400,7.710533447265625,-0.9996431469917297,1.9127535820007324,-0.5302965641021729
1683928219583575800,7.720575927734375,-0.3242003321647644,1.3144121170043945,-0.19571280479431152
1683928219593618200,7.7306181640625,0.24726852774620056,0.8344545364379883,0.03849363327026367
1683928219603660300,7.740660400390625,0.6019944548606873,0.6661310195922852,0.23712313175201416
1683928219613702700,7.75070263671875,0.7641523480415344,0.49359798431396484,0.4192819595336914
1683928219623745000,7.7607451171875,0.807750403881073,0.14029216766357422,0.5584942102432251
1683928219633787400,7.770787353515625,0.8366930484771729,0.02248668670654297,0.6204328536987305
1683928219643829800,7.780829833984375,0.7460798025131226,-0.03454303741455078,0.5927286148071289
1683928219653872000,7.7908720703125,0.5100609660148621,-0.30109500885009766,0.40272998809814453
1683928219663914500,7.80091455078125,0.2108943909406662,-0.6787519454956055,0.22014451026916504
1683928219673956900,7.810956787109375,-0.05282682180404663,-1.0240249633789062,-0.09134125709533691
1683928219683999200,7.820999267578125,-0.27290117740631104,-1.0630989074707031,-0.41670870780944824
1683928219694041600,7.83104150390625,-0.3472404479980469,-1.093191146850586,-0.6191508769989014
1683928219704084000,7.841083984375,-0.3891642391681671,-0.8879413604736328,-0.8883061408996582
1683928219714126000,7.8511259765625,-0.42581242322921753,-0.6454038619995117,-0.9048945903778076
1683928219724168400,7.86116845703125,-0.5634933710098267,-0.3573341369628906,-0.9585120677947998
1683928219734210800,7.8712109375,-0.7989816665649414,-0.14580154418945312,-1.262983798980713
1683928219744253200,7.881253173828125,-1.0316126346588135,-0.052120208740234375,-1.5222768783569336
1683928219754295600,7.891295654296875,-1.1607744693756104,0.09513568878173828,-1.6922471523284912
1683928219764338000,7.901337890625,-0.9913023114204407,0.14052963256835938,-1.5528407096862793
1683928219774380300,7.91138037109375,-0.6092923879623413,0.18516159057617188,-1.314253330230713
1683928219784422700,7.921422607421875,-0.09420037269592285,0.20334529876708984,-0.9349896907806396
1683928219794465000,7.931465087890625,0.3770561218261719,0.23845291137695312,-0.6302250623703003
1683928219804507400,7.94150732421875,0.6437398195266724,0.4745159149169922,-0.4426172971725464
1683928219814549800,7.9515498046875,0.887911319732666,0.5315389633178711,-0.14556574821472168
1683928219824592000,7.961591796875,1.0432937145233154,0.45063114166259766,0.07182586193084717
1683928219834634200,7.97163427734375,1.1140550374984741,0.3873405456542969,0.25220251083374023
1683928219844676600,7.981676513671875,1.0565755367279053,0.2985868453979492,0.32108092308044434
1683928219854719000,7.991718994140625,1.0888906717300415,0.3134012222290039,0.3406069278717041
1683928219864761300,8.00176123046875,1.0143835544586182,0.14756488800048828,0.37468183040618896
1683928219874803700,8.0118037109375,0.9617472887039185,0.2503814697265625,0.1877751350402832
1683928219884846000,8.02184619140625,0.8710999488830566,0.40577220916748047,0.03140890598297119
1683928219894888400,8.031888427734375,0.6999602317810059,0.642125129699707,-0.07010626792907715
1683928219904930800,8.041930908203126,0.5334685444831848,0.483917236328125,-0.08866631984710693
1683928219914973000,8.051972900390625,0.3281276822090149,0.26377105712890625,-0.21754050254821777
1683928219925015300,8.062015380859375,0.1932981014251709,-0.06641960144042969,-0.3785620927810669
1683928219935057700,8.0720576171875,0.19166922569274902,-0.6712074279785156,-0.16589248180389404
1683928219945100000,8.08210009765625,0.20176208019256592,-1.031484603881836,0.019239306449890137
1683928219955142400,8.092142333984375,0.2330249547958374,-1.2475051879882812,0.32380926609039307
1683928219965184800,8.102184814453125,0.2197737693786621,-1.2849340438842773,0.6816798448562622
1683928219975227100,8.11222705078125,0.20588469505310059,-0.8164243698120117,0.7605686187744141
1683928219985269500,8.12226953125,0.005960822105407715,0.29427623748779297,0.589550256729126
1683928219995311900,8.132311767578125,-0.16511034965515137,0.8437938690185547,0.47153711318969727
1683928220005354000,8.14235400390625,-0.27086329460144043,1.1561222076416016,0.461606502532959
1683928220015396400,8.152396240234374,-0.2403808832168579,1.3894338607788086,0.18220555782318115
1683928220025438700,8.162438720703125,-0.1783541440963745,1.1806621551513672,-0.18682348728179932
1683928220035481000,8.172481201171875,-0.14743101596832275,0.9554338455200195,-0.5579208135604858
1683928220045523500,8.1825234375,-0.23388314247131348,0.9634552001953125,-0.9206336736679077
1683928220055565800,8.19256591796875,-0.4392789602279663,0.7186040878295898,-1.2241708040237427
1683928220065608200,8.202608154296875,-0.6894714832305908,0.36467456817626953,-1.2688716650009155
1683928220075650600,8.212650634765625,-0.8809340000152588,0.021532058715820312,-1.2270166873931885
1683928220085693000,8.22269287109375,-0.9335451126098633,-0.389373779296875,-1.126549243927002
1683928220095735300,8.2327353515625,-0.8944962024688721,-0.8243703842163086,-0.9727704524993896
1683928220105777700,8.242777587890625,-0.812402606010437,-1.347280502319336,-0.8181746006011963
1683928220115819800,8.25281982421875,-0.6420360803604126,-1.8952674865722656,-0.7228580713272095
1683928220125862100,8.262862060546874,-0.39102911949157715,-2.128891944885254,-0.902756929397583
1683928220135904500,8.272904541015626,-0.09059345722198486,-2.0888376235961914,-0.9609841108322144
1683928220145947000,8.28294677734375,0.2796356678009033,-1.5272579193115234,-1.1359326839447021
1683928220155989200,8.2929892578125,0.5296211242675781,-0.8693170547485352,-1.664740800857544
1683928220166031600,8.303031494140624,0.7098891735076904,-0.2570676803588867,-1.963674545288086
1683928220176074000,8.313073974609376,0.9301341772079468,0.3023414611816406,-2.009977102279663
1683928220186116400,8.323116455078125,1.1219234466552734,0.6472101211547852,-1.8833143711090088
1683928220196158500,8.333158447265625,1.2082011699676514,0.8866605758666992,-1.6212801933288574
1683928220206200800,8.343200927734374,1.1726094484329224,0.9978799819946289,-1.3865605592727661
1683928220216243200,8.3532431640625,0.9760175943374634,1.164900779724121,-1.3046517372131348
1683928220226285600,8.36328564453125,0.6770254373550415,1.3868980407714844,-0.9985689520835876
1683928220236328000,8.373327880859375,0.30403268337249756,1.7535934448242188,-0.5011898279190063
1683928220246370300,8.383370361328126,0.19803166389465332,2.1138129234313965,-0.050102174282073975
1683928220256412700,8.39341259765625,0.12322640419006348,2.2506070137023926,0.5237442255020142
1683928220266455000,8.403455078125,0.19810819625854492,1.969538688659668,1.0260480642318726
1683928220276497400,8.413497314453124,0.2795673608779907,1.6232242584228516,1.453967571258545
1683928220286539800,8.423539794921876,0.19271326065063477,1.307032585144043,1.7962626218795776
1683928220296582100,8.43358203125,-0.0007312297821044922,0.8218002319335938,1.9709882736206055
1683928220306624300,8.443624267578125,-0.12493324279785156,0.6614599227905273,2.224308490753174
1683928220316666600,8.45366650390625,-0.13401269912719727,0.25662994384765625,2.170492172241211
1683928220326709000,8.463708984375,-0.1098628044128418,-0.0928964614868164,1.9316726922988892
1683928220336751400,8.47375146484375,0.006742238998413086,-0.03786659240722656,1.478428840637207
1683928220346793700,8.483793701171875,0.15770864486694336,0.13187026977539062,0.5975433588027954
1683928220356836000,8.493836181640624,0.30327653884887695,0.3751506805419922,-0.18283629417419434
1683928220366878500,8.50387841796875,0.420147180557251,0.5674610137939453,-0.6232644319534302
1683928220376920800,8.5139208984375,0.527707576751709,0.5727577209472656,-0.9050464630126953
1683928220386963200,8.523963134765625,0.6327948570251465,0.5754861831665039,-1.0608818531036377
1683928220397005300,8.53400537109375,0.7677015066146851,0.6141605377197266,-1.1520050764083862
1683928220407047700,8.544047607421875,0.8402915000915527,0.6914348602294922,-1.1796846389770508
1683928220417090000,8.554090087890625,0.7876218557357788,0.7931661605834961,-1.1255297660827637
1683928220427132400,8.56413232421875,0.7262275218963623,0.8932533264160156,-1.0142136812210083
1683928220437174800,8.5741748046875,0.6342536211013794,0.9225864410400391,-0.8730964660644531
1683928220447217200,8.584217041015625,0.5210994482040405,0.816960334777832,-0.7292606830596924
1683928220457259500,8.594259521484375,0.45594286918640137,0.6269025802612305,-0.580211877822876
1683928220467302000,8.604302001953124,0.38829565048217773,0.4792289733886719,-0.46112456917762756
1683928220477344300,8.61434423828125,0.3728053569793701,0.8013486862182617,-0.3905368149280548
1683928220487386600,8.62438671875,0.4585808515548706,0.059226036071777344,-0.36386051774024963
1683928220497428700,8.6344287109375,0.49903440475463867,0.013225555419921875,-0.5820241570472717
1683928220507471000,8.64447119140625,0.4540301561355591,0.13596534729003906,-0.7143160104751587
1683928220517513500,8.654513427734376,0.39928197860717773,-0.4282350540161133,-0.692508339881897
1683928220527555800,8.664555908203125,0.19054627418518066,-0.568084716796875,-0.7598065137863159
1683928220537598200,8.67459814453125,-0.07011628150939941,-0.5720891952514648,-0.801738977432251
1683928220547640600,8.684640625,-0.30892252922058105,-0.5054702758789062,-0.7926071882247925
1683928220557683000,8.694682861328126,-0.5085365772247314,-0.3231658935546875,-0.7340835928916931
1683928220567725300,8.704725341796875,-0.6296899318695068,-0.05627632141113281,-0.7363066077232361
1683928220577767400,8.714767333984375,-0.5731587409973145,0.07118511199951172,-0.7518696784973145
1683928220587809800,8.724809814453126,-0.35463404655456543,0.287109375,-0.7505922317504883
1683928220597852200,8.73485205078125,-0.10577988624572754,0.2860860824584961,-0.9263986349105835
1683928220607894500,8.74489453125,0.0433272123336792,0.2646493911743164,-1.226183295249939
1683928220617937000,8.75493701171875,0.002283334732055664,0.1439371109008789,-1.6016818284988403
1683928220627979300,8.764979248046876,-0.24003148078918457,0.059688568115234375,-1.9119937419891357
1683928220638021600,8.775021728515625,-0.6776790618896484,-0.15649986267089844,-2.180474042892456
1683928220648064000,8.78506396484375,-1.2606608867645264,-0.4955730438232422,-2.355814218521118
1683928220658106400,8.7951064453125,-1.7429826259613037,-0.4394378662109375,-2.624584674835205
1683928220668148700,8.805148681640626,-1.8611690998077393,-0.3261070251464844,-2.8501815795898438
1683928220678190800,8.81519091796875,-1.6368181705474854,-0.5136289596557617,-2.8784422874450684
1683928220688233200,8.825233154296875,-1.1720025539398193,-0.6064262390136719,-2.7140579223632812
1683928220698275600,8.835275634765624,-0.49641430377960205,-0.7325067520141602,-2.4570062160491943
1683928220708318000,8.84531787109375,0.35792088508605957,-0.9669675827026367,-1.9848434925079346
1683928220718360300,8.8553603515625,1.2888380289077759,-1.9819097518920898,-1.2051000595092773
1683928220728402700,8.865402587890625,2.0129482746124268,-0.7051620483398438,-0.7106986045837402
1683928220738445000,8.875445068359374,2.279127836227417,0.2678956985473633,0.37983235716819763
1683928220748487400,8.8854873046875,2.3899354934692383,0.7231054306030273,1.2029166221618652
1683928220758529800,8.89552978515625,2.362872838973999,1.134627342224121,1.4360076189041138
1683928220768572000,8.905572021484375,2.3250553607940674,1.2136716842651367,1.3061721324920654
1683928220778614300,8.9156142578125,2.1941781044006348,0.9993324279785156,1.0510854721069336
1683928220788656600,8.92565673828125,1.877557396888733,0.6356430053710938,1.1242036819458008
1683928220798699000,8.935698974609375,1.3965859413146973,0.027161598205566406,1.3220765590667725
1683928220808741400,8.945741455078124,0.9375792145729065,-0.47977447509765625,1.5681328773498535
1683928220818783700,8.95578369140625,0.4727412462234497,-0.9767827987670898,1.8749960660934448
1683928220828826000,8.965826171875,0.05181539058685303,-0.9677867889404297,2.0959510803222656
1683928220838868500,8.975868408203125,-0.11346435546875,-0.9413175582885742,2.134042739868164
1683928220848910800,8.985910888671874,0.08331507444381714,-0.8468284606933594,1.7754617929458618
1683928220858953000,8.995952880859376,0.5575023889541626,-0.9848899841308594,1.2259289026260376
1683928220868995300,9.005995361328125,1.094285011291504,-0.9367561340332031,0.6985605955123901
1683928220879037700,9.01603759765625,1.4960017204284668,-0.544886589050293,0.09355425834655762
1683928220889080000,9.026080078125,1.6970759630203247,-0.07030010223388672,-0.4529608488082886
1683928220899122400,9.036122314453126,1.801384449005127,0.2573862075805664,-0.7640247344970703
1683928220909164800,9.046164794921875,1.8606722354888916,0.4934673309326172,-0.8154499530792236
1683928220919207200,9.056207275390625,1.8782424926757812,0.39944934844970703,-0.7814165353775024
1683928220929249500,9.06624951171875,1.811722993850708,0.2793912887573242,-0.7170078754425049
1683928220939291600,9.076291748046875,1.6963199377059937,0.27893829345703125,-0.6591256856918335
1683928220949334000,9.086333984375,1.5337536334991455,0.25444793701171875,-0.5042089223861694
1683928220959376400,9.09637646484375,1.393364667892456,0.06989192962646484,-0.25059354305267334
1683928220969418800,9.106418701171876,1.3001388311386108,-0.03297901153564453,0.07789862155914307
1683928220979461000,9.116461181640625,1.2319085597991943,-0.16892242431640625,0.3528648614883423
1683928220989503500,9.12650341796875,1.1653015613555908,-0.3235626220703125,0.4623725414276123
1683928220999545900,9.1365458984375,1.0499999523162842,-0.33683300018310547,0.5263807773590088
1683928221009588200,9.146588134765626,0.9154152870178223,-0.29027462005615234,0.585428774356842
1683928221019630600,9.156630615234375,0.7941025495529175,-0.39426612854003906,0.6253073811531067
1683928221029672700,9.166672607421875,0.7803870439529419,-0.3691263198852539,0.6441834568977356
1683928221039715000,9.176715087890624,0.8663744926452637,-0.32256603240966797,0.6801748871803284
1683928221049757400,9.18675732421875,0.9738107919692993,-0.1471090316772461,0.676233172416687
1683928221059799800,9.1967998046875,1.0986276865005493,-0.043689727783203125,0.5783179402351379
1683928221069842200,9.20684228515625,1.130387783050537,0.014103889465332031,0.4851040840148926
1683928221079884500,9.216884521484374,1.1838085651397705,0.06218528747558594,0.4326360821723938
1683928221089927000,9.226927001953126,1.2036770582199097,0.024115562438964844,0.3758569359779358
1683928221099969300,9.23696923828125,1.2017806768417358,-0.07121562957763672,0.32187092304229736
1683928221110011400,9.247011474609375,1.1802327632904053,-0.18788528442382812,0.29019975662231445
1683928221120053800,9.2570537109375,1.181451678276062,-0.2280416488647461,0.23646163940429688
1683928221130096000,9.26709619140625,1.1715385913848877,-0.07726669311523438,0.20870375633239746
1683928221140138500,9.277138427734375,1.1438612937927246,0.17790699005126953,0.14034795761108398
1683928221150180900,9.287180908203124,1.116750717163086,0.2840862274169922,0.1718463897705078
1683928221160223200,9.29722314453125,1.1364836692810059,0.08408069610595703,0.2640758752822876
1683928221170265600,9.307265625,1.1617127656936646,-0.017858505249023438,0.22201848030090332
1683928221180308000,9.317307861328125,1.0837962627410889,0.09743404388427734,0.32560908794403076
1683928221190350000,9.32735009765625,1.0174380540847778,0.006995201110839844,0.4220503568649292
1683928221200392400,9.337392333984376,0.8961609601974487,-0.17627811431884766,0.42428702116012573
1683928221210434800,9.347434814453125,0.7684085369110107,-0.2898082733154297,0.36621546745300293
1683928221220477200,9.357477294921875,0.6418532133102417,-0.4007072448730469,0.3152884244918823
1683928221230519600,9.36751953125,0.5693178176879883,-0.39429759979248047,0.278267502784729
1683928221240562000,9.37756201171875,0.5009962320327759,-0.34488487243652344,0.1904810667037964
1683928221250604300,9.387604248046875,0.46856117248535156,-0.36247825622558594,0.14546263217926025
1683928221260646700,9.397646728515625,0.4503800868988037,-0.19853782653808594,0.104911208152771
1683928221270689000,9.40768896484375,0.4863507151603699,-0.058814048767089844,0.02063572406768799
1683928221280731100,9.417731201171875,0.5143924951553345,0.1282520294189453,-0.034645915031433105
1683928221290773500,9.4277734375,0.549346923828125,0.1475973129272461,-0.032327890396118164
1683928221300816000,9.43781591796875,0.5586251616477966,0.1381702423095703,-0.013389348983764648
1683928221310858200,9.447858154296876,0.5571773648262024,-0.050398826599121094,0.03631281852722168
1683928221320900600,9.457900634765625,0.6256074905395508,-0.15263843536376953,0.07173335552215576
1683928221330943000,9.46794287109375,0.759954035282135,-0.32880687713623047,0.12195003032684326
1683928221340985300,9.4779853515625,0.8698456287384033,-0.3255147933959961,0.2393432855606079
1683928221351027700,9.48802783203125,0.9527678489685059,-0.3811826705932617,0.34644293785095215
1683928221361069800,9.49806982421875,0.9910469055175781,-0.34161376953125,0.4180682897567749
1683928221371112200,9.5081123046875,1.0304110050201416,-0.27429962158203125,0.4758892059326172
1683928221381154600,9.518154541015624,1.0522936582565308,-0.25031471252441406,0.44234561920166016
1683928221391197000,9.528197021484376,1.0497374534606934,-0.12062835693359375,0.37316906452178955
1683928221401239300,9.5382392578125,1.0208981037139893,-0.07060050964355469,0.2428501844406128
1683928221411281700,9.54828173828125,0.9952868223190308,-0.04950904846191406,0.09964501857757568
1683928221421324000,9.558323974609374,0.9854013323783875,-0.07120418548583984,-0.09505879878997803
1683928221431366400,9.568366455078126,1.0292788743972778,-0.010338783264160156,-0.18665409088134766
1683928221441408800,9.57840869140625,1.100023627281189,0.1811370849609375,-0.2803776264190674
1683928221451451000,9.588450927734375,1.1502914428710938,0.1716318130493164,-0.3113471269607544
1683928221461493200,9.5984931640625,1.1846848726272583,0.18811321258544922,-0.35336387157440186
1683928221471535600,9.60853564453125,1.1769596338272095,0.11705493927001953,-0.4692258834838867
1683928221481578000,9.618577880859375,1.1346186399459839,-0.09668254852294922,-0.5700515508651733
1683928221491620400,9.628620361328124,1.0483980178833008,0.017641067504882812,-0.6671769618988037
1683928221501662700,9.638662841796876,0.970674455165863,-0.10804939270019531,-0.612701416015625
1683928221511705000,9.648705078125,0.9486720561981201,-0.2508544921875,-0.6609088182449341
1683928221521747200,9.658747314453125,0.915336012840271,-0.2928905487060547,-0.5882706642150879
1683928221531789600,9.66878955078125,0.9270470142364502,-0.22160816192626953,-0.4138796329498291
1683928221541832000,9.67883203125,0.8911397457122803,-0.09066486358642578,-0.2549489736557007
1683928221551874300,9.688874267578125,0.8390367031097412,0.0047245025634765625,-0.03567206859588623
1683928221561916700,9.698916748046875,0.7764739990234375,-0.005451202392578125,0.20507240295410156
1683928221571959000,9.708958984375,0.6888489127159119,-0.06050395965576172,0.4663522243499756
1683928221582001400,9.71900146484375,0.6460851430892944,-0.10078048706054688,0.6932893991470337
1683928221592043500,9.72904345703125,0.6920963525772095,-0.044048309326171875,0.8907182216644287
1683928221602086000,9.7390859375,0.8296240568161011,-0.08244514465332031,1.037109375
1683928221612128300,9.749128173828124,1.0229710340499878,-0.07309913635253906,1.1427390575408936
1683928221622170600,9.759170654296875,1.2416881322860718,-0.03559589385986328,1.2153353691101074
1683928221632213000,9.769212890625,1.3903932571411133,-0.10666561126708984,1.3295934200286865
1683928221642255400,9.77925537109375,1.4721428155899048,-0.21364212036132812,1.3520607948303223
1683928221652297700,9.789297607421876,1.5251808166503906,-0.2474517822265625,1.3635761737823486
1683928221662340000,9.799340087890625,1.4834011793136597,-0.29613304138183594,1.3160085678100586
1683928221672382500,9.809382568359375,1.3041424751281738,-0.3262748718261719,1.2234045267105103
1683928221682424600,9.819424560546874,1.039697527885437,-0.34520721435546875,1.0814260244369507
1683928221692467000,9.829467041015626,0.6541727781295776,0.020829200744628906,0.7748295068740845
1683928221702509300,9.83950927734375,0.1838851273059845,0.0825185775756836,0.535273551940918
1683928221712551700,9.8495517578125,-0.3362509310245514,0.014151573181152344,0.263511061668396
1683928221722594000,9.859593994140624,-0.9022408723831177,0.022345542907714844,-0.1073523759841919
1683928221732636400,9.869636474609376,-1.3119771480560303,-0.06336402893066406,-0.31674468517303467
1683928221742678800,9.8796787109375,-1.5733447074890137,0.005318641662597656,-0.41032302379608154
1683928221752721200,9.88972119140625,-1.533992052078247,0.05130577087402344,-0.2083442211151123
1683928221762763300,9.89976318359375,-1.2941629886627197,0.07215595245361328,-0.020191669464111328
1683928221772805600,9.9098056640625,-0.9578717350959778,0.1418466567993164,0.24511992931365967
1683928221782848000,9.919847900390625,-0.6819348931312561,0.17456531524658203,0.5480444431304932
1683928221792890400,9.929890380859375,-0.523971438407898,0.14680862426757812,0.6821854114532471
1683928221802932700,9.9399326171875,-0.49534547328948975,0.0255126953125,0.7383183240890503
1683928221812975000,9.94997509765625,-0.5849617719650269,-0.1197662353515625,0.7312175035476685
1683928221823017200,9.960017333984375,-0.7094800472259521,-0.50653076171875,0.5768675804138184
1683928221833059600,9.9700595703125,-0.8024044036865234,-0.9386196136474609,0.39478957653045654
1683928221843102000,9.98010205078125,-0.8701038360595703,-1.1293869018554688,0.12733662128448486
1683928221853144300,9.990144287109375,-0.8450576066970825,-1.3562345504760742,-0.08572769165039062
1683928221863186700,10.000186767578125,-0.9300963878631592,-1.337188720703125,-0.29457569122314453
1683928221873229000,10.01022900390625,-1.0324857234954834,-1.421401023864746,-0.35285794734954834
1683928221883271400,10.020271484375,-1.113932490348816,-1.3556575775146484,-0.49848878383636475
1683928221893313800,10.030313720703125,-1.0750648975372314,-1.2408313751220703,-0.5502312183380127
1683928221903356200,10.040356201171875,-0.9670597314834595,-1.120009422302246,-0.7034748792648315
1683928221913398300,10.050398193359374,-0.6549992561340332,-0.7966127395629883,-0.6381672620773315
1683928221923440600,10.060440673828126,-0.34386277198791504,-0.520599365234375,-0.36185145378112793
1683928221933483000,10.07048291015625,0.1370244026184082,-0.3619852066040039,0.16464567184448242
1683928221943525400,10.080525390625,0.4854602813720703,-0.24848365783691406,0.5349896550178528
1683928221953567700,10.090567626953124,0.7179131507873535,-0.008530616760253906,0.8321393132209778
1683928221963610000,10.100610107421875,1.0507128238677979,0.14260196685791016,1.1507786512374878
1683928221973652200,10.11065234375,1.5186392068862915,0.48737430572509766,1.415303349494934
1683928221983694600,10.120694580078125,2.2749905586242676,0.4818592071533203,1.6919041872024536
1683928221993737000,10.130737060546876,3.0412821769714355,0.4360628128051758,1.7858301401138306
1683928222003779300,10.140779296875,3.5283658504486084,0.4457426071166992,1.6515698432922363
1683928222013821700,10.15082177734375,3.447360038757324,0.5474166870117188,1.2032901048660278
1683928222023864000,10.160864013671874,2.9965336322784424,0.42020416259765625,0.28249025344848633
1683928222033906400,10.170906494140626,2.6669609546661377,0.41319751739501953,-0.5743472576141357
1683928222043948800,10.18094873046875,2.369913339614868,0.5461530685424805,-1.1701874732971191
1683928222053991000,10.190990966796875,2.038098096847534,0.7200918197631836,-1.5548073053359985
1683928222064033300,10.201033203125,1.5912126302719116,0.923365592956543,-1.7101867198944092
1683928222074075600,10.21107568359375,0.9938632249832153,0.8992509841918945,-1.6079676151275635
1683928222084118000,10.221117919921875,0.4909791946411133,0.8015327453613281,-1.2386629581451416
1683928222094160400,10.231160400390625,0.33739686012268066,0.6776323318481445,-0.8954944610595703
1683928222104202800,10.24120263671875,-0.01606273651123047,0.4753570556640625,-1.0650973320007324
1683928222114245000,10.2512451171875,-0.7338249683380127,0.1834249496459961,-1.1700284481048584
1683928222124287200,10.261287353515625,-1.2783539295196533,-0.08238410949707031,-1.325728178024292
1683928222134329600,10.27132958984375,-1.365950107574463,-0.4120941162109375,-1.4910314083099365
1683928222144372000,10.2813720703125,-1.0522693395614624,-0.5521297454833984,-1.5100529193878174
1683928222154414300,10.291414306640625,-0.4915781021118164,-0.6185178756713867,-1.516772747039795
1683928222164456700,10.301456787109375,-0.045017123222351074,-0.5142278671264648,-1.5613043308258057
1683928222174499000,10.3114990234375,0.29965639114379883,-0.3578758239746094,-1.7495684623718262
1683928222184541400,10.32154150390625,0.5006543397903442,-0.27080726623535156,-1.8726894855499268
1683928222194583800,10.331583740234375,0.5853718519210815,-0.1977100372314453,-1.9372082948684692
1683928222204626000,10.3416259765625,0.5825934410095215,-0.12669658660888672,-1.9294353723526
1683928222214668300,10.351668212890624,0.5954045057296753,-0.0793752670288086,-1.8213590383529663
1683928222224710700,10.361710693359376,0.5626808404922485,-0.017699241638183594,-1.6692724227905273
1683928222234753000,10.3717529296875,0.4496344327926636,-0.004450798034667969,-1.6364408731460571
1683928222244795400,10.38179541015625,0.4556220769882202,0.31235504150390625,-1.7804242372512817
1683928222254837800,10.391837646484374,0.5274163484573364,0.5062971115112305,-2.0077767372131348
1683928222264879900,10.4018798828125,0.7616736888885498,0.2626008987426758,-1.5350663661956787
1683928222274922200,10.411922119140625,1.03639554977417,0.32395362854003906,-1.0052614212036133
1683928222284964600,10.421964599609375,1.1285784244537354,0.4195747375488281,-0.8454700112342834
1683928222295007000,10.432007080078124,1.03519868850708,0.4464292526245117,-0.7289491891860962
1683928222305049300,10.44204931640625,0.8553379774093628,0.46425724029541016,-0.49749016761779785
1683928222315091700,10.452091796875,0.6661429405212402,0.4276266098022461,-0.26205694675445557
1683928222325134000,10.462134033203125,0.4347398281097412,0.3986854553222656,-0.1673896312713623
1683928222335176400,10.472176513671876,0.25514352321624756,0.43456459045410156,-0.33747756481170654
1683928222345218800,10.48221875,0.16253447532653809,0.47308826446533203,-0.5164769887924194
1683928222355261000,10.492260986328125,0.1257922649383545,0.4545021057128906,-0.5622482895851135
1683928222365303300,10.50230322265625,0.13348495960235596,0.4027137756347656,-0.5044420957565308
1683928222375345700,10.512345703125,0.16682982444763184,0.32967090606689453,-0.44033220410346985
1683928222385388000,10.522387939453125,0.2738264799118042,0.27118492126464844,-0.4108858108520508
1683928222395430400,10.532430419921875,0.3585205078125,0.19621658325195312,-0.42989084124565125
1683928222405472800,10.54247265625,0.41303348541259766,0.21004581451416016,-0.4564409554004669
1683928222415515000,10.552514892578126,0.39648544788360596,0.1596822738647461,-0.5685216188430786
1683928222425557200,10.56255712890625,0.34026312828063965,0.26495933532714844,-0.6789395809173584
1683928222435599600,10.572599609375,0.2950730323791504,0.25314998626708984,-0.8092430830001831
1683928222445642000,10.58264208984375,0.26886069774627686,0.24617958068847656,-0.9705710411071777
1683928222455684400,10.592684326171875,0.23383831977844238,0.2748994827270508,-1.0631989240646362
1683928222465726700,10.602726806640625,0.21369528770446777,0.279571533203125,-1.146721601486206
1683928222475768800,10.612768798828125,0.2449740171432495,0.2844829559326172,-1.167044997215271
1683928222485811200,10.622811279296876,0.27577221393585205,0.3114604949951172,-1.1559901237487793
1683928222495853600,10.632853515625,0.2553861141204834,0.2936887741088867,-1.1521847248077393
1683928222505896000,10.64289599609375,0.078163743019104,0.21419620513916016,-1.124710202217102
1683928222515938300,10.652938232421874,-0.14616727828979492,0.08230209350585938,-1.0480022430419922
1683928222525980700,10.662980712890626,-0.357075572013855,-0.011261940002441406,-0.9185852408409119
1683928222536023000,10.67302294921875,-0.4400080442428589,0.00506591796875,-0.660789430141449
1683928222546065400,10.6830654296875,-0.39114511013031006,0.09293079376220703,-0.3079812228679657
1683928222556107500,10.693107421875,-0.2881171703338623,0.23322200775146484,-0.07896940410137177
1683928222566150000,10.70314990234375,-0.1939220428466797,0.3232593536376953,-0.007778845727443695
1683928222576192300,10.713192138671875,-0.11337780952453613,0.27957916259765625,-0.07923295348882675
1683928222586234600,10.723234619140625,-0.08349716663360596,0.326751708984375,-0.07102010399103165
1683928222596277000,10.733277099609374,-0.045354604721069336,0.46662330627441406,-0.05678796023130417
1683928222606319400,10.7433193359375,-0.04099106788635254,0.536341667175293,-0.0016925036907196045
1683928222616361700,10.75336181640625,-0.03923928737640381,0.5670671463012695,0.011587291955947876
1683928222626403800,10.76340380859375,0.003851175308227539,0.5089731216430664,-0.07918564975261688
1683928222636446200,10.7734462890625,0.15929639339447021,0.12877655029296875,-0.34214410185813904
1683928222646488600,10.783488525390625,0.40272438526153564,-0.566523551940918,-0.8130619525909424
1683928222656531000,10.793531005859375,0.525352954864502,-1.2881269454956055,-1.47844398021698
1683928222666573300,10.8035732421875,0.3096487522125244,-2.0945024490356445,-1.9738329648971558
1683928222676615700,10.81361572265625,-0.09278857707977295,-2.727261543273926,-2.082606554031372
1683928222686657800,10.82365771484375,-0.4146120548248291,-3.2667036056518555,-1.9179542064666748
1683928222696700200,10.8337001953125,-0.6272377967834473,-3.498628616333008,-1.4379441738128662
1683928222706742500,10.843742431640624,-0.6335737705230713,-2.9891929626464844,-0.750167727470398
1683928222716785000,10.853784912109376,-0.2605013847351074,-1.8112316131591797,-0.09396719932556152
1683928222726827300,10.8638271484375,0.35818028450012207,-0.846898078918457,0.13190722465515137
1683928222736869600,10.87386962890625,0.9211140275001526,-0.13113880157470703,0.039290428161621094
1683928222746912000,10.883912109375,1.233506202697754,0.5231838226318359,-0.19642549753189087
1683928222756954000,10.8939541015625,1.3244445323944092,1.2194194793701172,-0.44700509309768677
1683928222766996500,10.90399658203125,1.1596895456314087,1.8168888092041016,-0.6634743809700012
1683928222777038800,10.914038818359375,0.8472931385040283,2.1319518089294434,-0.9484578371047974
1683928222787081200,10.924081298828124,0.5082471966743469,2.2676095962524414,-1.1348135471343994
1683928222797123600,10.93412353515625,0.2126215696334839,2.1161885261535645,-1.098876714706421
1683928222807166000,10.944166015625,0.0852973461151123,1.8545784950256348,-0.9904247522354126
1683928222817208300,10.954208251953125,0.23079532384872437,1.4374027252197266,-0.8667625188827515
1683928222827250700,10.964250732421876,0.6844441890716553,0.8866386413574219,-0.7214854955673218
1683928222837292800,10.974292724609375,1.25528085231781,0.29611778259277344,-0.6990988254547119
1683928222847335200,10.984335205078125,1.7092711925506592,0.05790996551513672,-0.7447196245193481
1683928222857377500,10.99437744140625,1.9959807395935059,-0.07683658599853516,-0.7294433116912842
1683928222867420000,11.004419921875,2.0868585109710693,-0.1460886001586914,-0.6549924612045288
1683928222877462300,11.014462158203125,2.0563907623291016,-0.3238849639892578,-0.6138534545898438
1683928222887504600,11.024504638671875,1.9331281185150146,-0.44521141052246094,-0.6128115653991699
1683928222897546800,11.034546630859374,1.6969883441925049,-0.5821609497070312,-0.5529528856277466
1683928222907589000,11.044589111328126,1.4351387023925781,-0.47475242614746094,-0.45911574363708496
1683928222917631500,11.054631591796875,1.051953911781311,-0.39600372314453125,-0.32822513580322266
1683928222927673900,11.064673828125,0.4875396192073822,-0.26482486724853516,-0.22286367416381836
1683928222937716200,11.07471630859375,-0.15060806274414062,-0.02927875518798828,-0.2820378541946411
1683928222947758600,11.084758544921876,-0.6286460757255554,0.1116952896118164,-0.4320284128189087
1683928222957800700,11.09480078125,-0.616335928440094,0.11522483825683594,-0.5683145523071289
1683928222967843000,11.104843017578125,-0.14493733644485474,0.12752342224121094,-0.6477237939834595
1683928222977885400,11.114885498046876,0.5035553574562073,0.1821460723876953,-0.7421916723251343
1683928222987927800,11.124927734375,1.1634349822998047,0.23401451110839844,-0.7600970268249512
1683928222997970200,11.13497021484375,1.618809700012207,0.21442508697509766,-0.8078168630599976
1683928223008012500,11.145012451171874,1.8061500787734985,0.1881265640258789,-1.0138511657714844
1683928223018055000,11.155054931640626,1.856865406036377,0.12888431549072266,-1.129292368888855
1683928223028097000,11.165096923828125,1.9605069160461426,0.09902667999267578,-1.17136812210083
1683928223038139400,11.175139404296875,2.0474741458892822,0.1225738525390625,-1.1861387491226196
1683928223048181800,11.185181640625,1.9620723724365234,0.15639209747314453,-1.1881507635116577
1683928223058224000,11.19522412109375,1.7003896236419678,0.23109149932861328,-1.1739177703857422
1683928223068266500,11.2052666015625,1.4259567260742188,0.2602519989013672,-1.1116989850997925
1683928223078308900,11.215308837890625,1.2192835807800293,0.3153696060180664,-1.115220546722412
1683928223088351000,11.22535107421875,1.0918382406234741,0.31501102447509766,-1.1257765293121338
1683928223098393300,11.235393310546876,0.9811285138130188,0.34038257598876953,-1.0470331907272339
1683928223108435700,11.245435791015625,0.7759197950363159,0.2194080352783203,-1.0010406970977783
1683928223118478000,11.25547802734375,0.6021804809570312,0.13624954223632812,-0.9254741668701172
1683928223128520400,11.2655205078125,0.3830885887145996,0.12176895141601562,-0.822516679763794
1683928223138562800,11.275562744140625,0.24016377329826355,0.19013214111328125,-0.6900688409805298
1683928223148605200,11.285605224609375,0.1408626288175583,0.1406869888305664,-0.5076615810394287
1683928223158647300,11.295647216796874,0.12569648027420044,0.15058135986328125,-0.29992735385894775
1683928223168689700,11.305689697265626,0.1938609480857849,0.1839618682861328,-0.13188719749450684
1683928223178732000,11.31573193359375,0.26529639959335327,0.09998130798339844,0.03424274921417236
1683928223188774400,11.3257744140625,0.3747924268245697,0.054195404052734375,0.1243906021118164
1683928223198816800,11.335816650390624,0.46722379326820374,0.05341815948486328,0.19069480895996094
1683928223208859100,11.345859130859376,0.5685430765151978,0.16667842864990234,0.3055877685546875
1683928223218901200,11.3559013671875,0.6610376238822937,0.07866954803466797,0.5271942019462585
1683928223228940300,11.365940185546876,0.6917635798454285,-0.08564949035644531,0.6456225514411926
1683928223238982400,11.375982421875,0.7082693576812744,-0.23286151885986328,0.7107397317886353
1683928223249024800,11.386024658203125,0.7281578183174133,-0.3174619674682617,0.8123032450675964
1683928223259067100,11.396067138671874,0.7178452610969543,-0.3153057098388672,0.8472320437431335
1683928223269109500,11.406109619140626,0.6241925358772278,-0.08547496795654297,0.6494156122207642
1683928223279151900,11.41615185546875,0.4551125764846802,0.04630851745605469,0.30782127380371094
1683928223289194200,11.4261943359375,0.32412466406822205,0.05859851837158203,0.020215511322021484
1683928223299236600,11.436236572265624,0.2727944254875183,-0.0627756118774414,-0.1718595027923584
1683928223309278700,11.44627880859375,0.29027998447418213,-0.191070556640625,-0.3058983087539673
1683928223319321000,11.456321044921875,0.2894976735115051,-0.2736930847167969,-0.30354416370391846
1683928223329363500,11.466363525390625,0.26059040427207947,-0.39207935333251953,-0.33633577823638916
1683928223339405800,11.47640576171875,0.17732137441635132,-0.31228160858154297,-0.2956942319869995
1683928223349448200,11.4864482421875,0.09283146262168884,-0.15877723693847656,-0.21395277976989746
1683928223359490600,11.496490478515625,0.01293402910232544,0.06823539733886719,-0.262859582901001
1683928223369532700,11.50653271484375,-0.03546050190925598,0.3039989471435547,-0.2981158494949341
1683928223379575000,11.516574951171876,-0.08248589932918549,0.40281009674072266,-0.34100615978240967
1683928223389617400,11.526617431640625,-0.05374071002006531,0.5917901992797852,-0.381369948387146
1683928223399659800,11.53665966796875,0.031135201454162598,0.875701904296875,-0.3321397304534912
1683928223409702100,11.5467021484375,0.061517417430877686,1.1830129623413086,-0.3742612600326538
1683928223419744500,11.55674462890625,0.15409576892852783,0.7998466491699219,-0.3484262228012085
1683928223429786600,11.56678662109375,0.38723793625831604,-0.09337425231933594,-0.2889336347579956
1683928223439829000,11.5768291015625,0.6685665845870972,-0.7151966094970703,-0.29097020626068115
1683928223449871400,11.586871337890624,0.8131890296936035,-1.0284223556518555,-0.02840423583984375
1683928223459913700,11.596913818359376,0.8440498113632202,-0.9764242172241211,0.22308886051177979
1683928223469956000,11.6069560546875,0.8547368049621582,-0.7366600036621094,0.48436951637268066
1683928223479998500,11.61699853515625,0.8636118173599243,-0.35216712951660156,0.6769719123840332
1683928223490040800,11.627040771484374,0.9221829175949097,-0.05960369110107422,0.7429553270339966
1683928223500083000,11.6370830078125,0.9731674194335938,0.10293388366699219,0.7449766397476196
1683928223510125300,11.647125244140625,0.9608897566795349,0.19320392608642578,0.7971324920654297
1683928223520167700,11.657167724609375,0.8772869110107422,0.2379474639892578,0.747667670249939
1683928223530210000,11.6672099609375,0.788595974445343,0.19442462921142578,0.6585739850997925
1683928223540252400,11.67725244140625,0.6859644651412964,0.1558675765991211,0.5163252353668213
1683928223550294800,11.687294677734375,0.5963294506072998,0.12218761444091797,0.4218144416809082
1683928223560337000,11.6973369140625,0.5295404195785522,0.07661247253417969,0.3656189441680908
1683928223570379300,11.707379150390626,0.4569621682167053,0.014272689819335938,0.32429027557373047
1683928223580421600,11.717421630859375,0.440568745136261,-0.062493324279785156,0.32921135425567627
1683928223590464000,11.727464111328125,0.42693063616752625,-0.13218975067138672,0.36353540420532227
1683928223600506400,11.73750634765625,0.4421527683734894,-0.1759166717529297,0.4255349636077881
1683928223610548700,11.747548828125,0.42588719725608826,-0.2852821350097656,0.574272871017456
1683928223620590800,11.7575908203125,0.41949263215065,-0.33460521697998047,0.7606165409088135
1683928223630633200,11.76763330078125,0.4289901554584503,-0.3931617736816406,0.9605398178100586
1683928223640675600,11.777675537109374,0.48284652829170227,-0.5686445236206055,1.1979622840881348
1683928223650718000,11.787718017578126,0.5554271340370178,-0.8798255920410156,1.3737987279891968
1683928223660760300,11.79776025390625,0.6502126455307007,-1.2285871505737305,1.535365343093872
1683928223670802700,11.807802734375,0.715394139289856,-1.4800262451171875,1.680128574371338
1683928223680844800,11.8178447265625,0.754534900188446,-1.631270408630371,1.8198301792144775
1683928223690887200,11.82788720703125,0.7522533535957336,-1.619955062866211,1.864554762840271
1683928223700929500,11.837929443359375,0.6969008445739746,-1.6996889114379883,1.858163595199585
1683928223710972000,11.847971923828124,0.6934188604354858,-1.7301254272460938,1.7036323547363281
1683928223721014300,11.85801416015625,0.6826157569885254,-1.8166170120239258,1.6455450057983398
1683928223731056600,11.868056640625,0.6813609600067139,-1.781667709350586,1.6621463298797607
1683928223741099000,11.87809912109375,0.7003540992736816,-1.5345773696899414,1.5180532932281494
1683928223751141000,11.88814111328125,0.6283702850341797,-1.1338071823120117,1.1751517057418823
1683928223761183500,11.89818359375,0.48426544666290283,-0.7098512649536133,0.7599843740463257
1683928223771225900,11.908225830078125,0.3057709038257599,-0.4064922332763672,0.503631591796875
1683928223781268200,11.918268310546875,0.1134878545999527,-0.04130363464355469,0.28604650497436523
1683928223791310600,11.928310546875,-0.22406601905822754,0.37008094787597656,0.07079768180847168
1683928223801353000,11.93835302734375,-0.9551181197166443,0.841832160949707,-0.502906084060669
1683928223811395000,11.94839501953125,-2.0946340560913086,1.1002492904663086,-1.2301111221313477
1683928223821437400,11.9584375,-3.3938486576080322,1.1448192596435547,-1.8156344890594482
1683928223831479800,11.968479736328124,-4.406708240509033,1.1407194137573242,-1.9746918678283691
1683928223841522200,11.978522216796875,-4.6186604499816895,1.0903501510620117,-1.7805795669555664
1683928223851564500,11.988564453125,-3.6536521911621094,0.9975481033325195,-1.2505412101745605
1683928223861606700,11.998606689453124,-1.8733656406402588,0.9066381454467773,-0.7668368816375732
1683928223871649000,12.00864892578125,-0.1895596981048584,0.83416748046875,-0.40833282470703125
1683928223881691400,12.01869140625,0.972068190574646,0.7449817657470703,-0.034919023513793945
1683928223891733800,12.028733642578125,1.4925391674041748,0.5950193405151367,0.29138731956481934
1683928223901776100,12.038776123046874,1.5575435161590576,0.406951904296875,0.3241448402404785
1683928223911818500,12.048818603515626,1.4437968730926514,0.20992183685302734,0.07219398021697998
1683928223921860600,12.058860595703125,1.309051513671875,0.01839447021484375,-0.227691650390625
1683928223931903000,12.068903076171875,1.2187376022338867,-0.10544967651367188,-0.5349575281143188
1683928223941945300,12.0789453125,1.1387050151824951,-0.15900421142578125,-0.8145506381988525
1683928223951987700,12.08898779296875,1.03947114944458,-0.17104244232177734,-1.0966497659683228
1683928223962030000,12.099030029296875,0.8847403526306152,-0.20162391662597656,-1.495831847190857
1683928223972072400,12.109072509765625,0.701320469379425,-0.3344564437866211,-1.8407968282699585
1683928223982114600,12.119114501953124,0.5970962047576904,-0.47837352752685547,-2.046029567718506
1683928223992157000,12.129156982421875,0.6618802547454834,-0.4898509979248047,-2.090118169784546
1683928224002199300,12.13919921875,0.8562188744544983,-0.46234703063964844,-2.0436668395996094
1683928224012241700,12.14924169921875,0.9998689889907837,-0.4077901840209961,-1.9203109741210938
1683928224022284000,12.159283935546876,1.0663690567016602,-0.3952360153198242,-1.7446494102478027
1683928224032326400,12.169326416015625,1.0176241397857666,-0.29775333404541016,-1.5392426252365112
1683928224042368500,12.179368408203125,0.8633348941802979,-0.12012863159179688,-1.2643660306930542
1683928224052411000,12.189410888671874,0.6163079738616943,0.025076866149902344,-1.0275707244873047
1683928224062453200,12.199453369140626,0.37333643436431885,0.19499969482421875,-0.7639590501785278
1683928224072495600,12.20949560546875,0.13788330554962158,0.25080013275146484,-0.5545482635498047
1683928224082538000,12.2195380859375,-0.04899764060974121,0.3524169921875,-0.41227054595947266
1683928224092580400,12.229580322265624,-0.1986987590789795,0.5038270950317383,-0.3839111328125
1683928224102622500,12.23962255859375,-0.26788222789764404,0.6946868896484375,-0.38678407669067383
1683928224112664800,12.249664794921875,-0.16148006916046143,0.9388236999511719,-0.6352101564407349
1683928224122707200,12.259707275390625,0.007601737976074219,1.1046380996704102,-0.8360213041305542
1683928224132749600,12.26974951171875,0.2032102346420288,1.1806697845458984,-1.0265944004058838
1683928224142792000,12.2797919921875,0.4162670373916626,1.1558523178100586,-1.1899983882904053
1683928224152834300,12.289834228515625,0.5449411273002625,1.0667266845703125,-1.322756290435791
1683928224162876400,12.29987646484375,0.36691832542419434,0.9631061553955078,-1.4469077587127686
1683928224172918800,12.309918701171876,0.06465184688568115,0.7547483444213867,-1.4728014469146729
1683928224182961200,12.319961181640625,-0.22230267524719238,0.4880990982055664,-1.3719024658203125
1683928224193003500,12.33000341796875,-0.5775070190429688,0.39667606353759766,-1.3337033987045288
1683928224203046000,12.3400458984375,-0.9746237993240356,0.2286052703857422,-1.1669152975082397
1683928224213088300,12.350088134765626,-1.3416593074798584,-0.009203910827636719,-0.8619954586029053
1683928224223130400,12.36013037109375,-1.5567647218704224,-0.18314552307128906,-0.5514137744903564
1683928224233172700,12.3701728515625,-1.5612894296646118,-0.2864236831665039,-0.2574479579925537
1683928224243215000,12.380215087890624,-1.3630127906799316,-0.3359508514404297,-0.10697758197784424
1683928224253257500,12.390257568359376,-0.9835913181304932,-0.3411846160888672,0.04613053798675537
1683928224263299800,12.4002998046875,-0.4894111156463623,-0.41142845153808594,0.28203845024108887
1683928224273342000,12.410342041015625,-0.027403712272644043,-0.4479408264160156,0.4389733672142029
1683928224283384300,12.42038427734375,0.15064871311187744,-0.5842781066894531,0.6256784200668335
1683928224293426700,12.4304267578125,0.09656679630279541,-0.6318387985229492,0.618254542350769
1683928224303469000,12.440468994140625,0.0724407434463501,-0.5603704452514648,0.4180070459842682
1683928224313511400,12.450511474609375,0.0856773853302002,-0.32993316650390625,-0.01184999942779541
1683928224323553800,12.4605537109375,0.10902941226959229,0.09493732452392578,-0.644831657409668
1683928224333596000,12.470595947265625,0.11835181713104248,0.4487190246582031,-1.0879524946212769
1683928224343638300,12.48063818359375,0.1467752456665039,0.683873176574707,-1.414413571357727
1683928224353680600,12.4906806640625,0.21016144752502441,0.774571418762207,-1.5537762641906738
1683928224363723000,12.500722900390626,0.29529881477355957,0.9005861282348633,-1.527608871459961
1683928224373765400,12.510765380859375,0.377673864364624,0.9832134246826172,-1.386383056640625
1683928224383807700,12.520807861328125,0.45243561267852783,1.0083589553833008,-1.200466275215149
1683928224393849900,12.530849853515624,0.48693037033081055,0.9737157821655273,-0.8754942417144775
1683928224403892200,12.540892333984376,0.5030112266540527,0.9415998458862305,-0.542733371257782
1683928224413934600,12.5509345703125,0.5076613426208496,0.835719108581543,-0.3061128854751587
