time,seconds_elapsed,z,y,x
1683935873020753400,0.03275341796875,0,0,0
1683935873030794500,0.04279443359375,0.06186246871948242,-0.03079986572265625,-0.04678022861480713
1683935873040835600,0.052835693359375,0.036156654357910156,0.10514307022094727,0.19063830375671387
1683935873050877000,0.062876953125,-0.25829267501831055,-0.19249629974365234,-0.1517122983932495
1683935873060918000,0.07291796875,-0.46567201614379883,-0.030958175659179688,-0.2707536220550537
1683935873070959400,0.08295947265625,-0.02551126480102539,-0.446901798248291,-0.586182713508606
1683935873081000400,0.09300048828125,1.1067452430725098,-0.6405854225158691,-0.3376121520996094
1683935873091041800,0.103041748046875,1.292353630065918,-0.611107349395752,-0.6050180196762085
1683935873101083000,0.113082763671875,0.6147670745849609,-0.8904247283935547,-1.0081268548965454
1683935873111124000,0.1231240234375,0.33333587646484375,-0.7750353813171387,-0.5917872190475464
1683935873121165300,0.133165283203125,0.870732307434082,1.0258522033691406,0.1434767246246338
1683935873131206400,0.143206298828125,0.2474193572998047,-0.5994091033935547,0.8282668590545654
1683935873141247700,0.153247802734375,0.3354320526123047,0.06574821472167969,1.0055744647979736
1683935873151288800,0.163288818359375,0.2715282440185547,0.3181724548339844,0.9024522304534912
1683935873161330000,0.173329833984375,0.0049266815185546875,-0.07133817672729492,0.73445725440979
1683935873171371300,0.183371337890625,-0.561711311340332,0.6910319328308105,0.43776941299438477
1683935873181412400,0.193412353515625,-1.0779681205749512,0.2521967887878418,0.21019935607910156
1683935873191453700,0.20345361328125,-1.6135902404785156,0.2279829978942871,0.3526928424835205
1683935873201494800,0.213494873046875,-1.2832388877868652,0.4031538963317871,-0.05109357833862305
1683935873211536100,0.2235361328125,-1.4032468795776367,-0.540196418762207,0.0922701358795166
1683935873221577200,0.2335771484375,-2.6339826583862305,0.08616304397583008,-0.18852472305297852
1683935873231618300,0.243618408203125,-5.706448554992676,0.33202505111694336,0.8928077220916748
1683935873241659600,0.25365966796875,-1.3696422576904297,0.46375179290771484,1.5567398071289062
1683935873251700700,0.26370068359375,0.3293485641479492,0.15164756774902344,1.1062932014465332
1683935873261742000,0.2737421875,-0.22723007202148438,1.0457453727722168,-0.18868780136108398
1683935873271783200,0.283783203125,-1.4333443641662598,-0.0007104873657226562,0.10227584838867188
1683935873281824500,0.293824462890625,-0.9011235237121582,0.36518144607543945,-0.026729583740234375
1683935873291865600,0.303865478515625,-0.45505523681640625,0.2573080062866211,-1.0796029567718506
1683935873301906700,0.31390673828125,-0.098724365234375,0.05035400390625,-1.1202492713928223
1683935873311948000,0.323947998046875,0.6397819519042969,-0.2426290512084961,-1.1026482582092285
1683935873321989000,0.333989013671875,0.9957103729248047,-0.49482154846191406,-1.0481958389282227
1683935873332030500,0.344030517578125,1.2322077751159668,-0.4978818893432617,-1.0473928451538086
1683935873342071600,0.354071533203125,1.7464704513549805,-0.7193212509155273,-1.1539511680603027
1683935873352113000,0.36411279296875,1.6893587112426758,-0.2503647804260254,-1.1046457290649414
1683935873362154000,0.374154052734375,-2.4197888374328613,0.45317554473876953,0.5248284339904785
1683935873372195000,0.384195068359375,-0.5046143531799316,1.0953044891357422,0.4620227813720703
1683935873382236400,0.394236328125,1.9530234336853027,0.746819019317627,0.0967097282409668
1683935873392277500,0.404277587890625,2.9274697303771973,0.3535776138305664,-0.3950338363647461
1683935873402318800,0.41431884765625,1.6527838706970215,0.2890911102294922,-0.7816171646118164
1683935873412360000,0.42435986328125,0.7149410247802734,0.3383946418762207,-1.2239108085632324
1683935873422401300,0.4344013671875,3.8884830474853516,0.326108455657959,-1.5396099090576172
1683935873432442400,0.4444423828125,-0.9147553443908691,-0.5822052955627441,-2.404122829437256
1683935873442483500,0.4544833984375,2.0234522819519043,0.7284145355224609,-2.711367130279541
1683935873452524800,0.46452490234375,1.997373104095459,0.2324666976928711,-0.03623008728027344
1683935873462566000,0.47456591796875,4.640902996063232,1.3303632736206055,2.518108367919922
1683935873472607200,0.484607177734375,3.870748519897461,1.106783151626587,4.069913864135742
1683935873482648300,0.4946484375,-2.307872772216797,1.0626044273376465,1.03016996383667
1683935873492689700,0.504689697265625,-5.964859485626221,1.4485666751861572,-0.809450626373291
1683935873502730800,0.514730712890625,-7.551754951477051,1.715846061706543,-0.9556455612182617
1683935873512771800,0.524771728515625,-6.147672653198242,1.8859689235687256,0.38076019287109375
1683935873522813200,0.534813232421875,-3.8303112983703613,1.6394755840301514,1.204228401184082
1683935873532854300,0.544854248046875,-2.0304746627807617,1.1794910430908203,1.3436698913574219
1683935873542895600,0.5548955078125,-0.5624113082885742,0.6577053070068359,0.47553253173828125
1683935873552936700,0.564936767578125,0.8665566444396973,-0.19876694679260254,-0.539891242980957
1683935873562978000,0.57497802734375,1.3722264766693115,-0.15484333038330078,-1.306450366973877
1683935873573019100,0.58501904296875,1.2240879535675049,-0.22211503982543945,-2.0465316772460938
1683935873583060200,0.595060302734375,0.893902063369751,0.21282410621643066,-2.1290969848632812
1683935873593101600,0.6051015625,0.5372002124786377,0.33374738693237305,-2.0672388076782227
1683935873603142700,0.615142578125,0.2199106216430664,0.4759032726287842,-1.756354808807373
1683935873613184000,0.62518408203125,0.3749387264251709,0.24513936042785645,-1.670130729675293
1683935873623225000,0.63522509765625,0.5679957866668701,-0.21712970733642578,-1.2013769149780273
1683935873633266400,0.645266357421875,0.03104698657989502,-0.11724567413330078,-1.2693452835083008
1683935873643307500,0.6553076171875,-0.8192536234855652,-0.041545867919921875,-1.1523442268371582
1683935873653348600,0.6653486328125,-0.934237003326416,0.024975061416625977,-1.8758163452148438
1683935873663390000,0.675389892578125,-0.705527663230896,-0.23398780822753906,-1.8103117942810059
1683935873673431000,0.68543115234375,-0.5144985318183899,0.08507490158081055,-1.8421225547790527
1683935873683472400,0.695472412109375,-0.027313590049743652,-0.07341122627258301,-1.747756004333496
1683935873693513500,0.705513427734375,0.7804417610168457,0.016628742218017578,-1.415992259979248
1683935873703554800,0.715554931640625,1.1636391878128052,0.20714807510375977,-1.2227020263671875
1683935873713596000,0.725595947265625,1.1532741785049438,0.2387220859527588,-1.5285043716430664
1683935873723637200,0.73563720703125,0.5683922171592712,0.21234822273254395,-1.646336555480957
1683935873733678300,0.74567822265625,0.3683457374572754,0.4711039066314697,-1.6361408233642578
1683935873743719400,0.755719482421875,-0.4391292929649353,0.48693275451660156,-1.5365781784057617
1683935873753760800,0.7657607421875,-1.2218608856201172,0.35947680473327637,-1.3747282028198242
1683935873763801900,0.7758017578125,-0.8908522129058838,0.21713805198669434,-1.0280375480651855
1683935873773843200,0.78584326171875,0.021934539079666138,0.10919904708862305,-0.2998180389404297
1683935873783884300,0.79588427734375,0.8919960260391235,-0.41654443740844727,0.6764736175537109
1683935873793925600,0.805925537109375,1.3195983171463013,-0.8865299224853516,1.3602991104125977
1683935873803966700,0.815966796875,1.9181625843048096,-0.8147673606872559,2.6728639602661133
1683935873814007800,0.8260078125,2.3544209003448486,-0.39492273330688477,3.263394355773926
1683935873824049200,0.836049072265625,3.0111899375915527,-0.8159012794494629,3.4626388549804688
1683935873834090200,0.84609033203125,2.4499318599700928,-0.8679952621459961,3.7050857543945312
1683935873844131600,0.856131591796875,0.8828015327453613,-0.6143708229064941,4.1152496337890625
1683935873854172700,0.866172607421875,-0.7287846207618713,-0.28954410552978516,3.5738039016723633
1683935873864214000,0.876214111328125,-5.4852213859558105,-0.5662059783935547,2.38320255279541
1683935873874255000,0.886255126953125,-4.86716890335083,0.03102397918701172,0.3022441864013672
1683935873884296200,0.896296142578125,-2.0437228679656982,-0.4135165214538574,0.21541213989257812
1683935873894337500,0.906337646484375,-0.04424452781677246,-0.7492127418518066,0.8173589706420898
1683935873904379000,0.91637890625,0.7776052951812744,-0.5201010704040527,1.2539887428283691
1683935873914420000,0.926419921875,0.8773674368858337,0.05968189239501953,1.0080180168151855
1683935873924461000,0.9364609375,0.4528682231903076,0.46859025955200195,0.7444610595703125
1683935873934502400,0.94650244140625,-0.02194070816040039,0.24985885620117188,0.2073054313659668
1683935873944543500,0.95654345703125,-0.13506674766540527,0.5260310173034668,-1.1763038635253906
1683935873954584800,0.966584716796875,-0.7053472995758057,-0.030225276947021484,-0.5169429779052734
1683935873964626000,0.9766259765625,-0.9732052087783813,0.8941073417663574,-0.8218121528625488
1683935873974667300,0.986667236328125,-2.1037533283233643,0.8041915893554688,1.4474587440490723
1683935873984708400,0.996708251953125,-0.2699055075645447,-0.7256369590759277,0.32402467727661133
1683935873994749400,1.00674951171875,0.4053390622138977,0.051316261291503906,0.8229165077209473
1683935874004790800,1.016790771484375,0.8786876201629639,0.25076913833618164,1.4169983863830566
1683935874014831900,1.026831787109375,1.2568128108978271,0.10904550552368164,1.854823112487793
1683935874024873200,1.036873291015625,1.109358310699463,-0.19952917098999023,1.649643898010254
1683935874034914300,1.046914306640625,0.868738055229187,-0.1717376708984375,1.7885961532592773
1683935874044955600,1.05695556640625,1.1966304779052734,0.47127437591552734,1.1296558380126953
1683935874054996700,1.066996826171875,0.16304035484790802,-0.7439661026000977,0.6572623252868652
1683935874065037800,1.077037841796875,-1.215598225593567,-1.0497207641601562,-0.09845733642578125
1683935874075079200,1.0870791015625,-1.373598337173462,-0.7451105117797852,-0.5557112693786621
1683935874085120300,1.097120361328125,-0.6864471435546875,-0.7245521545410156,-0.2252941131591797
1683935874095161600,1.10716162109375,-0.10298223048448563,-0.9927983283996582,0.2410430908203125
1683935874105202700,1.11720263671875,0.41014206409454346,-1.5876245498657227,0.36266326904296875
1683935874115244000,1.127244140625,0.026429519057273865,-1.8741645812988281,-0.04381132125854492
1683935874125285000,1.13728515625,-0.21983036398887634,-1.8557419776916504,-0.8656320571899414
1683935874135326500,1.147326416015625,-0.6812400817871094,-1.5097556114196777,-1.2295589447021484
1683935874145367600,1.157367431640625,-0.19996356964111328,-1.327578067779541,-0.8726487159729004
1683935874155408600,1.16740869140625,0.02113896608352661,-1.6069469451904297,-0.2870163917541504
1683935874165450000,1.177449951171875,0.4723381996154785,-1.4541287422180176,-0.13953495025634766
1683935874175491000,1.187490966796875,0.16752579808235168,-1.2228584289550781,-0.425936222076416
1683935874185532400,1.197532470703125,0.01593431830406189,-0.9174485206604004,-0.042612552642822266
1683935874195573500,1.207573486328125,-0.11950650811195374,-0.8042211532592773,0.17192554473876953
1683935874205614800,1.21761474609375,-0.098181813955307,-0.6066093444824219,0.30420446395874023
1683935874215656000,1.227656005859375,-0.009000033140182495,-0.3755154609680176,0.4585556983947754
1683935874225697000,1.237697021484375,-0.10211217403411865,0.0623326301574707,0.32621240615844727
1683935874235738400,1.24773828125,-0.17939484119415283,0.1830458641052246,0.3870887756347656
1683935874245779500,1.257779541015625,0.05752897262573242,0.8857669830322266,0.9881253242492676
1683935874255820800,1.26782080078125,-0.17442965507507324,1.265176773071289,0.5520191192626953
1683935874265862000,1.27786181640625,-0.33242928981781006,0.9385886192321777,0.501312255859375
1683935874275903200,1.2879033203125,-0.4107680916786194,1.0421719551086426,0.6450753211975098
1683935874285944300,1.2979443359375,-0.1050339937210083,1.6575026512145996,1.5696077346801758
1683935874295985700,1.307985595703125,0.0636877715587616,1.4831047058105469,0.8285107612609863
1683935874306026800,1.31802685546875,-0.007990121841430664,1.0945091247558594,0.608917236328125
1683935874316068000,1.328068115234375,-0.29040247201919556,0.9175748825073242,1.3080859184265137
1683935874326109200,1.338109130859375,-0.4981134533882141,0.816586971282959,1.060603141784668
1683935874336150300,1.348150390625,-0.38871508836746216,0.7966709136962891,1.0338053703308105
1683935874346191600,1.358191650390625,-0.16578972339630127,1.1935529708862305,1.2398910522460938
1683935874356232700,1.368232666015625,-0.04589015245437622,1.5239720344543457,0.9928169250488281
1683935874366274000,1.378274169921875,-0.15516173839569092,1.6704001426696777,-0.058901309967041016
1683935874376315100,1.388315185546875,-0.2275937795639038,0.9175963401794434,-0.8088340759277344
1683935874386356500,1.3983564453125,-0.5216149687767029,0.42064523696899414,-1.659468650817871
1683935874396397600,1.4083974609375,-0.9614074230194092,-0.3146395683288574,-2.2909274101257324
1683935874406439000,1.41843896484375,-0.7436243295669556,0.28299570083618164,-2.2183890342712402
1683935874416480000,1.42847998046875,0.7507638931274414,0.4411287307739258,-1.4803338050842285
1683935874426521000,1.43852099609375,0.9432634115219116,-0.5973920822143555,-1.798886775970459
1683935874436562400,1.4485625,0.7632648944854736,-1.838057041168213,-2.4395694732666016
1683935874446603500,1.458603515625,-0.04442012310028076,-3.0212769508361816,-1.9359469413757324
1683935874456644900,1.468644775390625,-0.6774901151657104,-3.770294666290283,-1.4980196952819824
1683935874466686000,1.47868603515625,-0.5892750024795532,-3.399008274078369,-1.4605321884155273
1683935874476727300,1.488727294921875,-0.21959853172302246,-2.379140853881836,-2.146707534790039
1683935874486768400,1.498768310546875,-0.17994701862335205,-3.3275976181030273,-1.976813793182373
1683935874496809700,1.508809814453125,0.12928760051727295,-4.711755752563477,-0.15567636489868164
1683935874506850800,1.518850830078125,1.3792121410369873,-2.464782238006592,-1.0638232231140137
1683935874516892200,1.52889208984375,1.843546986579895,-0.28404903411865234,-2.3587818145751953
1683935874526933200,1.538933349609375,1.1203112602233887,-0.35637760162353516,-2.209550380706787
1683935874536974300,1.548974365234375,0.6295980215072632,-0.5732650756835938,-0.7426319122314453
1683935874547015700,1.559015625,0.11169171333312988,-1.125823974609375,-0.1897144317626953
1683935874557056800,1.569056884765625,-0.462682843208313,-1.1268248558044434,-0.8612031936645508
1683935874567098000,1.57909814453125,-0.763513445854187,-1.4104318618774414,-1.1996426582336426
1683935874577139200,1.58913916015625,-0.006606101989746094,-0.8678879737854004,-0.808967113494873
1683935874587180500,1.5991806640625,1.736572027206421,-0.49556636810302734,-0.5317244529724121
1683935874597221600,1.6092216796875,2.549708127975464,0.37166261672973633,-1.418604850769043
1683935874607263000,1.619262939453125,2.1035985946655273,-0.2576942443847656,-1.7702064514160156
1683935874617304000,1.629303955078125,1.8452494144439697,-0.7947983741760254,-1.5344362258911133
1683935874627345200,1.63934521484375,1.1767199039459229,-1.0591106414794922,-1.1762123107910156
1683935874637386500,1.649386474609375,-2.4000368118286133,-0.5763168334960938,0.12073659896850586
1683935874647427600,1.659427490234375,-3.849339485168457,-0.3760204315185547,0.25275278091430664
1683935874657469000,1.669468994140625,-4.064838409423828,2.7885901927948,0.2647433280944824
1683935874667510000,1.679510009765625,-2.4534547328948975,0.32823848724365234,1.2896032333374023
1683935874677551400,1.68955126953125,-1.0075907707214355,-1.1107783317565918,0.1938648223876953
1683935874687592400,1.699592529296875,-0.24850833415985107,-1.9322772026062012,-0.7359886169433594
1683935874697633800,1.7096337890625,-0.084503173828125,-1.7839269638061523,-1.7405600547790527
1683935874707675000,1.7196748046875,-0.19614124298095703,-2.9140067100524902,-1.468576431274414
1683935874717716200,1.72971630859375,-0.09557020664215088,-1.551835060119629,-0.8435101509094238
1683935874727757300,1.73975732421875,0.5746726393699646,0.48962926864624023,-0.08002519607543945
1683935874737798400,1.74979833984375,-0.043599486351013184,0.4173011779785156,-0.11072349548339844
1683935874747839700,1.75983984375,-0.7607711553573608,0.11937952041625977,-0.6823902130126953
1683935874757880800,1.769880859375,-0.7575287818908691,0.05021333694458008,-0.8674201965332031
1683935874767922200,1.779922119140625,-0.45027637481689453,0.19298744201660156,-0.7275710105895996
1683935874777963300,1.78996337890625,-0.17244172096252441,0.3310999870300293,-0.37488889694213867
1683935874788004600,1.800004638671875,-0.09041154384613037,0.35503149032592773,0.042288780212402344
1683935874798045700,1.810045654296875,-0.12306928634643555,0.6701474189758301,0.6509742736816406
1683935874808087000,1.820087158203125,0.10900008678436279,1.426323413848877,-0.06809282302856445
1683935874818128100,1.830128173828125,-0.9383965730667114,1.5278921127319336,0.19566869735717773
1683935874828169200,1.840169189453125,-1.3441379070281982,2.3331212997436523,0.2523770332336426
1683935874838210600,1.85021044921875,-0.9827766418457031,1.6072502136230469,-1.0861930847167969
1683935874848251600,1.860251708984375,-0.6246188879013062,1.388643741607666,-1.6927709579467773
1683935874858293000,1.87029296875,-0.6417490243911743,1.237687110900879,-1.6376733779907227
1683935874868334000,1.880333984375,-0.8749258518218994,0.7234749794006348,-1.7994675636291504
1683935874878375400,1.89037548828125,-0.002853989601135254,0.8831081390380859,-1.741720199584961
1683935874888416500,1.90041650390625,0.22641456127166748,-0.3329949378967285,-1.9813141822814941
1683935874898457900,1.910457763671875,0.23800194263458252,-0.9729347229003906,-1.2685003280639648
1683935874908499000,1.9204990234375,0.1009746789932251,-0.7621192932128906,-0.5840787887573242
1683935874918540300,1.930540283203125,-0.4290804862976074,-0.7656874656677246,0.9489016532897949
1683935874928581400,1.940581298828125,-0.7915595769882202,-1.2257766723632812,2.0268936157226562
1683935874938622700,1.950622802734375,-0.6189578771591187,-1.5272889137268066,2.0291318893432617
1683935874948663800,1.960663818359375,0.02187931537628174,-0.7953405380249023,1.5320520401000977
1683935874958705000,1.970704833984375,0.9956539869308472,-0.38469600677490234,0.45468902587890625
1683935874968746200,1.980746337890625,1.5972555875778198,-0.258331298828125,-0.33624887466430664
1683935874978787300,1.990787353515625,1.6365010738372803,-0.6604390144348145,-0.4968748092651367
1683935874988828700,2.00082861328125,0.9531707763671875,-0.807464599609375,-0.21190309524536133
1683935874998869800,2.010869873046875,0.0776747465133667,-0.13314342498779297,0.2835249900817871
1683935875008911000,2.0209111328125,-0.7753622531890869,0.06077384948730469,0.547581672668457
1683935875018952200,2.0309521484375,-1.354108452796936,0.0688624382019043,-0.04548072814941406
1683935875028993500,2.04099365234375,-1.1068507432937622,0.27302074432373047,-0.3546586036682129
1683935875039034600,2.05103466796875,-0.5204098224639893,0.3787221908569336,-0.3405723571777344
1683935875049076000,2.061075927734375,0.16265487670898438,0.15635108947753906,-0.36007165908813477
1683935875059117000,2.071116943359375,0.500867486000061,0.0604095458984375,-0.19895696640014648
1683935875069158100,2.081158203125,0.8908392190933228,0.29892396926879883,0.07008600234985352
1683935875079199500,2.091199462890625,0.9608702063560486,-0.42383813858032227,-0.7848644256591797
1683935875089240600,2.101240478515625,0.8515462279319763,0.25217390060424805,-0.10951757431030273
1683935875099282000,2.111281982421875,0.07951319217681885,0.13451051712036133,-0.0834798812866211
1683935875109323000,2.121322998046875,-0.04260754585266113,0.0942087173461914,-0.1987624168395996
1683935875119364400,2.1313642578125,0.17934298515319824,0.38128232955932617,0.082061767578125
1683935875129405400,2.141405517578125,0.42506879568099976,1.2590603828430176,-0.057276248931884766
1683935875139446800,2.15144677734375,-0.10873985290527344,1.654472827911377,-0.6394009590148926
1683935875149487900,2.16148779296875,-0.7003785371780396,1.6778497695922852,-0.16085147857666016
1683935875159529200,2.171529296875,-1.036555528640747,1.0204143524169922,0.06313800811767578
1683935875169570300,2.1815703125,-1.1511205434799194,0.05681562423706055,-0.15673112869262695
1683935875179611600,2.191611572265625,-1.1823800802230835,-0.10078287124633789,-0.07604026794433594
1683935875189652700,2.20165283203125,-0.8386900424957275,-0.42690181732177734,-1.2044167518615723
1683935875199693800,2.21169384765625,-0.6181140542030334,0.1636033058166504,-1.3196277618408203
1683935875209735200,2.221735107421875,-0.5944229960441589,0.14222955703735352,-0.7545027732849121
1683935875219776300,2.2317763671875,-0.6438029408454895,0.8600955009460449,-0.013949394226074219
1683935875229817600,2.241817626953125,0.18336451053619385,-0.7163844108581543,0.5570049285888672
1683935875239858700,2.251858642578125,-0.02798515558242798,0.15142202377319336,0.9033203125
1683935875249900000,2.261900146484375,-0.6387150287628174,0.30214691162109375,1.296374797821045
1683935875259941000,2.271941162109375,-0.8290393352508545,0.26977109909057617,0.8422303199768066
1683935875269982500,2.281982421875,-0.8169710636138916,0.2890028953552246,0.03415489196777344
1683935875280023600,2.2920234375,-0.7999798655509949,0.25197458267211914,-0.37403059005737305
1683935875290065000,2.30206494140625,-0.9074531197547913,0.6278114318847656,0.5800337791442871
1683935875300106000,2.31210595703125,-0.792402982711792,-0.002529621124267578,1.045358657836914
1683935875310147300,2.322147216796875,-0.8648896217346191,0.23944330215454102,1.3257460594177246
1683935875320188400,2.3321884765625,-0.06170088052749634,0.7382020950317383,1.616128921508789
1683935875330229500,2.3422294921875,0.08069685101509094,0.36470556259155273,2.274968147277832
1683935875340270800,2.352270751953125,-0.6024821400642395,-0.47608518600463867,2.411591053009033
1683935875350312000,2.36231201171875,-1.049103021621704,0.9621949195861816,2.181166172027588
1683935875360353300,2.372353271484375,-2.3621327877044678,0.3658456802368164,1.6095037460327148
1683935875370394400,2.382394287109375,-3.180434226989746,0.022848129272460938,1.336479663848877
1683935875380435700,2.392435791015625,-2.8639519214630127,-0.21657657623291016,1.2009592056274414
1683935875390476800,2.402476806640625,-1.5516914129257202,-0.6298723220825195,0.6682605743408203
1683935875400518100,2.41251806640625,-0.11049765348434448,-0.9923882484436035,-0.3209877014160156
1683935875410559200,2.422559326171875,1.280491590499878,-0.9499120712280273,-0.43453407287597656
1683935875420600600,2.4326005859375,2.310883045196533,-0.7871732711791992,-1.4802842140197754
1683935875430641700,2.4426416015625,1.99924898147583,-1.0069923400878906,-2.2620372772216797
1683935875440682800,2.452682861328125,1.6556228399276733,-0.291532039642334,-2.556295871734619
1683935875450724000,2.46272412109375,0.7779533863067627,0.06846189498901367,-2.1735854148864746
1683935875460765200,2.47276513671875,-0.2842395007610321,0.3385467529296875,-2.035144329071045
1683935875470806500,2.482806640625,1.0180506706237793,0.806304931640625,-0.8450226783752441
1683935875480847600,2.49284765625,1.8067271709442139,1.3560514450073242,0.2209000587463379
1683935875490889000,2.502888916015625,1.7771859169006348,0.5743904113769531,0.4995098114013672
1683935875500930000,2.512929931640625,0.9803141355514526,-0.7607455253601074,0.43303489685058594
1683935875510971400,2.522971435546875,-1.6174094676971436,-2.7965192794799805,0.08800792694091797
1683935875521012500,2.533012451171875,-2.2287955284118652,-1.0373506546020508,-0.5622129440307617
1683935875531053800,2.5430537109375,-1.039335012435913,0.6965384483337402,0.5984354019165039
1683935875541095000,2.553094970703125,0.056171298027038574,0.0330352783203125,0.7940068244934082
1683935875551136300,2.56313623046875,0.4284334182739258,-1.3361692428588867,0.6512622833251953
1683935875561177300,2.57317724609375,0.9956337213516235,0.6414203643798828,-0.558804988861084
1683935875571218400,2.583218505859375,1.7928004264831543,0.7781567573547363,-0.5506415367126465
1683935875581259800,2.593259765625,1.7313965559005737,0.17685174942016602,-0.6421294212341309
1683935875591301000,2.603301025390625,1.02217698097229,0.14484119415283203,-0.8496928215026855
1683935875601342200,2.61334228515625,0.8537248373031616,0.33724546432495117,-0.33956193923950195
1683935875611383300,2.62338330078125,0.778973400592804,0.05183124542236328,0.36968088150024414
1683935875621424600,2.633424560546875,0.44005087018013,-0.36171960830688477,-0.39728832244873047
1683935875631465700,2.6434658203125,0.5693451762199402,-0.3605213165283203,-0.04622936248779297
1683935875641507000,2.653507080078125,0.33424967527389526,-0.8217196464538574,0.35378551483154297
1683935875651548200,2.663548095703125,-1.125032901763916,-3.645918369293213,0.19918060302734375
1683935875661589500,2.673589599609375,-0.6692796945571899,-0.07552003860473633,-1.0572400093078613
1683935875671630600,2.683630615234375,0.31940338015556335,1.4377684593200684,-0.33547019958496094
1683935875681672000,2.693671875,0.3504762649536133,2.853158950805664,-1.6310486793518066
1683935875691713000,2.703713134765625,0.46401160955429077,1.0728683471679688,-0.5072817802429199
1683935875701754400,2.71375439453125,0.8316496014595032,-0.35366249084472656,0.2945566177368164
1683935875711795500,2.72379541015625,0.8130245208740234,-1.3210430145263672,0.6523556709289551
1683935875721836800,2.7338369140625,0.6332926750183105,-1.1936182975769043,0.3754386901855469
1683935875731878000,2.7438779296875,0.2780650556087494,-0.5022001266479492,-0.2529945373535156
1683935875741919000,2.7539189453125,0.1685330867767334,-0.08794784545898438,-1.065535068511963
1683935875751960300,2.763960205078125,-0.04133296012878418,0.14162969589233398,-1.5602574348449707
1683935875762001400,2.77400146484375,-0.4155621826648712,-0.11613988876342773,-1.8728561401367188
1683935875772042800,2.784042724609375,-0.13426947593688965,-0.043849945068359375,-1.3774142265319824
1683935875782083800,2.794083740234375,0.18793034553527832,-0.2122201919555664,-1.106818675994873
1683935875792125200,2.804125244140625,0.46780991554260254,-0.5426721572875977,-0.6563644409179688
1683935875802166300,2.814166259765625,0.7605392932891846,-0.7381467819213867,-0.14688587188720703
1683935875812207600,2.82420751953125,0.5715453028678894,-1.5619559288024902,0.4671640396118164
1683935875822248700,2.834248779296875,0.6271453499794006,-0.464996337890625,1.1414399147033691
1683935875832290000,2.8442900390625,1.0856895446777344,-0.0046863555908203125,0.3701004981994629
1683935875842331100,2.8543310546875,1.2549017667770386,0.32471656799316406,-0.6848034858703613
1683935875852372500,2.86437255859375,1.5033161640167236,0.6591739654541016,-1.2748794555664062
1683935875862413600,2.87441357421875,1.1655220985412598,0.12684202194213867,-1.683335304260254
1683935875872455000,2.884454833984375,0.4267506003379822,0.031850337982177734,-1.3699426651000977
1683935875882496000,2.89449609375,0.21812164783477783,-0.28631162643432617,-0.6612849235534668
1683935875892537000,2.904537109375,0.2555554509162903,-0.5093283653259277,-0.3471956253051758
1683935875902578400,2.914578369140625,0.25133413076400757,-0.2415914535522461,-0.6910133361816406
1683935875912619800,2.924619873046875,-0.05715930461883545,-0.09675407409667969,-0.9477686882019043
1683935875922660900,2.934660888671875,-0.2045709490776062,-0.6656885147094727,-0.2352581024169922
1683935875932702000,2.944701904296875,0.251872181892395,-0.7498569488525391,0.3467135429382324
1683935875942743300,2.954743408203125,0.8032993674278259,-0.9058933258056641,0.739769458770752
1683935875952784400,2.964784423828125,1.3039050102233887,-0.6289653778076172,-0.045583248138427734
1683935875962825700,2.97482568359375,0.650816798210144,-1.3303337097167969,1.5240893363952637
1683935875972866800,2.98486669921875,0.41152435541152954,-0.36127567291259766,0.904362678527832
1683935875982908200,2.994908203125,0.5162957310676575,0.30504417419433594,0.4316372871398926
1683935875992949200,3.00494921875,0.02919924259185791,0.039642333984375,-0.2609744071960449
1683935876002990600,3.014990478515625,-0.43527302145957947,-0.73126220703125,-0.7097020149230957
1683935876013031700,3.02503173828125,-0.43748584389686584,0.27593326568603516,-1.2655410766601562
1683935876023073000,3.035072998046875,-0.5255509614944458,0.4920029640197754,-0.5760231018066406
1683935876033114000,3.045114013671875,-0.43109816312789917,0.3218669891357422,-0.5886664390563965
1683935876043155500,3.055155517578125,-0.2502819895744324,0.344085693359375,-0.5114264488220215
1683935876053196500,3.065196533203125,-0.18248677253723145,0.4140148162841797,0.0065288543701171875
1683935876063238000,3.07523779296875,-0.28413110971450806,2.1026697158813477,-2.274158477783203
1683935876073279000,3.085279052734375,0.027621030807495117,0.2370128631591797,-0.5249457359313965
1683935876083320000,3.095320068359375,0.09279167652130127,0.3033924102783203,1.0751423835754395
1683935876093361400,3.105361328125,0.2593480944633484,-0.30529308319091797,2.3472161293029785
1683935876103402500,3.115402587890625,0.5734798312187195,-0.6013154983520508,3.3240184783935547
1683935876113443800,3.12544384765625,1.0298943519592285,-1.1135978698730469,3.3474555015563965
1683935876123485000,3.13548486328125,1.3404901027679443,0.3910837173461914,1.7583613395690918
1683935876133526300,3.1455263671875,1.1379365921020508,-0.4287557601928711,1.1870036125183105
1683935876143567400,3.1555673828125,0.6664530634880066,-0.4231405258178711,1.4145641326904297
1683935876153608700,3.165608642578125,-0.07846224308013916,-0.38202571868896484,1.1913361549377441
1683935876163649800,3.17564990234375,-0.7142256498336792,0.05458545684814453,0.5790586471557617
1683935876173691100,3.185691162109375,-1.4914722442626953,0.3453025817871094,0.05863189697265625
1683935876183732200,3.195732177734375,-2.0858521461486816,0.5578794479370117,-0.02962350845336914
1683935876193773600,3.205773681640625,-2.0099523067474365,0.3454723358154297,0.19185495376586914
1683935876203814700,3.215814697265625,-1.436152458190918,0.41248321533203125,0.509676456451416
1683935876213856000,3.22585595703125,-0.718316912651062,0.5957059860229492,0.5843563079833984
1683935876223897000,3.23589697265625,-0.15653300285339355,0.6238079071044922,0.5171785354614258
1683935876233938400,3.2459384765625,0.2952139377593994,0.7075204849243164,0.3102540969848633
1683935876243979500,3.2559794921875,0.7412165403366089,0.8503484725952148,0.4645233154296875
1683935876254020900,3.266020751953125,1.0073906183242798,0.9558439254760742,0.6603250503540039
1683935876264062000,3.27606201171875,1.2346723079681396,0.6584491729736328,0.8269939422607422
1683935876274103300,3.286103271484375,1.4087671041488647,0.8858470916748047,1.1804261207580566
1683935876284144400,3.296144287109375,1.4935600757598877,0.8582763671875,1.52447509765625
1683935876294185500,3.306185546875,1.2885384559631348,0.5161581039428711,1.504364013671875
1683935876304226800,3.316226806640625,0.9579932689666748,0.6545209884643555,1.6395361423492432
1683935876314268000,3.326267822265625,0.633967399597168,0.8144845962524414,1.8540406227111816
1683935876324309200,3.336309326171875,0.17768049240112305,1.064028263092041,1.733069896697998
1683935876334350300,3.346350341796875,-0.2310783863067627,-0.16004657745361328,1.722428798675537
1683935876344391700,3.3563916015625,-0.234155535697937,-0.6791248321533203,2.2690446376800537
1683935876354432800,3.366432861328125,0.018671929836273193,0.1065988540649414,1.0896778106689453
1683935876364474000,3.37647412109375,-0.18178629875183105,0.26749515533447266,-0.06924867630004883
1683935876374515200,3.38651513671875,-0.2652854323387146,0.5229072570800781,-1.1561527252197266
1683935876384556500,3.396556640625,-0.3607730269432068,0.6647844314575195,-1.9641430377960205
1683935876394597600,3.40659765625,-0.321774423122406,0.8042726516723633,-1.8187777996063232
1683935876404639000,3.416638916015625,1.3363168239593506,0.7891035079956055,-0.12569093704223633
1683935876414680000,3.42668017578125,0.3257937431335449,1.0063772201538086,-0.9974315166473389
1683935876424721400,3.436721435546875,0.6532485485076904,1.2559924125671387,-0.47920751571655273
1683935876434762500,3.446762451171875,1.0143046379089355,1.1260437965393066,-0.32959818840026855
1683935876444803800,3.456803955078125,1.5968260765075684,0.6345415115356445,0.08600497245788574
1683935876454845000,3.466844970703125,2.4873266220092773,0.6072149276733398,0.5276262760162354
1683935876464886300,3.47688623046875,3.531081199645996,0.8080625534057617,0.96061110496521
1683935876474927400,3.48692724609375,3.7979373931884766,0.3503227233886719,1.1349785327911377
1683935876484968400,3.496968505859375,3.312802791595459,0.12903976440429688,1.1400542259216309
1683935876495009800,3.507009765625,2.72662091255188,0.5192651748657227,0.30704426765441895
1683935876505051000,3.51705078125,1.58621084690094,1.742048740386963,-1.7244402170181274
1683935876515092200,3.52709228515625,1.0602290630340576,1.250016212463379,-1.760241985321045
1683935876525133300,3.53713330078125,0.15784388780593872,0.513157844543457,-1.9872052669525146
1683935876535174700,3.547174560546875,-1.0356948375701904,-0.24817371368408203,-1.5365219116210938
1683935876545215700,3.5572158203125,-2.0945074558258057,-0.2815208435058594,-1.4401073455810547
1683935876555257000,3.567257080078125,-3.0489375591278076,-1.3384933471679688,-0.8355631828308105
1683935876565298200,3.577298095703125,-3.7847483158111572,-2.0352230072021484,-0.16977167129516602
1683935876575339500,3.587339599609375,-3.4245238304138184,-2.3648681640625,0.8157815933227539
1683935876585380600,3.597380615234375,-2.798196792602539,-2.500446319580078,2.7703189849853516
1683935876595422000,3.607421875,-1.6802310943603516,-1.9104948043823242,3.5140128135681152
1683935876605463000,3.617463134765625,-0.8003930449485779,-1.6084871292114258,4.331765651702881
1683935876615504400,3.62750439453125,0.00830291211605072,-1.205275535583496,4.849020004272461
1683935876625545500,3.63754541015625,0.18689517676830292,-1.032608985900879,4.19387149810791
1683935876635586800,3.6475869140625,-0.009517259895801544,-0.6382570266723633,3.2523508071899414
1683935876645628000,3.6576279296875,-0.26326102018356323,0.6547098159790039,2.249880313873291
1683935876655669200,3.667669189453125,-0.5615399479866028,0.5160989761352539,0.8504985570907593
1683935876665710300,3.67771044921875,-0.9688555598258972,1.7818098068237305,0.5586730241775513
1683935876675751700,3.687751708984375,-1.2720881700515747,1.6492328643798828,0.1576746702194214
1683935876685792800,3.697792724609375,-1.2222237586975098,1.7043933868408203,0.2788428068161011
1683935876695834000,3.707834228515625,-0.8824888467788696,1.6714725494384766,0.5807121992111206
1683935876705875200,3.717875244140625,-0.3731922209262848,0.9010868072509766,0.8555290699005127
1683935876715916500,3.72791650390625,0.15181294083595276,1.0115280151367188,0.8783625364303589
1683935876725957600,3.73795751953125,0.33625712990760803,1.088881492614746,0.8077325820922852
1683935876735998700,3.747998779296875,0.19487214088439941,-0.1508617401123047,1.3460173606872559
1683935876746040000,3.7580400390625,0.20148557424545288,-0.08604812622070312,1.8032749891281128
1683935876756081200,3.7680810546875,0.14075875282287598,0.6728858947753906,1.7138786315917969
1683935876766122500,3.77812255859375,-0.11169600486755371,0.6479558944702148,1.2235078811645508
1683935876776163600,3.78816357421875,-0.10515642166137695,0.03616046905517578,0.6451464891433716
1683935876786205000,3.798204833984375,0.13927936553955078,-0.49427127838134766,-0.060662031173706055
1683935876796246000,3.80824609375,0.3990262746810913,-0.9064340591430664,-0.6127645373344421
1683935876806287400,3.818287353515625,0.6901106238365173,-1.112936019897461,-1.0968067646026611
1683935876816328400,3.828328369140625,0.9783892035484314,-1.2247209548950195,-1.256504774093628
1683935876826369800,3.838369873046875,1.1486456394195557,-1.1263236999511719,-1.2239463329315186
1683935876836411000,3.848410888671875,1.1248745918273926,-1.07147216796875,-1.1366850137710571
1683935876846452200,3.8584521484375,1.1345852613449097,-1.2155132293701172,-0.8550101518630981
1683935876856493300,3.868493408203125,1.0672729015350342,-1.2164945602416992,-0.6872963905334473
1683935876866534700,3.87853466796875,0.9763845205307007,-1.3786096572875977,-0.347262978553772
1683935876876575700,3.88857568359375,0.8341537714004517,-1.614579200744629,-0.45090675354003906
1683935876886617000,3.8986171875,0.6642791032791138,-1.3562583923339844,-0.2877589464187622
1683935876896658200,3.908658203125,0.3661212921142578,-1.6132230758666992,0.30640745162963867
1683935876906699500,3.918699462890625,0.4532352685928345,-0.23042583465576172,0.22231793403625488
1683935876916740600,3.92874072265625,0.3777129650115967,-0.0988311767578125,-0.8135756254196167
1683935876926782000,3.938781982421875,0.37093234062194824,-0.099822998046875,-1.3968451023101807
1683935876936823000,3.948822998046875,0.3585054874420166,-0.39709949493408203,-1.9538514614105225
1683935876946864400,3.958864501953125,0.5947163105010986,-0.7446365356445312,-2.0509212017059326
1683935876956905500,3.968905517578125,0.9425541162490845,0.0031118392944335938,-1.4929087162017822
1683935876966946600,3.978946533203125,1.0369623899459839,0.34270763397216797,-1.2231440544128418
1683935876976988000,3.98898779296875,0.9448763132095337,0.3848228454589844,-1.216157078742981
1683935876987029200,3.999029296875,0.7893098592758179,0.35451316833496094,-1.1681554317474365
1683935876997070300,4.0090703125,0.5403144359588623,0.41873931884765625,-1.0537158250808716
1683935877007111400,4.019111328125,0.24807250499725342,0.3880748748779297,-0.9854288101196289
1683935877017152800,4.02915283203125,-0.009324789047241211,0.42238903045654297,-0.9130532741546631
1683935877027193900,4.03919384765625,-0.12148714065551758,0.36589813232421875,-0.7371989488601685
1683935877037235200,4.049235107421875,-0.2155461311340332,0.26741886138916016,-0.5834808349609375
1683935877047276300,4.0592763671875,-0.12486457824707031,0.08654403686523438,-0.43514084815979004
1683935877057317600,4.069317626953125,0.0832977294921875,-0.047275543212890625,-0.22859597206115723
1683935877067358700,4.079358642578125,0.23468327522277832,-0.128509521484375,-0.10795736312866211
1683935877077400000,4.089400146484375,0.3090782165527344,-0.0684652328491211,0.004220724105834961
1683935877087441200,4.099441162109375,0.09282875061035156,-0.32671260833740234,0.008502960205078125
1683935877097482500,4.109482421875,-0.15327882766723633,-0.42626285552978516,-0.07912445068359375
1683935877107523600,4.119523681640625,-0.2261056900024414,-0.43192005157470703,-0.12915277481079102
1683935877117565000,4.12956494140625,-0.2672727108001709,-0.38642311096191406,-0.2549550533294678
1683935877127606000,4.13960595703125,-0.288970947265625,-0.30112648010253906,-0.3850255012512207
1683935877137647400,4.1496474609375,-0.14328360557556152,-0.007330894470214844,-0.4610278606414795
1683935877147688400,4.1596884765625,-0.09711623191833496,-0.05269813537597656,-0.42803454399108887
1683935877157729800,4.169729736328125,0.05376839637756348,-0.05470752716064453,-0.37018799781799316
1683935877167771000,4.17977099609375,0.2799990177154541,0.053763389587402344,-0.2744433879852295
1683935877177812200,4.189812255859375,0.41440069675445557,0.3302640914916992,-0.23662424087524414
1683935877187853300,4.199853271484375,0.35943329334259033,0.5362768173217773,-0.3258507251739502
1683935877197894700,4.209894775390625,0.1762990951538086,0.6271028518676758,-0.4104893207550049
1683935877207935700,4.219935791015625,0.06608963012695312,0.6597089767456055,-0.4022390842437744
1683935877217977000,4.22997705078125,-0.07302975654602051,0.7382278442382812,-0.4883573055267334
1683935877228018200,4.24001806640625,-0.040862321853637695,0.8716030120849609,-0.47525787353515625
1683935877238059300,4.250059326171875,0.07512879371643066,0.7366857528686523,-0.46677303314208984
1683935877248100600,4.2601005859375,0.2480483055114746,0.498748779296875,-0.4207878112792969
1683935877258142000,4.270141845703125,0.4769994020462036,0.23768138885498047,-0.4591038227081299
1683935877268183000,4.28018310546875,0.6169085502624512,0.20797157287597656,-0.38014698028564453
1683935877278224100,4.29022412109375,0.713026762008667,0.21408748626708984,-0.3413546085357666
1683935877288265500,4.300265380859375,0.6815109252929688,0.2007131576538086,-0.25074076652526855
1683935877298306600,4.310306640625,0.439541220664978,0.2152881622314453,-0.19518661499023438
1683935877308348000,4.320347900390625,-0.014614105224609375,0.2544240951538086,-0.07708477973937988
1683935877318389000,4.330388916015625,-0.5273091793060303,0.11149787902832031,0.1572730541229248
1683935877328430300,4.340430419921875,-0.5365231037139893,-0.1611032485961914,0.16003203392028809
1683935877338471400,4.350471435546875,-0.5092222690582275,-0.18077754974365234,0.1707451343536377
1683935877348512800,4.3605126953125,-0.5266029834747314,-0.086151123046875,0.0067195892333984375
1683935877358553900,4.370553955078125,-0.32361364364624023,0.02738475799560547,-0.06351685523986816
1683935877368595200,4.38059521484375,-0.17708230018615723,0.20265865325927734,0.055460214614868164
1683935877378636300,4.39063623046875,-0.1226966381072998,0.2655162811279297,0.06381845474243164
1683935877388677600,4.400677734375,-0.13465237617492676,0.2501354217529297,0.11615729331970215
1683935877398718700,4.41071875,-0.21343779563903809,0.21680164337158203,0.09192466735839844
1683935877408760000,4.420760009765625,-0.3775358200073242,0.12681865692138672,0.19070219993591309
1683935877418801200,4.43080126953125,-0.5619025230407715,0.012793540954589844,0.38742494583129883
1683935877428842500,4.440842529296875,-0.6371495723724365,-0.03531932830810547,0.5045239925384521
1683935877438883600,4.450883544921875,-0.7111027240753174,-0.049655914306640625,0.7344458103179932
1683935877448925000,4.460925048828125,-0.7204363346099854,-0.14517498016357422,0.8453555107116699
1683935877458966000,4.470966064453125,-0.5080626010894775,-0.15577316284179688,0.8533813953399658
1683935877469007400,4.48100732421875,-0.19190692901611328,0.3815774917602539,0.6643743515014648
1683935877479048400,4.49104833984375,0.07555699348449707,0.7245826721191406,0.5838396549224854
1683935877489089800,4.50108984375,0.30705487728118896,0.736424446105957,0.6204266548156738
1683935877499131000,4.511130859375,0.5067167282104492,0.7253046035766602,0.34548306465148926
1683935877509172200,4.521172119140625,0.5929325819015503,0.9648265838623047,-0.13396978378295898
1683935877519213300,4.53121337890625,0.5242409706115723,1.028355598449707,-0.5773477554321289
1683935877529254700,4.541254638671875,0.5476318597793579,1.0788469314575195,-0.6470704078674316
1683935877539295700,4.551295654296875,0.5648248195648193,0.47701454162597656,-0.9005937576293945
1683935877549336800,4.5613369140625,0.36684858798980713,0.07171821594238281,-0.7804765701293945
1683935877559378200,4.571378173828125,-0.19072997570037842,-0.27255916595458984,-0.5880081653594971
1683935877569419300,4.581419189453125,-0.8966128826141357,-1.1326885223388672,-0.3082280158996582
1683935877579460600,4.591460693359375,-1.64618980884552,-1.575333595275879,0.3135960102081299
1683935877589501700,4.601501708984375,-2.112712860107422,-2.1528215408325195,1.129896640777588
1683935877599543000,4.61154296875,-2.0920052528381348,-2.3930273056030273,2.0390238761901855
1683935877609584000,4.621584228515625,-1.5331058502197266,-1.973069190979004,2.402880907058716
1683935877619625500,4.63162548828125,-0.6623917818069458,-1.4350461959838867,2.31469988822937
1683935877629666600,4.64166650390625,-0.09089803695678711,-1.3571720123291016,1.8047356605529785
1683935877639708000,4.6517080078125,0.09582853317260742,-1.3599138259887695,0.7578954696655273
1683935877649749000,4.6617490234375,0.17564427852630615,-1.2215814590454102,-0.3340613842010498
1683935877659790300,4.671790283203125,0.3212618827819824,-0.5358371734619141,-0.8810957670211792
1683935877669831400,4.68183154296875,0.565468430519104,-0.19644546508789062,-1.4830011129379272
1683935877679872800,4.691872802734375,0.7095448970794678,0.24471378326416016,-1.731476902961731
1683935877689913900,4.701913818359375,0.7322259545326233,0.4643993377685547,-1.7879328727722168
1683935877699955200,4.711955078125,0.7859834432601929,0.59454345703125,-1.7723459005355835
1683935877709996300,4.721996337890625,0.8934062719345093,0.7554283142089844,-1.5923408269882202
1683935877720037600,4.73203759765625,1.0224627256393433,0.7894935607910156,-1.2503582239151
1683935877730078700,4.74207861328125,1.1396210193634033,0.8260478973388672,-0.8741729259490967
1683935877740120000,4.7521201171875,1.3386857509613037,1.2134180068969727,-0.32941722869873047
1683935877750161200,4.7621611328125,1.38823664188385,0.3551034927368164,0.7000110149383545
1683935877760202500,4.772202392578125,1.4268549680709839,0.32254886627197266,1.083221197128296
1683935877770243600,4.78224365234375,1.447235345840454,0.4782295227050781,1.0629596710205078
1683935877780285000,4.792284912109375,1.3774796724319458,0.5956878662109375,0.7543857097625732
1683935877790326000,4.802325927734375,1.3242743015289307,0.5565834045410156,0.3966410160064697
1683935877800367400,4.812367431640625,1.3657442331314087,0.4241952896118164,0.07377314567565918
1683935877810408400,4.822408447265625,1.5029947757720947,0.3563070297241211,-0.16976523399353027
1683935877820449800,4.83244970703125,1.7098650932312012,0.4516315460205078,-0.1441035270690918
1683935877830491000,4.842490966796875,1.8418211936950684,0.16486454010009766,-0.32397544384002686
1683935877840532200,4.8525322265625,2.0176703929901123,-0.0027904510498046875,-0.6569451093673706
1683935877850573300,4.8625732421875,2.222437620162964,0.2056255340576172,-0.7929315567016602
1683935877860614700,4.87261474609375,2.295498847961426,0.25682830810546875,-0.7508010864257812
1683935877870655700,4.88265576171875,2.334709644317627,0.1912403106689453,-0.6804213523864746
1683935877880696800,4.89269677734375,2.360307216644287,0.14665699005126953,-0.6348475217819214
1683935877890738200,4.90273828125,2.3102190494537354,0.21143627166748047,-0.6390085220336914
1683935877900779300,4.912779296875,2.2884418964385986,0.34929370880126953,-0.6137586832046509
1683935877910820600,4.922820556640625,2.325779438018799,0.1457366943359375,-0.6936607360839844
1683935877920862000,4.932862060546875,2.4496116638183594,-0.3725252151489258,-0.6616854667663574
1683935877930903000,4.942903076171875,2.6034865379333496,-0.9695892333984375,-0.5525295734405518
1683935877940944100,4.952944091796875,2.7539007663726807,-0.9400644302368164,-0.49060535430908203
1683935877950985500,4.9629853515625,2.6950972080230713,-0.6911029815673828,-0.4386986494064331
1683935877961026600,4.973026611328125,2.6202828884124756,-0.6485757827758789,-0.5273945331573486
1683935877971068000,4.98306787109375,2.5185348987579346,-0.4598979949951172,-0.3477141857147217
1683935877981109000,4.99310888671875,2.3070390224456787,-0.3414926528930664,-0.32210803031921387
1683935877991150300,5.003150390625,1.842386245727539,-0.3124265670776367,-0.5059752464294434
1683935878001191400,5.01319140625,1.1761159896850586,-0.28612327575683594,-0.6690152883529663
1683935878011232800,5.023232666015625,0.7945969104766846,-0.2694969177246094,-0.8009002208709717
1683935878021273900,5.03327392578125,0.7755048274993896,-0.20973587036132812,-0.8379217386245728
1683935878031315200,5.043315185546875,0.9341411590576172,-0.11457252502441406,-0.7626634836196899
1683935878041356300,5.053356201171875,1.0544438362121582,-0.11879444122314453,-0.6295831203460693
1683935878051397600,5.063397705078125,1.0631780624389648,-0.42948150634765625,-1.010485053062439
1683935878061438700,5.073438720703125,1.0083645582199097,-0.3075084686279297,-1.2601457834243774
1683935878071480000,5.08347998046875,0.9483647346496582,-0.46277904510498047,-1.419981837272644
1683935878081521200,5.093521240234375,0.9355840682983398,-0.4975128173828125,-1.5637294054031372
1683935878091562500,5.1035625,0.8799322843551636,-0.5574283599853516,-1.6564985513687134
1683935878101603600,5.113603515625,0.6273671388626099,-0.36123180389404297,-1.5880427360534668
1683935878111645000,5.12364501953125,0.23444977402687073,-0.2588081359863281,-1.4563446044921875
1683935878121686000,5.13368603515625,-0.02659822627902031,-0.2331228256225586,-1.4903415441513062
1683935878131727400,5.143727294921875,-0.1270180344581604,-0.16854476928710938,-1.5906047821044922
1683935878141768400,5.1537685546875,-0.17564673721790314,0.21816635131835938,-1.3033638000488281
1683935878151809800,5.163809814453125,-0.2814830243587494,-0.016218185424804688,-0.7302490472793579
1683935878161851000,5.173850830078125,-0.26323482394218445,-0.1576080322265625,-0.4747598171234131
1683935878171892200,5.183892333984375,-0.06053222715854645,0.029672622680664062,-0.29331278800964355
1683935878181933300,5.193933349609375,0.18724924325942993,0.30401039123535156,-0.21935832500457764
1683935878191974700,5.203974609375,0.42492032051086426,0.42447757720947266,-0.09159064292907715
1683935878202015700,5.214015625,0.5303821563720703,0.3988523483276367,0.13018262386322021
1683935878212057000,5.22405712890625,0.4938974976539612,0.2511940002441406,0.2923389673233032
1683935878222098200,5.23409814453125,0.4161769151687622,0.2105274200439453,0.4851653575897217
1683935878232139300,5.24413916015625,0.3967039883136749,0.22595787048339844,0.5834453105926514
1683935878242180600,5.2541806640625,0.42404335737228394,0.2999382019042969,0.480205774307251
1683935878252222000,5.264221923828125,0.4768359065055847,0.29407691955566406,0.5274971723556519
1683935878262263000,5.274262939453125,0.4970881938934326,0.06769752502441406,0.5610924959182739
1683935878272304000,5.28430419921875,0.530664324760437,-0.06311702728271484,0.4978184700012207
1683935878282345500,5.294345458984375,0.6847028732299805,-0.1102743148803711,0.43002021312713623
1683935878292386600,5.304386474609375,0.8878440856933594,-0.014472007751464844,0.4295825958251953
1683935878302428000,5.314427978515625,1.091367244720459,0.11591529846191406,0.34480130672454834
1683935878312469200,5.32446923828125,1.171245813369751,0.08003520965576172,0.22436976432800293
1683935878322510300,5.33451025390625,1.253279685974121,0.13910388946533203,0.029281020164489746
1683935878332551400,5.344551513671875,1.3468708992004395,0.23832988739013672,-0.0200650691986084
1683935878342592800,5.3545927734375,1.3572204113006592,0.21511554718017578,-0.0010039806365966797
1683935878352633900,5.3646337890625,1.3774124383926392,0.1960468292236328,0.06296205520629883
1683935878362675200,5.37467529296875,1.4221298694610596,0.24765491485595703,0.159948468208313
1683935878372716300,5.38471630859375,1.499053955078125,0.17847919464111328,0.3022834062576294
1683935878382757600,5.394757568359375,1.5187571048736572,0.07267570495605469,0.3514453172683716
1683935878392798700,5.404798828125,1.495734453201294,-0.03039073944091797,0.2988898754119873
1683935878402840000,5.414840087890625,1.428743839263916,-0.2100839614868164,0.1746351718902588
1683935878412881200,5.424881103515625,1.4460093975067139,-0.37389659881591797,-0.0031881332397460938
1683935878422922500,5.434922607421875,1.6106138229370117,-0.3980674743652344,-0.00972890853881836
1683935878432963600,5.444963623046875,1.6858274936676025,-0.230682373046875,0.11743307113647461
1683935878443005000,5.4550048828125,1.5177398920059204,-0.09370613098144531,-0.06000113487243652
1683935878453046000,5.4650458984375,1.2899177074432373,0.0029449462890625,-0.3436610698699951
1683935878463087400,5.47508740234375,1.0502427816390991,0.1502676010131836,-0.5580184459686279
1683935878473128400,5.48512841796875,0.7569043040275574,0.18424034118652344,-0.6502975225448608
1683935878483169800,5.495169677734375,0.4662325382232666,0.15389060974121094,-0.6140455007553101
1683935878493211000,5.5052109375,0.3099674582481384,0.050536155700683594,-0.5036879777908325
1683935878503252200,5.515252197265625,-0.0021866559982299805,-0.19889068603515625,-0.5829710960388184
1683935878513293300,5.525293212890625,-0.31438905000686646,-0.2613554000854492,-0.6275268793106079
1683935878523334700,5.535334716796875,-0.4341127276420593,-0.0905618667602539,-0.4275696277618408
1683935878533375700,5.545375732421875,-0.6016169786453247,-0.3232288360595703,-0.23059070110321045
1683935878543417000,5.5554169921875,-0.711775541305542,-0.4687986373901367,-0.3003411293029785
1683935878553458200,5.565458251953125,-0.7634776830673218,-0.3186979293823242,-0.48661375045776367
1683935878563499300,5.575499267578125,-0.669284462928772,-0.4162616729736328,-0.049471139907836914
1683935878573540600,5.58554052734375,-0.2237098217010498,0.3943758010864258,0.5006163120269775
1683935878583582000,5.59558203125,0.35905247926712036,2.984829902648926,1.2205758094787598
1683935878593623000,5.605623046875,1.123639464378357,3.884821891784668,1.8484139442443848
1683935878603664400,5.615664306640625,1.8480565547943115,1.0510644912719727,2.889954090118408
1683935878613705500,5.62570556640625,2.0951364040374756,-2.0700578689575195,3.233412981033325
1683935878623746600,5.63574658203125,1.916650652885437,-2.562924385070801,2.191765069961548
1683935878633788000,5.645787841796875,1.289257287979126,-1.3008432388305664,0.5746250152587891
1683935878643829200,5.655829345703125,0.5480211973190308,-0.20554065704345703,-0.6107211112976074
1683935878653870300,5.665870361328125,0.17281144857406616,0.28511905670166016,-1.039086937904358
1683935878663911400,5.675911376953125,0.05611276626586914,0.2697439193725586,-0.517579197883606
1683935878673952800,5.685952880859375,-0.13578858971595764,-0.05460929870605469,-0.0953819751739502
1683935878683993900,5.695993896484375,-0.03532165288925171,-0.24613094329833984,-0.18578195571899414
1683935878694035200,5.70603515625,0.384040892124176,-0.2320709228515625,-0.2730543613433838
1683935878704076300,5.716076171875,0.8363415002822876,-0.17847156524658203,-0.3641042709350586
1683935878714117600,5.72611767578125,1.1216095685958862,0.06451892852783203,-0.31824660301208496
1683935878724158700,5.73615869140625,1.1710171699523926,-0.0058994293212890625,-0.3932616710662842
1683935878734200000,5.746199951171875,0.9316147565841675,-0.023965835571289062,-0.5783088207244873
1683935878744241200,5.7562412109375,0.6024506092071533,-0.1792316436767578,-0.8779497146606445
1683935878754282500,5.766282470703125,0.5078542828559875,-0.15526485443115234,-0.7639868259429932
1683935878764323600,5.776323486328125,0.6761673092842102,0.04418659210205078,-0.3879222869873047
1683935878774365000,5.786364990234375,0.8286918997764587,0.19507503509521484,0.0596318244934082
1683935878784406000,5.796406005859375,0.898492157459259,0.40636348724365234,0.5501101016998291
1683935878794447400,5.806447265625,0.9283376932144165,0.29357147216796875,0.845515251159668
1683935878804488400,5.816488525390625,0.9436545968055725,0.11690044403076172,0.9767992496490479
1683935878814529800,5.82652978515625,1.0970008373260498,0.06813430786132812,1.085700511932373
1683935878824571000,5.83657080078125,1.2568206787109375,0.23615360260009766,1.1132516860961914
1683935878834612200,5.8466123046875,1.1796157360076904,0.2205972671508789,0.6313314437866211
1683935878844653300,5.8566533203125,1.0756210088729858,0.011041641235351562,0.14706873893737793
1683935878854694700,5.866694580078125,0.964286208152771,-0.45737361907958984,-0.33632349967956543
1683935878864735700,5.87673583984375,0.8042852878570557,-1.052140235900879,-0.7880473136901855
1683935878874777000,5.886777099609375,0.66468346118927,-0.9856643676757812,-0.8997483253479004
1683935878884818200,5.896818115234375,0.4311264157295227,-1.123311996459961,-1.4977980852127075
1683935878894859500,5.906859619140625,0.41190725564956665,-1.1559534072875977,-1.6239416599273682
1683935878904900600,5.916900634765625,0.3704327940940857,-1.2202568054199219,-1.600441813468933
1683935878914942000,5.92694189453125,0.41263753175735474,-1.318587303161621,-1.616629958152771
1683935878924983000,5.936983154296875,0.5909391641616821,-1.3431463241577148,-1.4260226488113403
1683935878935024400,5.9470244140625,0.8368630409240723,-1.3130369186401367,-1.1753510236740112
1683935878945065500,5.9570654296875,1.0693879127502441,-1.2019062042236328,-0.8849203586578369
1683935878955106600,5.9671064453125,1.239236831665039,-0.9091405868530273,-0.6646878719329834
1683935878965148000,5.97714794921875,1.39070725440979,0.163726806640625,-0.5517160892486572
1683935878975189200,5.987189208984375,1.2410191297531128,1.75429105758667,0.22425365447998047
1683935878985230300,5.997230224609375,1.1815773248672485,2.0340147018432617,0.8779160976409912
1683935878995271400,6.007271484375,0.972563624382019,2.1156320571899414,1.580383539199829
1683935879005312800,6.017312744140625,0.44776636362075806,2.138378143310547,2.174283266067505
1683935879015353900,6.027353759765625,-0.03923451900482178,1.9900779724121094,2.3634772300720215
1683935879025395200,6.037395263671875,-0.1844499707221985,1.5816755294799805,1.9127910137176514
1683935879035436500,6.0474365234375,-0.12030166387557983,1.1723613739013672,1.2980170249938965
1683935879045477600,6.0574775390625,-0.0193977952003479,0.7089061737060547,0.9318163394927979
1683935879055518700,6.067518798828125,0.08836346864700317,0.1626110076904297,0.954634428024292
1683935879065560000,6.07756005859375,0.12096172571182251,-0.17635631561279297,1.0927753448486328
1683935879075601200,6.08760107421875,0.004150867462158203,-0.2973346710205078,1.2049283981323242
1683935879085642500,6.097642578125,-0.6864004135131836,-0.4898843765258789,1.29732346534729
1683935879095683600,6.10768359375,-2.0900096893310547,-1.1031875610351562,0.9738121032714844
1683935879105725000,6.117724853515625,-3.3220319747924805,-1.5612850189208984,0.649198055267334
1683935879115766000,6.12776611328125,-3.772838592529297,-1.8473634719848633,0.5018436908721924
1683935879125807400,6.137807373046875,-3.3406407833099365,-1.8440866470336914,0.6461155414581299
1683935879135848400,6.147848388671875,-2.324337959289551,-1.6139659881591797,0.8756775856018066
1683935879145889800,6.157889892578125,-1.0864934921264648,-1.076904296875,1.0457160472869873
1683935879155931000,6.167930908203125,-0.06963682174682617,-0.39931297302246094,1.0328831672668457
1683935879165972200,6.17797216796875,0.6103165149688721,0.09630966186523438,1.084418773651123
1683935879176013300,6.188013427734375,0.9896353483200073,0.2851400375366211,1.1351494789123535
1683935879186054700,6.1980546875,1.0637582540512085,0.2873954772949219,1.0273303985595703
1683935879196095700,6.208095703125,1.1142585277557373,0.15297222137451172,0.8483321666717529
1683935879206137000,6.21813720703125,1.2854584455490112,-0.05791187286376953,0.7170815467834473
1683935879216178200,6.22817822265625,1.325659155845642,-0.16321945190429688,0.6653852462768555
1683935879226219500,6.238219482421875,1.2202805280685425,-0.14078235626220703,0.5095129013061523
1683935879236260600,6.248260498046875,1.116146206855774,-0.042636871337890625,0.49196457862854004
1683935879246302000,6.258302001953125,1.1203817129135132,0.10755729675292969,0.572655439376831
1683935879256343000,6.268343017578125,1.2711156606674194,0.33623600006103516,0.5804154872894287
1683935879266384400,6.27838427734375,1.4973037242889404,0.5480241775512695,0.5626428127288818
1683935879276425500,6.288425537109375,1.7709777355194092,0.6354761123657227,0.5487644672393799
1683935879286466600,6.298466552734375,2.1087799072265625,0.6445636749267578,0.4514174461364746
1683935879296508000,6.3085078125,2.39068603515625,0.6930103302001953,0.26259493827819824
1683935879306549200,6.31854931640625,2.4432711601257324,0.8188199996948242,0.15498733520507812
1683935879316590300,6.32859033203125,2.2478535175323486,0.901515007019043,0.1254105567932129
1683935879326631700,6.338631591796875,1.8298271894454956,0.9972982406616211,0.09628963470458984
1683935879336672800,6.3486728515625,1.2653393745422363,1.0379610061645508,0.10483145713806152
1683935879346713900,6.3587138671875,0.8799178600311279,0.9082126617431641,0.057204484939575195
1683935879356755200,6.368755126953125,0.6715302467346191,0.7323846817016602,0.05097150802612305
1683935879366796500,6.378796630859375,0.6606465578079224,0.5800914764404297,-0.04520559310913086
1683935879376837600,6.388837646484375,0.7666692733764648,0.30123329162597656,-0.10429835319519043
1683935879386878700,6.398878662109375,0.8910381197929382,0.036940574645996094,-0.23918509483337402
1683935879396920000,6.408920166015625,1.000794529914856,-0.18201065063476562,-0.371295690536499
1683935879406961200,6.418961181640625,1.0728394985198975,-0.28680896759033203,-0.47020554542541504
1683935879417002500,6.42900244140625,1.1104520559310913,-0.3115530014038086,-0.5653774738311768
1683935879427043600,6.439043701171875,1.0017521381378174,-0.24716663360595703,-0.5476875305175781
1683935879437085000,6.4490849609375,0.9019309878349304,-0.2300243377685547,-0.48226046562194824
1683935879447126000,6.4591259765625,0.7932805418968201,-0.17620086669921875,-0.36913251876831055
1683935879457167400,6.46916748046875,0.6956633925437927,-0.18349456787109375,-0.23015236854553223
1683935879467208400,6.47920849609375,0.5933666825294495,-0.18011760711669922,-0.07554054260253906
1683935879477249800,6.489249755859375,0.4975583553314209,-0.1851959228515625,-0.0536496639251709
1683935879487291000,6.499290771484375,0.3894397020339966,-0.20640182495117188,0.009079456329345703
1683935879497332200,6.509332275390625,0.17922449111938477,-0.28744983673095703,-0.18158316612243652
1683935879507373300,6.519373291015625,0.03959763050079346,-0.3396434783935547,-0.5850245952606201
1683935879517414700,6.52941455078125,0.11454963684082031,-0.6463966369628906,-0.9594011306762695
1683935879527455700,6.539455810546875,0.3043856620788574,-0.8452901840209961,-1.2331833839416504
1683935879537497000,6.5494970703125,0.5356017351150513,-0.9113397598266602,-1.3333055973052979
1683935879547538200,6.5595380859375,0.6839556694030762,-0.9156646728515625,-1.281611680984497
1683935879557579500,6.56957958984375,0.6873313784599304,-0.7843475341796875,-1.1606800556182861
1683935879567620600,6.57962060546875,0.5928897857666016,-0.5494251251220703,-0.9096050262451172
1683935879577662000,6.589661865234375,0.4712548851966858,-0.348052978515625,-0.6844229698181152
1683935879587703000,6.599703125,0.41679322719573975,-0.24504661560058594,-0.5062527656555176
1683935879597744400,6.609744384765625,0.37626636028289795,-0.1066884994506836,-0.3678154945373535
1683935879607785500,6.619785400390625,0.33743786811828613,0.08611202239990234,-0.3167548179626465
1683935879617826600,6.62982666015625,0.2572427988052368,0.11547470092773438,-0.14134597778320312
1683935879627868000,6.639867919921875,0.10412752628326416,0.19128799438476562,-0.10310053825378418
1683935879637909200,6.6499091796875,0.12218821048736572,0.3184547424316406,-0.13651466369628906
1683935879647950300,6.659950439453125,0.2111753225326538,0.3061866760253906,-0.20056915283203125
1683935879657991400,6.669991455078125,0.343697190284729,0.3628225326538086,-0.26716089248657227
1683935879668032800,6.68003271484375,0.48185592889785767,0.35470104217529297,-0.40567755699157715
1683935879678073900,6.690073974609375,0.5482964515686035,0.24158668518066406,-0.4669373035430908
1683935879688115200,6.700115234375,0.6126231551170349,0.14978408813476562,-0.4689314365386963
1683935879698156300,6.71015625,0.7102472186088562,0.05549049377441406,-0.5653257369995117
1683935879708197600,6.72019775390625,0.8600279092788696,0.005061149597167969,-0.683082103729248
1683935879718238700,6.73023876953125,0.9465323686599731,-0.01573944091796875,-0.7431676387786865
1683935879728280000,6.740280029296875,0.8689009547233582,-0.12406349182128906,-0.7675995826721191
1683935879738321200,6.750321044921875,0.7158770561218262,-0.2676124572753906,-0.7311162948608398
1683935879748362500,6.760362548828125,0.5062668323516846,-0.32937145233154297,-0.8100636005401611
1683935879758403600,6.770403564453125,0.40276408195495605,-0.34510135650634766,-0.9167683124542236
1683935879768445000,6.78044482421875,0.43012720346450806,-0.2999000549316406,-1.0852341651916504
1683935879778486000,6.790486083984375,0.5563745498657227,-0.2506065368652344,-1.1948823928833008
1683935879788527400,6.80052734375,0.6742303967475891,-0.15842914581298828,-1.3145771026611328
1683935879798568400,6.810568359375,0.7595527172088623,-0.015756607055664062,-1.3604044914245605
1683935879808609800,6.82060986328125,0.7082304954528809,0.19866943359375,-1.2636375427246094
1683935879818651000,6.83065087890625,0.39400404691696167,0.005854606628417969,-1.1434502601623535
1683935879828692200,6.840692138671875,0.1458338499069214,0.00049591064453125,-1.0078718662261963
1683935879838733300,6.8507333984375,0.08989083766937256,-0.0724496841430664,-0.8894085884094238
1683935879848774700,6.860774658203125,0.01651144027709961,0.09644412994384766,-0.8018288612365723
1683935879858815700,6.870815673828125,-0.06947386264801025,0.10459327697753906,-0.670654296875
1683935879868857000,6.880857177734375,-0.15127032995224,0.10004806518554688,-0.4906454086303711
1683935879878898200,6.890898193359375,-0.061137855052948,0.2559471130371094,-0.25331616401672363
1683935879888939300,6.900939208984375,0.033423423767089844,0.4604682922363281,0.015065193176269531
1683935879898980600,6.910980712890625,0.024086475372314453,0.5129480361938477,0.18026256561279297
1683935879909022000,6.92102197265625,0.11547833681106567,0.4917621612548828,0.36516284942626953
1683935879919063000,6.93106298828125,0.3944770395755768,0.4374361038208008,0.7093429565429688
1683935879929104400,6.9411044921875,0.8533436059951782,0.6611242294311523,0.8738260269165039
1683935879939145500,6.9511455078125,1.2789225578308105,0.9406423568725586,0.9817733764648438
1683935879949186600,6.9611865234375,1.4482855796813965,1.2736930847167969,1.1050667762756348
1683935879959228000,6.971227783203125,1.2514073848724365,1.5951147079467773,1.1825194358825684
1683935879969269200,6.981269287109375,0.8537739515304565,1.4738402366638184,1.3434679508209229
1683935879979310300,6.991310302734375,0.5357902646064758,1.3318963050842285,1.4314031600952148
1683935879989351400,7.001351318359375,0.3812088370323181,0.897425651550293,1.370887279510498
1683935879999392800,7.011392822265625,0.14059707522392273,0.6724700927734375,1.1794984340667725
1683935880009433900,7.021433837890625,-0.01056697964668274,0.3016023635864258,1.2804224491119385
1683935880019475200,7.03147509765625,-0.1717863380908966,-0.36815547943115234,1.3854553699493408
1683935880029516300,7.041516357421875,-0.15013962984085083,-0.8928499221801758,1.3895695209503174
1683935880039557600,7.0515576171875,0.041720956563949585,-1.125105857849121,1.2944140434265137
1683935880049598700,7.0615986328125,0.528464674949646,-1.1442241668701172,1.1028640270233154
1683935880059640000,7.07164013671875,0.9868744611740112,-1.2805099487304688,0.9982905387878418
1683935880069681200,7.08168115234375,1.0455585718154907,-1.7761297225952148,1.2017455101013184
1683935880079722500,7.091722412109375,0.21333982050418854,-2.552332878112793,1.559441328048706
1683935880089763600,7.101763671875,-1.8636361360549927,-3.5318336486816406,2.0927352905273438
1683935880099805000,7.111804931640625,-4.981560230255127,-4.2908220291137695,2.384711265563965
1683935880109846000,7.121845947265625,-6.46084451675415,-4.957406044006348,2.940035343170166
1683935880119887400,7.131887451171875,-4.01075553894043,-3.7547054290771484,2.6122870445251465
1683935880129928400,7.141928466796875,-0.4285317361354828,-1.9608535766601562,1.5749130249023438
1683935880139969800,7.1519697265625,1.7067490816116333,-0.8998289108276367,0.6400985717773438
1683935880150011000,7.162010986328125,1.5617648363113403,-0.3694744110107422,0.08660888671875
1683935880160052200,7.17205224609375,1.302207112312317,0.23235034942626953,-0.39209604263305664
1683935880170093300,7.18209326171875,1.4013595581054688,0.9287452697753906,-0.9886829853057861
1683935880180134700,7.192134765625,1.3779592514038086,1.4776010513305664,-1.551985502243042
1683935880190175700,7.20217578125,1.2565381526947021,1.8261938095092773,-1.9550973176956177
1683935880200216800,7.212216796875,1.1839954853057861,1.941514015197754,-2.16105318069458
1683935880210258200,7.222258056640625,1.1669108867645264,1.8292241096496582,-2.225085735321045
1683935880220299300,7.23229931640625,1.1634023189544678,1.5451383590698242,-2.0420210361480713
1683935880230340600,7.242340576171875,1.2476837635040283,1.223928451538086,-1.8786396980285645
1683935880240381700,7.252381591796875,1.3707135915756226,0.9165096282958984,-1.6993368864059448
1683935880250423000,7.262423095703125,1.4249613285064697,0.5129985809326172,-1.5180399417877197
1683935880260464000,7.272464111328125,1.5471997261047363,-0.008370399475097656,-1.2330842018127441
1683935880270505500,7.28250537109375,1.5987999439239502,-0.4208364486694336,-0.9482457637786865
1683935880280546600,7.292546630859375,1.6098833084106445,-0.6508264541625977,-0.7570035457611084
1683935880290588000,7.302587890625,1.6064379215240479,-0.7298440933227539,-0.711632490158081
1683935880300629000,7.31262890625,1.5103578567504883,-0.7203531265258789,-0.7520606517791748
1683935880310670300,7.32267041015625,1.427046537399292,-0.6537904739379883,-0.744819164276123
1683935880320711400,7.33271142578125,1.3545535802841187,-0.5114078521728516,-0.7860081195831299
1683935880330752800,7.342752685546875,1.2754517793655396,-0.35308265686035156,-0.8630893230438232
1683935880340793900,7.3527939453125,1.1498457193374634,-0.2649364471435547,-0.9781451225280762
1683935880350835200,7.362835205078125,0.8918108940124512,-0.22540664672851562,-1.1046571731567383
1683935880360876300,7.372876220703125,0.28526371717453003,-0.20790386199951172,-1.2657406330108643
1683935880370917600,7.382917724609375,-1.06640625,-0.1568155288696289,-1.5652763843536377
1683935880380958700,7.392958740234375,-2.583820343017578,-0.18638134002685547,-1.8170745372772217
1683935880391000000,7.403,-2.59384822845459,-0.2800912857055664,-1.7467594146728516
1683935880401041200,7.413041259765625,-1.361809492111206,-0.31459522247314453,-1.3267842531204224
1683935880411082500,7.42308251953125,-0.20959225296974182,-0.26885509490966797,-0.9903309345245361
1683935880421123600,7.43312353515625,0.5222330689430237,-0.3029594421386719,-0.705327033996582
1683935880431165000,7.4431650390625,0.9106836318969727,-0.29958152770996094,-0.5596104860305786
1683935880441206000,7.4532060546875,1.093078851699829,-0.30649375915527344,-0.42365026473999023
1683935880451247400,7.463247314453125,1.1540806293487549,-0.24011611938476562,-0.3310706615447998
1683935880461288400,7.473288330078125,1.1905009746551514,-0.15063858032226562,-0.35780787467956543
1683935880471329500,7.48332958984375,1.2151082754135132,-0.023538589477539062,-0.30455660820007324
1683935880481371000,7.493370849609375,1.254594326019287,0.01704120635986328,-0.31435608863830566
1683935880491412200,7.503412109375,1.2869244813919067,0.007065773010253906,-0.28937458992004395
1683935880501453300,7.513453369140625,1.3157483339309692,0.0110626220703125,-0.3157680034637451
1683935880511494400,7.523494384765625,1.308623194694519,0.038669586181640625,-0.39983057975769043
1683935880521535700,7.53353564453125,1.2694822549819946,0.07807064056396484,-0.48314714431762695
1683935880531576800,7.543576904296875,1.2122488021850586,0.12935924530029297,-0.5459309816360474
1683935880541618200,7.5536181640625,1.1085710525512695,0.1782369613647461,-0.587922215461731
1683935880551659300,7.5636591796875,0.9925944805145264,0.23189449310302734,-0.6258065700531006
1683935880561700600,7.57370068359375,0.874586820602417,0.23783588409423828,-0.6641680002212524
1683935880571741700,7.58374169921875,0.7386099100112915,0.19865989685058594,-0.6549677848815918
1683935880581783000,7.593782958984375,0.6379751563072205,0.12415885925292969,-0.6265671253204346
1683935880591824100,7.60382421875,0.5585971474647522,0.016845703125,-0.5430319309234619
1683935880601865500,7.613865478515625,0.46709614992141724,-0.08264350891113281,-0.43328893184661865
1683935880611906600,7.623906494140625,0.3758559823036194,-0.1720104217529297,-0.28101885318756104
1683935880621948000,7.633947998046875,0.2876432538032532,-0.23457717895507812,-0.18436789512634277
1683935880631989000,7.643989013671875,0.17456740140914917,-0.25600719451904297,-0.05476498603820801
1683935880642030300,7.6540302734375,0.0022107362747192383,-0.19573116302490234,0.059757232666015625
1683935880652071400,7.664071533203125,-0.22239083051681519,-0.11591053009033203,0.13260436058044434
1683935880662112800,7.67411279296875,-0.37321174144744873,-0.061964988708496094,0.22751212120056152
1683935880672153900,7.68415380859375,-0.4478510618209839,-0.022075653076171875,0.4197254180908203
1683935880682195000,7.69419482421875,-0.3952789902687073,0.008258819580078125,0.6148924827575684
1683935880692236300,7.704236328125,-0.2567528486251831,0.10274505615234375,0.8220745325088501
1683935880702277600,7.714277587890625,-0.08066803216934204,0.1273050308227539,0.9580413103103638
1683935880712318700,7.724318603515625,0.06458425521850586,0.1443653106689453,1.0698024034500122
1683935880722359800,7.73435986328125,0.16470646858215332,0.1252765655517578,1.1669425964355469
1683935880732401200,7.744401123046875,0.18027818202972412,0.15362167358398438,1.2198371887207031
1683935880742442200,7.754442138671875,0.1963646411895752,0.22955608367919922,1.1456907987594604
1683935880752483600,7.764483642578125,0.2021312713623047,0.2647838592529297,1.136201024055481
1683935880762524700,7.774524658203125,0.22472679615020752,0.2737436294555664,1.1286214590072632
1683935880772566000,7.78456591796875,0.21680831909179688,0.2923116683959961,1.1393252611160278
1683935880782607000,7.794607177734375,0.23562979698181152,0.2608375549316406,1.1304736137390137
1683935880792648400,7.8046484375,0.2520405054092407,0.27261829376220703,1.138390064239502
1683935880802689500,7.814689453125,0.30833280086517334,0.28456783294677734,1.1826096773147583
1683935880812731000,7.82473095703125,0.3392312526702881,0.30376338958740234,1.2224037647247314
1683935880822772000,7.83477197265625,0.41371452808380127,0.3827323913574219,1.2389620542526245
1683935880832813300,7.844813232421875,0.49814510345458984,0.4639711380004883,1.296695351600647
1683935880842854400,7.8548544921875,0.6112672090530396,0.46132659912109375,1.3851203918457031
1683935880852895700,7.864895751953125,0.7240429520606995,0.4919710159301758,1.4681979417800903
1683935880862936800,7.874936767578125,0.8088621497154236,0.513056755065918,1.5322930812835693
1683935880872978200,7.884978271484375,0.8732174038887024,0.5076694488525391,1.688162922859192
1683935880883019300,7.895019287109375,0.9857643842697144,0.5472145080566406,1.836044430732727
1683935880893060600,7.905060546875,1.0272618532180786,0.5741510391235352,1.970155119895935
1683935880903101700,7.915101806640625,1.059103012084961,0.5455760955810547,2.065021276473999
1683935880913143000,7.92514306640625,0.9958457350730896,0.5238580703735352,2.1785364151000977
1683935880923184000,7.93518408203125,0.8996233940124512,0.4656505584716797,2.2845587730407715
1683935880933225200,7.94522509765625,0.7654399871826172,0.43524742126464844,2.159294843673706
1683935880943266600,7.9552666015625,0.5864172577857971,0.4398660659790039,1.9186439514160156
1683935880953307600,7.9653076171875,0.42549335956573486,0.45344066619873047,1.6718544960021973
1683935880963349000,7.975348876953125,0.2881816029548645,0.4593381881713867,1.4908983707427979
1683935880973390000,7.98539013671875,0.2133021354675293,0.41456127166748047,1.3703961372375488
1683935880983431400,7.995431396484375,0.19392132759094238,0.33826637268066406,1.309733271598816
1683935880993472500,8.005472412109375,0.23740911483764648,0.20172405242919922,1.221966028213501
1683935881003513900,8.015513916015625,0.32968270778656006,-0.01183319091796875,1.165842890739441
1683935881013555000,8.025554931640626,0.48085349798202515,-0.32141971588134766,1.2054307460784912
1683935881023596300,8.03559619140625,0.645779013633728,-0.8224172592163086,1.31900954246521
1683935881033637400,8.045637451171874,0.7978079319000244,-1.5191192626953125,1.4620453119277954
1683935881043678700,8.0556787109375,1.0164813995361328,-2.177077293395996,1.6546372175216675
1683935881053719800,8.0657197265625,1.1670587062835693,-2.4526853561401367,1.6920720338821411
1683935881063761200,8.07576123046875,1.1813461780548096,-3.0826492309570312,1.7655959129333496
1683935881073802200,8.08580224609375,1.0274591445922852,-3.1553163528442383,1.3946285247802734
1683935881083843600,8.095843505859374,0.7662369608879089,-2.763671875,0.7543869018554688
1683935881093884700,8.105884765625,0.5890437960624695,-2.18060302734375,0.2771120071411133
1683935881103926000,8.115926025390625,0.36939388513565063,-1.395339012145996,-0.10347485542297363
1683935881113967000,8.125967041015626,0.07010689377784729,-0.4568662643432617,-0.5631613731384277
1683935881124008400,8.136008544921875,-0.3288049101829529,0.3782615661621094,-0.8420432806015015
1683935881134049500,8.146049560546874,-1.9417524337768555,1.0401153564453125,-1.1841496229171753
1683935881144090600,8.156090576171875,-5.813327312469482,1.6259751319885254,-1.6216152906417847
1683935881154132000,8.166132080078125,-4.989206790924072,1.6039094924926758,-1.2175068855285645
1683935881164173300,8.17617333984375,-3.3104445934295654,1.5313949584960938,-1.0535844564437866
1683935881174214400,8.18621435546875,-1.8731396198272705,1.3243541717529297,-0.6573153734207153
1683935881184255500,8.19625537109375,-0.7919282913208008,1.0837125778198242,-0.329484224319458
1683935881194296800,8.206296875,-0.05743306875228882,0.9468879699707031,-0.23873329162597656
1683935881204338000,8.216337890625,0.4448910057544708,0.8301219940185547,-0.3165304660797119
1683935881214379300,8.226379150390626,0.7578279972076416,0.6146507263183594,-0.35666847229003906
1683935881224420400,8.23642041015625,0.8441503047943115,0.22306156158447266,-0.37950611114501953
1683935881234461700,8.246461669921874,0.5751462578773499,-0.3144502639770508,-0.28458094596862793
1683935881244502800,8.256502685546875,0.1724279522895813,-0.9132871627807617,-0.19058966636657715
1683935881254544100,8.266544189453125,0.07253080606460571,-1.3936128616333008,-0.37792205810546875
1683935881264585200,8.276585205078124,0.3835446834564209,-1.666081428527832,-0.8664567470550537
1683935881274626600,8.28662646484375,0.7697884440422058,-1.8469295501708984,-1.2444524765014648
1683935881284667600,8.296667724609375,1.0079840421676636,-2.012117385864258,-1.4542856216430664
1683935881294709000,8.306708984375,1.0980088710784912,-2.056337356567383,-1.5571906566619873
1683935881304750000,8.31675,1.0660673379898071,-1.8031930923461914,-1.5440895557403564
1683935881314791400,8.32679150390625,0.8789207935333252,-1.370863914489746,-1.3661155700683594
1683935881324832500,8.33683251953125,0.5846162438392639,-0.9418411254882812,-1.2117187976837158
1683935881334873900,8.346873779296875,0.31971490383148193,-0.5309543609619141,-1.066199779510498
1683935881344915000,8.3569150390625,0.2398998737335205,-0.17661571502685547,-1.0494139194488525
1683935881354956300,8.366956298828125,0.3226012587547302,0.09776496887207031,-1.124814510345459
1683935881364997400,8.376997314453124,0.4418434500694275,0.3309822082519531,-1.2307004928588867
1683935881375038700,8.387038818359375,0.4870210289955139,0.4108448028564453,-1.2498290538787842
1683935881385079800,8.397079833984375,0.3928833603858948,0.4372406005859375,-1.1530742645263672
1683935881395121200,8.40712109375,0.1718050241470337,0.4717082977294922,-1.0284287929534912
1683935881405162200,8.417162353515625,-0.06073415279388428,0.6452512741088867,-0.877310037612915
1683935881415203300,8.427203369140624,-0.14870309829711914,0.7851676940917969,-0.7489898204803467
1683935881425244700,8.43724462890625,-0.09402835369110107,0.8575906753540039,-0.5901703834533691
1683935881435285800,8.44728564453125,-0.016876935958862305,0.8598775863647461,-0.5429534912109375
1683935881445327000,8.4573271484375,0.02831137180328369,0.7468795776367188,-0.544675350189209
1683935881455368200,8.4673681640625,0.04642903804779053,0.595646858215332,-0.5418338775634766
1683935881465409500,8.477409423828124,0.09483444690704346,0.47328662872314453,-0.5460155010223389
1683935881475450600,8.48745068359375,0.016440272331237793,0.3770561218261719,-0.4764900207519531
1683935881485492000,8.497491943359375,-0.10649752616882324,0.32342052459716797,-0.30974841117858887
1683935881495533000,8.507532958984376,-0.18784117698669434,0.2646646499633789,-0.23903870582580566
1683935881505574400,8.517574462890625,-0.21900367736816406,0.16022109985351562,-0.04697680473327637
1683935881515615500,8.527615478515624,-0.2305145263671875,0.0983896255493164,0.11953878402709961
1683935881525656800,8.53765673828125,-0.2312551736831665,0.09104156494140625,0.2267000675201416
1683935881535698000,8.547697998046875,-0.17011499404907227,0.01889324188232422,0.3058462142944336
1683935881545739300,8.5577392578125,-0.038144707679748535,-0.0077152252197265625,0.3098733425140381
1683935881555780400,8.5677802734375,0.09128308296203613,-0.03404712677001953,0.22540903091430664
1683935881565821700,8.57782177734375,0.1194765567779541,-0.08868026733398438,0.13217949867248535
1683935881575862800,8.58786279296875,0.16632485389709473,-0.06382942199707031,-0.0622868537902832
1683935881585904000,8.597904052734375,0.19029831886291504,-0.07639789581298828,-0.2809157371520996
1683935881595945200,8.6079453125,0.16305840015411377,-0.07597541809082031,-0.4667041301727295
1683935881605986300,8.617986328125,0.18554067611694336,-0.004726409912109375,-0.726611852645874
1683935881616027600,8.628027587890625,0.17808187007904053,0.10698127746582031,-0.9847333431243896
1683935881626069000,8.638069091796876,0.12250041961669922,0.1446971893310547,-1.1087779998779297
1683935881636110000,8.648110107421875,0.08981180191040039,0.2970314025878906,-1.001110315322876
1683935881646151200,8.658151123046874,0.022597074508666992,0.40316295623779297,-0.8489494323730469
1683935881656192500,8.668192626953125,-0.03535580635070801,0.5105686187744141,-0.6713485717773438
1683935881666233600,8.678233642578125,-0.05820488929748535,0.6189479827880859,-0.5161190032958984
1683935881676275000,8.68827490234375,-0.01490926742553711,0.701939582824707,-0.3570544719696045
1683935881686316000,8.69831591796875,0.0143052339553833,0.7548303604125977,-0.2566070556640625
1683935881696357400,8.708357421875,-0.01338505744934082,0.8085994720458984,-0.11296272277832031
1683935881706398500,8.7183984375,-0.11018061637878418,0.8890857696533203,0.16496706008911133
1683935881716439800,8.728439697265625,-0.2685563564300537,0.9380073547363281,0.5715053081512451
1683935881726481000,8.73848095703125,-0.5074306726455688,0.8183736801147461,0.9964847564697266
1683935881736522200,8.748522216796875,-0.7584245204925537,0.556121826171875,1.3890440464019775
1683935881746563300,8.758563232421874,-0.8750255107879639,0.18906784057617188,1.8256566524505615
1683935881756604700,8.768604736328125,-0.7776119709014893,-0.01794147491455078,2.0935637950897217
1683935881766645800,8.778645751953125,-0.49160611629486084,0.016138076782226562,2.0214967727661133
1683935881776687000,8.78868701171875,-0.15871143341064453,0.24120712280273438,1.7677972316741943
1683935881786728200,8.798728271484375,0.22532188892364502,0.4618377685546875,1.4717893600463867
1683935881796769500,8.80876953125,0.6619216203689575,0.6770009994506836,1.085646629333496
1683935881806810600,8.818810546875,1.030332088470459,0.9214019775390625,0.7484049797058105
1683935881816851700,8.828851806640625,1.0343778133392334,0.9326448440551758,0.5826065540313721
1683935881826893000,8.83889306640625,0.6316562294960022,0.7181968688964844,0.5297894477844238
1683935881836934400,8.848934326171875,-0.04166412353515625,0.4934701919555664,0.5009138584136963
1683935881846975500,8.8589755859375,-0.6409932374954224,0.41671180725097656,0.5064103603363037
1683935881857016600,8.8690166015625,-0.9053323268890381,0.4936971664428711,0.4921269416809082
1683935881867058000,8.879057861328125,-1.0670208930969238,0.39785289764404297,0.5883839130401611
1683935881877099000,8.88909912109375,-1.3480007648468018,0.28682613372802734,0.7774584293365479
1683935881887140400,8.899140380859375,-1.4228081703186035,0.21232318878173828,0.8705222606658936
1683935881897181400,8.909181396484374,-1.2483322620391846,0.03707122802734375,0.990062952041626
1683935881907222800,8.919222900390626,-1.0767951011657715,-0.21793460845947266,1.0621490478515625
1683935881917264000,8.929263916015625,-0.9299378991127014,-0.545501708984375,1.0356254577636719
1683935881927305200,8.93930517578125,-0.96848064661026,-0.9094448089599609,1.0041983127593994
1683935881937346300,8.94934619140625,-1.3703168630599976,-1.3529472351074219,0.9129583835601807
1683935881947387600,8.9593876953125,-2.1891932487487793,-2.05145263671875,1.029982089996338
1683935881957428700,8.9694287109375,-2.9022367000579834,-2.672464370727539,1.4112141132354736
1683935881967470000,8.979469970703125,-2.618424415588379,-2.9362878799438477,2.1432361602783203
1683935881977511200,8.98951123046875,-1.0749824047088623,-2.528440475463867,2.8304402828216553
1683935881987552500,8.999552490234375,0.6886823177337646,-1.878312110900879,2.9163875579833984
1683935881997593600,9.009593505859375,1.9727846384048462,-1.296950340270996,2.4939966201782227
1683935882007635000,9.019635009765626,2.441072463989258,-1.0153799057006836,1.975174903869629
1683935882017676000,9.029676025390625,2.621778964996338,-0.8777904510498047,1.2847235202789307
1683935882027717400,9.03971728515625,2.6263625621795654,-0.5467491149902344,0.40343260765075684
1683935882037758500,9.049758544921875,2.315037965774536,0.16111183166503906,-0.6251187324523926
1683935882047799800,9.0597998046875,1.8299899101257324,0.8699111938476562,-1.595598578453064
1683935882057841000,9.0698408203125,1.3255791664123535,1.3624773025512695,-2.322160243988037
1683935882067882000,9.079882080078125,0.7830966711044312,1.6418251991271973,-2.8512892723083496
1683935882077923300,9.08992333984375,0.1196860671043396,1.730431079864502,-3.3353734016418457
1683935882087964400,9.09996435546875,-0.6843174695968628,1.4903135299682617,-3.654370069503784
1683935882098005800,9.110005859375,-1.5024290084838867,0.7807731628417969,-3.6939659118652344
1683935882108046800,9.120046875,-1.9694980382919312,-0.10082817077636719,-3.437912940979004
1683935882118088200,9.130088134765625,-1.6582586765289307,-0.6349353790283203,-2.897536039352417
1683935882128129300,9.14012939453125,-0.6511675715446472,-0.7363948822021484,-2.1000499725341797
1683935882138170600,9.150170654296875,0.42134296894073486,-0.6606855392456055,-1.2396297454833984
1683935882148211700,9.160211669921875,1.1031702756881714,-0.4927949905395508,-0.7383434772491455
1683935882158253000,9.170253173828126,1.501733660697937,-0.26862621307373047,-0.6097598075866699
1683935882168294100,9.180294189453125,1.7546937465667725,-0.1649036407470703,-0.5494494438171387
1683935882178335500,9.19033544921875,1.6987537145614624,-0.06452655792236328,-0.5172901153564453
1683935882188376600,9.20037646484375,1.4745354652404785,-0.03960227966308594,-0.43816399574279785
1683935882198418000,9.21041796875,1.202143669128418,-0.057023048400878906,-0.3639638423919678
1683935882208459000,9.220458984375,0.9588223695755005,-0.11199092864990234,-0.3332180976867676
1683935882218500400,9.230500244140625,0.7841228246688843,-0.09647941589355469,-0.4064004421234131
1683935882228541400,9.24054150390625,0.7774191498756409,-0.012486457824707031,-0.5024809837341309
1683935882238582800,9.250582763671876,0.8409311175346375,0.08998870849609375,-0.5580582618713379
1683935882248623900,9.260623779296875,0.9067094922065735,0.1775217056274414,-0.5609161853790283
1683935882258665200,9.270665283203124,0.9302060604095459,0.20233631134033203,-0.49700284004211426
1683935882268706300,9.280706298828125,0.9185407161712646,0.13818931579589844,-0.45554375648498535
1683935882278747400,9.290747314453125,0.9362202286720276,0.13822174072265625,-0.4413928985595703
1683935882288788700,9.300788818359376,0.9842661619186401,0.20474815368652344,-0.49991846084594727
1683935882298829800,9.310829833984375,1.079816222190857,0.15369319915771484,-0.4976617097854614
1683935882308871200,9.32087109375,1.1097667217254639,0.03777599334716797,-0.5021922588348389
1683935882318912300,9.330912353515625,1.0905781984329224,-0.0856313705444336,-0.5522503852844238
1683935882328953600,9.34095361328125,1.0281106233596802,-0.15441513061523438,-0.6523257493972778
1683935882338994700,9.35099462890625,0.9498506784439087,-0.25209522247314453,-0.7535192966461182
1683935882349036000,9.3610361328125,0.8571640253067017,-0.2876262664794922,-0.8451277017593384
1683935882359077000,9.3710771484375,0.7640341520309448,-0.30170154571533203,-0.9029269218444824
1683935882369118500,9.381118408203125,0.7041013240814209,-0.2584505081176758,-0.9481229782104492
1683935882379159600,9.39115966796875,0.6894711852073669,-0.23660564422607422,-0.9441031217575073
1683935882389201000,9.401200927734376,0.6419446468353271,-0.13791847229003906,-0.9186927080154419
1683935882399242000,9.411241943359375,0.6170713305473328,-0.10100460052490234,-0.8383386135101318
1683935882409283300,9.421283447265624,0.5914552211761475,0.00089263916015625,-0.7199652194976807
1683935882419324400,9.431324462890625,0.5676626563072205,0.07198905944824219,-0.52115797996521
1683935882429365800,9.44136572265625,0.5336971879005432,0.17908477783203125,-0.2904926538467407
1683935882439406800,9.45140673828125,0.5176320672035217,0.2598581314086914,-0.0905158519744873
1683935882449448200,9.4614482421875,0.5160594582557678,0.22341442108154297,0.1595449447631836
1683935882459489300,9.4714892578125,0.5290627479553223,0.22543048858642578,0.3622713088989258
1683935882469530600,9.481530517578125,0.5257867574691772,0.1678171157836914,0.557938814163208
1683935882479571700,9.49157177734375,0.532260537147522,0.2057666778564453,0.7506656646728516
1683935882489613000,9.501613037109376,0.4863806962966919,0.22186279296875,0.8847823143005371
1683935882499654100,9.511654052734375,0.42534708976745605,0.29031944274902344,0.9460258483886719
1683935882509695500,9.521695556640625,0.33855414390563965,0.3226661682128906,1.0270612239837646
1683935882519736600,9.531736572265626,0.3028024435043335,0.2900581359863281,1.0235769748687744
1683935882529777700,9.541777587890625,0.2789965867996216,0.2879524230957031,0.9135081768035889
1683935882539819000,9.551819091796874,0.30878448486328125,0.29459667205810547,0.8258485794067383
1683935882549860000,9.561860107421875,0.28528571128845215,0.1283864974975586,0.6965548992156982
1683935882559901400,9.5719013671875,0.25694918632507324,-0.00011730194091796875,0.5744092464447021
1683935882569942500,9.581942626953126,0.18959522247314453,-0.05983543395996094,0.360184907913208
1683935882579984000,9.59198388671875,0.08352792263031006,-0.07223892211914062,0.15049386024475098
1683935882590025000,9.60202490234375,-0.02106165885925293,-0.08953571319580078,-0.07274019718170166
1683935882600066300,9.61206640625,-0.07607364654541016,-0.12554264068603516,-0.20373153686523438
1683935882610107400,9.622107421875,-0.09561538696289062,-0.14871788024902344,-0.2710404396057129
1683935882620148700,9.632148681640626,-0.07594120502471924,-0.16363048553466797,-0.2747230529785156
1683935882630189800,9.64218994140625,-0.0361175537109375,-0.1678791046142578,-0.27765560150146484
1683935882640231200,9.652231201171874,0.03449749946594238,-0.11926651000976562,-0.3461649417877197
1683935882650272300,9.662272216796875,0.12304878234863281,-0.07531356811523438,-0.4331749677658081
1683935882660313600,9.672313720703125,0.19384920597076416,-0.03383636474609375,-0.4460620880126953
1683935882670354700,9.682354736328126,0.24640512466430664,-0.05151653289794922,-0.3322998285293579
1683935882680396000,9.69239599609375,0.22527706623077393,-0.0002613067626953125,-0.2756979465484619
1683935882690437000,9.70243701171875,0.1568087339401245,0.008199691772460938,-0.20527100563049316
1683935882700478500,9.712478515625,0.11880922317504883,-0.008887290954589844,-0.08911252021789551
1683935882710519600,9.72251953125,0.09939849376678467,-0.04651069641113281,0.0005379915237426758
1683935882720561000,9.732560791015626,0.08144378662109375,-0.01023101806640625,0.09698629379272461
1683935882730602000,9.74260205078125,0.019081473350524902,-0.011731147766113281,0.21434926986694336
1683935882740643000,9.75264306640625,0.006334066390991211,0.0015649795532226562,0.36609673500061035
1683935882750684400,9.762684326171875,0.0196915864944458,0.01549530029296875,0.5003412961959839
1683935882760725500,9.7727255859375,0.10116851329803467,0.07696056365966797,0.703534722328186
1683935882770766800,9.782766845703126,0.18541061878204346,0.09534454345703125,0.9070981740951538
1683935882780808000,9.792807861328125,0.2949817180633545,0.20306777954101562,0.9744195938110352
1683935882790849300,9.802849365234374,0.40990614891052246,0.1677865982055664,1.1193835735321045
1683935882800890400,9.812890380859375,0.4753403663635254,0.16597747802734375,1.194511890411377
1683935882810931700,9.822931640625,0.5500108003616333,0.22768306732177734,1.2016440629959106
1683935882820972800,9.832972900390626,0.6209547519683838,0.3022947311401367,1.248016595840454
1683935882831014100,9.84301416015625,0.696000337600708,0.4552183151245117,1.3230345249176025
1683935882841055200,9.85305517578125,0.7404828071594238,0.5835704803466797,1.434744119644165
1683935882851096600,9.8630966796875,0.7293565273284912,0.6714134216308594,1.455783486366272
1683935882861137700,9.8731376953125,0.6540824174880981,0.7614841461181641,1.5411475896835327
1683935882871179000,9.883178955078124,0.5524342060089111,0.804534912109375,1.468668818473816
1683935882881220000,9.89322021484375,0.3925517797470093,0.6652402877807617,1.4483659267425537
1683935882891261400,9.903261474609375,0.2792377471923828,0.4998044967651367,1.4923324584960938
1683935882901302500,9.913302490234376,0.22516214847564697,0.3912649154663086,1.4112375974655151
1683935882911343900,9.92334375,0.22471177577972412,0.2940635681152344,1.3021825551986694
1683935882921385000,9.933385009765624,0.2875957489013672,0.20081138610839844,1.2319437265396118
1683935882931426300,9.94342626953125,0.38042187690734863,-0.013730049133300781,1.1567429304122925
1683935882941467400,9.95346728515625,0.46600818634033203,-0.2066364288330078,1.0876699686050415
1683935882951508500,9.963508544921876,0.5267939567565918,-0.33823394775390625,0.8420335054397583
1683935882961549800,9.9735498046875,0.5862525701522827,-0.6094999313354492,0.7629410028457642
1683935882971591200,9.983591064453124,0.6394208669662476,-0.921687126159668,0.809640645980835
1683935882981632300,9.99363232421875,0.712830662727356,-1.163670539855957,0.8597917556762695
1683935882991673300,10.00367333984375,0.759265661239624,-1.2509708404541016,0.9767884016036987
1683935883001714700,10.013714599609376,0.8672330379486084,-1.4256362915039062,1.1870203018188477
1683935883011755800,10.023755859375,0.93863844871521,-1.7020750045776367,1.3220007419586182
1683935883021797000,10.033797119140624,0.9619272351264954,-1.9439830780029297,1.2720906734466553
1683935883031838200,10.043838134765625,0.8651871085166931,-2.0462770462036133,1.050837516784668
1683935883041879600,10.053879638671875,0.610437273979187,-2.0733861923217773,0.6657412052154541
1683935883051920600,10.063920654296876,0.2900257110595703,-1.9557533264160156,0.24573707580566406
1683935883061962000,10.0739619140625,-0.04564332962036133,-1.796173095703125,-0.17766761779785156
1683935883072003000,10.084003173828124,-0.3768734633922577,-1.5396442413330078,-0.633092999458313
1683935883082044400,10.09404443359375,-0.6942600011825562,-1.152735710144043,-1.1866332292556763
1683935883092085500,10.10408544921875,-1.8174195289611816,-0.6983966827392578,-1.958770513534546
1683935883102126800,10.114126953125,-5.7216901779174805,-0.49505615234375,-3.9044594764709473
1683935883112168000,10.12416796875,-5.925778865814209,-0.2542457580566406,-5.172937393188477
1683935883122209300,10.134209228515624,-4.08220911026001,0.27184200286865234,-5.21914529800415
1683935883132250400,10.14425048828125,-2.2724318504333496,0.6435308456420898,-4.3980207443237305
1683935883142291700,10.154291748046875,-0.7301112413406372,0.9167613983154297,-3.323532819747925
1683935883152332800,10.164332763671876,0.2980169653892517,1.220667839050293,-2.549440383911133
1683935883162374100,10.1743740234375,0.9475204944610596,1.5050544738769531,-2.2139151096343994
1683935883172415200,10.184415283203125,1.385945439338684,1.5245146751403809,-2.182216167449951
1683935883182456600,10.19445654296875,1.6395056247711182,1.3343896865844727,-2.087263584136963
1683935883192497700,10.20449755859375,1.8185231685638428,0.9392766952514648,-1.8362936973571777
1683935883202538800,10.214538818359374,1.8602463006973267,0.5293359756469727,-1.5057920217514038
1683935883212580000,10.224580078125,1.7072429656982422,-0.01427459716796875,-1.3331955671310425
1683935883222621400,10.234621337890625,1.2712719440460205,-0.7412662506103516,-1.1835858821868896
1683935883232662500,10.24466259765625,0.5591864585876465,-1.3981866836547852,-1.166202187538147
1683935883242703600,10.25470361328125,-0.32426804304122925,-1.7845935821533203,-1.2985683679580688
1683935883252745000,10.264744873046874,-1.0337858200073242,-1.992344856262207,-1.416177749633789
1683935883262786000,10.2747861328125,-1.4015531539916992,-1.9226293563842773,-1.4268149137496948
1683935883272827400,10.284827392578125,-1.5736422538757324,-1.6701364517211914,-1.4126478433609009
1683935883282868500,10.294868408203126,-1.6892515420913696,-1.3431854248046875,-1.4354597330093384
1683935883292909800,10.304909912109375,-1.622685432434082,-1.0278854370117188,-1.4746168851852417
1683935883302951000,10.314950927734374,-1.3858879804611206,-0.8119525909423828,-1.5646936893463135
1683935883312992300,10.3249921875,-1.078315019607544,-0.6966142654418945,-1.726391077041626
1683935883323033300,10.335033447265625,-0.7896283268928528,-0.5685396194458008,-1.9228346347808838
1683935883333074700,10.34507470703125,-0.4739192724227905,-0.3271369934082031,-2.023494243621826
1683935883343115800,10.35511572265625,-0.22917115688323975,-0.016065597534179688,-1.962616205215454
1683935883353157000,10.3651572265625,-0.07055127620697021,0.16116046905517578,-1.925365686416626
1683935883363198200,10.3751982421875,-0.001721501350402832,0.3239879608154297,-1.895719051361084
1683935883373239600,10.385239501953125,-0.008026719093322754,0.2830028533935547,-1.7233073711395264
1683935883383280600,10.39528076171875,-0.15031832456588745,0.13131237030029297,-1.615824580192566
1683935883393322000,10.405322021484375,-0.27056533098220825,-0.052023887634277344,-1.635739803314209
1683935883403363000,10.415363037109374,-0.38005924224853516,-0.23325824737548828,-1.79427170753479
1683935883413404200,10.425404052734375,-0.512415885925293,-0.3903322219848633,-1.9674752950668335
1683935883423445500,10.435445556640625,-0.5210718512535095,-0.4654703140258789,-2.0889604091644287
1683935883433486800,10.44548681640625,-0.4556620121002197,-0.49181365966796875,-2.0495951175689697
1683935883443528000,10.45552783203125,-0.31209152936935425,-0.5240316390991211,-1.9513888359069824
1683935883453569000,10.465569091796874,-0.12736213207244873,-0.5142221450805664,-1.765692114830017
1683935883463610400,10.4756103515625,0.023602843284606934,-0.4578819274902344,-1.5030592679977417
1683935883473651500,10.4856513671875,0.107452392578125,-0.39340877532958984,-1.2785636186599731
1683935883483692800,10.49569287109375,0.14416813850402832,-0.33043479919433594,-1.0658390522003174
1683935883493734000,10.50573388671875,0.10463303327560425,-0.22855758666992188,-0.9007666110992432
1683935883503775200,10.515775146484375,-0.013662874698638916,-0.15975284576416016,-0.7427411079406738
1683935883513816300,10.52581640625,-0.17046082019805908,-0.17426681518554688,-0.6895678043365479
1683935883523857700,10.535857666015625,-0.3007545471191406,-0.17406463623046875,-0.6693375110626221
1683935883533898800,10.545898681640624,-0.32231760025024414,-0.14746570587158203,-0.699681282043457
1683935883543940000,10.555940185546875,-0.16188210248947144,-0.10181331634521484,-0.7458925247192383
1683935883553981200,10.565981201171875,0.07143968343734741,0.05118560791015625,-0.783011794090271
1683935883564022500,10.5760224609375,0.343880832195282,0.24204063415527344,-0.7953169345855713
1683935883574063600,10.586063720703125,0.5818818807601929,0.4421253204345703,-0.7594044208526611
1683935883584105000,10.59610498046875,0.710684061050415,0.6038284301757812,-0.6107646226882935
1683935883594146000,10.60614599609375,0.69770348072052,0.6795253753662109,-0.4353373050689697
1683935883604187400,10.6161875,0.5834395289421082,0.6979637145996094,-0.1851177215576172
1683935883614228500,10.626228515625,0.3878047466278076,0.7067966461181641,0.13037943840026855
1683935883624269800,10.636269775390625,0.24516022205352783,0.7011022567749023,0.36818623542785645
1683935883634311000,10.646310791015624,0.23976457118988037,0.7094717025756836,0.6215300559997559
1683935883644352300,10.656352294921875,0.37639766931533813,0.7464399337768555,0.7686922550201416
1683935883654393300,10.666393310546875,0.5394237041473389,0.795440673828125,0.8860914707183838
1683935883664434700,10.6764345703125,0.5314708948135376,0.8374967575073242,1.0264811515808105
1683935883674475800,10.686475830078125,0.3224414587020874,0.8605165481567383,1.2181565761566162
1683935883684517000,10.69651708984375,0.08406901359558105,0.933375358581543,1.3191943168640137
1683935883694558200,10.70655810546875,-0.11011117696762085,0.9696712493896484,1.3389003276824951
1683935883704599600,10.716599609375,-0.20676612854003906,0.9860696792602539,1.2485883235931396
1683935883714640600,10.726640625,-0.308793842792511,0.9132900238037109,1.1318740844726562
1683935883724681700,10.736681640625,-0.3339785933494568,0.7730093002319336,1.1339759826660156
1683935883734723000,10.74672314453125,-0.37660908699035645,0.6178140640258789,1.215770959854126
1683935883744764200,10.75676416015625,-0.3657188415527344,0.5338134765625,1.2031097412109375
1683935883754805500,10.766805419921875,-0.24486732482910156,0.5689830780029297,1.1001930236816406
1683935883764846600,10.7768466796875,-0.05725449323654175,0.5416126251220703,1.029674768447876
1683935883774888000,10.786887939453125,-0.05727466940879822,0.4922523498535156,0.9649968147277832
1683935883784929000,10.796928955078124,-0.22466403245925903,0.4114341735839844,0.9117512702941895
1683935883794970400,10.806970458984376,-0.6266705989837646,0.15810585021972656,1.1131870746612549
1683935883805011500,10.817011474609375,-1.0996183156967163,-0.18352222442626953,1.2805416584014893
1683935883815052800,10.827052734375,-1.490518569946289,-0.5100193023681641,1.3939404487609863
1683935883825094000,10.837093994140625,-1.721125602722168,-0.5750837326049805,1.368288516998291
1683935883835135200,10.84713525390625,-1.8130924701690674,-0.5276937484741211,1.2790465354919434
1683935883845176300,10.85717626953125,-1.7713725566864014,-0.3518867492675781,1.0935428142547607
1683935883855217700,10.8672177734375,-1.602905035018921,-0.19600868225097656,0.8025844097137451
1683935883865258800,10.8772587890625,-1.3198540210723877,-0.10484981536865234,0.4536459445953369
1683935883875300000,10.887300048828125,-1.085038661956787,-0.034918785095214844,0.246232271194458
1683935883885341200,10.897341064453125,-1.049046277999878,0.0021142959594726562,0.12096095085144043
1683935883895382500,10.907382568359376,-1.1688834428787231,0.0804758071899414,-0.008028268814086914
1683935883905423600,10.917423583984375,-1.3109525442123413,0.16909313201904297,-0.1763315200805664
1683935883915465000,10.92746484375,-1.3301023244857788,0.2247772216796875,-0.439436674118042
1683935883925506000,10.937506103515625,-1.281885027885437,0.20919227600097656,-0.6927754878997803
1683935883935547400,10.94754736328125,-1.190569519996643,0.2561311721801758,-0.8794811964035034
1683935883945588500,10.95758837890625,-0.9734625220298767,0.2793855667114258,-1.007158875465393
1683935883955629800,10.9676298828125,-0.7225337624549866,0.3360881805419922,-1.0791715383529663
1683935883965671000,10.9776708984375,-0.46080315113067627,0.4260435104370117,-1.1103317737579346
1683935883975712300,10.987712158203125,-0.21848422288894653,0.5013628005981445,-1.11033034324646
1683935883985753300,10.99775341796875,-0.06577624380588531,0.5359210968017578,-1.0333044528961182
1683935883995794400,11.00779443359375,0.047543689608573914,0.3126335144042969,-0.7712697982788086
1683935884005835800,11.017835693359375,0.1998523771762848,-0.21322250366210938,-0.31959009170532227
1683935884015877000,11.027877197265624,0.2944970726966858,-0.7401361465454102,0.017864704132080078
1683935884025918200,11.037918212890625,0.20969682931900024,-0.8619518280029297,0.1589200496673584
1683935884035959300,11.047959228515625,0.06618112325668335,-0.7562732696533203,0.2076878547668457
1683935884046000600,11.058000732421876,-0.12139719724655151,-0.6126089096069336,0.35927915573120117
1683935884056041700,11.068041748046875,-0.3011786937713623,-0.4194478988647461,0.35141873359680176
1683935884066083000,11.0780830078125,-0.4445717930793762,-0.3032341003417969,0.3730483055114746
1683935884076124200,11.088124267578126,-0.615292489528656,-0.20374393463134766,0.37882423400878906
1683935884086165500,11.09816552734375,-0.6944085359573364,-0.17837047576904297,0.49210596084594727
1683935884096206600,11.10820654296875,-0.677642285823822,-0.12937355041503906,0.5013597011566162
1683935884106248000,11.118248046875,-0.6405642628669739,-0.18410396575927734,0.501924991607666
1683935884116289000,11.1282890625,-0.6000853776931763,-0.0840597152709961,0.3062732219696045
1683935884126330400,11.138330322265626,-0.5035470724105835,-0.06348037719726562,0.19718170166015625
1683935884136371500,11.148371337890625,-0.3613159954547882,-0.00751495361328125,0.06235170364379883
1683935884146412800,11.158412841796874,-0.2827146053314209,0.019201278686523438,0.04296398162841797
1683935884156454000,11.168453857421875,-0.31815409660339355,0.05478191375732422,0.13187718391418457
1683935884166495200,11.1784951171875,-0.5107913017272949,0.108612060546875,0.3269937038421631
1683935884176536300,11.188536376953126,-0.7025166749954224,0.10897254943847656,0.589853048324585
1683935884186577700,11.19857763671875,-0.7291146516799927,-0.04902839660644531,0.8591456413269043
1683935884196618800,11.20861865234375,-0.48347383737564087,0.0030279159545898438,0.7898297309875488
1683935884206660000,11.21866015625,-0.1891685128211975,0.07395744323730469,0.532827615737915
1683935884216701200,11.228701171875,0.08075892925262451,0.2479228973388672,0.13823366165161133
1683935884226742500,11.238742431640626,0.301305890083313,0.3790779113769531,-0.08846807479858398
1683935884236783600,11.24878369140625,0.4527055025100708,0.4098320007324219,-0.15867948532104492
1683935884246825000,11.258824951171874,0.5426836013793945,0.3902149200439453,-0.1630268096923828
1683935884256866000,11.268865966796875,0.5455459356307983,0.2628755569458008,-0.06550908088684082
1683935884266907100,11.2789072265625,0.5075674057006836,0.11158561706542969,0.06619596481323242
1683935884276948500,11.288948486328126,0.42700624465942383,-0.013279914855957031,0.15494823455810547
1683935884286989800,11.29898974609375,0.385634183883667,-0.03750038146972656,0.1670668125152588
1683935884297031000,11.309031005859374,0.3562101125717163,-0.0066280364990234375,0.13088512420654297
1683935884307072300,11.319072265625,0.3675953149795532,0.014702796936035156,0.06774401664733887
1683935884317113300,11.32911328125,0.3926619291305542,0.03836631774902344,0.027822494506835938
1683935884327154400,11.339154541015626,0.43786823749542236,0.035717010498046875,-0.026720523834228516
1683935884337195800,11.34919580078125,0.4527953863143921,0.0020856857299804688,-0.021552562713623047
1683935884347237000,11.359237060546874,0.4590495824813843,0.006983757019042969,-0.02060413360595703
1683935884357278200,11.3692783203125,0.4567139148712158,0.021775245666503906,-0.06402182579040527
1683935884367319300,11.3793193359375,0.47201669216156006,0.034461021423339844,-0.0371854305267334
1683935884377360600,11.389360595703126,0.4548290967941284,0.07612133026123047,-0.06917357444763184
1683935884387401700,11.399401611328125,0.4555882215499878,0.08948326110839844,-0.06157684326171875
1683935884397443000,11.409443115234374,0.5031129121780396,0.09123420715332031,-0.055640459060668945
1683935884407484200,11.419484130859376,0.5399246215820312,0.09812641143798828,-0.03222775459289551
1683935884417525500,11.429525390625,0.6065093278884888,0.05994224548339844,0.013253211975097656
1683935884427566600,11.439566650390624,0.6712472438812256,0.01970195770263672,0.08070588111877441
1683935884437608000,11.44960791015625,0.7074748277664185,-0.017925262451171875,0.16745829582214355
1683935884447649000,11.45964892578125,0.7604198455810547,0.02350616455078125,0.2140359878540039
1683935884457690400,11.4696904296875,0.7656052112579346,0.014726638793945312,0.3155496120452881
1683935884467731500,11.4797314453125,0.7738208770751953,0.020300865173339844,0.34241151809692383
1683935884477772800,11.489772705078124,0.7592822313308716,0.009190559387207031,0.41885828971862793
1683935884487814000,11.49981396484375,0.7747453451156616,0.0435028076171875,0.43707966804504395
1683935884497855200,11.509855224609375,0.8077894449234009,-0.005944252014160156,0.5163969993591309
1683935884507896300,11.519896240234376,0.8386383056640625,-0.005356788635253906,0.5537319183349609
1683935884517937700,11.529937744140625,0.8597807884216309,0.011719703674316406,0.6091587543487549
1683935884527978800,11.539978759765624,0.8972806930541992,-0.0001888275146484375,0.644324541091919
1683935884538020000,11.55002001953125,0.8864023685455322,0.03299999237060547,0.6927552223205566
1683935884548061200,11.560061279296875,0.8418984413146973,0.0778665542602539,0.6592473983764648
1683935884558102500,11.5701025390625,0.7877871990203857,0.1200408935546875,0.6490023136138916
1683935884568143600,11.5801435546875,0.7005882263183594,0.1714620590209961,0.5733182430267334
1683935884578185000,11.59018505859375,0.590619683265686,0.1748819351196289,0.48245739936828613
1683935884588226000,11.60022607421875,0.44418835639953613,0.14733123779296875,0.34109044075012207
1683935884598267400,11.610267333984375,0.3881491422653198,0.0651235580444336,0.2189791202545166
1683935884608308500,11.62030859375,0.33120012283325195,0.007187843322753906,0.17591404914855957
1683935884618349800,11.630349853515625,0.34393203258514404,-0.03790283203125,0.06340980529785156
1683935884628391000,11.640390869140624,0.3676954507827759,-0.020865440368652344,0.04563283920288086
1683935884638432300,11.650432373046876,0.3778705596923828,-0.055755615234375,0.017911434173583984
1683935884648473300,11.660473388671875,0.36951744556427,-0.026319503784179688,0.016144275665283203
1683935884658514400,11.670514404296876,0.3451993465423584,-0.01835155487060547,0.06363749504089355
1683935884668555800,11.6805556640625,0.2985703945159912,0.013271331787109375,0.09589529037475586
1683935884678597000,11.69059716796875,0.23530685901641846,0.058841705322265625,0.1720905303955078
1683935884688638200,11.70063818359375,0.19646167755126953,0.07813644409179688,0.2581803798675537
1683935884698679300,11.71067919921875,0.16309285163879395,0.11166954040527344,0.3846626281738281
1683935884708720600,11.720720703125,0.13750171661376953,0.16632747650146484,0.4992973804473877
1683935884718761700,11.73076171875,0.1454939842224121,0.18277740478515625,0.6464576721191406
1683935884728803000,11.740802978515624,0.1303161382675171,0.20630741119384766,0.7473831176757812
1683935884738844200,11.75084423828125,0.12774419784545898,0.2509279251098633,0.885183572769165
1683935884748885500,11.760885498046875,0.12145137786865234,0.23851490020751953,1.0115442276000977
1683935884758926600,11.770926513671874,0.12549996376037598,0.31345653533935547,1.1048142910003662
1683935884768968000,11.780968017578125,0.09513068199157715,0.34011268615722656,1.1654441356658936
1683935884779009000,11.791009033203125,0.08285188674926758,0.3664207458496094,1.196441888809204
1683935884789050400,11.80105029296875,0.05111241340637207,0.39008140563964844,1.226466178894043
1683935884799091500,11.811091552734375,0.05477738380432129,0.36632728576660156,1.2855267524719238
1683935884809132800,11.8211328125,0.05812084674835205,0.3877744674682617,1.3000946044921875
1683935884819174000,11.831173828125,0.07533740997314453,0.33368873596191406,1.2830018997192383
1683935884829215200,11.84121533203125,0.1271589994430542,0.3277730941772461,1.2491967678070068
1683935884839256300,11.85125634765625,0.19132542610168457,0.3762550354003906,1.199162483215332
1683935884849297700,11.861297607421875,0.23187017440795898,0.36985301971435547,1.137848138809204
1683935884859338800,11.8713388671875,0.2746824026107788,0.3918037414550781,1.0395050048828125
1683935884869380000,11.881380126953125,0.2864576578140259,0.3332958221435547,1.0177783966064453
1683935884879421200,11.891421142578125,0.2673187255859375,0.3321981430053711,0.9044239521026611
1683935884889462500,11.901462646484376,0.23876357078552246,0.3310689926147461,0.7953360080718994
1683935884899503600,11.911503662109375,0.1845334768295288,0.3112068176269531,0.6485762596130371
1683935884909545000,11.921544921875,0.1662508249282837,0.31539154052734375,0.5593318939208984
1683935884919586000,11.9315859375,0.15270769596099854,0.27034568786621094,0.4611778259277344
1683935884929627400,11.94162744140625,0.17877256870269775,0.2852439880371094,0.3453254699707031
1683935884939668500,11.95166845703125,0.2194995880126953,0.33562564849853516,0.3023340702056885
1683935884949709800,11.961709716796875,0.257510781288147,0.43035125732421875,0.28212928771972656
1683935884959751000,11.9717509765625,0.30901312828063965,0.46018409729003906,0.3661153316497803
1683935884969792300,11.981792236328126,0.35536086559295654,0.3646678924560547,0.5132954120635986
1683935884979833300,11.991833251953125,0.3006274700164795,0.2964649200439453,0.6324365139007568
1683935884989874700,12.001874755859374,0.23209011554718018,0.2434854507446289,0.7264041900634766
1683935884999915800,12.011915771484375,0.18162858486175537,0.13016700744628906,0.8138999938964844
1683935885009957000,12.02195703125,0.11479771137237549,0.04227447509765625,0.920210599899292
1683935885019998200,12.031998291015626,0.04003465175628662,-0.069915771484375,0.9389598369598389
1683935885030039600,12.04203955078125,-0.024988174438476562,-0.21535205841064453,0.9065709114074707
1683935885040080600,12.05208056640625,-0.10370087623596191,-0.29692649841308594,0.8215324878692627
1683935885050122000,12.0621220703125,-0.11148488521575928,-0.3227882385253906,0.6731996536254883
1683935885060163000,12.0721630859375,-0.06936275959014893,-0.2326974868774414,0.5879299640655518
1683935885070204200,12.0822041015625,0.020599007606506348,-0.12523937225341797,0.6190629005432129
1683935885080245500,12.09224560546875,0.13318204879760742,-0.04796123504638672,0.7149698734283447
1683935885090286800,12.102286865234374,0.25140380859375,0.006682395935058594,0.9169042110443115
1683935885100328000,12.112327880859375,0.3980900049209595,-0.017705917358398438,1.1774542331695557
1683935885110369300,12.122369384765625,0.5676593780517578,-0.019377708435058594,1.4723834991455078
1683935885120410400,12.132410400390626,0.7027356624603271,0.04566192626953125,1.6338543891906738
1683935885130451500,12.142451416015625,0.784326434135437,0.08257579803466797,1.7228655815124512
1683935885140492800,12.152492919921874,0.8533661365509033,-0.03753852844238281,1.924734354019165
1683935885150534100,12.1625341796875,0.88004469871521,-0.1686077117919922,2.1543030738830566
1683935885160575200,12.1725751953125,0.8366079330444336,-0.25838470458984375,2.281733751296997
1683935885170616300,12.1826162109375,0.7562274932861328,-0.3096914291381836,2.3595120906829834
1683935885180657700,12.19265771484375,0.6158504486083984,-0.24610519409179688,2.274179697036743
1683935885190698800,12.20269873046875,0.3790414333343506,-0.15188884735107422,1.9144983291625977
1683935885200740000,12.212739990234375,0.10057854652404785,-0.12089920043945312,1.48661470413208
1683935885210781400,12.222781494140625,-0.11767733097076416,-0.05100727081298828,1.0879607200622559
1683935885220822500,12.232822509765626,-0.2994861602783203,0.01923847198486328,0.6595139503479004
1683935885230863600,12.242863525390625,-0.4285758137702942,0.0638275146484375,0.25451016426086426
1683935885240905000,12.252905029296874,-0.5481507182121277,0.0030698776245117188,-0.056977033615112305
1683935885250946000,12.262946044921875,-0.6461512446403503,-0.0037641525268554688,-0.35002779960632324
1683935885260987400,12.2729873046875,-0.7398959398269653,-0.014090538024902344,-0.6455650329589844
1683935885271028700,12.28302880859375,-0.8347452878952026,0.02701282501220703,-0.9097384214401245
1683935885281069800,12.29306982421875,-0.9266536235809326,0.1072702407836914,-1.1643478870391846
1683935885291111000,12.30311083984375,-0.9838600754737854,0.240509033203125,-1.3359217643737793
1683935885301152300,12.31315234375,-1.1053552627563477,0.39793872833251953,-1.5507501363754272
1683935885311193300,12.323193359375,-2.572826862335205,0.4842185974121094,-1.6341533660888672
1683935885321234700,12.333234619140624,-7.255732536315918,0.359100341796875,-0.32059550285339355
1683935885331275800,12.34327587890625,-5.243703842163086,0.5644187927246094,-0.14004135131835938
1683935885341317000,12.353317138671875,-2.644705057144165,0.7022905349731445,-0.9140625
1683935885351358200,12.363358154296876,-0.8934892416000366,0.5559482574462891,-1.4615334272384644
1683935885361399600,12.373399658203125,0.11342436075210571,0.25953197479248047,-1.5209081172943115
1683935885371440600,12.383440673828124,0.6073492765426636,-0.016417503356933594,-1.316340446472168
1683935885381482000,12.39348193359375,0.6802895665168762,-0.22288990020751953,-1.164210319519043
1683935885391523000,12.403523193359375,0.5158790349960327,-0.5129594802856445,-1.033231496810913
1683935885401564400,12.413564453125,0.27992644906044006,-0.74456787109375,-1.0592608451843262
1683935885411605500,12.42360546875,0.13237614929676056,-1.0338678359985352,-1.0841960906982422
1683935885421646800,12.433646728515624,0.073084756731987,-1.2372732162475586,-1.0003714561462402
1683935885431688000,12.44368798828125,0.14606118202209473,-1.3192138671875,-0.884845495223999
1683935885441729300,12.453729248046875,0.23422539234161377,-1.2899456024169922,-0.6053192615509033
1683935885451770400,12.463770263671876,0.14884112775325775,-1.1958112716674805,-0.3074319362640381
1683935885461811700,12.473811767578125,-0.04732953757047653,-0.9922552108764648,-0.08837676048278809
1683935885471852800,12.483852783203124,-0.3374928832054138,-0.6195478439331055,-0.15265440940856934
1683935885481894100,12.49389404296875,-0.38678449392318726,-0.5402631759643555,0.1301121711730957
1683935885491935200,12.503935302734375,-0.3080296814441681,-0.28176307678222656,0.10930156707763672
1683935885501976600,12.5139765625,-0.07631956040859222,0.024657249450683594,-0.0965123176574707
1683935885512017700,12.524017578125,0.17497923970222473,0.32779979705810547,-0.4837791919708252
1683935885522059000,12.53405908203125,0.3681544065475464,0.5899477005004883,-0.7095127105712891
1683935885532100000,12.54410009765625,0.4126053750514984,0.7319107055664062,-0.8992319107055664
1683935885542141400,12.554141357421875,0.29161837697029114,0.6437311172485352,-0.9127688407897949
