time,seconds_elapsed,z,y,x
1684108397936528400,0.0315283203125,0,0,0
1684108397946568700,0.041568603515625,0.50994873046875,-0.04485034942626953,0.018333449959754944
1684108397956609000,0.051609130859375,1.1623764038085938,0.07826757431030273,0.17492824792861938
1684108397966649300,0.0616494140625,1.5265865325927734,0.3672752380371094,0.528127908706665
1684108397976689700,0.071689697265625,1.2912235260009766,0.5841150283813477,0.8575142621994019
1684108397986730000,0.08172998046875,0.5315437316894531,0.49172210693359375,1.155925989151001
1684108397996770600,0.0917705078125,-0.7253808975219727,0.6588890552520752,1.1264396905899048
1684108398006811000,0.101810791015625,-2.036836624145508,0.5834476947784424,0.8326661586761475
1684108398016851200,0.111851318359375,-2.759166717529297,1.1034693717956543,0.9145678281784058
1684108398026891500,0.1218916015625,-2.935556411743164,-0.30574917793273926,1.4101479053497314
1684108398036931800,0.131931884765625,-2.696094512939453,0.20067453384399414,0.9548797607421875
1684108398046972400,0.141972412109375,-2.2086992263793945,-0.6291065216064453,1.716158151626587
1684108398057012700,0.1520126953125,-1.6320714950561523,-0.537480354309082,1.6729495525360107
1684108398067053000,0.162052978515625,-0.7939214706420898,0.17757773399353027,1.6681759357452393
1684108398077093400,0.17209326171875,-0.545074462890625,0.3092203140258789,1.3049004077911377
1684108398087134000,0.182134033203125,-0.6682977676391602,-0.10989832878112793,0.877800703048706
1684108398097174300,0.19217431640625,-0.47166919708251953,-0.5125913619995117,0.5351135730743408
1684108398107214600,0.202214599609375,-0.6448965072631836,-0.46172571182250977,0.023384571075439453
1684108398117255000,0.2122548828125,-0.7638349533081055,-0.2841179370880127,-0.24112963676452637
1684108398127295200,0.222295166015625,-0.7195339202880859,0.3988008499145508,-0.9040342569351196
1684108398137335800,0.232335693359375,-0.9282865524291992,-0.8228714466094971,-0.319690465927124
1684108398147376000,0.242376220703125,-0.8150749206542969,-0.16460919380187988,-1.5405585765838623
1684108398157416400,0.25241650390625,-1.2543916702270508,-0.5522534847259521,-0.8838818073272705
1684108398167456800,0.262456787109375,-1.7915563583374023,-1.141226053237915,-1.8292551040649414
1684108398177497300,0.272497314453125,-1.8937287330627441,-1.3631765842437744,-1.7566816806793213
1684108398187537700,0.28253759765625,-1.6837544441223145,-1.2744383811950684,-1.0949218273162842
1684108398197578000,0.292577880859375,-1.0524744987487793,-0.18503355979919434,-1.2374485731124878
1684108398207618300,0.302618408203125,-0.39443016052246094,0.28287363052368164,-0.9829167127609253
1684108398217658600,0.31265869140625,-0.15410995483398438,0.4660191535949707,-0.7867457866668701
1684108398227699200,0.32269921875,0.2209024429321289,0.9793293476104736,-1.2855545282363892
1684108398237739500,0.332739501953125,0.45951175689697266,0.5836877822875977,-0.27895092964172363
1684108398247779800,0.34277978515625,1.9075632095336914,0.7581822872161865,-1.2267556190490723
1684108398257820200,0.352820068359375,2.77864933013916,0.8364343643188477,-1.520002841949463
1684108398267860500,0.362860595703125,3.1587533950805664,1.4168286323547363,-1.650926113128662
1684108398277901000,0.372901123046875,2.2008094787597656,-1.6044743061065674,0.5302510261535645
1684108398287941400,0.38294140625,0.9655227661132812,-2.2857539653778076,1.2462658882141113
1684108398297981700,0.392981689453125,-6.361482620239258,-0.6925795078277588,-0.5674417018890381
1684108398308022000,0.40302197265625,-4.458102226257324,2.0437912940979004,-1.84912109375
1684108398318062600,0.4130625,-0.5724773406982422,1.616489291191101,0.08367061614990234
1684108398328103000,0.42310302734375,0.3465452194213867,1.2185139656066895,-0.08557271957397461
1684108398338143200,0.433143310546875,-0.06985950469970703,0.628319501876831,0.02362537384033203
1684108398348183600,0.44318359375,-0.0074634552001953125,1.2071778774261475,-0.8775019645690918
1684108398358224000,0.453223876953125,2.286118984222412,0.47830891609191895,-0.7426280975341797
1684108398368264400,0.463264404296875,6.698884010314941,-0.3720252513885498,2.2196807861328125
1684108398378304800,0.4733046875,4.107343673706055,-1.4875330924987793,1.5952043533325195
1684108398388345000,0.483344970703125,2.191751003265381,-1.39495849609375,0.39037179946899414
1684108398398385400,0.493385498046875,-0.45290040969848633,-1.1771447658538818,-0.7686219215393066
1684108398408426000,0.503426025390625,-3.019922971725464,-0.8770589828491211,-1.319962978363037
1684108398418466300,0.51346630859375,-0.6576704978942871,-0.014528989791870117,-1.1749215126037598
1684108398428506600,0.523506591796875,-2.772003650665283,-0.0423884391784668,-0.35793209075927734
1684108398438547000,0.533546875,-4.671687602996826,0.0871422290802002,-0.027146339416503906
1684108398448587300,0.543587158203125,-5.320553302764893,0.732285737991333,-0.21136093139648438
1684108398458627800,0.5536279296875,-4.2550225257873535,1.4461479187011719,-0.9063930511474609
1684108398468668200,0.563668212890625,-3.1186695098876953,1.5352097749710083,-0.8546075820922852
1684108398478708500,0.57370849609375,-2.9516963958740234,0.6535961627960205,-0.6303224563598633
1684108398488748800,0.583748779296875,-2.619011878967285,0.017879247665405273,-0.8496527671813965
1684108398498789400,0.593789306640625,-2.1653287410736084,-0.12435412406921387,-1.0813379287719727
1684108398508829700,0.60382958984375,-1.536306619644165,0.16704916954040527,-1.5669302940368652
1684108398518870000,0.6138701171875,-0.7860243320465088,0.4667181968688965,-1.4733352661132812
1684108398528910300,0.623910400390625,0.27056884765625,0.6159744262695312,-0.6939101219177246
1684108398538950700,0.63395068359375,0.8954429626464844,0.7029438018798828,0.4537496566772461
1684108398548991200,0.6439912109375,1.4007744789123535,1.0691685676574707,1.0276927947998047
1684108398559031600,0.654031494140625,1.2232184410095215,1.0963242053985596,1.0985689163208008
1684108398569071900,0.66407177734375,0.5617880821228027,1.1813669204711914,0.12977027893066406
1684108398579112200,0.6741123046875,-0.5598108768463135,0.8938684463500977,-0.7672080993652344
1684108398589152500,0.684152587890625,-1.048854947090149,0.9375548362731934,-1.7298431396484375
1684108398599193000,0.694193115234375,-1.1140233278274536,0.27207517623901367,-1.7531852722167969
1684108398609233400,0.7042333984375,-1.018383264541626,-0.18785715103149414,-2.3211255073547363
1684108398619273700,0.714273681640625,-0.5716755986213684,-0.47357606887817383,-1.832077980041504
1684108398629314300,0.724314208984375,-0.21725881099700928,-0.20717954635620117,-0.9875307083129883
1684108398639354600,0.734354736328125,-0.36718374490737915,-0.2385573387145996,0.26935243606567383
1684108398649395000,0.74439501953125,-0.3707387447357178,-0.9020800590515137,1.7384648323059082
1684108398659435300,0.754435302734375,-0.03462398052215576,-1.70458984375,2.8252339363098145
1684108398669475600,0.7644755859375,0.6255068182945251,-1.2621006965637207,2.8601083755493164
1684108398679516200,0.77451611328125,1.0191371440887451,-0.46863746643066406,2.446824073791504
1684108398689556500,0.784556396484375,0.6164462566375732,-0.1798567771911621,2.2142233848571777
1684108398699596800,0.7945966796875,-0.0957421064376831,-0.29300785064697266,1.5874104499816895
1684108398709637000,0.80463720703125,-1.1382794380187988,-0.36354732513427734,0.9659981727600098
1684108398719677700,0.814677734375,-2.3272957801818848,-0.27439069747924805,1.2491836547851562
1684108398729718000,0.824718017578125,-2.704338788986206,0.0021653175354003906,1.4809412956237793
1684108398739758300,0.83475830078125,-2.3857691287994385,0.08041810989379883,1.0154166221618652
1684108398749798700,0.844798583984375,-1.6781129837036133,0.007445812225341797,0.4609365463256836
1684108398759839000,0.8548388671875,-0.742220401763916,-0.0653543472290039,0.23766422271728516
1684108398769879600,0.864879638671875,0.23346157371997833,-0.24157047271728516,-0.0628046989440918
1684108398779920000,0.874919921875,1.095381259918213,-0.7012362480163574,-0.1147470474243164
1684108398789960200,0.884960205078125,1.794212818145752,-1.101545810699463,-0.06638288497924805
1684108398800000500,0.89500048828125,2.1655452251434326,-1.293673038482666,-0.06255769729614258
1684108398810041000,0.905041015625,2.083576202392578,-1.3579134941101074,0.018073081970214844
1684108398820081400,0.915081298828125,1.8164000511169434,-1.3454375267028809,0.7289490699768066
1684108398830121700,0.925121826171875,1.4123586416244507,-1.0848093032836914,1.5706005096435547
1684108398840162000,0.935162109375,0.7491834163665771,-0.8719220161437988,2.243940830230713
1684108398850202400,0.945202392578125,-0.2693803608417511,-0.5931549072265625,2.712432861328125
1684108398860243000,0.955242919921875,-1.657815933227539,-0.20111465454101562,2.7465662956237793
1684108398870283300,0.965283203125,-2.9914112091064453,-0.06316280364990234,2.002729892730713
1684108398880323600,0.975323486328125,-3.879635810852051,-0.36401844024658203,1.276611328125
1684108398890364000,0.985364013671875,-3.6031270027160645,-0.6626224517822266,0.7585086822509766
1684108398900404500,0.995404541015625,-2.2604265213012695,-0.8972377777099609,0.33611059188842773
1684108398910444800,1.00544482421875,-0.8844400644302368,-0.8902006149291992,0.3056063652038574
1684108398920485000,1.015485107421875,0.17227467894554138,-0.6806883811950684,0.9840435981750488
1684108398930525400,1.025525390625,0.9364917278289795,-0.13416194915771484,1.6875052452087402
1684108398940566000,1.03556591796875,0.9650790691375732,0.4871816635131836,2.1519088745117188
1684108398950606300,1.0456064453125,0.25374868512153625,1.1497764587402344,1.8662209510803223
1684108398960646700,1.055646728515625,-0.3832073211669922,1.3870315551757812,0.830620288848877
1684108398970687000,1.06568701171875,-0.15015089511871338,1.3592610359191895,0.019463062286376953
1684108398980727600,1.0757275390625,-1.6943433284759521,0.526456356048584,-0.5586419105529785
1684108398990767900,1.085767822265625,-1.059391975402832,0.6361737251281738,-0.8835558891296387
1684108399000808200,1.09580810546875,-0.07106137275695801,0.5846514701843262,-1.115046501159668
1684108399010848500,1.1058486328125,0.25924164056777954,0.22934818267822266,-0.9534330368041992
1684108399020888800,1.115888916015625,0.3579590320587158,0.05878734588623047,-1.1148390769958496
1684108399030929400,1.125929443359375,0.2230818271636963,-0.15964984893798828,-1.1033611297607422
1684108399040969700,1.1359697265625,0.04997217655181885,-0.37634801864624023,-0.7280926704406738
1684108399051010000,1.146010009765625,-0.3207970857620239,-0.5377926826477051,-0.7309775352478027
1684108399061050400,1.15605029296875,-0.3660022020339966,-0.03813886642456055,-0.6393141746520996
1684108399071090700,1.166090576171875,-0.22057533264160156,0.03875589370727539,-0.39318370819091797
1684108399081131300,1.17613134765625,0.08203995227813721,0.2341632843017578,-0.11513280868530273
1684108399091171600,1.186171630859375,0.00993812084197998,0.2520270347595215,0.45607423782348633
1684108399101212000,1.1962119140625,-0.3310660123825073,-0.4568910598754883,0.6928267478942871
1684108399111252500,1.20625244140625,-0.16775143146514893,-0.8214130401611328,0.425356388092041
1684108399121292800,1.216292724609375,0.26078879833221436,-0.8477778434753418,0.22803878784179688
1684108399131333000,1.2263330078125,-0.3014761209487915,-0.9865684509277344,-0.30204343795776367
1684108399141373400,1.23637353515625,-0.6645611524581909,-1.0626840591430664,-1.0022187232971191
1684108399151413800,1.246413818359375,0.5676724910736084,-1.125894546508789,-1.531036376953125
1684108399161454300,1.256454345703125,0.189719557762146,-0.5250949859619141,-1.9138998985290527
1684108399171494700,1.26649462890625,-0.3099977970123291,0.010975837707519531,-2.456671714782715
1684108399181535000,1.276534912109375,-0.5367982387542725,-0.06909465789794922,-2.6741466522216797
1684108399191575300,1.2865751953125,-0.37679266929626465,0.37173938751220703,-3.0135207176208496
1684108399201616000,1.296615966796875,-0.13665318489074707,1.1084356307983398,-2.548099994659424
1684108399211656200,1.30665625,-0.0521085262298584,1.067169189453125,-1.9037871360778809
1684108399221696500,1.316696533203125,0.22292065620422363,0.2543759346008301,-1.3515105247497559
1684108399231736800,1.32673681640625,0.3403444290161133,-0.12648677825927734,-1.1520609855651855
1684108399241777200,1.336777099609375,0.7769966125488281,0.0878143310546875,-1.1815776824951172
1684108399251817700,1.346817626953125,0.7700579166412354,-0.2828545570373535,-0.06689214706420898
1684108399261858000,1.356858154296875,2.205766201019287,-2.2993345260620117,0.74456787109375
1684108399271898400,1.3668984375,0.713850736618042,-2.9296045303344727,1.3506340980529785
1684108399281939000,1.37693896484375,0.4262855052947998,-2.3407998085021973,0.5591745376586914
1684108399291979300,1.386979248046875,-0.24011754989624023,-0.5408535003662109,-1.2530899047851562
1684108399302019600,1.39701953125,-0.3746812343597412,0.4201927185058594,-1.9306073188781738
1684108399312060000,1.407059814453125,-0.8191311359405518,0.4740428924560547,-1.476025104522705
1684108399322100200,1.417100341796875,-1.0675759315490723,1.4904661178588867,-1.7334957122802734
1684108399332140800,1.427140869140625,-1.3149569034576416,0.9255437850952148,-1.2919464111328125
1684108399342181000,1.43718115234375,-0.9634997844696045,0.7356724739074707,-1.3748488426208496
1684108399352221400,1.447221435546875,-0.7115769386291504,0.8695144653320312,-1.4108171463012695
1684108399362261800,1.45726171875,-0.41492700576782227,0.5773148536682129,-1.0843920707702637
1684108399372302300,1.46730224609375,0.15227246284484863,-0.7254819869995117,-0.39696693420410156
1684108399382342700,1.4773427734375,0.9093279838562012,-1.622488021850586,0.4832305908203125
1684108399392383000,1.487383056640625,1.0211281776428223,-0.9900341033935547,0.5951361656188965
1684108399402423300,1.49742333984375,0.3886146545410156,-0.331817626953125,0.5138416290283203
1684108399412463900,1.5074638671875,-0.3841562271118164,-0.20997953414916992,0.5038018226623535
1684108399422504200,1.517504150390625,-0.325120210647583,-0.07020092010498047,0.19059371948242188
1684108399432544500,1.52754443359375,-0.11054658889770508,-0.026309967041015625,-0.2914886474609375
1684108399442584800,1.537584716796875,-0.15702414512634277,-0.48615503311157227,-0.6944780349731445
1684108399452625400,1.54762548828125,-0.4101228713989258,-0.8989028930664062,-0.9302525520324707
1684108399462665700,1.557665771484375,-0.4724884033203125,-1.280496597290039,-0.5128617286682129
1684108399472706000,1.5677060546875,0.033011436462402344,-2.3677659034729004,1.138533592224121
1684108399482746400,1.577746337890625,-0.2442328929901123,0.6588907241821289,-1.0005550384521484
1684108399492786700,1.58778662109375,-1.0173699855804443,1.8334107398986816,-2.3237109184265137
1684108399502827300,1.5978271484375,-1.1728577613830566,1.4951481819152832,-2.1605968475341797
1684108399512867600,1.60786767578125,-0.7002873420715332,2.1283416748046875,-1.397665023803711
1684108399522908000,1.617907958984375,-0.7780239582061768,1.4560565948486328,-0.7065553665161133
1684108399532948200,1.6279482421875,-0.46922850608825684,0.16327524185180664,0.3293304443359375
1684108399542988800,1.63798876953125,-0.03814530372619629,-0.3544764518737793,0.9789142608642578
1684108399553029000,1.648029052734375,0.16222286224365234,-0.3922438621520996,0.8864245414733887
1684108399563069400,1.6580693359375,-0.014797687530517578,-0.02643585205078125,0.0014591217041015625
1684108399573109800,1.66810986328125,-0.34128594398498535,0.35042428970336914,-1.041867733001709
1684108399583150300,1.678150390625,-0.7799501419067383,0.6355805397033691,-1.430068016052246
1684108399593190700,1.688190673828125,-0.7524998188018799,0.8266329765319824,-0.7294411659240723
1684108399603231000,1.69823095703125,-0.6944417953491211,1.0415124893188477,-0.8790578842163086
1684108399613271300,1.708271240234375,-0.5755739212036133,1.2917852401733398,-1.1843743324279785
1684108399623312000,1.718311767578125,-0.6704638004302979,1.050826072692871,-1.2841792106628418
1684108399633352200,1.728352294921875,-0.7356979846954346,0.9560422897338867,-1.1401963233947754
1684108399643392500,1.738392578125,-0.8275699615478516,0.6140322685241699,-1.0753722190856934
1684108399653432800,1.748432861328125,-0.839214563369751,0.30199480056762695,-1.1692638397216797
1684108399663473400,1.758473388671875,-0.6375687122344971,0.0011835098266601562,-1.2144060134887695
1684108399673513700,1.768513671875,-0.08504939079284668,-0.14274835586547852,-1.2317547798156738
1684108399683554000,1.778553955078125,0.9532818794250488,-0.8124756813049316,-0.881899356842041
1684108399693594400,1.788594482421875,2.270866632461548,-1.6384596824645996,0.15346193313598633
1684108399703635000,1.798635009765625,2.508976936340332,-1.0198841094970703,0.5541071891784668
1684108399713675300,1.80867529296875,1.2540106773376465,-0.8304271697998047,0.680241584777832
1684108399723715600,1.818715576171875,0.12723398208618164,-0.19895076751708984,0.32987260818481445
1684108399733756000,1.828755859375,-0.8368380069732666,0.4539761543273926,-0.6441988945007324
1684108399743796200,1.838796142578125,-1.234248399734497,0.6691842079162598,-1.492109775543213
1684108399753836800,1.8488369140625,-1.463524341583252,0.6060070991516113,-1.4402413368225098
1684108399763877000,1.858877197265625,-1.6032402515411377,0.19700050354003906,-0.7611088752746582
1684108399773917400,1.86891748046875,-1.2746992111206055,0.20867300033569336,0.03850364685058594
1684108399783958000,1.8789580078125,-0.791290283203125,0.0850534439086914,0.3151063919067383
1684108399793998300,1.888998291015625,-0.5750875473022461,-0.6454267501831055,0.2959165573120117
1684108399804038700,1.89903857421875,-0.09015583992004395,-0.8722891807556152,-0.07744550704956055
1684108399814079000,1.909078857421875,0.6066794395446777,-0.34589576721191406,-0.3748741149902344
1684108399824119300,1.919119384765625,0.5044534206390381,-0.2525653839111328,-0.8802134990692139
1684108399834159900,1.929159912109375,-0.15739870071411133,-0.21755027770996094,-1.2758338451385498
1684108399844200200,1.9392001953125,-1.5261287689208984,-0.9159517288208008,-1.5311622619628906
1684108399854240500,1.949240478515625,-2.2993924617767334,-1.2741937637329102,-1.6339552402496338
1684108399864281000,1.959281005859375,-3.476597785949707,-2.60648250579834,-1.3123602867126465
1684108399874321400,1.9693212890625,-4.518696308135986,-4.62275505065918,-0.6186349391937256
1684108399884361700,1.97936181640625,-4.161080837249756,-5.541144371032715,-0.11768054962158203
1684108399894402000,1.989402099609375,-1.965113878250122,-3.865114212036133,0.07358407974243164
1684108399904442400,1.9994423828125,-0.19529342651367188,-1.5942792892456055,0.09964466094970703
1684108399914483000,2.00948291015625,0.7694860696792603,-0.49555397033691406,-0.2605466842651367
1684108399924523300,2.019523193359375,1.640121579170227,-0.6700201034545898,-0.5453307628631592
1684108399934563600,2.0295634765625,2.306243896484375,-1.228388786315918,-0.6733675003051758
1684108399944604200,2.039604248046875,2.7639386653900146,-1.3357954025268555,-0.918590784072876
1684108399954644500,2.04964453125,3.31015682220459,-0.7087364196777344,-1.019852638244629
1684108399964684800,2.059684814453125,3.345367431640625,-0.29348278045654297,-1.1440927982330322
1684108399974725000,2.06972509765625,3.172757863998413,0.13244152069091797,-0.959545373916626
1684108399984765400,2.079765380859375,2.5462632179260254,0.2327585220336914,-0.62579345703125
1684108399994806000,2.089805908203125,2.139810085296631,0.674835205078125,-0.43819570541381836
1684108400004846300,2.099846435546875,1.5426381826400757,0.7692947387695312,-0.273848295211792
1684108400014886700,2.10988671875,1.101926326751709,0.7903842926025391,-0.14092612266540527
1684108400024927000,2.119927001953125,0.7444652318954468,0.8056545257568359,-0.05964827537536621
1684108400034967600,2.129967529296875,0.39962899684906006,0.8061342239379883,0.0738077163696289
1684108400045008000,2.1400078125,0.06490516662597656,0.7227649688720703,0.06247377395629883
1684108400055048200,2.150048095703125,-0.19553160667419434,0.8482732772827148,0.03220200538635254
1684108400065088500,2.160088623046875,-0.3264364004135132,0.8810787200927734,0.00014138221740722656
1684108400075129000,2.170129150390625,-0.36258363723754883,0.7719326019287109,0.03776741027832031
1684108400085169400,2.18016943359375,-0.07300710678100586,0.5386991500854492,0.15794587135314941
1684108400095209700,2.190209716796875,0.3839155435562134,0.3467845916748047,0.38766908645629883
1684108400105250000,2.20025,0.8522330522537231,0.039112091064453125,0.5542075634002686
1684108400115290600,2.21029052734375,1.351980209350586,-0.4848480224609375,1.1344802379608154
1684108400125331000,2.2203310546875,1.8332159519195557,0.07500362396240234,0.8577327728271484
1684108400135371300,2.230371337890625,2.1029610633850098,-0.11649894714355469,0.5000431537628174
1684108400145411600,2.24041162109375,2.183241367340088,-0.4256629943847656,0.5567688941955566
1684108400155452200,2.2504521484375,2.206005811691284,-0.7320671081542969,0.79952073097229
1684108400165492500,2.260492431640625,2.246107339859009,-0.782073974609375,0.9998600482940674
1684108400175532800,2.27053271484375,2.263963222503662,-0.7052793502807617,0.9088146686553955
1684108400185573000,2.280572998046875,2.189558744430542,-0.8322038650512695,0.7278156280517578
1684108400195613700,2.29061376953125,2.0588479042053223,-0.8627872467041016,0.3395664691925049
1684108400205654000,2.300654052734375,1.8438047170639038,-0.9530620574951172,0.08526897430419922
1684108400215694300,2.3106943359375,1.5241862535476685,-0.9689273834228516,-0.08740520477294922
1684108400225734700,2.320734619140625,1.1258697509765625,-0.8678703308105469,-0.15535449981689453
1684108400235775200,2.330775146484375,0.5771253108978271,-0.9847564697265625,-0.1699986457824707
1684108400245815600,2.340815673828125,0.045607686042785645,-0.9103107452392578,-0.01730799674987793
1684108400255855900,2.35085595703125,-0.32326364517211914,-0.40350818634033203,-0.018262386322021484
1684108400265896200,2.360896240234375,-0.520061731338501,-0.00995635986328125,-0.052985191345214844
1684108400275936800,2.370936767578125,-0.5846693515777588,0.25402164459228516,-0.1797027587890625
1684108400285977000,2.38097705078125,-0.5283612012863159,0.31333255767822266,-0.31349754333496094
1684108400296017400,2.391017333984375,-0.3800992965698242,0.12650775909423828,-0.29730892181396484
1684108400306057700,2.4010576171875,-0.22987031936645508,-0.014426231384277344,-0.22251439094543457
1684108400316098300,2.411098388671875,0.05823636054992676,-0.008703231811523438,-0.23715543746948242
1684108400326138600,2.421138671875,0.37669408321380615,0.02733325958251953,-0.22032713890075684
1684108400336179000,2.431178955078125,0.6055569052696228,0.1321430206298828,-0.08626627922058105
1684108400346219500,2.441219482421875,0.6848782896995544,0.2765016555786133,0.16811609268188477
1684108400356259800,2.451259765625,0.5991793274879456,0.4332761764526367,0.39266037940979004
1684108400366300200,2.461300048828125,0.6078532338142395,0.790461540222168,0.9224855899810791
1684108400376340500,2.471340576171875,0.7947972416877747,1.1327810287475586,1.1622788906097412
1684108400386380800,2.481380859375,0.4675949215888977,-0.45618724822998047,1.024435043334961
1684108400396421400,2.49142138671875,0.24943256378173828,-1.0923185348510742,0.9817900657653809
1684108400406461700,2.501461669921875,0.31563127040863037,-0.5294981002807617,0.6953845024108887
1684108400416502000,2.511501953125,0.5424820780754089,0.05726909637451172,0.6263022422790527
1684108400426542600,2.52154248046875,0.8132157325744629,0.23431777954101562,0.6477713584899902
1684108400436583000,2.5315830078125,0.8412140607833862,0.1226186752319336,0.7623624801635742
1684108400446623200,2.541623291015625,0.6727761626243591,-0.07209396362304688,0.7549998760223389
1684108400456663600,2.55166357421875,0.6286332607269287,-0.30202674865722656,0.6518967151641846
1684108400466704000,2.561703857421875,0.45223361253738403,-0.29522037506103516,0.40869903564453125
1684108400476744400,2.571744384765625,0.20466935634613037,-0.03900909423828125,0.2541184425354004
1684108400486784800,2.58178466796875,0.040908217430114746,0.20777606964111328,0.09944701194763184
1684108400496825000,2.5918251953125,0.10722291469573975,0.18345355987548828,-0.0359494686126709
1684108400506865700,2.60186572265625,0.2592579126358032,0.07367610931396484,-0.2862052917480469
1684108400516906000,2.611906005859375,0.5332221388816833,0.18221664428710938,-0.3983182907104492
1684108400526946300,2.6219462890625,0.8260274529457092,0.229217529296875,-0.15331792831420898
1684108400536986600,2.631986572265625,0.8855980634689331,0.055004119873046875,0.06735634803771973
1684108400547027200,2.642027099609375,0.6677531003952026,-0.16243457794189453,-0.033472299575805664
1684108400557067500,2.652067626953125,0.38081997632980347,-0.18401145935058594,-0.1088724136352539
1684108400567107800,2.66210791015625,0.03199505805969238,-0.11586666107177734,-0.20886683464050293
1684108400577148200,2.672148193359375,-0.33690130710601807,0.11487007141113281,-0.28980326652526855
1684108400587188700,2.682188720703125,-0.5208205580711365,0.21630859375,-0.08075618743896484
1684108400597229000,2.69222900390625,-0.6512355804443359,0.20954227447509766,0.3120701313018799
1684108400607269400,2.702269287109375,-0.6927788853645325,0.3471708297729492,0.6918003559112549
1684108400617309700,2.712309814453125,-0.5763080716133118,0.49979686737060547,0.9103133678436279
1684108400627350300,2.722350341796875,-0.4283791184425354,0.4911775588989258,0.9494743347167969
1684108400637390600,2.732390625,-0.19580942392349243,0.44657325744628906,0.9117276668548584
1684108400647431000,2.742430908203125,0.12363177537918091,0.36437320709228516,0.9993164539337158
1684108400657471200,2.75247119140625,0.5238151550292969,0.259063720703125,1.1969377994537354
1684108400667511800,2.76251171875,0.814290463924408,0.3375740051269531,1.4231889247894287
1684108400677552000,2.77255224609375,0.9101890325546265,0.4869050979614258,1.379676103591919
1684108400687592400,2.782592529296875,0.8571685552597046,0.5710153579711914,1.1737964153289795
1684108400697632800,2.7926328125,0.8225374221801758,0.6256246566772461,1.065857172012329
1684108400707673300,2.80267333984375,0.7039506435394287,0.6195793151855469,1.0310771465301514
1684108400717713700,2.812713623046875,0.48563089966773987,0.6323308944702148,1.0254721641540527
1684108400727754000,2.82275390625,0.42103302478790283,0.9488105773925781,0.5790455341339111
1684108400737794600,2.832794677734375,-0.2871597707271576,0.5008230209350586,0.9183807373046875
1684108400747835000,2.8428349609375,-0.2885313928127289,0.14283180236816406,0.9063286781311035
1684108400757875200,2.852875244140625,-0.6126385927200317,-0.28299427032470703,0.7287790775299072
1684108400767915500,2.86291552734375,-0.7272828817367554,-0.2050027847290039,0.39925122261047363
1684108400777956000,2.8729560546875,-0.8866718411445618,0.23548221588134766,0.05365133285522461
1684108400787996400,2.882996337890625,-0.601984977722168,0.3556652069091797,-0.30579352378845215
1684108400798036700,2.89303662109375,-0.6406617164611816,0.17232608795166016,-0.3380253314971924
1684108400808077000,2.9030771484375,-0.4399715065956116,0.21086502075195312,-0.2530539035797119
1684108400818117600,2.91311767578125,-0.13373911380767822,0.22820186614990234,0.12427353858947754
1684108400828158000,2.923157958984375,0.19011837244033813,0.18214702606201172,0.49905991554260254
1684108400838198300,2.9331982421875,0.4516680836677551,0.10025787353515625,0.7973804473876953
1684108400848238600,2.943238525390625,0.6604427099227905,-0.09930038452148438,0.9845747947692871
1684108400858279200,2.953279052734375,0.7676073312759399,-0.19916915893554688,1.0024099349975586
1684108400868319500,2.963319580078125,0.7694056630134583,-0.1782054901123047,0.9525444507598877
1684108400878359800,2.97335986328125,0.8858191967010498,-0.09432792663574219,0.9347431659698486
1684108400888400100,2.983400146484375,1.013230800628662,-0.05273628234863281,0.8381365537643433
1684108400898440700,2.993440673828125,1.05442476272583,-0.17000389099121094,0.6421226263046265
1684108400908481000,3.00348095703125,1.053001046180725,-0.3332862854003906,0.39328789710998535
1684108400918521300,3.013521240234375,1.0336145162582397,-0.4517631530761719,0.20649898052215576
1684108400928562000,3.02356201171875,0.9900518655776978,-0.5235738754272461,0.18337154388427734
1684108400938602200,3.033602294921875,0.9956638813018799,-0.664088249206543,0.38105738162994385
1684108400948642600,3.043642578125,1.1480038166046143,-0.6534976959228516,0.5576002597808838
1684108400958683000,3.053682861328125,1.3702452182769775,-0.3309316635131836,0.43701648712158203
1684108400968723500,3.063723388671875,1.4176013469696045,-0.24063682556152344,0.4547652006149292
1684108400978763800,3.073763671875,1.2053049802780151,-0.38928699493408203,0.6204686164855957
1684108400988804000,3.08380419921875,0.8090784549713135,-0.6571645736694336,0.711438775062561
1684108400998844400,3.093844482421875,0.2438368797302246,-0.9508056640625,0.8143167495727539
1684108401008885000,3.103885009765625,-0.2499987781047821,-1.0073776245117188,0.9653557538986206
1684108401018925300,3.11392529296875,-0.8114464282989502,-0.8631763458251953,1.2034878730773926
1684108401028965600,3.123965576171875,-1.3728935718536377,-0.647709846496582,1.5626287460327148
1684108401039006000,3.134005859375,-1.9451420307159424,-0.3686046600341797,1.8360579013824463
1684108401049046500,3.144046630859375,-2.5027995109558105,0.22467994689941406,1.9156386852264404
1684108401059086800,3.1540869140625,-2.8184590339660645,0.87847900390625,1.798838496208191
1684108401069127200,3.164127197265625,-2.7748544216156006,1.2034034729003906,1.5628693103790283
1684108401079167700,3.174167724609375,-2.498276710510254,1.2141809463500977,1.2628597021102905
1684108401089208000,3.1842080078125,-2.1031601428985596,1.0994997024536133,0.9970036745071411
1684108401099248400,3.194248291015625,-1.8236229419708252,0.21918010711669922,0.8096818923950195
1684108401109288700,3.204288818359375,-1.290947437286377,1.1057968139648438,0.08753812313079834
1684108401119329000,3.2143291015625,-0.7632780075073242,1.0769596099853516,0.09612119197845459
1684108401129369600,3.22436962890625,-0.4998663067817688,0.7911653518676758,0.3473259210586548
1684108401139410000,3.234409912109375,-0.3550739586353302,0.5375900268554688,0.2895747423171997
1684108401149450200,3.2444501953125,-0.05877268314361572,0.2780647277832031,0.28714048862457275
1684108401159490800,3.25449072265625,0.09844666719436646,0.0698404312133789,0.3415020704269409
1684108401169531100,3.26453125,0.06278735399246216,-0.23073959350585938,0.3801916837692261
1684108401179571500,3.274571533203125,0.029122471809387207,-0.22064685821533203,0.38289499282836914
1684108401189612000,3.284612060546875,0.027706563472747803,-0.5743207931518555,0.36866724491119385
1684108401199652400,3.29465234375,0.1814308762550354,-0.6994237899780273,0.39374685287475586
1684108401209692700,3.304692626953125,0.4649304747581482,-0.6450128555297852,0.33715367317199707
1684108401219733000,3.31473291015625,0.8175814747810364,-0.6360149383544922,0.18242692947387695
1684108401229773600,3.324773681640625,1.091591715812683,-0.9298744201660156,-0.0023720264434814453
1684108401239814000,3.33481396484375,1.4398022890090942,-1.1766748428344727,-0.20861554145812988
1684108401249854200,3.344854248046875,1.7409234046936035,-1.4775705337524414,-0.3417031764984131
1684108401259894500,3.35489453125,1.9882068634033203,-1.6704139709472656,-0.4386399984359741
1684108401269935000,3.36493505859375,2.1756653785705566,-1.8575563430786133,-0.6333597898483276
1684108401279975400,3.374975341796875,2.273103713989258,-2.0123186111450195,-0.8293848037719727
1684108401290015700,3.385015625,2.265011787414551,-2.207674026489258,-0.9181802272796631
1684108401300056000,3.39505615234375,2.2410311698913574,-2.2010183334350586,-0.9217915534973145
1684108401310096600,3.4050966796875,2.3621714115142822,-2.0177040100097656,-0.9359045028686523
1684108401320137000,3.415136962890625,2.4009461402893066,-1.754807472229004,-0.8050076961517334
1684108401330177300,3.42517724609375,2.2856478691101074,-1.2837629318237305,-0.6844267845153809
1684108401340217900,3.4352177734375,2.1754486560821533,-0.6099262237548828,-0.5164244174957275
1684108401350258200,3.445258056640625,1.8807934522628784,-0.1886882781982422,-0.5124452114105225
1684108401360298500,3.455298583984375,1.548785924911499,0.1666889190673828,-0.5634362697601318
1684108401370338800,3.4653388671875,1.3727035522460938,0.5051517486572266,-0.6287252902984619
1684108401380379100,3.475379150390625,1.3090187311172485,0.7851772308349609,-0.7445218563079834
1684108401390419700,3.485419677734375,1.3786275386810303,0.9821996688842773,-0.8414173126220703
1684108401400460000,3.4954599609375,1.8685126304626465,1.2503538131713867,-1.1348719596862793
1684108401410500400,3.505500244140625,2.763744354248047,1.7194766998291016,-1.4987939596176147
1684108401420541000,3.515541015625,3.0708885192871094,2.253164291381836,-1.5972694158554077
1684108401430581200,3.525581298828125,2.9918465614318848,2.34128999710083,-0.9492278099060059
1684108401440621600,3.53562158203125,2.861264705657959,2.043717384338379,-0.3334338665008545
1684108401450662000,3.545661865234375,2.420095443725586,1.421304702758789,-0.1313614845275879
1684108401460702500,3.555702392578125,1.8464469909667969,0.8292150497436523,-0.07404971122741699
1684108401470742800,3.56574267578125,1.3462913036346436,0.3380584716796875,-0.041337013244628906
1684108401480783000,3.575783203125,0.9147912263870239,0.013635635375976562,0.08184695243835449
1684108401490823700,3.58582373046875,-0.024217605590820312,-0.1792755126953125,0.17045187950134277
1684108401500864000,3.595864013671875,-3.285856008529663,-0.7043094635009766,0.6524403095245361
1684108401510904300,3.605904296875,-2.0149028301239014,-0.9611701965332031,0.24011635780334473
1684108401520944600,3.615944580078125,-0.37512242794036865,-0.8152027130126953,-0.5539250373840332
1684108401530985200,3.625985107421875,0.4089304208755493,-0.7399110794067383,-1.080535888671875
1684108401541025500,3.636025634765625,0.6413969993591309,-0.8205204010009766,-1.4674170017242432
1684108401551065900,3.64606591796875,0.6183316707611084,-0.9644870758056641,-1.6707162857055664
1684108401561106200,3.656106201171875,0.5587844848632812,-1.0187644958496094,-1.8076372146606445
1684108401571146800,3.666146728515625,0.5795058012008667,-0.8746795654296875,-1.8967171907424927
1684108401581187000,3.67618701171875,0.672645092010498,-0.6227273941040039,-1.9008841514587402
1684108401591227400,3.686227294921875,0.9121519923210144,-0.3532438278198242,-1.7877576351165771
1684108401601268000,3.69626806640625,1.2109190225601196,-0.07412052154541016,-1.7126431465148926
1684108401611308300,3.706308349609375,1.458658218383789,0.17198467254638672,-1.6627826690673828
1684108401621348600,3.7163486328125,1.6547601222991943,0.3950185775756836,-1.6100726127624512
1684108401631389000,3.726388916015625,1.694320797920227,0.5021028518676758,-1.5658133029937744
1684108401641429500,3.736429443359375,1.7130928039550781,0.5968647003173828,-1.5287222862243652
1684108401651469800,3.7464697265625,1.4696210622787476,0.47913265228271484,-1.5017118453979492
1684108401661510100,3.75651025390625,1.1152634620666504,0.38520145416259766,-1.4265310764312744
1684108401671550700,3.76655078125,0.8050335645675659,0.3068838119506836,-1.2640659809112549
1684108401681591000,3.776591064453125,0.5886117219924927,0.2523536682128906,-0.9689736366271973
1684108401691631400,3.78663134765625,0.5726355314254761,0.18928813934326172,-0.6367571353912354
1684108401701671700,3.796671630859375,0.6956392526626587,0.13890838623046875,-0.37988924980163574
1684108401711712300,3.806712158203125,0.8097454309463501,0.05172920227050781,-0.2654733657836914
1684108401721752600,3.816752685546875,0.8698914647102356,-0.09971904754638672,-0.29038143157958984
1684108401731793000,3.82679296875,0.8485758304595947,-0.2880430221557617,-0.40131425857543945
1684108401741833200,3.836833251953125,0.7959972620010376,-0.5199737548828125,-0.5460836887359619
1684108401751873800,3.846873779296875,0.7288471460342407,-0.6164131164550781,-0.6020336151123047
1684108401761914000,3.8569140625,0.6827526092529297,-0.5185308456420898,-0.6423697471618652
1684108401771954400,3.866954345703125,0.5632474422454834,-0.38040924072265625,-0.6241657733917236
1684108401781994800,3.876994873046875,0.26937127113342285,-0.2815666198730469,-0.613936185836792
1684108401792035300,3.887035400390625,-0.1503845453262329,-0.2557821273803711,-0.5816094875335693
1684108401802075600,3.89707568359375,-0.5331424474716187,-0.3485708236694336,-0.5041139125823975
1684108401812116000,3.907115966796875,-0.7928932905197144,-0.3998279571533203,-0.3533198833465576
1684108401822156500,3.917156494140625,-0.9309146404266357,-0.4170055389404297,-0.13029932975769043
1684108401832196900,3.92719677734375,-0.8813059329986572,-0.30692386627197266,0.0896751880645752
1684108401842237200,3.9372373046875,-0.6673194169998169,-0.22658729553222656,0.1662912368774414
1684108401852277800,3.94727783203125,-0.3746558427810669,-0.1455821990966797,0.06981229782104492
1684108401862318000,3.957318115234375,0.034494638442993164,-0.04290771484375,-0.04194283485412598
1684108401872358400,3.9673583984375,0.44773900508880615,0.011260986328125,-0.15796685218811035
1684108401882398700,3.977398681640625,0.7658795118331909,0.07534217834472656,-0.38030076026916504
1684108401892439300,3.987439208984375,0.8446571230888367,0.03739738464355469,-0.7572453022003174
1684108401902479600,3.997479736328125,0.9859840273857117,-0.05068206787109375,-0.9748349189758301
1684108401912520000,4.00752001953125,1.2283378839492798,-0.18783092498779297,-1.022108554840088
1684108401922560300,4.017560302734375,1.3712952136993408,-0.372650146484375,-0.9566378593444824
1684108401932600800,4.027600830078125,1.2743253707885742,-0.6175804138183594,-0.9733240604400635
1684108401942641200,4.03764111328125,0.927986741065979,-0.8629131317138672,-1.0698060989379883
1684108401952681500,4.047681396484375,0.2736316919326782,-1.0706138610839844,-1.2577540874481201
1684108401962721800,4.0577216796875,-1.1398406028747559,-1.293696403503418,-1.6386297941207886
1684108401972762400,4.067762451171875,-2.8452935218811035,-1.6068944931030273,-2.023995876312256
1684108401982802700,4.077802734375,-3.439648151397705,-1.9565954208374023,-1.754685878753662
1684108401992843000,4.087843017578125,-2.6397504806518555,-2.356062889099121,-0.8947632312774658
1684108402002883600,4.097883544921875,-1.403786540031433,-2.7417593002319336,0.4111611843109131
1684108402012924000,4.107923828125,-0.18035197257995605,-2.566762924194336,1.7712938785552979
1684108402022964200,4.117964111328125,0.6285353899002075,-1.4627952575683594,2.1683707237243652
1684108402033004500,4.128004638671875,1.2043455839157104,-0.3237161636352539,2.017853021621704
1684108402043045000,4.138045166015625,1.694927453994751,0.5804357528686523,1.7825250625610352
1684108402053085400,4.14808544921875,1.9256715774536133,1.3576784133911133,1.2431933879852295
1684108402063125800,4.158125732421875,2.044273853302002,1.7428784370422363,0.7800407409667969
1684108402073166300,4.168166259765625,1.9982144832611084,1.7532267570495605,0.4322187900543213
1684108402083206700,4.17820654296875,1.8003180027008057,1.5570306777954102,0.0670938491821289
1684108402093247000,4.1882470703125,1.539778232574463,1.1221542358398438,-0.2329874038696289
1684108402103287300,4.198287353515625,1.1219416856765747,0.6530427932739258,-0.49512529373168945
1684108402113327900,4.208327880859375,0.5246566534042358,0.2122516632080078,-0.6949502229690552
1684108402123368200,4.2183681640625,-0.13288724422454834,-0.14564132690429688,-0.8140262365341187
1684108402133408500,4.228408447265625,-0.6655988097190857,-0.39757442474365234,-0.8290376663208008
1684108402143449000,4.238448974609375,-0.8131957054138184,-0.5420980453491211,-0.7448363304138184
1684108402153489400,4.248489501953125,-0.6922218203544617,-0.651789665222168,-0.4688243865966797
1684108402163529700,4.25852978515625,-0.4312736988067627,-0.700963020324707,-0.210371732711792
1684108402173570000,4.268570068359375,-0.25523120164871216,-0.6229209899902344,-0.1131596565246582
1684108402183610600,4.278610595703125,-0.024230390787124634,-0.3794059753417969,-0.09518718719482422
1684108402193651000,4.28865087890625,0.2450469583272934,-0.1372699737548828,-0.08791327476501465
1684108402203691300,4.298691162109375,0.4610745906829834,0.06580734252929688,-0.16209125518798828
1684108402213731600,4.308731689453125,0.6750937104225159,0.1750335693359375,-0.12463021278381348
1684108402223772200,4.318772216796875,0.8673748970031738,0.2693939208984375,-0.1289513111114502
1684108402233812500,4.3288125,1.0067325830459595,0.4542655944824219,-0.23322820663452148
1684108402243852800,4.338852783203125,1.1173344850540161,0.5503740310668945,-0.22171354293823242
1684108402253893400,4.348893310546875,1.1628996133804321,0.5578317642211914,-0.24537968635559082
1684108402263933700,4.35893359375,1.1425011157989502,0.5268430709838867,-0.24982857704162598
1684108402273974000,4.36897412109375,1.1951993703842163,0.491058349609375,-0.29196834564208984
1684108402284014300,4.379014404296875,1.2796733379364014,0.35993003845214844,-0.340008020401001
1684108402294055000,4.389054931640625,1.430314302444458,0.25554370880126953,-0.32936930656433105
1684108402304095200,4.39909521484375,1.6354007720947266,0.11319923400878906,-0.2538902759552002
1684108402314135600,4.409135498046875,1.8779282569885254,0.05936145782470703,-0.21994733810424805
1684108402324176100,4.419176025390625,2.085963249206543,-0.009080886840820312,-0.17371296882629395
1684108402334216400,4.429216552734375,2.295332431793213,-0.035064697265625,-0.10486817359924316
1684108402344256800,4.4392568359375,2.4137723445892334,0.00722503662109375,-0.07962703704833984
1684108402354297300,4.44929736328125,2.4434642791748047,0.11019039154052734,-0.0822744369506836
1684108402364337700,4.459337646484375,2.397067070007324,0.18053054809570312,-0.17464971542358398
1684108402374378000,4.4693779296875,2.3209357261657715,0.24011802673339844,-0.36926913261413574
1684108402384418300,4.479418212890625,2.215980052947998,0.2368946075439453,-0.5227251052856445
1684108402394459000,4.489458984375,2.097593307495117,0.2790555953979492,-0.7327227592468262
1684108402404499200,4.499499267578125,2.0047483444213867,0.2859077453613281,-0.915151834487915
1684108402414539500,4.50953955078125,1.8876821994781494,0.2528533935546875,-0.9692510366439819
1684108402424580000,4.519580078125,1.771314263343811,0.28742504119873047,-1.0505790710449219
1684108402434620400,4.529620361328125,1.6451456546783447,0.32503795623779297,-1.0966352224349976
1684108402444660700,4.53966064453125,1.5273112058639526,0.3154563903808594,-1.0815991163253784
1684108402454701000,4.549701171875,1.4063583612442017,0.32537078857421875,-0.9854105710983276
1684108402464741600,4.55974169921875,1.3009531497955322,0.3064403533935547,-0.8129134178161621
1684108402474782000,4.569781982421875,1.1790771484375,0.1963491439819336,-0.7230859994888306
1684108402484822300,4.579822265625,1.0167368650436401,-0.1645793914794922,-0.5911389589309692
1684108402494862600,4.589862548828125,0.8915905952453613,-0.5313119888305664,-0.44970130920410156
1684108402504903200,4.599903076171875,0.8045812845230103,-0.680908203125,-0.2715965509414673
1684108402514943500,4.609943603515625,0.7010711431503296,-0.6952104568481445,0.042875051498413086
1684108402524983800,4.61998388671875,0.6096242666244507,-0.5347700119018555,0.34900760650634766
1684108402535024400,4.6300244140625,0.48900216817855835,-0.3152809143066406,0.5390465259552002
1684108402545064700,4.640064697265625,0.3862588405609131,-0.16589736938476562,0.62510085105896
1684108402555105000,4.65010498046875,0.3127807378768921,0.05955028533935547,0.7068438529968262
1684108402565145300,4.660145263671875,0.2776179313659668,0.2751035690307617,0.8091921806335449
1684108402575186000,4.67018603515625,0.273719847202301,0.4232597351074219,0.9836606979370117
1684108402585226200,4.680226318359375,0.2495216727256775,0.5038938522338867,1.154362678527832
1684108402595266600,4.6902666015625,0.18742156028747559,0.4764270782470703,1.3486847877502441
1684108402605307100,4.70030712890625,0.11989891529083252,0.41517162322998047,1.463285207748413
1684108402615347500,4.710347412109375,0.10213100910186768,0.3442697525024414,1.532334327697754
1684108402625387800,4.7203876953125,0.08753013610839844,0.3473949432373047,1.4633526802062988
1684108402635428000,4.730427978515625,0.10086458921432495,0.36199092864990234,1.3489534854888916
1684108402645468700,4.74046875,0.07235896587371826,0.40224552154541016,1.1697070598602295
1684108402655509000,4.750509033203125,0.05078333616256714,0.4039297103881836,0.8958225250244141
1684108402665549300,4.76054931640625,0.07530564069747925,0.41283607482910156,0.6719305515289307
1684108402675590000,4.77058984375,0.157942533493042,0.3669452667236328,0.5292539596557617
1684108402685630200,4.780630126953125,0.300398588180542,0.29505157470703125,0.3842036724090576
1684108402695670500,4.79067041015625,0.4894692301750183,0.2234334945678711,0.2393331527709961
1684108402705710800,4.8007109375,0.6637219190597534,0.20449066162109375,0.1591196060180664
1684108402715751400,4.81075146484375,0.8073402047157288,0.15911197662353516,0.06916618347167969
1684108402725791700,4.820791748046875,0.8740846514701843,0.1181640625,0.030811309814453125
1684108402735832000,4.83083203125,0.9542996883392334,0.09343719482421875,-0.08066058158874512
1684108402745872600,4.84087255859375,0.9713751673698425,0.1062765121459961,-0.11741507053375244
1684108402755913000,4.850912841796875,0.9518317580223083,-0.04392719268798828,-0.19620084762573242
1684108402765953300,4.860953369140625,0.9509261250495911,-0.39653873443603516,-0.47297203540802
1684108402775993900,4.870993896484375,0.956376314163208,-0.6419773101806641,-0.71290123462677
1684108402786034200,4.8810341796875,0.953464925289154,-0.5036649703979492,-0.5654914379119873
1684108402796074500,4.891074462890625,1.0235916376113892,0.21916675567626953,-0.19770383834838867
1684108402806114800,4.90111474609375,0.9298027753829956,0.6460886001586914,0.02293539047241211
1684108402816155400,4.9111552734375,0.7882987260818481,0.5987939834594727,0.3221163749694824
1684108402826195700,4.92119580078125,0.6017047166824341,0.4006690979003906,0.5323636531829834
1684108402836236000,4.931236083984375,0.4191352128982544,0.1978893280029297,0.5270154476165771
1684108402846276600,4.941276611328125,0.23684072494506836,-0.001934051513671875,0.36669182777404785
1684108402856317000,4.95131689453125,0.011360645294189453,-0.1960926055908203,0.15287888050079346
1684108402866357200,4.961357177734375,-0.10279560089111328,-0.2554502487182617,-0.012573480606079102
1684108402876397600,4.9713974609375,-0.003502488136291504,-0.21362876892089844,-0.12311661243438721
1684108402886438100,4.981438232421875,0.22003626823425293,-0.11844635009765625,-0.1217876672744751
1684108402896478500,4.991478515625,0.4240880012512207,0.015636444091796875,-0.0374140739440918
1684108402906518800,5.001518798828125,0.6135424375534058,0.12862873077392578,0.14933514595031738
1684108402916559400,5.011559326171875,0.7759695053100586,0.1963968276977539,0.4240896701812744
1684108402926599700,5.021599609375,0.9310023784637451,0.2689399719238281,0.6646648645401001
1684108402936640000,5.031639892578125,0.9900274276733398,0.2911958694458008,0.7799395322799683
1684108402946680300,5.041680419921875,0.9923950433731079,0.3373403549194336,0.846259593963623
1684108402956721000,5.051720947265625,0.9417221546173096,0.3810997009277344,0.8467074632644653
1684108402966761200,5.06176123046875,0.8768554925918579,0.40814876556396484,0.8647454977035522
1684108402976801500,5.071801513671875,0.8431525230407715,0.42083263397216797,0.9166399240493774
1684108402986842000,5.081842041015625,0.7682309150695801,0.44768238067626953,0.9421484470367432
1684108402996882400,5.09188232421875,0.701504111289978,0.4885835647583008,1.0178446769714355
1684108403006922800,5.1019228515625,0.640155553817749,0.5243663787841797,1.0673097372055054
1684108403016963300,5.11196337890625,0.6087663173675537,0.5550575256347656,1.0735095739364624
1684108403027003600,5.122003662109375,0.6201776266098022,0.5711441040039062,1.0694748163223267
1684108403037044000,5.1320439453125,0.5798873901367188,0.5321693420410156,0.9786194562911987
1684108403047084300,5.142084228515625,0.5337964296340942,0.5290699005126953,0.8584421873092651
1684108403057124900,5.152124755859375,0.4435540437698364,0.4352445602416992,0.7046819925308228
1684108403067165200,5.162165283203125,0.3429746627807617,0.34185314178466797,0.5063848495483398
1684108403077205500,5.17220556640625,0.27329933643341064,0.17745113372802734,0.3767251968383789
1684108403087246000,5.18224609375,0.20911896228790283,0.028388023376464844,0.23732101917266846
1684108403097286400,5.192286376953125,0.26297426223754883,-0.052758216857910156,0.11246621608734131
1684108403107326700,5.20232666015625,0.3747004270553589,-0.023276329040527344,0.04233753681182861
1684108403117367000,5.212366943359375,0.50262451171875,0.02799224853515625,-0.038143277168273926
1684108403127407600,5.22240771484375,0.5795207023620605,0.11809253692626953,-0.04076874256134033
1684108403137448000,5.232447998046875,0.5741513967514038,0.10291004180908203,-0.02913987636566162
1684108403147488300,5.24248828125,0.4703584909439087,0.09012222290039062,-0.03570365905761719
1684108403157528800,5.25252880859375,0.29793810844421387,-0.02378559112548828,0.016114354133605957
1684108403167569200,5.262569091796875,0.146636962890625,-0.06038093566894531,0.16790413856506348
1684108403177609500,5.272609375,0.09824836254119873,-0.11272430419921875,0.5083973407745361
1684108403187650000,5.282650146484375,0.19095373153686523,-0.29357051849365234,0.9615957736968994
1684108403197690400,5.2926904296875,0.3393510580062866,-0.5585870742797852,1.4188100099563599
1684108403207730700,5.302730712890625,0.5144597291946411,-0.5699262619018555,1.6001700162887573
1684108403217771000,5.31277099609375,0.7333371639251709,-0.28716087341308594,1.5108948945999146
1684108403227811600,5.3228115234375,0.973076581954956,-0.16003799438476562,1.425614833831787
1684108403237852000,5.332851806640625,1.1621767282485962,-0.34857749938964844,1.5223499536514282
1684108403247892200,5.342892333984375,1.230564832687378,-0.754399299621582,1.698704481124878
1684108403257932800,5.352932861328125,1.1638362407684326,-1.121734619140625,1.7131340503692627
1684108403267973000,5.36297314453125,0.9611655473709106,-1.2120351791381836,1.4430725574493408
1684108403278013400,5.373013427734375,0.5915368795394897,-1.2338228225708008,1.110063076019287
1684108403288054000,5.383053955078125,0.1320357322692871,-1.237227439880371,0.8131446838378906
1684108403298094300,5.39309423828125,-0.27341508865356445,-1.1811351776123047,0.41823112964630127
1684108403308134700,5.403134765625,-0.6156125068664551,-1.0219802856445312,0.011465907096862793
1684108403318175200,5.41317529296875,-0.9092426300048828,-0.6830215454101562,-0.37943512201309204
1684108403328215600,5.423215576171875,-1.0331494808197021,-0.26212501525878906,-0.8248512148857117
1684108403338256000,5.433255859375,-1.09900963306427,0.19053268432617188,-1.116763710975647
1684108403348296200,5.443296142578125,-1.010347843170166,0.6721353530883789,-1.28139066696167
1684108403358336800,5.453336669921875,-0.8471969366073608,1.0914316177368164,-1.4633126258850098
1684108403368377000,5.463377197265625,-0.5810667276382446,1.350163459777832,-1.6082227230072021
1684108403378417400,5.47341748046875,-0.2897341549396515,1.4672155380249023,-1.5960018634796143
1684108403388458000,5.4834580078125,-0.06817454099655151,1.4972620010375977,-1.5009520053863525
1684108403398498300,5.493498291015625,0.16155725717544556,1.3062210083007812,-1.1788820028305054
1684108403408538600,5.50353857421875,0.35382601618766785,0.946685791015625,-0.6875920295715332
1684108403418579200,5.5135791015625,0.5697362422943115,0.3925018310546875,-0.08411145210266113
1684108403428619500,5.52361962890625,0.7592959403991699,0.036086082458496094,0.3055180311203003
1684108403438659800,5.533659912109375,0.7925192713737488,-0.057776451110839844,0.37870967388153076
1684108403448700400,5.543700439453125,0.7259451746940613,0.0008916854858398438,0.4699455499649048
1684108403458740700,5.55374072265625,0.668770432472229,0.08981990814208984,0.5184313058853149
1684108403468781000,5.563781005859375,0.5682153701782227,0.16559791564941406,0.5238215923309326
1684108403478821400,5.5738212890625,0.41194605827331543,0.2209024429321289,0.28726983070373535
1684108403488862000,5.583862060546875,0.2559976875782013,0.17934226989746094,0.006311774253845215
1684108403498902300,5.59390234375,0.0699111819267273,0.036309242248535156,-0.18921959400177002
1684108403508942600,5.603942626953125,-0.02206552028656006,-0.15305233001708984,-0.37250781059265137
1684108403518983200,5.613983154296875,0.01474153995513916,-0.3456878662109375,-0.4880797863006592
1684108403529023500,5.6240234375,0.1518147885799408,-0.5439672470092773,-0.46185946464538574
1684108403539063800,5.634063720703125,0.2436218559741974,-0.6976490020751953,-0.4683282971382141
1684108403549104000,5.644104248046875,0.2956545352935791,-0.81866455078125,-0.46197986602783203
1684108403559144700,5.654144775390625,0.2927413582801819,-0.8281879425048828,-0.40702784061431885
1684108403569185000,5.66418505859375,0.3301234245300293,-0.7430143356323242,-0.43652498722076416
1684108403579225300,5.674225341796875,0.4340673089027405,-0.5677051544189453,-0.5428903698921204
1684108403589266000,5.684265869140625,0.5755626559257507,-0.3447589874267578,-0.7030676007270813
1684108403599306200,5.69430615234375,0.7309696674346924,-0.24094486236572266,-0.8164196610450745
1684108403609346600,5.7043466796875,0.7080466151237488,-0.28716182708740234,-0.7596315145492554
1684108403619387100,5.71438720703125,0.6114004254341125,-0.33074188232421875,-0.7219172716140747
1684108403629427500,5.724427490234375,0.6751508116722107,-0.3458433151245117,-0.6032428741455078
1684108403639467800,5.7344677734375,0.9129151105880737,-0.28479862213134766,-0.5258539915084839
1684108403649508000,5.744508056640625,1.2100379467010498,-0.17375755310058594,-0.37771427631378174
1684108403659548700,5.754548583984375,1.4215826988220215,-0.03879356384277344,-0.2381075620651245
1684108403669589000,5.764589111328125,1.5244935750961304,0.09868335723876953,-0.12307000160217285
1684108403679629300,5.77462939453125,1.642823338508606,0.18394088745117188,-0.16848015785217285
1684108403689670000,5.784669921875,1.7773267030715942,0.2602376937866211,-0.24841022491455078
1684108403699710200,5.794710205078125,1.9460328817367554,0.3230705261230469,-0.5081912279129028
1684108403709750500,5.80475048828125,2.0241222381591797,0.4012641906738281,-0.7299792766571045
1684108403719791000,5.814791015625,1.9973881244659424,0.4634895324707031,-0.9416559934616089
1684108403729831400,5.82483154296875,1.7585139274597168,0.504420280456543,-0.9721314907073975
1684108403739871700,5.834871826171875,1.4255155324935913,0.5972900390625,-0.8974229097366333
1684108403749912300,5.844912353515625,0.9669415950775146,0.61700439453125,-0.6935111284255981
1684108403759952600,5.85495263671875,0.5937992334365845,0.6348981857299805,-0.49348485469818115
1684108403769993000,5.864992919921875,0.37483716011047363,0.6414384841918945,-0.3471325635910034
1684108403780033500,5.875033447265625,0.33766305446624756,0.6780271530151367,-0.3561137914657593
1684108403790073900,5.885073974609375,0.29041826725006104,0.7383432388305664,-0.3898106813430786
1684108403800114200,5.8951142578125,-0.019354701042175293,0.6624546051025391,-0.33986473083496094
1684108403810154500,5.905154541015625,-0.29942047595977783,0.4095010757446289,-0.05926942825317383
1684108403820195000,5.915195068359375,-0.43285810947418213,0.22774505615234375,0.26684093475341797
1684108403830235400,5.9252353515625,-0.45790088176727295,0.15781497955322266,0.48401379585266113
1684108403840275700,5.935275634765625,-0.3525599241256714,0.12601089477539062,0.7345452308654785
1684108403850316300,5.94531640625,-0.15769314765930176,0.09222698211669922,0.9376814365386963
1684108403860356600,5.955356689453125,-0.006533145904541016,0.04933452606201172,1.2262394428253174
1684108403870397000,5.96539697265625,0.10312485694885254,0.03747272491455078,1.366471290588379
1684108403880437200,5.975437255859375,0.15528833866119385,0.051207542419433594,1.4049501419067383
1684108403890477800,5.985477783203125,0.20642352104187012,0.01655101776123047,1.0565366744995117
1684108403900518100,5.99551806640625,0.332314133644104,-0.09876441955566406,0.4027872085571289
1684108403910558500,6.005558349609375,0.48326575756073,-0.29387855529785156,-0.20235276222229004
1684108403920599000,6.01559912109375,0.6081615686416626,-0.42303943634033203,-0.6526484489440918
1684108403930639400,6.025639404296875,0.7380350828170776,-0.4100055694580078,-1.0550856590270996
1684108403940679700,6.0356796875,0.8153295516967773,-0.24030303955078125,-1.4146032333374023
1684108403950720300,6.04572021484375,0.855394721031189,0.012264251708984375,-1.6564109325408936
1684108403960760600,6.055760498046875,0.8271263837814331,0.2786121368408203,-1.7847175598144531
1684108403970801000,6.06580078125,0.797385573387146,0.5733051300048828,-1.8589450120925903
1684108403980841500,6.075841552734375,0.7746407389640808,0.8296566009521484,-1.857673168182373
1684108403990881800,6.0858818359375,0.7865949869155884,1.0311918258666992,-1.7238651514053345
1684108404000922000,6.095922119140625,0.7265547513961792,1.084589958190918,-1.5084338188171387
1684108404010962400,6.10596240234375,0.6182628870010376,1.0754060745239258,-1.207931637763977
1684108404021003000,6.1160029296875,0.4991774559020996,0.9862766265869141,-0.8694267272949219
1684108404031043300,6.126043212890625,0.3890714645385742,0.9316310882568359,-0.6132106781005859
1684108404041083600,6.136083740234375,0.271112322807312,0.8371200561523438,-0.3203542232513428
1684108404051124200,6.146124267578125,0.14027130603790283,0.78863525390625,0.020357608795166016
1684108404061164500,6.15616455078125,0.04178011417388916,0.7310304641723633,0.28186702728271484
1684108404071204900,6.166204833984375,-0.03837394714355469,0.6904497146606445,0.5381927490234375
1684108404081245400,6.176245361328125,-0.13729047775268555,0.5853157043457031,0.7674150466918945
1684108404091285800,6.18628564453125,-0.20553529262542725,0.44159889221191406,0.9522509574890137
1684108404101326000,6.196326171875,-0.2891674041748047,0.20908737182617188,1.0119187831878662
1684108404111366700,6.20636669921875,-0.35621368885040283,-0.025777816772460938,0.9669473171234131
1684108404121407000,6.216406982421875,-0.4358724355697632,-0.2318258285522461,0.7842540740966797
1684108404131447300,6.226447265625,-0.5375759601593018,-0.40666770935058594,0.5946304798126221
1684108404141487600,6.236487548828125,-0.5970445871353149,-0.5480442047119141,0.4348945617675781
1684108404151528200,6.246528076171875,-0.542134165763855,-0.5672922134399414,0.23845171928405762
1684108404161568500,6.256568603515625,-0.3410574197769165,-0.46652793884277344,0.07584333419799805
1684108404171608800,6.26660888671875,-0.2068922519683838,-0.2600126266479492,0.007836341857910156
1684108404181649400,6.2766494140625,-0.22487080097198486,-0.0890340805053711,0.005507946014404297
1684108404191689700,6.286689697265625,-0.4271782636642456,0.01981067657470703,0.08697319030761719
1684108404201730000,6.29672998046875,-0.6948186159133911,0.07341289520263672,0.2346792221069336
1684108404211770600,6.3067705078125,-0.8425284624099731,0.14574813842773438,0.44121837615966797
1684108404221811000,6.31681103515625,-0.9037865400314331,0.21304988861083984,0.7046849727630615
1684108404231851300,6.326851318359375,-0.8791754245758057,0.33309459686279297,0.9498136043548584
1684108404241891800,6.336891845703125,-0.702156662940979,0.30106639862060547,1.0786221027374268
1684108404251932200,6.34693212890625,-0.3440389633178711,-0.08984184265136719,1.0075993537902832
1684108404261972500,6.356972412109375,-0.0715947151184082,-0.7122640609741211,0.8426303863525391
1684108404272013000,6.367012939453125,0.07905161380767822,-1.2149591445922852,0.6494812965393066
1684108404282053400,6.377053466796875,0.24782246351242065,-1.4409475326538086,0.44108128547668457
1684108404292093700,6.38709375,0.40087831020355225,-1.489206314086914,0.18038487434387207
1684108404302134300,6.39713427734375,0.34904950857162476,-1.6952686309814453,-0.21310758590698242
1684108404312174600,6.407174560546875,-0.2650034427642822,-2.035517692565918,-0.5971264839172363
1684108404322215000,6.41721484375,-1.8363161087036133,-2.646470069885254,-0.8437638282775879
1684108404332255200,6.427255126953125,-2.824599027633667,-2.8933210372924805,-0.5318081378936768
1684108404342295800,6.4372958984375,-1.8323326110839844,-1.6709728240966797,0.12741899490356445
1684108404352336100,6.447336181640625,-0.24841827154159546,-0.21276092529296875,0.3775901794433594
1684108404362376400,6.45737646484375,1.115517020225525,0.5962095260620117,0.41864562034606934
1684108404372417000,6.4674169921875,1.9406287670135498,0.9479885101318359,0.19373726844787598
1684108404382457300,6.477457275390625,2.121422052383423,0.9663505554199219,-0.11166715621948242
1684108404392497700,6.48749755859375,2.0626726150512695,0.7849750518798828,-0.35695362091064453
1684108404402538200,6.497538330078125,1.9327713251113892,0.6582279205322266,-0.7097113132476807
1684108404412578600,6.50757861328125,1.7438609600067139,0.5114498138427734,-1.2067257165908813
1684108404422619000,6.517618896484375,1.5237845182418823,0.3173255920410156,-1.52665376663208
1684108404432659500,6.527659423828125,1.2923938035964966,0.37036705017089844,-1.720739483833313
1684108404442699800,6.53769970703125,1.0455517768859863,0.49788951873779297,-1.7800014019012451
1684108404452740000,6.547739990234375,0.8725555539131165,0.6867780685424805,-1.6168622970581055
1684108404462780700,6.55778076171875,0.7474063634872437,0.7563447952270508,-1.3485435247421265
1684108404472821000,6.567821044921875,0.7529218196868896,0.7128791809082031,-1.0838327407836914
1684108404482861300,6.577861328125,0.8528202176094055,0.5917501449584961,-0.8485051989555359
1684108404492901600,6.587901611328125,0.9718469381332397,0.38582897186279297,-0.7497706413269043
1684108404502942200,6.597942138671875,1.0278878211975098,0.12163257598876953,-0.6557866334915161
1684108404512982500,6.607982421875,1.078362226486206,-0.11930561065673828,-0.6401211023330688
1684108404523022800,6.61802294921875,1.1051987409591675,-0.2435741424560547,-0.6634032130241394
1684108404533063400,6.6280634765625,1.1349642276763916,-0.22257518768310547,-0.6798111200332642
1684108404543103700,6.638103759765625,1.1345123052597046,-0.0972137451171875,-0.6709111332893372
1684108404553144000,6.64814404296875,1.1163768768310547,0.11800003051757812,-0.6777663230895996
1684108404563184600,6.6581845703125,1.078413724899292,0.32741260528564453,-0.7676045894622803
1684108404573225000,6.668224853515625,1.0471755266189575,0.5312671661376953,-0.9035804271697998
1684108404583265300,6.678265380859375,1.0256173610687256,0.5888853073120117,-1.010401725769043
1684108404593305900,6.688305908203125,0.9549341201782227,0.5389299392700195,-1.125516414642334
1684108404603346200,6.69834619140625,0.8776719570159912,0.39834117889404297,-1.2507131099700928
1684108404613386500,6.708386474609375,0.7708781957626343,0.16481685638427734,-1.3209036588668823
1684108404623427000,6.718427001953125,0.6464419364929199,-0.16634273529052734,-1.4355182647705078
1684108404633467400,6.72846728515625,0.5672345757484436,-0.41840076446533203,-1.484386920928955
1684108404643507700,6.7385078125,0.46442484855651855,-0.5918960571289062,-1.4626507759094238
1684108404653548000,6.748548095703125,0.3673207461833954,-0.6515865325927734,-1.344184398651123
1684108404663588600,6.758588623046875,0.22796574234962463,-0.5788822174072266,-1.2089519500732422
1684108404673629000,6.76862890625,0.03539025038480759,-0.41713905334472656,-1.136055588722229
1684108404683669200,6.778669189453125,-0.10935963690280914,-0.20221900939941406,-1.1418039798736572
1684108404693709800,6.788709716796875,-0.16147872805595398,-0.031739234924316406,-1.1920067071914673
1684108404703750100,6.798750244140625,-0.040168941020965576,0.3102569580078125,-1.3498746156692505
1684108404713790700,6.808790771484375,0.2536008059978485,0.25304222106933594,-1.0607410669326782
1684108404723831000,6.8188310546875,0.5728288888931274,0.0910787582397461,-0.5165120363235474
1684108404733871400,6.828871337890625,0.8267965912818909,0.02974987030029297,-0.2301543802022934
1684108404743911700,6.83891162109375,1.0137948989868164,-0.03872966766357422,-0.06981024146080017
1684108404753952300,6.8489521484375,1.1095792055130005,-0.10718917846679688,0.037444233894348145
1684108404763992600,6.85899267578125,1.1512699127197266,-0.1279144287109375,0.18011349439620972
1684108404774033000,6.869032958984375,1.0961209535598755,-0.17271137237548828,0.3004697561264038
1684108404784073500,6.879073486328125,0.989044189453125,-0.13643169403076172,0.35098791122436523
1684108404794113800,6.88911376953125,0.8206934928894043,-0.09563922882080078,0.43511563539505005
1684108404804154000,6.899154052734375,0.6626068353652954,-0.012070655822753906,0.46948376297950745
1684108404814194700,6.909194580078125,0.5280900001525879,0.04018592834472656,0.5424954295158386
1684108404824235000,6.919235107421875,0.46024149656295776,0.02300262451171875,0.5937345027923584
1684108404834275300,6.929275390625,0.43230339884757996,0.07266521453857422,0.6538975834846497
1684108404844316000,6.93931591796875,0.4005716145038605,0.16032791137695312,0.7368903160095215
1684108404854356200,6.949356201171875,0.3671819865703583,0.2524585723876953,0.8281778693199158
1684108404864396500,6.959396484375,0.3372310996055603,0.32518577575683594,0.9680513143539429
1684108404874437000,6.96943701171875,0.31578534841537476,0.35709190368652344,1.144195556640625
1684108404884477400,6.9794775390625,0.3074464201927185,0.34827613830566406,1.2295994758605957
1684108404894517800,6.989517822265625,0.30190789699554443,0.2964305877685547,1.298640251159668
1684108404904558300,6.999558349609375,0.3244975805282593,0.24460411071777344,1.3204185962677002
1684108404914598700,7.0095986328125,0.29323482513427734,0.20230865478515625,1.3214694261550903
1684108404924639000,7.019638916015625,0.22975850105285645,0.1671304702758789,1.254024624824524
1684108404934679600,7.029679443359375,0.16612589359283447,0.13909912109375,1.1753735542297363
1684108404944720000,7.039719970703125,0.1014479398727417,0.10874557495117188,1.0614492893218994
1684108404954760200,7.04976025390625,0.05885511636734009,0.061867713928222656,0.9314736723899841
1684108404964800800,7.05980078125,0.05807238817214966,-0.0014276504516601562,0.7879441380500793
1684108404974841000,7.069841064453125,0.09361433982849121,-0.007086753845214844,0.6672720313072205
1684108404984881400,7.07988134765625,0.14285951852798462,-0.00069427490234375,0.5169888734817505
1684108404994921700,7.089921630859375,0.1665734052658081,0.02243518829345703,0.3733539283275604
1684108405004962300,7.09996240234375,0.1834644079208374,0.03358268737792969,0.18207284808158875
1684108405015002600,7.110002685546875,0.1866450309753418,0.02325439453125,0.046543627977371216
1684108405025043000,7.12004296875,0.20746392011642456,0.013030052185058594,-0.047096461057662964
1684108405035083500,7.13008349609375,0.23654991388320923,0.0053348541259765625,-0.08396466076374054
1684108405045123800,7.140123779296875,0.28553158044815063,0.021637916564941406,-0.15224413573741913
1684108405055164200,7.1501640625,0.3583828806877136,0.03315448760986328,-0.1782468557357788
1684108405065204700,7.160204833984375,0.4091736078262329,0.015972137451171875,-0.17677319049835205
1684108405075245000,7.1702451171875,0.4350704550743103,0.09430980682373047,-0.23576897382736206
1684108405085285400,7.180285400390625,0.457027792930603,0.18429851531982422,-0.2829028367996216
1684108405095326000,7.190325927734375,0.41979753971099854,0.25005531311035156,-0.2990039587020874
1684108405105366300,7.2003662109375,0.40498417615890503,0.2844886779785156,-0.3028775453567505
1684108405115406600,7.210406494140625,0.355745792388916,0.3712911605834961,-0.265769362449646
1684108405125447200,7.220447265625,0.3321876525878906,0.4410886764526367,-0.2044752538204193
1684108405135487500,7.230487548828125,0.3130381107330322,0.44377994537353516,-0.11908058822154999
1684108405145527800,7.24052783203125,0.32681405544281006,0.40577125549316406,-0.024322297424077988
1684108405155568400,7.250568359375,0.3585367202758789,0.3748502731323242,0.12713055312633514
1684108405165608700,7.260608642578125,0.3362295627593994,0.31035709381103516,0.22276659309864044
1684108405175649000,7.27064892578125,0.29136961698532104,0.22193527221679688,0.3626921772956848
1684108405185689600,7.280689697265625,0.2773810029029846,0.16941165924072266,0.5127843022346497
1684108405195730000,7.29072998046875,0.20848560333251953,0.17179584503173828,0.615953803062439
1684108405205770200,7.300770263671875,0.169849693775177,0.22827434539794922,0.6822851896286011
1684108405215810800,7.310810791015625,0.14931607246398926,0.3026552200317383,0.7171270251274109
1684108405225851100,7.32085107421875,0.12063026428222656,0.3098917007446289,0.7464354038238525
1684108405235891500,7.330891357421875,0.102882981300354,0.2676105499267578,0.7537024021148682
1684108405245932000,7.34093212890625,0.08407258987426758,0.10835647583007812,0.770177960395813
1684108405255972400,7.350972412109375,0.09478044509887695,-0.03172588348388672,0.7464646100997925
1684108405266012700,7.3610126953125,0.06367611885070801,-0.15298748016357422,0.7211973071098328
1684108405276053200,7.37105322265625,0.05044209957122803,-0.18744564056396484,0.6916045546531677
1684108405286093600,7.381093505859375,0.05494284629821777,-0.19772720336914062,0.6667532920837402
1684108405296134000,7.3911337890625,0.055730223655700684,-0.2171640396118164,0.6246474981307983
1684108405306174500,7.401174560546875,0.05501425266265869,-0.22443294525146484,0.6078813672065735
1684108405316214800,7.41121484375,0.06644189357757568,-0.13976383209228516,0.5863744020462036
1684108405326255000,7.421255126953125,0.09426939487457275,-0.09421825408935547,0.5865872502326965
1684108405336295700,7.431295654296875,0.08859395980834961,-0.08009624481201172,0.6692110300064087
1684108405346336000,7.4413359375,0.09244012832641602,-0.06626033782958984,0.7317525744438171
1684108405356376300,7.451376220703125,0.08698773384094238,-0.062111854553222656,0.8314112424850464
1684108405366417000,7.4614169921875,0.08904123306274414,-0.1286792755126953,0.9251946806907654
1684108405376457200,7.471457275390625,0.11041498184204102,-0.2270793914794922,1.0529252290725708
1684108405386497500,7.48149755859375,0.10154867172241211,-0.37558841705322266,1.1928832530975342
1684108405396538000,7.4915380859375,0.10086596012115479,-0.589808464050293,1.2835519313812256
1684108405406578400,7.501578369140625,0.1200021505355835,-0.7815122604370117,1.4641441106796265
1684108405416618800,7.51161865234375,0.12080895900726318,-0.9345645904541016,1.6145994663238525
1684108405426659000,7.5216591796875,0.11946761608123779,-1.0684738159179688,1.6874635219573975
1684108405436699600,7.53169970703125,0.09654557704925537,-1.1153335571289062,1.7376664876937866
1684108405446740000,7.541739990234375,0.0472184419631958,-1.130777359008789,1.8027321100234985
1684108405456780500,7.551780517578125,-0.04234015941619873,-1.0164709091186523,1.8000850677490234
1684108405466820900,7.56182080078125,-0.1570899486541748,-0.8593206405639648,1.834965467453003
1684108405476861200,7.571861083984375,-0.25509703159332275,-0.7469682693481445,1.8407645225524902
1684108405486901800,7.58190185546875,-0.37319397926330566,-0.6356868743896484,1.8795305490493774
1684108405496942000,7.591942138671875,-0.5186038613319397,-0.48833179473876953,1.8595322370529175
1684108405506982400,7.601982421875,-0.688147783279419,-0.4505653381347656,1.8210086822509766
1684108405517022700,7.612022705078125,-0.8858750462532043,-0.4074115753173828,1.7471098899841309
1684108405527063300,7.622063232421875,-1.1415001153945923,-0.3874082565307617,1.63736891746521
1684108405537103600,7.632103515625,-1.4173898696899414,-0.30676746368408203,1.4294795989990234
1684108405547144200,7.642144287109375,-1.742678165435791,-0.15839481353759766,1.0556871891021729
1684108405557184500,7.6521845703125,-1.981955647468567,0.04109001159667969,0.8108705878257751
1684108405567224800,7.662224853515625,-1.7759039402008057,0.18210220336914062,0.7097679972648621
1684108405577265400,7.672265380859375,-1.3546351194381714,0.2884788513183594,0.6063719987869263
1684108405587305700,7.6823056640625,-0.8997014760971069,0.3089408874511719,0.28900039196014404
1684108405597346000,7.692345947265625,-0.5925009846687317,0.24233245849609375,-0.2068871557712555
1684108405607386400,7.702386474609375,-0.3550563454627991,0.19572734832763672,-0.6359735131263733
1684108405617427000,7.712427001953125,-0.10746106505393982,0.21694183349609375,-0.9034466743469238
1684108405627467300,7.72246728515625,0.07257166504859924,0.21780014038085938,-1.1266896724700928
1684108405637507800,7.7325078125,0.1638895571231842,0.2773904800415039,-1.1276462078094482
1684108405647548200,7.742548095703125,0.17951226234436035,0.4122772216796875,-1.2202723026275635
1684108405657588500,7.75258837890625,0.17945553362369537,0.6340789794921875,-1.5696616172790527
1684108405667629000,7.762629150390625,0.29573938250541687,0.758580207824707,-1.8957891464233398
1684108405677669400,7.77266943359375,0.5237162113189697,0.7501373291015625,-2.014887571334839
1684108405687709700,7.782709716796875,0.8780571222305298,0.6759138107299805,-1.975438117980957
1684108405697750300,7.792750244140625,1.292731523513794,0.5241098403930664,-1.8081587553024292
1684108405707790600,7.80279052734375,1.6168217658996582,0.2829437255859375,-1.612871766090393
1684108405717831000,7.812830810546875,1.7654056549072266,-0.014027595520019531,-1.509203553199768
1684108405727871500,7.82287158203125,1.8752549886703491,-0.36199092864990234,-1.3932878971099854
1684108405737911800,7.832911865234375,2.0688931941986084,-0.6389675140380859,-1.3487017154693604
1684108405747952000,7.8429521484375,2.2371582984924316,-0.8137445449829102,-1.312462329864502
1684108405757992700,7.85299267578125,2.334785223007202,-0.8429679870605469,-1.3328967094421387
1684108405768033000,7.863032958984375,2.2273528575897217,-0.8122997283935547,-1.3978018760681152
1684108405778073300,7.8730732421875,1.94236421585083,-0.8383464813232422,-1.3546428680419922
1684108405788114000,7.883114013671875,1.549639344215393,-0.8084077835083008,-1.2980118989944458
1684108405798154200,7.893154296875,1.1784110069274902,-0.837346076965332,-1.1490745544433594
1684108405808194600,7.903194580078125,0.8723663091659546,-0.8249588012695312,-1.0388665199279785
1684108405818235100,7.913235107421875,0.6613075733184814,-0.6640892028808594,-0.9839246869087219
1684108405828275500,7.923275390625,0.6541298627853394,-0.3266716003417969,-0.9909524917602539
1684108405838315800,7.933315673828125,0.7179255485534668,0.09588813781738281,-1.0077017545700073
1684108405848356400,7.9433564453125,0.7616167664527893,0.5291481018066406,-1.079359531402588
1684108405858396700,7.953396728515625,0.83560711145401,0.841670036315918,-1.1256632804870605
1684108405868437000,7.96343701171875,0.9834021329879761,1.1485099792480469,-1.2700859308242798
1684108405878477600,7.9734775390625,1.130617380142212,1.3377838134765625,-1.4460723400115967
1684108405888518000,7.983517822265625,1.3481987714767456,1.3647880554199219,-1.509074330329895
1684108405898558200,7.99355810546875,1.5398595333099365,1.3544349670410156,-1.5039939880371094
1684108405908598800,8.003598876953125,1.6479544639587402,1.276097297668457,-1.5541458129882812
1684108405918639000,8.01363916015625,1.6185016632080078,1.1562938690185547,-1.524979591369629
1684108405928679400,8.023679443359375,1.4444984197616577,1.0546884536743164,-1.5373499393463135
1684108405938720000,8.033719970703125,1.1139992475509644,0.8920297622680664,-1.4528592824935913
1684108405948760300,8.04376025390625,0.6795226335525513,0.6749629974365234,-1.2234538793563843
1684108405958800600,8.053800537109375,0.12808525562286377,0.48158931732177734,-0.9921669363975525
1684108405968841200,8.06384130859375,-0.4743359088897705,0.28241539001464844,-0.6960378289222717
1684108405978881500,8.073881591796875,-0.8012903928756714,0.06991004943847656,-0.3434668779373169
1684108405988921900,8.083921875,-0.7150565385818481,-0.11020278930664062,-0.10689187049865723
1684108405998962400,8.09396240234375,-0.6742795705795288,-0.34846973419189453,0.22703850269317627
1684108406009002800,8.104002685546876,-0.6559776067733765,-0.5515909194946289,0.4473038911819458
1684108406019043300,8.114043212890625,-0.5942420959472656,-0.6887140274047852,0.5052016973495483
1684108406029083600,8.124083740234376,-0.46715831756591797,-0.7839488983154297,0.5355745553970337
1684108406039124000,8.1341240234375,-0.2864779233932495,-0.7130908966064453,0.41602635383605957
1684108406049164300,8.144164306640626,-0.10094428062438965,-0.5261154174804688,0.06394839286804199
1684108406059204900,8.154204833984375,0.14466631412506104,-0.1696023941040039,-0.5369690656661987
1684108406069245200,8.1642451171875,0.40204620361328125,0.28055286407470703,-1.2241194248199463
1684108406079285800,8.17428564453125,0.5424638986587524,0.5497665405273438,-1.6785860061645508
1684108406089326000,8.184326171875,0.6866182088851929,0.7173328399658203,-1.9863405227661133
1684108406099366400,8.194366455078125,0.7245330810546875,0.7810001373291016,-2.187197208404541
1684108406109407000,8.204406982421874,0.7008790969848633,0.7935972213745117,-2.2993197441101074
1684108406119447300,8.214447265625,0.6877027750015259,0.8985252380371094,-2.1701362133026123
1684108406129487600,8.224487548828124,0.6917107105255127,1.0262775421142578,-1.9465776681900024
1684108406139528200,8.234528076171875,0.736771821975708,1.0764551162719727,-1.6410630941390991
1684108406149568500,8.244568603515624,0.7989611625671387,1.0611066818237305,-1.3640328645706177
1684108406159608800,8.25460888671875,0.8561998605728149,0.9994850158691406,-1.0395631790161133
1684108406169649400,8.2646494140625,0.8769606351852417,0.8889970779418945,-0.6722829341888428
1684108406179689700,8.274689697265625,0.8465328216552734,0.7843427658081055,-0.23828601837158203
1684108406189730000,8.28472998046875,0.6513515710830688,0.6467599868774414,0.18874633312225342
1684108406199770600,8.2947705078125,0.41270220279693604,0.4853401184082031,0.5954986810684204
1684108406209811000,8.30481103515625,0.10806763172149658,0.27353858947753906,0.9170047044754028
1684108406219851300,8.314851318359375,-0.13719284534454346,0.00887298583984375,1.3157196044921875
1684108406229891800,8.324891845703124,-0.25363266468048096,-0.1460094451904297,1.5918351411819458
1684108406239932200,8.33493212890625,-0.23173081874847412,-0.042860984802246094,1.755621075630188
1684108406249972500,8.344972412109374,-0.10282182693481445,0.2775154113769531,1.7166783809661865
1684108406260013000,8.355012939453125,0.0015289783477783203,0.4727659225463867,1.543180227279663
1684108406270053400,8.365053466796875,0.055693745613098145,0.46860599517822266,1.15427565574646
1684108406280093700,8.37509375,0.1287977695465088,0.44466304779052734,0.6888571977615356
1684108406290134300,8.38513427734375,0.16751587390899658,0.5252342224121094,0.3353818655014038
1684108406300174600,8.395174560546875,0.046900033950805664,0.5071144104003906,0.06900322437286377
1684108406310215000,8.40521484375,-0.13051927089691162,0.3692617416381836,-0.1744905710220337
1684108406320255500,8.41525537109375,-0.4792962074279785,0.10724925994873047,-0.20148563385009766
1684108406330295800,8.4252958984375,-0.7333583831787109,-0.07352352142333984,-0.18541491031646729
1684108406340336000,8.435336181640626,-0.7800817489624023,-0.09451007843017578,-0.24533462524414062
1684108406350376700,8.445376708984375,-0.4945247173309326,0.10902023315429688,-0.3405470848083496
1684108406360417000,8.4554169921875,0.02304697036743164,0.34685611724853516,-0.4082556962966919
1684108406370457600,8.46545751953125,0.5286190509796143,0.6274576187133789,-0.60184645652771
1684108406380498000,8.475497802734376,0.9945907592773438,0.8774814605712891,-0.7730951309204102
1684108406390538200,8.485538330078125,1.3834437131881714,1.0279903411865234,-1.0515391826629639
1684108406400578600,8.49557861328125,1.7459003925323486,0.8045520782470703,-1.5410912036895752
1684108406410619100,8.505619140625,2.140138864517212,0.11984539031982422,-2.2647347450256348
1684108406420659500,8.515659423828126,2.413304567337036,-0.6739177703857422,-2.962008476257324
1684108406430700000,8.525699951171875,2.310506820678711,-1.3546562194824219,-3.366640567779541
1684108406440740400,8.535740234375,1.7375458478927612,-1.9783697128295898,-3.6617488861083984
1684108406450780700,8.54578076171875,0.3967968225479126,-2.6781253814697266,-4.006575584411621
1684108406460821200,8.5558212890625,-2.384244203567505,-3.7194032669067383,-4.5776472091674805
1684108406470861600,8.565861572265625,-5.989443778991699,-4.945731163024902,-4.956496238708496
1684108406480902000,8.57590185546875,-6.869935512542725,-5.563920021057129,-4.113791465759277
1684108406490942500,8.5859423828125,-4.648091793060303,-4.858787536621094,-2.1970839500427246
1684108406500982800,8.595982666015624,-1.9505470991134644,-2.5894365310668945,-0.5977082252502441
1684108406511023000,8.606023193359375,-0.20556986331939697,-0.7797098159790039,0.15693753957748413
1684108406521063700,8.616063720703124,0.9927936792373657,0.14295291900634766,0.9190248250961304
1684108406531104000,8.62610400390625,1.659508466720581,0.859161376953125,1.5318412780761719
1684108406541144600,8.63614453125,1.8625481128692627,1.6261911392211914,1.7252287864685059
1684108406551185000,8.646184814453125,2.197213649749756,2.097813129425049,1.595643401145935
1684108406561225200,8.65622509765625,2.714935779571533,2.2660932540893555,1.3041179180145264
1684108406571265500,8.666265625,3.1229543685913086,2.213873863220215,1.1486862897872925
1684108406581306000,8.67630615234375,3.2248568534851074,1.9137611389160156,1.1685400009155273
1684108406591346400,8.686346435546875,3.1946825981140137,1.5342521667480469,1.1299076080322266
1684108406601387000,8.696386962890625,3.1461586952209473,1.0117769241333008,1.0790071487426758
1684108406611427300,8.70642724609375,3.100499153137207,0.42357444763183594,1.0752530097961426
1684108406621467600,8.716467529296875,3.006389617919922,0.008725166320800781,1.0646789073944092
1684108406631508200,8.72650830078125,2.8788490295410156,-0.2525758743286133,0.9978117346763611
1684108406641548500,8.736548583984375,2.686887264251709,-0.3159303665161133,0.9185360670089722
1684108406651588900,8.7465888671875,2.405416488647461,-0.2947835922241211,0.7053967714309692
1684108406661629400,8.75662939453125,2.138134002685547,-0.23532962799072266,0.4981440305709839
1684108406671669800,8.766669677734376,1.8774166107177734,-0.22640037536621094,0.27577757835388184
1684108406681710000,8.7767099609375,1.6095473766326904,-0.11278629302978516,0.025689199566841125
1684108406691750700,8.786750732421876,1.3887642621994019,0.00021648406982421875,-0.28320950269699097
1684108406701791000,8.796791015625,1.0339032411575317,0.1485443115234375,-0.5474801659584045
1684108406711831300,8.806831298828126,-0.15255439281463623,0.37040233612060547,-1.09653902053833
1684108406721872000,8.816871826171875,-1.4383423328399658,0.5931978225708008,-1.6773523092269897
1684108406731912200,8.826912109375,-1.9977474212646484,0.6343097686767578,-1.9460115432739258
1684108406741952500,8.836952392578125,-1.8183119297027588,0.5009527206420898,-1.846680998802185
1684108406751993000,8.8469931640625,-1.2958869934082031,0.3920783996582031,-1.7385679483413696
1684108406762033400,8.857033447265625,-0.5304925441741943,0.38234996795654297,-1.6847808361053467
1684108406772074000,8.867073974609376,0.24707376956939697,0.2740907669067383,-1.5162456035614014
1684108406782114300,8.8771142578125,0.8689433932304382,0.10384464263916016,-1.2393231391906738
1684108406792154600,8.887154541015626,1.2466750144958496,-0.030210494995117188,-0.9340348839759827
1684108406802195200,8.8971953125,1.4351919889450073,-0.0923471450805664,-0.7939950823783875
1684108406812235500,8.907235595703124,1.5607123374938965,-0.17822551727294922,-0.7026770710945129
1684108406822275800,8.91727587890625,1.672304630279541,-0.19695186614990234,-0.6649892330169678
1684108406832316400,8.92731640625,1.8230352401733398,-0.20588302612304688,-0.5788363814353943
1684108406842356700,8.937356689453125,1.9203827381134033,-0.14045429229736328,-0.39304977655410767
1684108406852397000,8.94739697265625,1.9663548469543457,-0.04380512237548828,-0.28867384791374207
1684108406862437600,8.957437744140625,1.9451587200164795,0.0003376007080078125,-0.16668713092803955
1684108406872478000,8.96747802734375,1.8680777549743652,0.018256187438964844,-0.01019794587045908
1684108406882518300,8.977518310546875,1.7753113508224487,0.024222373962402344,0.1615656018257141
1684108406892558800,8.987558837890624,1.7106887102127075,-0.01999664306640625,0.3340817987918854
1684108406902599200,8.99759912109375,1.6500217914581299,-0.013968467712402344,0.45963433384895325
1684108406912639500,9.007639404296874,1.6065380573272705,0.04223060607910156,0.5577059984207153
1684108406922680000,9.01768017578125,1.5333635807037354,0.16046524047851562,0.6734105944633484
1684108406932720400,9.027720458984374,1.417360782623291,0.35015392303466797,0.7132072448730469
1684108406942761000,9.037760986328125,1.2509925365447998,0.5657072067260742,0.7366507053375244
1684108406952801300,9.04780126953125,0.9757803678512573,0.6947212219238281,0.6887856125831604
1684108406962841600,9.057841552734375,0.6572465896606445,0.7396574020385742,0.6390756964683533
1684108406972882200,9.067882080078125,0.395153284072876,0.7364387512207031,0.5352005362510681
1684108406982922500,9.077922607421876,0.23575355112552643,0.6397838592529297,0.34437403082847595
1684108406992963000,9.087963134765625,0.19673742353916168,0.40699100494384766,0.1372680962085724
1684108407003003400,9.09800341796875,0.27416181564331055,0.08148002624511719,-0.06765806674957275
1684108407013043700,9.108043701171875,0.35069143772125244,-0.06658554077148438,-0.17211832106113434
1684108407023084000,9.118083984375,0.4463052749633789,-0.2214984893798828,-0.17944195866584778
1684108407033124600,9.12812451171875,0.5156341195106506,-0.22083377838134766,-0.19008459150791168
1684108407043165000,9.1381650390625,0.5473883152008057,-0.1819934844970703,-0.19648218154907227
1684108407053205500,9.14820556640625,0.6561453342437744,-0.06208038330078125,-0.11305201798677444
1684108407063245800,9.158245849609376,0.8095607757568359,0.18647480010986328,-0.04074250906705856
1684108407073286100,9.1682861328125,0.9557286500930786,0.37947940826416016,0.11282557249069214
1684108407083326700,9.17832666015625,1.0816996097564697,0.5314035415649414,0.27483028173446655
1684108407093367000,9.188366943359375,1.1777358055114746,0.5611534118652344,0.40433037281036377
1684108407103407400,9.198407470703126,1.244278907775879,0.5382909774780273,0.4708841145038605
1684108407113448000,9.208447998046875,1.2575167417526245,0.4175739288330078,0.48503178358078003
1684108407123488300,9.21848828125,1.3198347091674805,0.13954639434814453,0.5403282046318054
1684108407133528600,9.228528564453125,1.3635042905807495,-0.11867904663085938,0.529433012008667
1684108407143569200,9.238569091796874,1.3828787803649902,-0.3141670227050781,0.5480833649635315
1684108407153609500,9.248609375,1.3271358013153076,-0.2608146667480469,0.6079451441764832
1684108407163650000,9.258650146484374,1.1915032863616943,-0.1264324188232422,0.6294794082641602
1684108407173690400,9.2686904296875,0.9600121378898621,0.08637142181396484,0.6481024622917175
1684108407183730700,9.278730712890624,0.7339414954185486,0.3487253189086914,0.5249361991882324
1684108407193771300,9.288771240234375,0.47078633308410645,0.5840768814086914,0.3825409710407257
1684108407203811600,9.2988115234375,0.18551868200302124,0.7900991439819336,0.20429794490337372
1684108407213852000,9.308851806640625,-0.12261416018009186,0.8427000045776367,0.0978773981332779
1684108407223892500,9.318892578125,-0.35242635011672974,0.6181449890136719,0.046992674469947815
1684108407233932800,9.328932861328125,-0.395710289478302,-0.0069675445556640625,0.10563962906599045
1684108407243973000,9.33897314453125,-0.2680305540561676,-0.575439453125,0.28885617852211
1684108407254013700,9.349013671875,-0.061373770236968994,-0.9130859375,0.507506251335144
1684108407264054000,9.359053955078124,0.2209472805261612,-1.022939682006836,0.6411094069480896
1684108407274094300,9.36909423828125,0.47974103689193726,-0.9080314636230469,0.7035067081451416
1684108407284135000,9.379135009765625,0.6676726341247559,-0.5140304565429688,0.7705052495002747
1684108407294175200,9.38917529296875,0.82735276222229,-0.051795005798339844,0.7310745716094971
1684108407304215800,9.3992158203125,0.9446520209312439,0.2444772720336914,0.6040338277816772
1684108407314256100,9.409256103515625,1.059920310974121,0.3202695846557617,0.45713597536087036
1684108407324296400,9.41929638671875,1.1770365238189697,0.30745983123779297,0.2769618332386017
1684108407334337000,9.4293369140625,1.2427383661270142,0.2420787811279297,0.19954746961593628
1684108407344377300,9.43937744140625,1.3263046741485596,0.25559043884277344,0.1005755141377449
1684108407354417700,9.449417724609376,1.3348751068115234,0.25465869903564453,0.016174495220184326
1684108407364458200,9.459458251953125,1.369330644607544,0.1939373016357422,0.07783837616443634
1684108407374498600,9.46949853515625,1.3699395656585693,0.14043045043945312,0.05571579560637474
1684108407384539100,9.4795390625,1.331678032875061,0.06782817840576172,-0.030927740037441254
1684108407394579500,9.489579345703126,1.2204397916793823,0.052544593811035156,-0.16217215359210968
1684108407404619800,9.499619873046875,1.0260639190673828,0.07288265228271484,-0.2540245056152344
1684108407414660400,9.509660400390626,0.7223508358001709,0.10242938995361328,-0.3871096968650818
1684108407424700700,9.51970068359375,0.33893975615501404,0.14829063415527344,-0.4626776874065399
1684108407434741000,9.529740966796876,-0.08187580108642578,0.16267108917236328,-0.4895670413970947
1684108407444781600,9.539781494140625,-0.4940558671951294,0.1385784149169922,-0.49357008934020996
1684108407454822000,9.54982177734375,-0.8223534822463989,0.12644386291503906,-0.3386804759502411
1684108407464862200,9.5598623046875,-0.9840186238288879,0.021419525146484375,-0.1258792281150818
1684108407474902800,9.56990283203125,-0.9574636816978455,-0.01840496063232422,0.14102861285209656
1684108407484943000,9.579943115234375,-0.7804890871047974,-0.06710147857666016,0.3744083642959595
1684108407494983700,9.589983642578124,-0.5359552502632141,-0.0458831787109375,0.5928376913070679
1684108407505024000,9.60002392578125,-0.3127689063549042,0.09743309020996094,0.7343553304672241
1684108407515064300,9.610064208984374,-0.052123308181762695,0.19994544982910156,0.8443751335144043
1684108407525105000,9.62010498046875,0.15247714519500732,0.2615966796875,0.9587558507919312
1684108407535145200,9.630145263671874,0.3596453368663788,0.2704753875732422,1.0560832023620605
1684108407545185500,9.640185546875,0.5381926894187927,0.25296592712402344,1.1748193502426147
1684108407555226000,9.65022607421875,0.7192814350128174,0.25211238861083984,1.217146873474121
1684108407565266400,9.660266357421875,0.8741109371185303,0.2535285949707031,1.2645397186279297
1684108407575307000,9.67030712890625,1.0287559032440186,0.28824710845947266,1.3239896297454834
1684108407585347300,9.680347412109375,1.1515312194824219,0.31318092346191406,1.3929446935653687
1684108407595387600,9.6903876953125,1.24911630153656,0.27103137969970703,1.4568519592285156
1684108407605428200,9.70042822265625,1.2974354028701782,0.21213722229003906,1.5153894424438477
1684108407615468500,9.710468505859374,1.3299894332885742,0.16999244689941406,1.6065672636032104
1684108407625508900,9.7205087890625,1.3639124631881714,0.10642623901367188,1.7007911205291748
1684108407635549400,9.730549560546875,1.3830816745758057,0.050230979919433594,1.8331305980682373
1684108407645589800,9.74058984375,1.3970869779586792,-0.0009355545043945312,1.8428102731704712
1684108407655630300,9.75063037109375,1.4126484394073486,0.04846477508544922,1.7847590446472168
1684108407665670700,9.760670654296876,1.4194207191467285,0.07877540588378906,1.6925601959228516
1684108407675711000,9.7707109375,1.4048418998718262,0.10435199737548828,1.5546224117279053
1684108407685751600,9.78075146484375,1.397202968597412,0.12756061553955078,1.5125173330307007
1684108407695791900,9.7907919921875,1.363391637802124,0.062445640563964844,1.432396411895752
1684108407705832200,9.800832275390626,1.2994366884231567,-0.059714317321777344,1.3957351446151733
1684108407715872800,9.810872802734375,1.1779067516326904,-0.2172708511352539,1.376426339149475
1684108407725913000,9.8209130859375,1.0452600717544556,-0.33132457733154297,1.3579649925231934
1684108407735953400,9.830953369140625,1.0116703510284424,-0.4831886291503906,1.3716044425964355
1684108407745994000,9.840993896484376,0.9510152339935303,-0.6560640335083008,1.3913829326629639
1684108407756034300,9.851034423828125,0.887737512588501,-0.8379812240600586,1.3937994241714478
1684108407766075000,9.861074951171876,0.8048514723777771,-1.0480012893676758,1.457222819328308
1684108407776115200,9.871115234375,0.6802583336830139,-1.2526006698608398,1.3827221393585205
1684108407786155500,9.881155517578126,0.5180667638778687,-1.4278488159179688,1.2935465574264526
1684108407796196000,9.891196044921875,0.2302604764699936,-1.4471921920776367,1.0431331396102905
1684108407806236400,9.901236328125,-0.03167492896318436,-1.2466468811035156,0.5880305767059326
1684108407816276700,9.91127685546875,-0.38496696949005127,-0.9558963775634766,0.1801641583442688
1684108407826317300,9.9213173828125,-0.7971106171607971,-0.6516695022583008,-0.131172776222229
1684108407836357600,9.931357666015625,-1.1791247129440308,-0.3364419937133789,-0.4342113137245178
1684108407846398200,9.941398193359374,-1.4934148788452148,-0.04380512237548828,-0.6140394806861877
1684108407856438500,9.9514384765625,-1.734250545501709,0.09479045867919922,-0.7286685109138489
1684108407866478800,9.961478759765624,-1.8372962474822998,0.02935791015625,-0.5424030423164368
1684108407876519400,9.97151953125,-1.8378782272338867,-0.05841064453125,-0.13890057802200317
1684108407886559700,9.981559814453124,-1.6193084716796875,-0.04930591583251953,0.43147897720336914
1684108407896600000,9.99160009765625,-1.1966323852539062,0.011026382446289062,1.025371789932251
1684108407906640600,10.001640625,-0.5282859206199646,0.12735557556152344,1.4853136539459229
1684108407916681000,10.011680908203125,0.2899206876754761,0.18753433227539062,1.7801198959350586
1684108407926721500,10.021721435546874,1.015176773071289,0.20157527923583984,1.7360663414001465
1684108407936761900,10.031761962890625,1.546381950378418,0.2247152328491211,1.2712514400482178
1684108407946802200,10.04180224609375,1.8652235269546509,0.1900472640991211,0.8204847574234009
1684108407956842800,10.0518427734375,1.8287632465362549,0.1592397689819336,0.3161700665950775
1684108407966883000,10.061883056640625,1.8623988628387451,0.22460174560546875,-0.06037932634353638
1684108407976923600,10.071923583984375,2.274801731109619,0.1993236541748047,-0.13466483354568481
1684108407986964000,10.0819638671875,2.689344882965088,0.04080390930175781,-0.2222270369529724
1684108407997004300,10.09200439453125,2.970761299133301,-0.18823909759521484,-0.4070727825164795
1684108408007044900,10.102044921875,3.0817713737487793,-0.3248624801635742,-0.8017657399177551
1684108408017085200,10.112085205078126,2.9971892833709717,-0.4666604995727539,-1.1957321166992188
1684108408027125500,10.12212548828125,2.9038872718811035,-0.5839977264404297,-1.4979091882705688
1684108408037166000,10.132166015625,2.7606828212738037,-0.7018423080444336,-1.6642611026763916
1684108408047206400,10.142206298828125,2.502531051635742,-0.9337425231933594,-1.768445372581482
1684108408057247000,10.1522470703125,2.181215763092041,-1.057210922241211,-1.6799187660217285
1684108408067287300,10.162287353515625,1.9945977926254272,-0.7915496826171875,-1.5738662481307983
1684108408077327600,10.17232763671875,2.1835310459136963,-0.20755958557128906,-1.2475006580352783
1684108408087368200,10.1823681640625,2.5494773387908936,0.10883522033691406,-0.6718693971633911
1684108408097408500,10.192408447265626,2.751584529876709,0.09145355224609375,-0.06365466117858887
1684108408107448800,10.20244873046875,2.7708091735839844,-0.03460216522216797,0.4137766361236572
1684108408117489400,10.212489501953126,2.6595590114593506,-0.11650848388671875,0.677639901638031
1684108408127529700,10.22252978515625,2.3740432262420654,-0.09255218505859375,0.7877917289733887
1684108408137570300,10.2325703125,2.155367374420166,0.05615043640136719,0.7987062335014343
1684108408147610600,10.242610595703125,2.1992063522338867,0.3129768371582031,0.6458770632743835
1684108408157651000,10.25265087890625,2.2922937870025635,0.5157222747802734,0.4638083875179291
1684108408167691500,10.26269140625,2.2881112098693848,0.6264104843139648,0.35432082414627075
1684108408177731800,10.27273193359375,2.109264850616455,0.6759967803955078,0.11755261570215225
1684108408187772200,10.282772216796875,1.7875503301620483,0.6926774978637695,-0.24914973974227905
1684108408197812700,10.292812744140624,1.346032977104187,0.5897989273071289,-0.5630295872688293
1684108408207853000,10.30285302734375,1.0595265626907349,0.39108943939208984,-0.8074784874916077
1684108408217893600,10.3128935546875,0.8641394376754761,0.12050151824951172,-0.9565379619598389
1684108408227934000,10.322933837890625,0.5981134176254272,-0.05948925018310547,-1.0645577907562256
1684108408237974300,10.332974365234374,0.28464794158935547,-0.10153484344482422,-1.0966496467590332
1684108408248014800,10.343014892578125,0.03351187705993652,-0.025409698486328125,-1.104648232460022
1684108408258055200,10.35305517578125,-0.2156214714050293,0.05600547790527344,-1.1297041177749634
1684108408268095500,10.363095458984375,-0.3322148323059082,0.09456348419189453,-1.1781015396118164
1684108408278136000,10.373135986328125,-0.33336520195007324,0.021042823791503906,-1.3203434944152832
1684108408288176400,10.38317626953125,-0.30515003204345703,-0.06602954864501953,-1.4498322010040283
1684108408298217000,10.393217041015625,-0.23650360107421875,-0.161285400390625,-1.553236961364746
1684108408308257300,10.40325732421875,-0.16729068756103516,-0.19706249237060547,-1.7242062091827393
1684108408318297900,10.4132978515625,-0.0742650032043457,-0.16806316375732422,-1.7641971111297607
1684108408328338200,10.423338134765626,0.09851503372192383,-0.08836746215820312,-1.8418313264846802
1684108408338378500,10.43337841796875,0.28642499446868896,0.011059761047363281,-1.9021565914154053
1684108408348419000,10.443419189453126,0.4259406328201294,0.14446163177490234,-1.9793423414230347
1684108408358459400,10.45345947265625,0.6305876970291138,0.30204010009765625,-1.9818642139434814
1684108408368499700,10.463499755859376,0.8499139547348022,0.45512866973876953,-1.9627540111541748
1684108408378540300,10.473540283203125,0.9945247173309326,0.5012378692626953,-1.8943603038787842
1684108408388580600,10.48358056640625,1.0491067171096802,0.5149002075195312,-1.7610068321228027
1684108408398621200,10.49362109375,0.9776986837387085,0.4771766662597656,-1.5965347290039062
1684108408408661500,10.50366162109375,0.74163818359375,0.43321704864501953,-1.4485708475112915
1684108408418701800,10.513701904296875,0.4841160774230957,0.3826112747192383,-1.2905045747756958
1684108408428742400,10.523742431640626,0.34187304973602295,0.394500732421875,-1.0793101787567139
1684108408438782700,10.53378271484375,0.34482312202453613,0.5142955780029297,-0.8247638940811157
1684108408448823000,10.543822998046876,0.4079385995864868,0.5461397171020508,-0.5319926738739014
1684108408458863600,10.553863525390625,0.4274866580963135,0.6145725250244141,-0.1995825171470642
1684108408468904000,10.563904052734374,0.38157010078430176,0.616826057434082,0.19248545169830322
1684108408478944500,10.573944580078125,0.3642430305480957,0.5910234451293945,0.5405747294425964
1684108408488984800,10.58398486328125,0.33132612705230713,0.548802375793457,0.982446014881134
1684108408499025200,10.594025146484375,0.376816987991333,0.451751708984375,1.3716208934783936
1684108408509065700,10.604065673828124,0.4154529571533203,0.29735851287841797,1.7004363536834717
1684108408519106000,10.61410595703125,0.47187912464141846,0.1261882781982422,1.997681975364685
1684108408529146600,10.624146728515624,0.6007319688796997,0.12703990936279297,2.108609437942505
1684108408539187000,10.63418701171875,0.8124547004699707,0.20917415618896484,2.0783145427703857
1684108408549227300,10.644227294921874,1.049338459968567,0.29903507232666016,1.8603037595748901
1684108408559267800,10.654267822265625,1.1475335359573364,0.2869691848754883,1.534881830215454
1684108408569308200,10.66430810546875,0.9303081035614014,0.2992362976074219,1.0584430694580078
1684108408579348700,10.6743486328125,0.6490616798400879,0.3543834686279297,0.5512277483940125
1684108408589389000,10.68438916015625,0.4047524929046631,0.42119503021240234,0.22411513328552246
1684108408599429400,10.694429443359375,0.21051669120788574,0.49036312103271484,0.014819622039794922
1684108408609470000,10.704469970703125,0.03607058525085449,0.5431404113769531,-0.09572631120681763
1684108408619510300,10.71451025390625,-0.11744856834411621,0.5846395492553711,-0.11446785926818848
1684108408629550600,10.724550537109375,-0.32445383071899414,0.6484146118164062,-0.07450878620147705
1684108408639591200,10.734591064453125,-0.5126214027404785,0.6125316619873047,-0.04919004440307617
1684108408649631500,10.744631591796875,-0.6099450588226318,0.49391746520996094,-0.08515828847885132
1684108408659672000,10.754672119140626,-0.66426682472229,0.3643941879272461,-0.11006283760070801
1684108408669712400,10.76471240234375,-0.7350423336029053,0.33371543884277344,-0.13124483823776245
1684108408679752700,10.774752685546876,-0.6995508670806885,0.2175426483154297,-0.26545488834381104
1684108408689793300,10.784793212890625,-0.607733964920044,-0.04134654998779297,-0.43570446968078613
1684108408699833600,10.79483349609375,-0.27843523025512695,-0.48320770263671875,-0.7733997702598572
1684108408709874200,10.804874267578125,0.20531713962554932,-0.952174186706543,-1.1944907903671265
1684108408719914500,10.81491455078125,0.5004397630691528,-1.407480239868164,-1.4201921224594116
1684108408729954800,10.824954833984375,0.3352525234222412,-1.7012481689453125,-1.5257387161254883
1684108408739995400,10.834995361328126,0.11175239086151123,-1.815232276916504,-1.633373737335205
1684108408750035700,10.84503564453125,-0.02463066577911377,-1.6738853454589844,-1.674477458000183
1684108408760076300,10.855076171875,-0.3800286054611206,-1.7081384658813477,-1.693774938583374
1684108408770116600,10.86511669921875,-1.3896762132644653,-1.9921979904174805,-1.3971354961395264
1684108408780157000,10.875156982421874,-2.392146587371826,-1.9837608337402344,-0.5720557570457458
1684108408790197500,10.885197509765625,-2.224602222442627,-1.6806001663208008,0.4850448966026306
1684108408800237800,10.89523779296875,-1.1868741512298584,-1.3355770111083984,1.3826539516448975
1684108408810278100,10.905278076171875,-0.26957058906555176,-0.8338174819946289,2.052863121032715
1684108408820318700,10.915318603515624,0.4125039577484131,-0.2166585922241211,2.5577597618103027
1684108408830359000,10.925359130859375,0.9548210501670837,0.5105552673339844,2.6407272815704346
1684108408840399600,10.935399658203124,1.382359266281128,1.0227155685424805,2.386404037475586
1684108408850440000,10.94543994140625,1.7525858879089355,1.2488040924072266,1.8706884384155273
1684108408860480500,10.95548046875,1.988175392150879,1.172999382019043,1.3249375820159912
1684108408870520800,10.965520751953125,2.103935718536377,0.7868366241455078,0.788539707660675
1684108408880561200,10.97556103515625,2.3619160652160645,0.3617849349975586,0.14092132449150085
1684108408890601700,10.985601806640625,2.924476146697998,0.10971260070800781,-0.6924377679824829
1684108408900642000,10.99564208984375,3.7477164268493652,-0.011058807373046875,-1.389913558959961
1684108408910682400,11.005682373046875,4.350524425506592,-0.04358196258544922,-1.5295310020446777
1684108408920723000,11.015722900390625,4.219329357147217,0.1603546142578125,-1.5846302509307861
1684108408930763300,11.02576318359375,3.0951831340789795,0.42510318756103516,-1.473462700843811
1684108408940803800,11.035803955078125,1.2643535137176514,0.7508611679077148,-1.3258131742477417
1684108408950844200,11.04584423828125,-1.0069502592086792,0.8334674835205078,-0.9196130037307739
1684108408960884700,11.055884765625,-2.387829065322876,0.47321033477783203,-0.2939618229866028
1684108408970925000,11.065925048828126,-2.3085715770721436,0.0948953628540039,0.15698429942131042
1684108408980965400,11.07596533203125,-1.5247856378555298,-0.18573379516601562,0.38784927129745483
1684108408991006000,11.086005859375,-0.6663049459457397,-0.33475589752197266,0.5992943048477173
1684108409001046300,11.09604638671875,0.12814241647720337,-0.28280067443847656,0.6428967714309692
1684108409011086600,11.106086669921876,0.6585513353347778,-0.11620330810546875,0.6213091611862183
1684108409021127200,11.116127197265625,0.6437666416168213,0.028478622436523438,0.6017360687255859
1684108409031167500,11.12616748046875,-0.3340417444705963,0.07700252532958984,1.047849178314209
1684108409041208000,11.1362080078125,-0.5144809484481812,0.4427165985107422,0.7057145237922668
1684108409051248400,11.146248291015626,0.21012410521507263,0.4587831497192383,-0.02263656258583069
1684108409061289000,11.1562890625,0.5665507316589355,0.25272655487060547,-0.42839229106903076
1684108409071329300,11.166329345703126,0.8854911923408508,0.24063777923583984,-0.6782127618789673
1684108409081369600,11.17636962890625,1.3105829954147339,0.2500629425048828,-1.0174767971038818
1684108409091410200,11.18641015625,1.5331511497497559,0.1900777816772461,-1.2784206867218018
1684108409101450500,11.196450439453125,1.4686119556427002,0.2064342498779297,-1.2651649713516235
1684108409111490800,11.20649072265625,1.1700438261032104,0.20099163055419922,-1.1145542860031128
1684108409121531400,11.216531494140625,1.0649293661117554,0.1809539794921875,-0.8808382153511047
1684108409131571700,11.22657177734375,1.090757966041565,0.13209152221679688,-0.47705546021461487
1684108409141612300,11.2366123046875,1.274594783782959,0.030670166015625,-0.1874014139175415
1684108409151652600,11.246652587890624,1.3194167613983154,-0.0060787200927734375,0.03183490037918091
1684108409161693000,11.25669287109375,1.233245611190796,0.014581680297851562,0.23962338268756866
1684108409171733500,11.2667333984375,1.3373596668243408,0.04238128662109375,0.31371694803237915
1684108409181773800,11.27677392578125,1.4972610473632812,0.09161663055419922,0.3352668285369873
1684108409191814400,11.286814453125,1.5887526273727417,0.018894195556640625,0.2640933394432068
1684108409201854700,11.296854736328125,1.5661312341690063,0.06331634521484375,0.23378430306911469
1684108409211895000,11.30689501953125,1.4536151885986328,0.1314229965209961,0.19646871089935303
1684108409221935600,11.316935546875,1.33320152759552,0.1132659912109375,0.08575195074081421
1684108409231976000,11.326975830078124,1.1440683603286743,0.13563060760498047,-0.004839599132537842
1684108409242016500,11.3370166015625,0.9139784574508667,0.10291576385498047,-0.03952643275260925
1684108409252056800,11.347056884765625,0.7060335278511047,0.13944435119628906,-0.13245299458503723
1684108409262097200,11.35709716796875,0.4799175560474396,0.1399545669555664,-0.1825104057788849
1684108409272137700,11.3671376953125,0.25334060192108154,0.14995574951171875,-0.20393341779708862
1684108409282178000,11.377177978515626,0.04246723651885986,0.13369464874267578,-0.19163936376571655
1684108409292218600,11.387218505859375,-0.090831458568573,0.1606292724609375,-0.17397791147232056
1684108409302259000,11.397259033203126,-0.13802817463874817,0.17583942413330078,-0.1171850860118866
1684108409312299300,11.40729931640625,-0.07248446345329285,0.12925148010253906,-0.037464648485183716
1684108409322339800,11.41733984375,0.08307814598083496,0.13323020935058594,0.06747645139694214
1684108409332380200,11.427380126953125,0.2742992043495178,0.11353874206542969,0.27149802446365356
1684108409342420700,11.437420654296876,0.4443734288215637,0.10118770599365234,0.43314892053604126
1684108409352461000,11.4474609375,0.6032575964927673,0.16530799865722656,0.6549913883209229
1684108409362501400,11.45750146484375,0.7155243754386902,0.2005300521850586,0.7979787588119507
1684108409372542000,11.4675419921875,0.8033182621002197,0.21400928497314453,0.8785630464553833
1684108409382582300,11.477582275390626,0.8439415097236633,0.23919010162353516,0.9464411735534668
1684108409392622800,11.487622802734375,0.8728103637695312,0.22588443756103516,0.9343013167381287
1684108409402663200,11.4976630859375,0.8423898816108704,0.16466140747070312,0.8513606786727905
1684108409412703700,11.507703857421875,0.7778524160385132,0.09153175354003906,0.7381494045257568
1684108409422744000,11.517744140625,0.7373852133750916,0.030431747436523438,0.5806856751441956
1684108409432784400,11.527784423828125,0.7024757862091064,-0.0019626617431640625,0.46337130665779114
1684108409442825000,11.537824951171874,0.6422667503356934,-0.010514259338378906,0.31490349769592285
1684108409452865300,11.547865234375,0.5831801891326904,0.03814697265625,0.20217305421829224
1684108409462905600,11.557905517578124,0.5057801008224487,0.11753463745117188,0.05188560485839844
1684108409472946200,11.5679462890625,0.4242591857910156,0.15348243713378906,-0.04446905851364136
1684108409482986500,11.577986572265624,0.30738383531570435,0.14844512939453125,-0.13460499048233032
1684108409493027000,11.588027099609375,0.16047817468643188,0.15028858184814453,-0.16327381134033203
1684108409503067400,11.5980673828125,0.003778815269470215,0.10175418853759766,-0.19748371839523315
1684108409513108000,11.60810791015625,-0.15151548385620117,0.08431720733642578,-0.1277487874031067
1684108409523148300,11.618148193359374,-0.2489227056503296,0.03598976135253906,-0.017010867595672607
1684108409533188600,11.628188720703125,-0.2734494209289551,-0.03349876403808594,0.06290996074676514
1684108409543229200,11.638229248046875,-0.26031744480133057,-0.11530876159667969,0.1365135908126831
1684108409553269500,11.64826953125,-0.22006291151046753,-0.22630977630615234,0.1791916787624359
1684108409563310000,11.65831005859375,-0.18001800775527954,-0.2342987060546875,0.20842349529266357
1684108409573350400,11.668350341796875,-0.15872031450271606,-0.19044113159179688,0.24623307585716248
1684108409583390700,11.678390625,-0.14782220125198364,-0.0766897201538086,0.33283549547195435
1684108409593431300,11.688431396484376,-0.12510818243026733,0.014079093933105469,0.4694647490978241
1684108409603471600,11.6984716796875,-0.060232460498809814,0.08698749542236328,0.6335886716842651
1684108409613512200,11.70851220703125,0.012210845947265625,0.14462947845458984,0.7818387746810913
1684108409623552500,11.718552490234375,0.0672459602355957,0.16596031188964844,0.8553379774093628
1684108409633592800,11.7285927734375,0.12311732769012451,0.19388198852539062,0.9280493259429932
1684108409643633400,11.73863330078125,0.12750840187072754,0.20235824584960938,0.9572523832321167
1684108409653673700,11.748673828125,0.10039794445037842,0.17294692993164062,1.0136935710906982
1684108409663714300,11.75871435546875,0.0853804349899292,0.07105541229248047,1.0331584215164185
1684108409673754600,11.768754638671876,0.08550143241882324,-0.029020309448242188,0.9997063279151917
1684108409683795200,11.778795166015625,0.10529303550720215,-0.02370738983154297,1.0129694938659668
1684108409693835500,11.78883544921875,0.11836457252502441,0.0216827392578125,0.932991623878479
1684108409703875800,11.798875732421875,0.14993023872375488,0.07578659057617188,0.8013362884521484
1684108409713916400,11.80891650390625,0.16146504878997803,0.1336832046508789,0.6871989369392395
1684108409723956700,11.818956787109375,0.15305209159851074,0.17171192169189453,0.5599892735481262
1684108409733997300,11.828997314453124,0.1323535442352295,0.14073562622070312,0.41137099266052246
1684108409744037600,11.83903759765625,0.10232293605804443,0.14077281951904297,0.26594942808151245
1684108409754078000,11.849077880859374,0.06605112552642822,0.15017414093017578,0.17325836420059204
1684108409764118500,11.859118408203125,0.052593231201171875,0.1829700469970703,0.1538851261138916
1684108409774158800,11.869158935546874,0.05930662155151367,0.17286300659179688,0.09121453762054443
1684108409784199400,11.879199462890625,0.08070921897888184,0.059299468994140625,0.11311990022659302
1684108409794239700,11.88923974609375,0.0922243595123291,0.01575756072998047,0.10991626977920532
1684108409804280000,11.899280029296875,0.09611856937408447,0.02218914031982422,0.15271461009979248
1684108409814320600,11.909320556640624,0.05282735824584961,0.033061981201171875,0.2008170485496521
1684108409824361000,11.91936083984375,0.03668332099914551,0.04366016387939453,0.32943692803382874
1684108409834401500,11.929401611328124,0.021562576293945312,0.035185813903808594,0.4195268154144287
1684108409844441900,11.93944189453125,0.007380366325378418,0.0032510757446289062,0.518609881401062
1684108409854482400,11.949482421875,0.00782012939453125,-0.030607223510742188,0.5816546678543091
1684108409864522800,11.959522705078125,0.0029947757720947266,-0.05706787109375,0.6424592733383179
1684108409874563000,11.96956298828125,-0.005133152008056641,-0.11635494232177734,0.675197958946228
1684108409884603600,11.979603759765626,-0.03345191478729248,-0.14676761627197266,0.6449404954910278
1684108409894644000,11.98964404296875,-0.04766130447387695,-0.19805431365966797,0.6534091234207153
1684108409904684500,11.9996845703125,0.006065964698791504,-0.32362937927246094,0.7250427007675171
1684108409914724900,12.009724853515625,0.15204691886901855,-0.5642337799072266,0.8504807949066162
1684108409924765200,12.01976513671875,0.33489787578582764,-0.8283424377441406,0.987959623336792
1684108409934805800,12.0298056640625,0.5238683223724365,-1.0098028182983398,1.1626195907592773
1684108409944846000,12.03984619140625,0.6734813451766968,-1.0562543869018555,1.2822128534317017
1684108409954886700,12.04988671875,0.8010215759277344,-1.1679010391235352,1.4903311729431152
1684108409964927000,12.059927001953126,0.8941529989242554,-1.3083372116088867,1.6240569353103638
1684108409974967600,12.069967529296875,0.9290556907653809,-1.3407707214355469,1.7806360721588135
1684108409985007900,12.0800078125,0.9176695346832275,-1.4018573760986328,1.9064667224884033
1684108409995048200,12.090048095703125,0.8542591333389282,-1.3958826065063477,2.002218723297119
1684108410005088800,12.1000888671875,0.6660109758377075,-1.308588981628418,2.0255227088928223
1684108410015129000,12.110129150390625,0.36145520210266113,-1.2570228576660156,1.89747953414917
1684108410025169700,12.120169677734374,-0.06276547908782959,-1.2432870864868164,1.6014330387115479
1684108410035210000,12.1302099609375,-0.6050477027893066,-1.0595703125,1.0233734846115112
1684108410045250300,12.140250244140624,-1.3116751909255981,-0.8159828186035156,0.4381076693534851
1684108410055291000,12.150290771484375,-2.0266506671905518,-0.46396923065185547,-0.011017858982086182
1684108410065331200,12.160331298828124,-2.5969347953796387,-0.06714725494384766,-0.35394126176834106
1684108410075371800,12.170371826171875,-2.9787657260894775,0.36052989959716797,-0.5812759399414062
1684108410085412000,12.180412109375,-3.0995030403137207,0.7278461456298828,-0.8147249817848206
1684108410095452400,12.190452392578125,-3.088683843612671,1.0219993591308594,-1.0011296272277832
1684108410105493000,12.200492919921874,-2.935145854949951,1.1848649978637695,-1.0183207988739014
1684108410115533300,12.210533203125,-2.5711045265197754,1.2208929061889648,-0.8540772199630737
1684108410125574000,12.220573974609374,-1.693150520324707,1.2084999084472656,-0.4923819899559021
1684108410135614200,12.2306142578125,-0.6639576554298401,1.120840072631836,-0.04982107877731323
1684108410145654800,12.24065478515625,0.1854104995727539,0.9840278625488281,0.5212035775184631
1684108410155695000,12.250695068359375,0.5396993160247803,0.8388519287109375,0.9672141671180725
1684108410165735700,12.260735595703125,0.6874783039093018,0.7404165267944336,1.2304275035858154
1684108410175776000,12.27077587890625,0.7438892126083374,0.5693941116333008,1.4365544319152832
1684108410185816300,12.28081640625,0.7245364785194397,0.36909008026123047,1.4956450462341309
1684108410195857000,12.29085693359375,0.7529720664024353,0.23268413543701172,1.3735219240188599
1684108410205897200,12.300897216796875,0.8254499435424805,0.08585166931152344,1.2312493324279785
1684108410215937800,12.310937744140626,0.9633653163909912,-0.1622018814086914,1.186204433441162
1684108410225978000,12.32097802734375,1.169338345527649,-0.4395895004272461,1.0928986072540283
1684108410236018400,12.331018310546876,1.5276265144348145,-0.720097541809082,0.9152048826217651
1684108410246059000,12.34105908203125,1.8587021827697754,-0.9442996978759766,0.5420221090316772
1684108410256099300,12.351099365234376,2.2836148738861084,-1.1435298919677734,0.3193097412586212
1684108410266140000,12.361139892578125,2.721249580383301,-1.322464942932129,0.09773993492126465
1684108410276180200,12.37118017578125,3.0929007530212402,-1.3971776962280273,-0.23938673734664917
1684108410286220500,12.381220458984375,3.317694664001465,-1.4269723892211914,-0.5479892492294312
1684108410296261000,12.39126123046875,3.4025044441223145,-1.4637260437011719,-0.7413560748100281
1684108410306301400,12.401301513671875,3.2154908180236816,-1.466200828552246,-0.8835650682449341
1684108410316342000,12.411342041015626,2.9156408309936523,-1.4245824813842773,-0.8644217252731323
1684108410326382300,12.42138232421875,2.462507724761963,-1.3581132888793945,-0.8207760453224182
1684108410336423000,12.4314228515625,1.9763805866241455,-1.1094913482666016,-0.7741420269012451
1684108410346463200,12.441463134765625,1.5561186075210571,-0.6986112594604492,-0.5997593402862549
1684108410356503600,12.451503662109374,1.345268726348877,-0.12854576110839844,-0.3509603440761566
1684108410366544100,12.461544189453125,1.3063631057739258,0.35903167724609375,-0.11616037040948868
1684108410376584400,12.47158447265625,1.3054847717285156,0.716618537902832,0.06807861477136612
1684108410386625000,12.481625,1.3377305269241333,0.9708843231201172,0.14907552301883698
1684108410396665300,12.491665283203124,1.3557612895965576,1.1698322296142578,0.10783796012401581
1684108410406706000,12.501705810546875,1.410423994064331,1.351755142211914,0.051980435848236084
1684108410416746200,12.511746337890624,1.6093121767044067,1.526235580444336,-0.057616882026195526
1684108410426786800,12.521786865234375,1.8325426578521729,1.578683853149414,-0.21267050504684448
1684108410436827100,12.5318271484375,2.010350227355957,1.5190162658691406,-0.3501613736152649
1684108410446867500,12.541867431640625,2.049706220626831,1.3665924072265625,-0.41194331645965576
1684108410456904000,12.551904052734375,1.970695972442627,1.1429977416992188,-0.4475759267807007
1684108410466944300,12.5619443359375,1.760403037071228,0.8911609649658203,-0.4441237449645996
