time,seconds_elapsed,z,y,x
1683915225784251100,0.030251220703125,0,0,0
1683915225794292000,0.0402919921875,-0.4992629289627075,0.003459930419921875,-0.2180323600769043
1683915225804332800,0.050332763671875,-1.9329814910888672,0.06639480590820312,-1.604621410369873
1683915225814373600,0.06037353515625,-2.85249662399292,0.2374248504638672,0.5717811584472656
1683915225824414500,0.07041455078125,0.07485973834991455,-1.3993406295776367,4.260003089904785
1683915225834455300,0.080455322265625,1.4476722478866577,-1.4167776107788086,2.531132698059082
1683915225844496100,0.09049609375,2.1260571479797363,-1.0580620765686035,0.576514720916748
1683915225854537000,0.100536865234375,2.945197105407715,-0.6233649253845215,-0.6797518730163574
1683915225864577800,0.110577880859375,2.759202480316162,-0.5416865348815918,1.1830964088439941
1683915225874618600,0.12061865234375,0.304388165473938,-2.87076473236084,3.291006088256836
1683915225884659500,0.130659423828125,0.820458173751831,-1.817610740661621,1.1105327606201172
1683915225894700300,0.1407001953125,0.8789345026016235,-0.2731351852416992,0.835566520690918
1683915225904741000,0.1507412109375,2.037370204925537,0.9840788841247559,1.3402667045593262
1683915225914782000,0.160781982421875,2.9781761169433594,1.0323734283447266,2.3160505294799805
1683915225924822800,0.17082275390625,3.2082138061523438,0.7573127746582031,4.390015125274658
1683915225934863600,0.180863525390625,3.4047672748565674,0.7834558486938477,6.602110385894775
1683915225944904400,0.190904541015625,3.440941572189331,0.7713642120361328,8.145676612854004
1683915225954945300,0.2009453125,2.9783289432525635,1.3026618957519531,8.724157333374023
1683915225964986000,0.210986083984375,2.063638210296631,2.298468589782715,8.264863014221191
1683915225975027000,0.22102685546875,0.7039453983306885,2.876575469970703,7.2514328956604
1683915225985067800,0.23106787109375,-0.5819072723388672,3.487255573272705,6.5131330490112305
1683915225995108600,0.241108642578125,-1.6901271343231201,4.251137733459473,6.471375465393066
1683915226005149400,0.2511494140625,-2.621446132659912,5.0284833908081055,6.174674987792969
1683915226015190300,0.261190185546875,-4.424423694610596,5.764150619506836,5.5210113525390625
1683915226025231000,0.271231201171875,-5.692120552062988,6.411375045776367,4.4063825607299805
1683915226035272000,0.28127197265625,-7.310454845428467,6.60380744934082,2.8486032485961914
1683915226045312800,0.291312744140625,-11.922598838806152,5.5316877365112305,-0.1309375762939453
1683915226055353600,0.301353515625,-11.636129379272461,3.9813718795776367,-1.8619003295898438
1683915226065394400,0.31139453125,-7.802426815032959,3.422819137573242,-1.0486936569213867
1683915226075435300,0.321435302734375,-3.6882219314575195,3.5887227058410645,-0.8287477493286133
1683915226085476000,0.33147607421875,1.8533992767333984,3.5863428115844727,-2.320340156555176
1683915226095517000,0.341516845703125,1.9927189350128174,1.6765162944793701,-2.4614248275756836
1683915226105558000,0.35155810546875,3.528583288192749,0.23128938674926758,-4.014906883239746
1683915226115598800,0.361598876953125,5.240725517272949,-0.9639968872070312,-5.527729511260986
1683915226125639700,0.3716396484375,6.320666790008545,-1.705566167831421,-5.865562438964844
1683915226135680500,0.381680419921875,7.229840278625488,-2.2286319732666016,-5.867248058319092
1683915226145721300,0.391721435546875,7.356091022491455,-3.2786998748779297,-6.472901344299316
1683915226155762200,0.40176220703125,6.135883331298828,-3.011988401412964,-7.679320335388184
1683915226165803000,0.411802978515625,3.250561237335205,-2.105372190475464,-6.57377290725708
1683915226175843800,0.42184375,0.7291996479034424,-2.165139675140381,-6.03026008605957
1683915226185884700,0.431884765625,-1.734417200088501,-3.1823155879974365,-4.629083633422852
1683915226195925500,0.441925537109375,-0.3642326593399048,-2.2550125122070312,-4.054203510284424
1683915226205966300,0.45196630859375,1.2620134353637695,0.039180755615234375,-3.906230926513672
1683915226216007200,0.462007080078125,-0.2719980478286743,-0.645024299621582,-1.4816489219665527
1683915226226048000,0.472048095703125,-0.6987996101379395,1.490732192993164,-0.22333621978759766
1683915226236088800,0.4820888671875,1.5109564065933228,-0.7720751762390137,2.345510482788086
1683915226246129700,0.492129638671875,2.5699546337127686,-1.9079015254974365,2.8914670944213867
1683915226256170500,0.50217041015625,4.297879219055176,-3.0712625980377197,1.5181665420532227
1683915226266211300,0.51221142578125,5.145237922668457,-2.868069648742676,0.5080881118774414
1683915226276252200,0.522252197265625,5.992760181427002,-2.957159996032715,1.7371606826782227
1683915226286293000,0.53229296875,5.692408084869385,-3.1508381366729736,2.402568817138672
1683915226296333800,0.542333740234375,5.076897144317627,-1.5369749069213867,2.933208465576172
1683915226306374700,0.552374755859375,2.8947129249572754,-2.8184456825256348,3.802938461303711
1683915226316415500,0.56241552734375,1.1439412832260132,-0.7244036197662354,3.495471954345703
1683915226326456300,0.572456298828125,-0.8304430246353149,1.1126682758331299,3.1131677627563477
1683915226336497200,0.5824970703125,-2.6928203105926514,1.127063512802124,2.509030342102051
1683915226346538000,0.5925380859375,-2.1862831115722656,1.1995880603790283,1.0452604293823242
1683915226356578800,0.602578857421875,-1.4877493381500244,0.611461877822876,-1.1836729049682617
1683915226366619600,0.61261962890625,-0.2962075471878052,0.8508517742156982,0.6689844131469727
1683915226376660500,0.622660400390625,0.08562827110290527,1.6897743940353394,0.963862419128418
1683915226386701300,0.632701416015625,0.8119869232177734,1.4679055213928223,0.6696691513061523
1683915226396742100,0.6427421875,1.5847772359848022,1.7946898937225342,-0.010057449340820312
1683915226406783000,0.652782958984375,1.941797137260437,1.5909264087677002,-0.7350406646728516
1683915226416823800,0.66282373046875,2.2505056858062744,2.0640883445739746,-2.0942296981811523
1683915226426864600,0.67286474609375,1.8111116886138916,0.7776021957397461,-0.898808479309082
1683915226436905500,0.682905517578125,0.9929866194725037,-0.1082758903503418,0.11350250244140625
1683915226446946300,0.6929462890625,1.277580976486206,0.12643861770629883,0.4129638671875
1683915226456987100,0.702987060546875,1.9741084575653076,0.39896583557128906,0.3463878631591797
1683915226467028000,0.713028076171875,2.067131280899048,0.17582273483276367,-0.2532377243041992
1683915226477068800,0.72306884765625,1.4483221769332886,-0.6649744510650635,-1.0742130279541016
1683915226487109600,0.733109619140625,1.1795289516448975,-1.7950067520141602,-2.0730409622192383
1683915226497150500,0.743150390625,0.8110133409500122,-3.3483166694641113,-3.3195128440856934
1683915226507191300,0.75319140625,0.4558858871459961,-4.634418487548828,-3.9147839546203613
1683915226517232000,0.763232177734375,0.29148006439208984,-5.639969825744629,-3.9821085929870605
1683915226527273000,0.77327294921875,0.7215733528137207,-6.538259029388428,-4.245386123657227
1683915226537313800,0.783313720703125,2.8985230922698975,-6.696378707885742,-4.81419038772583
1683915226547354600,0.793354736328125,2.14697527885437,-5.964795112609863,-2.4448657035827637
1683915226557395500,0.8033955078125,2.385345458984375,-5.196207523345947,-0.7028884887695312
1683915226567436300,0.813436279296875,1.9919317960739136,-4.7108073234558105,2.0152463912963867
1683915226577477000,0.82347705078125,1.3182885646820068,-4.743255615234375,3.2824325561523438
1683915226587518000,0.83351806640625,1.127248764038086,-4.030196189880371,4.894905090332031
1683915226597558800,0.843558837890625,1.0225012302398682,-3.2475109100341797,5.405269622802734
1683915226607599600,0.853599609375,1.3793468475341797,-1.9123530387878418,3.4935102462768555
1683915226617640400,0.863640380859375,-1.42323899269104,-1.6208348274230957,1.080338478088379
1683915226627681300,0.873681396484375,-3.6859540939331055,-1.4345264434814453,-0.7397127151489258
1683915226637722000,0.88372216796875,-5.693049907684326,-1.8862452507019043,-1.5136122703552246
1683915226647763000,0.893762939453125,-3.0965957641601562,-1.8529834747314453,-2.0016207695007324
1683915226657803800,0.9038037109375,0.25388479232788086,-0.9855427742004395,-3.0583176612854004
1683915226667844600,0.9138447265625,1.180553674697876,-2.533677101135254,-3.3758187294006348
1683915226677885400,0.923885498046875,0.9704349040985107,-2.8522186279296875,-2.649059295654297
1683915226687926300,0.93392626953125,0.9024088382720947,-1.7153820991516113,-2.205636978149414
1683915226697967000,0.943967041015625,1.0772864818572998,-0.42636966705322266,-1.9659228324890137
1683915226708008000,0.954008056640625,1.2367753982543945,0.6531105041503906,-1.9840679168701172
1683915226718048800,0.964048828125,1.3547334671020508,1.2057909965515137,-1.9598994255065918
1683915226728089600,0.974089599609375,1.6208195686340332,1.196467399597168,-1.7326226234436035
1683915226738130400,0.98413037109375,1.803882360458374,1.329017162322998,-0.8508186340332031
1683915226748171300,0.994171142578125,1.8124668598175049,1.5597267150878906,0.12630844116210938
1683915226758212000,1.004212158203125,1.6061067581176758,1.759467601776123,0.4972538948059082
1683915226768253000,1.0142529296875,1.320608377456665,1.8123574256896973,0.2197284698486328
1683915226778293800,1.024293701171875,1.1345410346984863,1.4505023956298828,-0.11712884902954102
1683915226788334600,1.03433447265625,1.0799956321716309,0.9812712669372559,-0.3939075469970703
1683915226798375400,1.04437548828125,1.0990395545959473,0.44539403915405273,-0.4975128173828125
1683915226808416300,1.054416259765625,1.2525033950805664,-0.18996000289916992,-0.5954174995422363
1683915226818457000,1.06445703125,1.6598856449127197,-0.48706769943237305,-0.615941047668457
1683915226828498000,1.074497802734375,2.2738845348358154,-0.04044151306152344,-0.20328521728515625
1683915226838538800,1.084538818359375,2.536045789718628,0.6644797325134277,-0.0029387474060058594
1683915226848579600,1.09457958984375,2.5964672565460205,1.1879806518554688,-0.27882862091064453
1683915226858620400,1.104620361328125,2.428839921951294,1.3469977378845215,-0.6270608901977539
1683915226868661200,1.1146611328125,2.0248427391052246,1.217113971710205,-1.0783193111419678
1683915226878702000,1.1247021484375,1.3377995491027832,0.9522905349731445,-1.2117502689361572
1683915226888743000,1.134742919921875,-0.23169708251953125,0.8926467895507812,-1.3239264488220215
1683915226898783700,1.14478369140625,-2.3231453895568848,0.7981882095336914,-1.1173756122589111
1683915226908824600,1.154824462890625,-2.7776312828063965,0.8712458610534668,-0.639859676361084
1683915226918865400,1.164865478515625,-1.593066692352295,1.2054195404052734,-0.18407154083251953
1683915226928906200,1.17490625,-0.3635878562927246,1.72072172164917,0.015874385833740234
1683915226938947000,1.184947021484375,0.47814512252807617,2.3003249168395996,0.054735660552978516
1683915226948988000,1.19498779296875,0.8901185989379883,2.1978235244750977,-0.02762889862060547
1683915226959028700,1.20502880859375,0.8631815910339355,1.8989391326904297,-0.40407705307006836
1683915226969069600,1.215069580078125,0.6529040336608887,1.7423100471496582,-1.2287318706512451
1683915226979110400,1.2251103515625,0.6698989868164062,1.7327513694763184,-1.7592389583587646
1683915226989151200,1.235151123046875,0.8117473125457764,1.7496304512023926,-1.289358139038086
1683915226999192000,1.245192138671875,0.6891915798187256,1.8021926879882812,-0.698582649230957
1683915227009233000,1.25523291015625,0.5660371780395508,1.8447456359863281,-0.4573798179626465
1683915227019273700,1.265273681640625,0.7202045917510986,1.9425692558288574,-0.13762426376342773
1683915227029314600,1.275314453125,0.6888813972473145,1.9497570991516113,0.17122316360473633
1683915227039355400,1.28535546875,0.505709171295166,1.8779916763305664,0.3690605163574219
1683915227049396200,1.295396240234375,-0.0945277214050293,1.6358742713928223,0.5803771018981934
1683915227059437000,1.30543701171875,-0.7103359699249268,0.9765224456787109,0.8490653038024902
1683915227069478000,1.315477783203125,-0.6828823089599609,0.5191693305969238,1.012254238128662
1683915227079518700,1.325518798828125,-0.2463533878326416,0.4309873580932617,0.9250359535217285
1683915227089559600,1.3355595703125,-0.07913470268249512,0.32241010665893555,0.7693901062011719
1683915227099600400,1.345600341796875,-0.2118229866027832,0.4003634452819824,0.40816569328308105
1683915227109641200,1.35564111328125,-0.1593949794769287,0.7191677093505859,0.04328632354736328
1683915227119682000,1.36568212890625,-0.002425670623779297,0.9784774780273438,-0.34464240074157715
1683915227129723000,1.375722900390625,0.34767913818359375,1.2287564277648926,-0.5045843124389648
1683915227139763700,1.385763671875,0.797957181930542,1.5059661865234375,-0.29578256607055664
1683915227149804500,1.395804443359375,1.0354238748550415,2.0644922256469727,0.10467290878295898
1683915227159845400,1.405845458984375,1.4660258293151855,2.8673739433288574,0.12514472007751465
1683915227169886200,1.41588623046875,1.5164614915847778,2.7454276084899902,1.4036880731582642
1683915227179927000,1.425927001953125,1.0400499105453491,1.4604263305664062,2.827461004257202
1683915227189968000,1.4359677734375,0.8900405168533325,-1.5183115005493164,2.564469337463379
1683915227200008700,1.4460087890625,-0.18539929389953613,-6.232297897338867,0.15637840330600739
1683915227210049500,1.456049560546875,-1.8916723728179932,-11.727372169494629,-3.002237319946289
1683915227220090400,1.46609033203125,-1.3263869285583496,-15.444459915161133,-4.486677169799805
1683915227230131200,1.476131103515625,0.025295615196228027,-13.989912986755371,-1.4495279788970947
1683915227240172000,1.486172119140625,0.8764222860336304,-10.835298538208008,1.6021013259887695
1683915227250212900,1.496212890625,0.19068694114685059,-7.380443572998047,2.9046571254730225
1683915227260253700,1.506253662109375,-0.22160762548446655,-3.1003599166870117,1.7286174297332764
1683915227270294500,1.51629443359375,-0.797104001045227,0.04698753356933594,0.6496334075927734
1683915227280335400,1.52633544921875,-1.5929081439971924,2.386385917663574,-1.2314496040344238
1683915227290376200,1.536376220703125,0.06728363037109375,3.8833932876586914,-2.328461170196533
1683915227300417000,1.5464169921875,2.7379748821258545,4.556723117828369,-2.457566261291504
1683915227310457900,1.556457763671875,4.397833824157715,5.216080188751221,-2.842024326324463
1683915227320498700,1.566498779296875,4.99932861328125,5.224418640136719,-3.0929226875305176
1683915227330539500,1.57653955078125,5.137350082397461,5.003503799438477,-3.859185218811035
1683915227340580400,1.586580322265625,4.834420680999756,4.287308216094971,-4.4029035568237305
1683915227350621200,1.59662109375,4.473692417144775,3.32098388671875,-4.535739898681641
1683915227360662000,1.606662109375,4.272136211395264,2.5371437072753906,-4.339689254760742
1683915227370702800,1.616702880859375,3.9800024032592773,1.8879890441894531,-4.138101577758789
1683915227380743700,1.62674365234375,3.4900989532470703,1.2446541786193848,-4.031388759613037
1683915227390784500,1.636784423828125,2.986269474029541,0.8083600997924805,-3.9883904457092285
1683915227400825300,1.646825439453125,2.4350087642669678,0.6576709747314453,-3.7632532119750977
1683915227410866200,1.6568662109375,2.013414144515991,0.6116695404052734,-2.7657198905944824
1683915227420907000,1.666906982421875,1.7176764011383057,0.668604850769043,-2.0474772453308105
1683915227430947800,1.67694775390625,1.5828975439071655,0.6058845520019531,-1.7397408485412598
1683915227440988700,1.68698876953125,1.0948134660720825,0.5056266784667969,-1.3227753639221191
1683915227451029500,1.697029541015625,0.3548343777656555,0.6475324630737305,-0.5774145126342773
1683915227461070300,1.7070703125,-0.37567010521888733,1.0730962753295898,0.1023859977722168
1683915227471111200,1.717111083984375,-1.2051260471343994,1.1540684700012207,0.7464847564697266
1683915227481152000,1.727152099609375,-2.261814594268799,0.9734020233154297,1.3368678092956543
1683915227491192800,1.73719287109375,-2.843165874481201,0.8269510269165039,1.610976219177246
1683915227501233700,1.747233642578125,-2.1462831497192383,1.0395221710205078,1.5590801239013672
1683915227511274500,1.7572744140625,-0.8241283893585205,1.412562370300293,1.2155320644378662
1683915227521315300,1.7673154296875,0.09942573308944702,1.4308815002441406,0.9598088264465332
1683915227531356200,1.777356201171875,0.6492355465888977,1.0429892539978027,0.5715913772583008
1683915227541397000,1.78739697265625,1.0146247148513794,0.31708431243896484,0.3367166519165039
1683915227551437800,1.797437744140625,1.1657652854919434,-0.42674922943115234,0.28366899490356445
1683915227561478700,1.807478759765625,1.228830337524414,-0.6350746154785156,0.7042808532714844
1683915227571519500,1.81751953125,1.1777921915054321,-0.7058811187744141,1.0755367279052734
1683915227581560300,1.827560302734375,1.0533474683761597,-1.017507553100586,0.9194850921630859
1683915227591601200,1.83760107421875,0.85652095079422,-1.268869400024414,1.0379700660705566
1683915227601642000,1.84764208984375,0.5030039548873901,-1.3482418060302734,1.528088092803955
1683915227611682800,1.857682861328125,0.13051706552505493,-1.4050483703613281,1.982503890991211
1683915227621723600,1.8677236328125,-0.2042834758758545,-0.9481639862060547,2.6437056064605713
1683915227631764500,1.877764404296875,-0.2139156460762024,-0.06494998931884766,2.642306089401245
1683915227641805300,1.887805419921875,-0.17122769355773926,0.6603374481201172,1.8902146816253662
1683915227651846100,1.89784619140625,-0.44203609228134155,0.34354162216186523,0.6164803504943848
1683915227661887000,1.907886962890625,-0.5834782719612122,-0.3856678009033203,-0.1057119369506836
1683915227671927800,1.917927734375,-0.8351980447769165,-0.7389936447143555,0.3723607063293457
1683915227681968600,1.92796875,-1.1760812997817993,-0.7833700180053711,0.48777341842651367
1683915227692009500,1.938009521484375,-1.3596017360687256,-0.6372957229614258,0.2583484649658203
1683915227702050300,1.94805029296875,-1.5277559757232666,-0.7481803894042969,0.1504497528076172
1683915227712091100,1.958091064453125,-1.560110330581665,-1.0199413299560547,0.3287801742553711
1683915227722132000,1.968132080078125,-1.4311054944992065,-1.357706069946289,0.4818730354309082
1683915227732172800,1.9781728515625,-1.2087602615356445,-1.7542381286621094,0.5647335052490234
1683915227742213600,1.988213623046875,-0.9923741817474365,-2.0831069946289062,0.6614465713500977
1683915227752254500,1.99825439453125,-0.9164406061172485,-2.372532844543457,0.6747665405273438
1683915227762295300,2.00829541015625,-1.0094133615493774,-2.6194992065429688,0.5615978240966797
1683915227772336000,2.018336181640625,-1.2386518716812134,-2.669461250305176,0.34566545486450195
1683915227782377000,2.028376953125,-1.4701037406921387,-2.407522201538086,0.16159677505493164
1683915227792417800,2.038417724609375,-1.6945701837539673,-2.088380813598633,0.08565282821655273
1683915227802458600,2.048458740234375,-1.7610734701156616,-2.2451868057250977,0.16916990280151367
1683915227812499500,2.05849951171875,-1.6743193864822388,-2.891505241394043,0.3783912658691406
1683915227822540300,2.068540283203125,-1.6278318166732788,-3.4203338623046875,0.860903263092041
1683915227832581000,2.0785810546875,-1.769244909286499,-3.595282554626465,1.6809253692626953
1683915227842622000,2.0886220703125,-2.270447254180908,-3.483279228210449,2.594006061553955
1683915227852662800,2.098662841796875,-2.5414626598358154,-3.1837987899780273,3.5369625091552734
1683915227862703600,2.10870361328125,-2.5485334396362305,-2.741506576538086,3.8637847900390625
1683915227872744400,2.118744384765625,-2.670673370361328,-2.446413993835449,3.876959800720215
1683915227882785300,2.128785400390625,-3.023160219192505,-2.3693370819091797,4.023791790008545
1683915227892826000,2.138826171875,-3.2204041481018066,-2.1080942153930664,4.0944366455078125
1683915227902867000,2.148866943359375,-3.3578951358795166,-1.766195297241211,3.628220319747925
1683915227912907800,2.15890771484375,-3.740053653717041,-1.858123779296875,1.3555030822753906
1683915227922948600,2.168948486328125,-3.618655204772949,-1.9458131790161133,-1.5406756401062012
1683915227932989400,2.178989501953125,-2.416776657104492,-1.810739517211914,-4.178101539611816
1683915227943030300,2.1890302734375,-0.4503142833709717,-1.6994304656982422,-5.843956470489502
1683915227953071000,2.199071044921875,1.3999948501586914,-1.8656320571899414,-6.784836769104004
1683915227963112000,2.20911181640625,3.0957913398742676,-2.1207571029663086,-7.479954719543457
1683915227973152800,2.21915283203125,4.574016571044922,-1.9969730377197266,-7.88100528717041
1683915227983193600,2.229193603515625,5.388552665710449,-1.4304752349853516,-7.927898406982422
1683915227993234400,2.239234375,5.357718467712402,-0.7064504623413086,-7.383767127990723
1683915228003275300,2.249275146484375,5.351785659790039,0.7151889801025391,-6.055408000946045
1683915228013316000,2.259316162109375,5.049765586853027,2.0612106323242188,-3.6802871227264404
1683915228023357000,2.26935693359375,4.424961090087891,2.5243024826049805,-1.0672085285186768
1683915228033397800,2.279397705078125,3.8400564193725586,2.7300143241882324,0.12875723838806152
1683915228043438600,2.2894384765625,2.8683009147644043,2.710376739501953,0.9663505554199219
1683915228053479400,2.2994794921875,0.9584769010543823,2.1902055740356445,1.8385356664657593
1683915228063520300,2.309520263671875,-0.5644714832305908,1.7997221946716309,2.2036328315734863
1683915228073561000,2.31956103515625,-0.7574918270111084,1.6911001205444336,2.0606207847595215
1683915228083602000,2.329601806640625,-0.09005093574523926,1.7737727165222168,1.1959607601165771
1683915228093642800,2.339642822265625,0.4382355213165283,1.8277945518493652,0.15761446952819824
1683915228103683600,2.34968359375,0.8782715797424316,2.1013126373291016,-0.3676743507385254
1683915228113724400,2.359724365234375,1.3052725791931152,2.331798553466797,-0.6262013912200928
1683915228123765200,2.36976513671875,1.707180380821228,2.545022964477539,-0.9861650466918945
1683915228133806000,2.37980615234375,2.00435209274292,2.9086971282958984,-1.502371072769165
1683915228143847000,2.389846923828125,2.4631295204162598,3.4932379722595215,-1.7845747470855713
1683915228153887700,2.3998876953125,3.0806117057800293,4.219360828399658,-1.8866043090820312
1683915228163928600,2.409928466796875,3.5684731006622314,4.991909027099609,-1.9025273323059082
1683915228173969400,2.419969482421875,3.7751576900482178,5.649097919464111,-1.8679509162902832
1683915228184010200,2.43001025390625,3.5314998626708984,6.148501396179199,-1.7821331024169922
1683915228194051000,2.440051025390625,3.084300994873047,6.509608268737793,-1.5560986995697021
1683915228204092000,2.450091796875,2.6264259815216064,6.6806111335754395,-1.1355652809143066
1683915228214132700,2.4601328125,2.3435466289520264,6.750166416168213,-0.668978214263916
1683915228224173600,2.470173583984375,2.2326388359069824,6.387228488922119,-0.503650426864624
1683915228234214400,2.48021435546875,1.4989370107650757,5.656187057495117,-1.0886869430541992
1683915228244255200,2.490255126953125,-0.190948486328125,4.727004528045654,-1.8918709754943848
1683915228254296000,2.500296142578125,-1.4444022178649902,3.4920291900634766,-2.029975414276123
1683915228264337000,2.5103369140625,-1.409851312637329,1.728797435760498,-1.529512643814087
1683915228274377700,2.520377685546875,-1.4372282028198242,-0.2552204132080078,-1.5672714710235596
1683915228284418600,2.53041845703125,-2.303938627243042,-2.611699104309082,-1.1578090190887451
1683915228294459400,2.54045947265625,-4.776505470275879,-5.135882377624512,0.013850688934326172
1683915228304500200,2.550500244140625,-7.69310188293457,-7.384181022644043,2.1157267093658447
1683915228314541000,2.560541015625,-8.056849479675293,-8.87118911743164,4.173513412475586
1683915228324582000,2.570581787109375,-6.220755577087402,-8.949396133422852,5.597372055053711
1683915228334622700,2.580622802734375,-3.5254836082458496,-8.200502395629883,6.13352632522583
1683915228344663600,2.59066357421875,-1.3236346244812012,-7.257184982299805,5.540070056915283
1683915228354704400,2.600704345703125,0.3646407127380371,-5.547208786010742,3.7296504974365234
1683915228364745200,2.6107451171875,1.5768804550170898,-2.7078399658203125,1.482785701751709
1683915228374786000,2.6207861328125,2.224055290222168,0.6096954345703125,-0.020183801651000977
1683915228384827000,2.630826904296875,2.3709421157836914,3.2379040718078613,-0.5349864959716797
1683915228394867500,2.640867431640625,2.5175039768218994,4.864808559417725,-0.4350166320800781
1683915228404908300,2.650908203125,2.3608360290527344,5.863364219665527,0.04122209548950195
1683915228414949000,2.66094921875,2.031334161758423,6.015744686126709,0.48325228691101074
1683915228424990000,2.670989990234375,1.855154275894165,4.829275131225586,-0.444929838180542
1683915228435030800,2.68103076171875,1.8079835176467896,2.9214882850646973,-2.1247758865356445
1683915228445071600,2.691071533203125,1.3593096733093262,0.6526145935058594,-3.792263984680176
1683915228455112700,2.70111279296875,0.05411577224731445,-1.9420299530029297,-5.214690685272217
1683915228465153500,2.711153564453125,-0.9753913879394531,-4.710265159606934,-6.085353374481201
1683915228475194400,2.7211943359375,-2.177309274673462,-7.1959733963012695,-6.5677666664123535
1683915228485235200,2.731235107421875,-4.928323745727539,-9.639775276184082,-5.986002445220947
1683915228495276000,2.741276123046875,-2.027660846710205,-8.982672691345215,-5.1198272705078125
1683915228505316900,2.75131689453125,0.8777954578399658,-6.745787620544434,-4.997549533843994
1683915228515357400,2.761357421875,2.6067147254943848,-3.5619564056396484,-4.097168922424316
1683915228525398300,2.771398193359375,3.404784679412842,-0.7308349609375,-2.643136978149414
1683915228535439000,2.781439208984375,3.397167682647705,1.5983967781066895,-1.5697965621948242
1683915228545480000,2.79147998046875,3.1231231689453125,3.2473301887512207,-0.2859201431274414
1683915228555520800,2.801520751953125,2.8293066024780273,4.415407657623291,0.7279491424560547
1683915228565561600,2.8115615234375,2.546639919281006,5.389334201812744,1.4508824348449707
1683915228575602400,2.8216025390625,2.1389193534851074,6.26743221282959,1.8980107307434082
1683915228585643300,2.831643310546875,-0.5838900804519653,9.63232135772705,1.8923437595367432
1683915228595684000,2.84168408203125,-2.55241060256958,9.816856384277344,0.8256940841674805
1683915228605725000,2.851724853515625,-2.5088770389556885,7.687197685241699,0.16696691513061523
1683915228615765800,2.861765869140625,-0.49653160572052,4.728911876678467,-0.25769853591918945
1683915228625806600,2.871806640625,1.7433041334152222,2.1690683364868164,-0.4180417060852051
1683915228635847400,2.881847412109375,2.99594783782959,0.40306568145751953,-0.9494295120239258
1683915228645888300,2.89188818359375,3.4628562927246094,-1.422342300415039,-1.791111946105957
1683915228655929000,2.90192919921875,3.936284065246582,-2.887350082397461,-2.6268601417541504
1683915228665970000,2.911969970703125,4.390529155731201,-3.132145881652832,-2.2373576164245605
1683915228676010800,2.9220107421875,4.602505683898926,-2.2173032760620117,-0.805910587310791
1683915228686051600,2.932051513671875,4.83914041519165,-0.9414501190185547,-0.20778894424438477
1683915228696092400,2.942092529296875,4.912223815917969,-0.02769756317138672,-0.11685371398925781
1683915228706133200,2.95213330078125,4.617542743682861,0.4425802230834961,0.053963661193847656
1683915228716174000,2.962174072265625,4.113536834716797,0.6383910179138184,0.23876428604125977
1683915228726215000,2.97221484375,3.640059471130371,0.735438346862793,0.4126119613647461
1683915228736255700,2.982255859375,3.0832364559173584,0.5384101867675781,0.7452917098999023
1683915228746296600,2.992296630859375,1.6050916910171509,0.22280120849609375,0.9025397300720215
1683915228756337400,3.00233740234375,0.2761620283126831,0.06021308898925781,0.7929964065551758
1683915228766378200,3.012378173828125,-0.8742707967758179,-0.04924297332763672,0.8043885231018066
1683915228776419000,3.022419189453125,-2.0457406044006348,-0.15734004974365234,0.9289407730102539
1683915228786460000,3.0324599609375,-2.7585291862487793,-0.05157470703125,1.0293455123901367
1683915228796500700,3.042500732421875,-2.6488661766052246,0.3193645477294922,0.9090814590454102
1683915228806541600,3.05254150390625,-2.0871529579162598,0.44947385787963867,0.5295867919921875
1683915228816582400,3.06258251953125,-1.4743497371673584,0.4825763702392578,-0.027756214141845703
1683915228826623200,3.072623291015625,-0.9571181535720825,0.38268423080444336,-0.34856176376342773
1683915228836664000,3.0826640625,-0.6208485960960388,0.26717376708984375,-0.2989821434020996
1683915228846705000,3.092704833984375,-0.5811781287193298,0.04850006103515625,-0.14306068420410156
1683915228856745700,3.102745849609375,-0.5892378091812134,-0.10788822174072266,0.08668804168701172
1683915228866786600,3.11278662109375,-0.4832298755645752,-0.2637453079223633,0.32215118408203125
1683915228876827400,3.122827392578125,-0.25222456455230713,-0.37288951873779297,0.6754374504089355
1683915228886868200,3.1328681640625,0.09216248989105225,-0.3768458366394043,1.0535879135131836
1683915228896909000,3.142908935546875,0.4363223910331726,-0.3253164291381836,1.3231797218322754
1683915228906950000,3.152949951171875,0.7318212985992432,-0.41431331634521484,1.4687285423278809
1683915228916990700,3.16299072265625,0.9047154188156128,-0.610377311706543,1.4724640846252441
1683915228927031600,3.173031494140625,0.9333228468894958,-0.8821582794189453,1.4525394439697266
1683915228937072400,3.183072265625,0.6926658153533936,-1.1194639205932617,1.3081564903259277
1683915228947113200,3.19311328125,0.19953393936157227,-1.285656452178955,1.237657070159912
1683915228957154000,3.203154052734375,-0.29177361726760864,-1.426124095916748,1.0920743942260742
1683915228967195000,3.21319482421875,-0.7474368810653687,-1.6648001670837402,1.0518584251403809
1683915228977235700,3.223235595703125,-1.1534889936447144,-1.946190357208252,1.0125608444213867
1683915228987276500,3.233276611328125,-1.5459074974060059,-2.0939974784851074,0.9404201507568359
1683915228997317400,3.2433173828125,-1.9051828384399414,-2.195547580718994,0.9840068817138672
1683915229007358200,3.253358154296875,-2.1612467765808105,-2.215212821960449,1.036696434020996
1683915229017399000,3.26339892578125,-2.290626049041748,-2.2266364097595215,1.0900893211364746
1683915229027439900,3.27343994140625,-2.3493521213531494,-2.3145480155944824,1.1837706565856934
1683915229037480700,3.283480712890625,-2.380034923553467,-2.5316877365112305,1.2349743843078613
1683915229047521500,3.293521484375,-2.390202045440674,-3.007594585418701,1.1180181503295898
1683915229057562400,3.303562255859375,-2.347338914871216,-3.7010302543640137,0.8892254829406738
1683915229067603200,3.313603271484375,-2.315606117248535,-4.179330825805664,0.9264006614685059
1683915229077644000,3.32364404296875,-2.3429503440856934,-4.456381797790527,1.3153252601623535
1683915229087684900,3.333684814453125,-2.602810859680176,-4.451940059661865,1.8877320289611816
1683915229097725700,3.3437255859375,-3.0381152629852295,-4.443209648132324,2.435073137283325
1683915229107766500,3.3537666015625,-3.460400342941284,-4.475424766540527,2.9157137870788574
1683915229117807400,3.363807373046875,-3.698101282119751,-4.048727035522461,3.554643392562866
1683915229127848200,3.37384814453125,-3.9467036724090576,-3.342160701751709,4.006232261657715
1683915229137889000,3.383888916015625,-4.576118469238281,-2.3574047088623047,4.056774616241455
1683915229147929900,3.393929931640625,-5.173967361450195,-1.220189094543457,3.161072015762329
1683915229157970700,3.403970703125,-4.976142406463623,-0.04779243469238281,1.4906988143920898
1683915229168011500,3.414011474609375,-4.301054000854492,0.6307334899902344,-0.1381082534790039
1683915229178052400,3.42405224609375,-3.055647850036621,0.3349123001098633,-2.031867504119873
1683915229188093200,3.43409326171875,-0.9328758716583252,-0.3260383605957031,-4.046780586242676
1683915229198134000,3.444134033203125,1.578216552734375,-0.9713563919067383,-5.240620136260986
1683915229208174800,3.4541748046875,3.824488639831543,-1.6214170455932617,-5.381670951843262
1683915229218215700,3.464215576171875,5.7788567543029785,-2.1941404342651367,-5.857866287231445
1683915229228256500,3.474256591796875,8.014364242553711,-2.264389991760254,-6.702553749084473
1683915229238297300,3.48429736328125,8.50804615020752,-1.6759519577026367,-8.34676742553711
1683915229248338000,3.494337890625,8.377374649047852,-0.6782007217407227,-8.811060905456543
1683915229258378800,3.504378662109375,7.7791852951049805,0.11308956146240234,-7.639317512512207
1683915229268419600,3.514419677734375,7.46475076675415,0.8612451553344727,-4.949317455291748
1683915229278460700,3.524460693359375,6.482817649841309,1.4862136840820312,-2.4948740005493164
1683915229288501500,3.53450146484375,5.167883396148682,1.8041348457336426,-0.7158503532409668
1683915229298542300,3.544542236328125,3.3446993827819824,2.0939626693725586,-0.4755220413208008
1683915229308583200,3.554583251953125,0.10527658462524414,1.889991283416748,-0.3321681022644043
1683915229318624000,3.5646240234375,-2.4659759998321533,1.388895034790039,0.33979320526123047
1683915229328664800,3.574664794921875,-2.3085811138153076,1.5137643814086914,0.18192577362060547
1683915229338705700,3.58470556640625,-1.2675621509552002,1.973238468170166,-0.05258798599243164
1683915229348746200,3.594746337890625,0.015831947326660156,2.208308219909668,0.06877374649047852
1683915229358787000,3.604787109375,1.0625251531600952,2.299075126647949,0.30819225311279297
1683915229368828000,3.614827880859375,1.8294686079025269,2.4186787605285645,0.26166629791259766
1683915229378868700,3.62486865234375,2.57003116607666,2.6288037300109863,0.18287897109985352
1683915229388909600,3.63490966796875,3.233851194381714,2.949674606323242,0.05012178421020508
1683915229398950400,3.644950439453125,3.7191200256347656,3.3521294593811035,-0.1288604736328125
1683915229408991200,3.6549912109375,3.9760420322418213,3.969989776611328,-0.35808420181274414
1683915229419032000,3.665031982421875,3.8983113765716553,4.594374656677246,-0.4684882164001465
1683915229429073000,3.675072998046875,3.514138698577881,5.265154838562012,-0.6332697868347168
1683915229439113700,3.68511376953125,2.8879120349884033,5.693450927734375,-0.7005643844604492
1683915229449154600,3.695154541015625,2.101696729660034,5.838223934173584,-0.7352299690246582
1683915229459195400,3.7051953125,1.303337812423706,5.854823589324951,-0.7811732292175293
1683915229469236200,3.715236328125,0.608536958694458,5.644903182983398,-0.9604053497314453
1683915229479277000,3.725277099609375,-0.1950385570526123,5.1802473068237305,-1.153287410736084
1683915229489318000,3.73531787109375,-0.9577679634094238,4.151578903198242,-1.4511213302612305
1683915229499358700,3.745358642578125,-1.1106624603271484,2.694077491760254,-1.9977035522460938
1683915229509399600,3.755399658203125,-1.727149486541748,0.4852285385131836,-2.1503829956054688
1683915229519440400,3.7654404296875,-2.9479923248291016,-2.03668212890625,-1.7315850257873535
1683915229529481200,3.775481201171875,-4.28277063369751,-3.939143180847168,-0.19841289520263672
1683915229539522000,3.78552197265625,-5.106366157531738,-5.0970458984375,1.6717612743377686
1683915229549563000,3.79556298828125,-4.260358810424805,-5.7830400466918945,3.1813931465148926
1683915229559603700,3.805603759765625,-3.811185836791992,-6.142718315124512,3.992936611175537
1683915229569644500,3.81564453125,-3.0105645656585693,-5.709240913391113,4.405311584472656
1683915229579685400,3.825685302734375,-1.578075885772705,-4.574703216552734,4.023432731628418
1683915229589726200,3.835726318359375,-0.2056889533996582,-2.8613500595092773,2.991129159927368
1683915229599767000,3.84576708984375,0.9674298763275146,-0.9903402328491211,1.6430842876434326
1683915229609808000,3.855807861328125,1.3149124383926392,0.7224960327148438,0.5061736106872559
1683915229619848700,3.8658486328125,1.1394470930099487,2.2700729370117188,0.003970146179199219
1683915229629889500,3.8758896484375,0.8076980113983154,3.4549922943115234,-0.1501913070678711
1683915229639930400,3.885930419921875,0.5456897020339966,4.023875713348389,0.01743793487548828
1683915229649971200,3.89597119140625,0.16001439094543457,4.170395374298096,0.2574138641357422
1683915229660012000,3.906011962890625,-0.4723193645477295,3.8924756050109863,0.3154773712158203
1683915229670052900,3.916052978515625,-0.5556952953338623,2.81844425201416,-0.3144974708557129
1683915229680093700,3.92609375,0.1320044994354248,1.0647597312927246,-1.2879576683044434
1683915229690134500,3.936134521484375,0.9953184127807617,-1.0124521255493164,-2.2899088859558105
1683915229700175400,3.94617529296875,1.1262377500534058,-2.789729595184326,-3.587773323059082
1683915229710216200,3.95621630859375,1.3409788608551025,-4.470444679260254,-4.974693775177002
1683915229720257000,3.966257080078125,1.1707439422607422,-6.223440170288086,-6.519542217254639
1683915229730297900,3.9762978515625,-1.2517340183258057,-7.999748706817627,-8.157360076904297
1683915229740338700,3.986338623046875,-2.4835991859436035,-9.610345840454102,-7.890934944152832
1683915229750379500,3.996379638671875,0.3465235233306885,-8.169391632080078,-5.661710262298584
1683915229760420400,4.00642041015625,2.438520908355713,-4.828405380249023,-2.8184046745300293
1683915229770461200,4.016461181640625,3.425929069519043,-1.6595573425292969,-0.9526877403259277
1683915229780502000,4.026501953125,3.7875277996063232,0.7600851058959961,-0.057485103607177734
1683915229790542800,4.03654296875,3.688750982284546,2.5238704681396484,0.5163288116455078
1683915229800583700,4.046583740234375,3.2779669761657715,3.775554656982422,1.2298293113708496
1683915229810624500,4.05662451171875,2.933732271194458,4.78386116027832,2.0239150524139404
1683915229820665300,4.066665283203125,2.7993359565734863,5.735322952270508,2.8061249256134033
1683915229830706200,4.0767060546875,2.197488784790039,6.5978899002075195,3.246967077255249
1683915229840747000,4.0867470703125,1.0091062784194946,7.281364440917969,2.883216381072998
1683915229850787800,4.096787841796875,-0.8141835927963257,7.264361381530762,1.5145878791809082
1683915229860828700,4.10682861328125,-2.111321210861206,5.9840192794799805,-0.14818382263183594
1683915229870869500,4.116869384765625,-1.5395779609680176,3.8370814323425293,-0.6870689392089844
1683915229880910300,4.126910400390625,0.06499731540679932,1.8250904083251953,-0.44723081588745117
1683915229890951200,4.136951171875,1.6096031665802002,0.4175395965576172,-0.5661735534667969
1683915229900992000,4.146991943359375,2.5627846717834473,-0.6419539451599121,-1.3211493492126465
1683915229911032800,4.15703271484375,3.0488133430480957,-1.6514477729797363,-2.328460693359375
1683915229921073700,4.16707373046875,3.3734514713287354,-2.3733339309692383,-3.054684638977051
1683915229931114500,4.177114501953125,3.7470951080322266,-2.659882068634033,-2.9892263412475586
1683915229941155300,4.1871552734375,4.037686347961426,-2.5311431884765625,-2.214848041534424
1683915229951196200,4.197196044921875,4.150460243225098,-1.9192566871643066,-1.1010470390319824
1683915229961237000,4.207237060546875,3.8360848426818848,-1.010571002960205,-0.48575782775878906
1683915229971277800,4.21727783203125,3.111682891845703,-0.347623348236084,-0.519834041595459
1683915229981318700,4.227318603515625,2.1853280067443848,-0.03467273712158203,-0.07282543182373047
1683915229991359500,4.237359375,0.9833102226257324,0.10851383209228516,0.4937934875488281
1683915230001400300,4.247400390625,-0.5495314598083496,0.28556251525878906,0.8793282508850098
1683915230011441000,4.25744091796875,-1.904326319694519,0.505488395690918,1.1112918853759766
1683915230021481700,4.267481689453125,-2.2502059936523438,0.8252153396606445,1.1392040252685547
1683915230031522600,4.2775224609375,-1.6395584344863892,1.0355381965637207,0.9096908569335938
1683915230041563400,4.2875634765625,-0.8007593154907227,1.0823626518249512,0.3835000991821289
1683915230051604200,4.297604248046875,-0.10373423248529434,1.0437698364257812,-0.17620134353637695
1683915230061645000,4.30764501953125,0.316445529460907,0.9960565567016602,-0.6254324913024902
1683915230071686000,4.317685791015625,0.4432314932346344,0.9628100395202637,-0.8187999725341797
1683915230081726700,4.327726806640625,0.45345157384872437,0.9104866981506348,-0.8646092414855957
1683915230091767800,4.337767822265625,0.541908860206604,0.8274602890014648,-0.6871428489685059
1683915230101808600,4.34780859375,0.7553536891937256,0.6596136093139648,-0.4120945930480957
1683915230111849500,4.357849365234375,0.9966871738433838,0.3535299301147461,-0.12506484985351562
1683915230121890000,4.36789013671875,1.225150227546692,0.04648017883300781,0.17046689987182617
1683915230131931000,4.377930908203125,1.3708733320236206,-0.23449087142944336,0.5475807189941406
1683915230141971700,4.3879716796875,1.4154056310653687,-0.4598417282104492,0.8664126396179199
1683915230152012500,4.398012451171875,1.3995251655578613,-0.662285327911377,1.0447959899902344
1683915230162053400,4.408053466796875,1.3170995712280273,-0.8171730041503906,1.196577548980713
1683915230172094200,4.41809423828125,1.2321431636810303,-0.8785977363586426,1.2874932289123535
1683915230182135000,4.428135009765625,1.1195976734161377,-0.8826026916503906,1.3057365417480469
1683915230192175900,4.43817578125,1.0151622295379639,-0.8199348449707031,1.256502628326416
1683915230202216700,4.448216796875,0.9169657230377197,-0.7359089851379395,1.1349458694458008
1683915230212257500,4.458257568359375,0.8406778573989868,-0.6092138290405273,0.8960504531860352
1683915230222298400,4.46829833984375,0.7605168223381042,-0.4498910903930664,0.5429439544677734
1683915230232339200,4.478339111328125,0.6441777944564819,-0.27548885345458984,0.14365148544311523
1683915230242380000,4.488380126953125,0.5394883751869202,0.02759265899658203,-0.25992345809936523
1683915230252420900,4.4984208984375,0.40461352467536926,0.35778045654296875,-0.6522574424743652
1683915230262461700,4.508461669921875,0.27314257621765137,0.6068563461303711,-1.0730319023132324
1683915230272502500,4.51850244140625,0.20776501297950745,0.7191433906555176,-1.4420099258422852
1683915230282543400,4.52854345703125,0.13968214392662048,0.7514247894287109,-1.650557041168213
1683915230292584200,4.538584228515625,0.09490811824798584,0.777656078338623,-1.6340818405151367
1683915230302625000,4.548625,0.10040125250816345,0.7384181022644043,-1.4029741287231445
1683915230312665900,4.558665771484375,0.15547937154769897,0.591062068939209,-1.101341724395752
1683915230322706700,4.568706787109375,0.31588780879974365,0.34138011932373047,-0.7662582397460938
1683915230332747500,4.57874755859375,0.4984401762485504,0.08595514297485352,-0.39179468154907227
1683915230342788400,4.588788330078125,0.6921414136886597,-0.18874502182006836,-0.06032276153564453
1683915230352829200,4.5988291015625,0.8742414712905884,-0.4105563163757324,0.15117216110229492
1683915230362870000,4.6088701171875,1.0366077423095703,-0.6057415008544922,0.3191671371459961
1683915230372910800,4.618910888671875,1.1450942754745483,-0.7263579368591309,0.4529838562011719
1683915230382951700,4.62895166015625,1.2275328636169434,-0.7962861061096191,0.545280933380127
1683915230392992500,4.638992431640625,1.2691997289657593,-0.8182673454284668,0.6370058059692383
1683915230403033300,4.649033447265625,1.2772048711776733,-0.8355875015258789,0.6805996894836426
1683915230413074200,4.65907421875,1.2664852142333984,-0.8553915023803711,0.7478117942810059
1683915230423115000,4.669114990234375,1.2425563335418701,-0.8229560852050781,0.7767395973205566
1683915230433155800,4.67915576171875,1.203120231628418,-0.8058533668518066,0.7704792022705078
1683915230443196700,4.68919677734375,1.1519978046417236,-0.7728362083435059,0.8506803512573242
1683915230453237500,4.699237548828125,1.0904502868652344,-0.7788262367248535,0.8546490669250488
1683915230463278300,4.7092783203125,1.0394898653030396,-0.8097267150878906,0.8450064659118652
1683915230473319200,4.719319091796875,0.9937298893928528,-0.8341479301452637,0.82147216796875
1683915230483360000,4.729360107421875,0.9066677689552307,-0.8330106735229492,0.7864766120910645
1683915230493400800,4.73940087890625,0.7466246485710144,-0.8303608894348145,0.7186646461486816
1683915230503441700,4.749441650390625,0.537151038646698,-0.8711700439453125,0.708458423614502
1683915230513482500,4.759482421875,0.3198539614677429,-0.918785572052002,0.7072296142578125
1683915230523523300,4.7695234375,0.1674862802028656,-1.0245637893676758,0.7209415435791016
1683915230533564200,4.779564208984375,0.07962968945503235,-1.2155423164367676,0.6740422248840332
1683915230543605000,4.78960498046875,0.06508032232522964,-1.4681706428527832,0.5385704040527344
1683915230553645800,4.799645751953125,0.1298944652080536,-1.678236484527588,0.36359500885009766
1683915230563686700,4.809686767578125,0.19887611269950867,-1.838768482208252,0.1279582977294922
1683915230573727500,4.8197275390625,0.2089540958404541,-1.6565685272216797,-0.18668413162231445
1683915230583768300,4.829768310546875,0.11560007184743881,-1.386995792388916,-0.5619478225708008
1683915230593809200,4.83980908203125,0.012174904346466064,-1.1382527351379395,-1.004439353942871
1683915230603850000,4.84985009765625,-0.07417920231819153,-0.9015631675720215,-1.3677830696105957
1683915230613890800,4.859890869140625,-0.1972718983888626,-0.678431510925293,-1.5053081512451172
1683915230623931600,4.869931640625,-0.40697333216667175,-0.4251866340637207,-1.5069146156311035
1683915230633972500,4.879972412109375,-0.6418396830558777,-0.1477069854736328,-1.4128613471984863
1683915230644013300,4.890013427734375,-0.7392002940177917,0.1544032096862793,-1.0618233680725098
1683915230654054100,4.90005419921875,-0.6797277927398682,0.6433329582214355,-0.7222509384155273
1683915230664095000,4.910094970703125,-0.5917964577674866,1.1566095352172852,-0.6150031089782715
1683915230674135800,4.9201357421875,-0.4544556736946106,1.4170279502868652,-0.5326504707336426
1683915230684176600,4.9301767578125,-0.1948639154434204,1.6453633308410645,-0.5598692893981934
1683915230694217500,4.940217529296875,0.1462005376815796,1.7970833778381348,-0.5632114410400391
1683915230704258300,4.95025830078125,0.4528154730796814,1.9525580406188965,-0.6142106056213379
1683915230714299100,4.960299072265625,0.6676371693611145,1.9916558265686035,-0.4540281295776367
1683915230724340000,4.970340087890625,0.7605932354927063,1.9806876182556152,-0.1469411849975586
1683915230734380800,4.980380859375,0.6975114345550537,1.8657102584838867,0.2494373321533203
1683915230744421600,4.990421630859375,0.5767917633056641,1.5867328643798828,0.5293278694152832
1683915230754462500,5.00046240234375,0.5005848407745361,1.1830458641052246,0.6357369422912598
1683915230764503300,5.01050341796875,0.47923052310943604,0.7416033744812012,0.5288224220275879
1683915230774544100,5.020544189453125,0.40244340896606445,0.14226341247558594,0.34118032455444336
1683915230784585000,5.0305849609375,0.24331092834472656,-0.32324695587158203,0.23673725128173828
1683915230794625800,5.040625732421875,-0.04793047904968262,-0.7055759429931641,0.34867429733276367
1683915230804666400,5.050666259765625,-0.44824230670928955,-0.9169025421142578,0.6039242744445801
1683915230814707200,5.060707275390625,-0.92554771900177,-0.9841885566711426,1.0717110633850098
1683915230824748000,5.070748046875,-1.3827636241912842,-0.956174373626709,1.426426887512207
1683915230834788900,5.080788818359375,-1.6519660949707031,-0.7976741790771484,1.7723369598388672
1683915230844829700,5.09082958984375,-1.574463129043579,-0.664700984954834,1.9709339141845703
1683915230854870500,5.10087060546875,-1.1898236274719238,-0.5069098472595215,2.0161447525024414
1683915230864911400,5.110911376953125,-0.6430668830871582,-0.2949948310852051,1.8555340766906738
1683915230874952200,5.1209521484375,-0.05725717544555664,-0.15926408767700195,1.6816916465759277
1683915230884993000,5.130992919921875,0.5051602125167847,0.08526039123535156,1.4646735191345215
1683915230895033900,5.141033935546875,0.9987431764602661,0.3045225143432617,1.209456443786621
1683915230905074700,5.15107470703125,1.3089697360992432,0.45807981491088867,0.8659420013427734
1683915230915115800,5.16111572265625,1.4832743406295776,0.5221610069274902,0.5533528327941895
1683915230925156600,5.171156494140625,1.4799704551696777,0.5041837692260742,0.17598342895507812
1683915230935197400,5.181197509765625,1.396533489227295,0.42208147048950195,-0.0968623161315918
1683915230945238000,5.191238037109375,1.2149317264556885,0.4418520927429199,-0.353790283203125
1683915230955278800,5.20127880859375,0.9968650341033936,0.6551151275634766,-0.5521140098571777
1683915230965319700,5.211319580078125,0.7580063343048096,0.9185833930969238,-0.9315676689147949
1683915230975360500,5.221360595703125,0.5976678133010864,1.181147575378418,-1.2222237586975098
1683915230985401300,5.2314013671875,0.5145931243896484,1.3932199478149414,-1.3182415962219238
1683915230995442200,5.241442138671875,0.5292550325393677,1.6362156867980957,-1.1871147155761719
1683915231005483000,5.25148291015625,0.6467716693878174,1.845700740814209,-1.0445046424865723
1683915231015523800,5.26152392578125,0.7785751819610596,1.9757556915283203,-0.9114203453063965
1683915231025564700,5.271564697265625,0.8906799554824829,1.9373054504394531,-0.741661548614502
1683915231035605500,5.28160546875,0.9810575246810913,1.7593708038330078,-0.7025575637817383
1683915231045646300,5.291646240234375,0.9864389300346375,1.5182757377624512,-0.6504387855529785
1683915231055687200,5.301687255859375,0.9734848141670227,1.247624397277832,-0.7219085693359375
1683915231065728000,5.31172802734375,0.8880691528320312,0.9788756370544434,-0.6830248832702637
1683915231075768800,5.321768798828125,0.7186464667320251,0.7627100944519043,-0.6085305213928223
1683915231085809700,5.3318095703125,0.49592047929763794,0.5896878242492676,-0.5463261604309082
1683915231095850500,5.3418505859375,0.25325095653533936,0.5217447280883789,-0.503448486328125
1683915231105891300,5.351891357421875,0.11423635482788086,0.5870542526245117,-0.493868350982666
1683915231115932200,5.36193212890625,0.10194456577301025,0.687652587890625,-0.4817962646484375
1683915231125973000,5.371972900390625,0.1885913610458374,0.8545150756835938,-0.5295510292053223
1683915231136013800,5.382013916015625,0.24538934230804443,0.9604582786560059,-0.6776890754699707
1683915231146054700,5.3920546875,0.26998502016067505,1.038647174835205,-0.8161139488220215
1683915231156095500,5.402095458984375,0.15501046180725098,1.0554494857788086,-0.9684610366821289
1683915231166136300,5.41213623046875,-0.11244595050811768,1.1514301300048828,-1.1961402893066406
1683915231176177200,5.42217724609375,-0.35277795791625977,1.2164559364318848,-1.3982124328613281
1683915231186218000,5.432218017578125,-0.48140108585357666,1.2506918907165527,-1.5889286994934082
1683915231196258800,5.4422587890625,-0.5294239521026611,1.2828755378723145,-1.7946252822875977
1683915231206299600,5.452299560546875,-0.48279237747192383,1.3224058151245117,-1.7241530418395996
1683915231216340500,5.462340576171875,-0.2892029285430908,1.390699863433838,-1.4931626319885254
1683915231226381300,5.47238134765625,-0.008843541145324707,1.368391513824463,-1.2740778923034668
1683915231236422100,5.482422119140625,0.2299119234085083,1.2322258949279785,-1.1385993957519531
1683915231246463000,5.492462890625,0.38687795400619507,1.0619044303894043,-1.0269765853881836
1683915231256503800,5.50250390625,0.4387702941894531,0.9008183479309082,-0.927154541015625
1683915231266544600,5.512544677734375,0.3910818099975586,0.8007264137268066,-0.8525710105895996
1683915231276585500,5.52258544921875,0.2629767060279846,0.7588062286376953,-0.7957687377929688
1683915231286626300,5.532626220703125,0.18093836307525635,0.6844124794006348,-0.6925158500671387
1683915231296667100,5.542667236328125,0.13797986507415771,0.6962800025939941,-0.750575065612793
1683915231306708000,5.5527080078125,0.12869596481323242,0.8069920539855957,-0.7200050354003906
1683915231316748800,5.562748779296875,0.1229013204574585,0.8827733993530273,-0.6009879112243652
1683915231326789600,5.57278955078125,0.14269673824310303,0.9502072334289551,-0.5082826614379883
1683915231336830500,5.58283056640625,0.1653146743774414,0.9733676910400391,-0.47021055221557617
1683915231346871300,5.592871337890625,0.2047492265701294,0.9594988822937012,-0.4029879570007324
1683915231356912000,5.602912109375,0.21609032154083252,0.872981071472168,-0.36418867111206055
1683915231366953000,5.612952880859375,0.22419846057891846,0.7475199699401855,-0.35637617111206055
1683915231376993800,5.622993896484375,0.26229429244995117,0.6119837760925293,-0.3341684341430664
1683915231387034600,5.63303466796875,0.32416343688964844,0.48067283630371094,-0.34986257553100586
1683915231397075500,5.643075439453125,0.42461681365966797,0.3468337059020996,-0.2982320785522461
1683915231407116300,5.6531162109375,0.5235612392425537,0.23857831954956055,-0.22638320922851562
1683915231417157000,5.6631572265625,0.6216385364532471,0.12779951095581055,-0.1883869171142578
1683915231427198000,5.673197998046875,0.7030078172683716,0.07604360580444336,-0.13452625274658203
1683915231437238800,5.68323876953125,0.7360838055610657,0.033191680908203125,-0.07016181945800781
1683915231447279600,5.693279541015625,0.7651357054710388,-0.002921581268310547,-0.0005903244018554688
1683915231457320400,5.703320556640625,0.7541265487670898,-0.0036373138427734375,0.049935340881347656
1683915231467361300,5.713361328125,0.6930942535400391,0.002418041229248047,0.10257816314697266
1683915231477402000,5.723402099609375,0.6607229709625244,0.03833341598510742,0.1386709213256836
1683915231487443000,5.73344287109375,0.6202075481414795,0.04499959945678711,0.15148496627807617
1683915231497483800,5.74348388671875,0.5751069784164429,0.06513547897338867,0.22652101516723633
1683915231507524600,5.753524658203125,0.49637937545776367,0.10080957412719727,0.2664504051208496
1683915231517565400,5.7635654296875,0.46268582344055176,0.13534927368164062,0.2717471122741699
1683915231527606300,5.773606201171875,0.4339789152145386,0.10763692855834961,0.26870250701904297
1683915231537647000,5.783647216796875,0.43405401706695557,0.08711433410644531,0.19375038146972656
1683915231547688000,5.79368798828125,0.4621695280075073,0.1516108512878418,0.1515669822692871
1683915231557728800,5.803728759765625,0.4867035150527954,0.16509485244750977,0.09491729736328125
1683915231567769600,5.81376953125,0.4722716808319092,0.16850852966308594,-0.004218101501464844
1683915231577810400,5.823810546875,0.4807775020599365,0.17348289489746094,-0.04606342315673828
1683915231587851300,5.833851318359375,0.4530748128890991,0.13509750366210938,-0.09740066528320312
1683915231597892000,5.84389208984375,0.40653276443481445,0.11499500274658203,-0.13205242156982422
1683915231607933000,5.853932861328125,0.370139479637146,0.06993532180786133,-0.12884140014648438
1683915231617973800,5.863973876953125,0.31565427780151367,0.011656761169433594,-0.11405086517333984
1683915231628014600,5.8740146484375,0.3395214080810547,-0.02237701416015625,-0.09929847717285156
1683915231638055400,5.884055419921875,0.366851806640625,-0.023252487182617188,-0.03495216369628906
1683915231648096300,5.89409619140625,0.3897808790206909,0.003699779510498047,-0.022858619689941406
1683915231658137000,5.90413720703125,0.3917813301086426,0.025082111358642578,0.05322074890136719
1683915231668178000,5.914177978515625,0.3640756607055664,0.06687688827514648,0.11212348937988281
1683915231678218800,5.92421875,0.36370086669921875,0.07920360565185547,0.13535785675048828
1683915231688259600,5.934259521484375,0.31944775581359863,0.09332561492919922,0.13050556182861328
1683915231698300400,5.944300537109375,0.28416621685028076,0.06685876846313477,0.12620067596435547
1683915231708341200,5.95434130859375,0.2817404270172119,0.09441804885864258,0.011824607849121094
1683915231718382000,5.964382080078125,0.2876473665237427,0.07854747772216797,-0.010567665100097656
1683915231728423000,5.9744228515625,0.2924222946166992,0.05060529708862305,-0.07438468933105469
1683915231738463700,5.984463623046875,0.29916512966156006,0.07723093032836914,-0.08054542541503906
1683915231748504600,5.994504638671875,0.31313538551330566,0.05919313430786133,-0.1811542510986328
1683915231758545400,6.00454541015625,0.2872142791748047,0.05378866195678711,-0.2640409469604492
1683915231768586200,6.014586181640625,0.28289902210235596,0.11707592010498047,-0.3528156280517578
1683915231778627000,6.024626953125,0.31609511375427246,0.1537303924560547,-0.42613792419433594
1683915231788668000,6.03466796875,0.3384854793548584,0.23460769653320312,-0.4628181457519531
1683915231798708700,6.044708740234375,0.31959760189056396,0.2953314781188965,-0.5104923248291016
1683915231808749600,6.05474951171875,0.28243982791900635,0.3642878532409668,-0.5267171859741211
1683915231818790400,6.064790283203125,0.2497386932373047,0.4811277389526367,-0.5474367141723633
1683915231828831200,6.074831298828125,0.2356414794921875,0.5554351806640625,-0.49245548248291016
1683915231838872000,6.0848720703125,0.2275301218032837,0.6137685775756836,-0.4876680374145508
1683915231848913000,6.094912841796875,0.2083526849746704,0.6303715705871582,-0.468505859375
1683915231858953700,6.10495361328125,0.20529437065124512,0.6970090866088867,-0.36151599884033203
1683915231868994600,6.11499462890625,0.18426072597503662,0.6969661712646484,-0.23594951629638672
1683915231879035400,6.125035400390625,0.16077208518981934,0.6198039054870605,-0.17723655700683594
1683915231889076200,6.135076171875,0.17444097995758057,0.5308799743652344,-0.19674205780029297
1683915231899117000,6.145116943359375,0.23646700382232666,0.39310789108276367,-0.13803386688232422
1683915231909158000,6.155157958984375,0.31906259059906006,0.3111095428466797,-0.1294565200805664
1683915231919198700,6.16519873046875,0.4353170394897461,0.2394242286682129,-0.0924673080444336
1683915231929239600,6.175239501953125,0.4870281219482422,0.2108306884765625,-0.09134674072265625
1683915231939280400,6.1852802734375,0.4400900602340698,0.21056461334228516,-0.11427688598632812
1683915231949321200,6.1953212890625,0.41391992568969727,0.14641427993774414,-0.1496257781982422
1683915231959362000,6.205362060546875,0.41413426399230957,0.1548151969909668,-0.11104679107666016
1683915231969403000,6.21540283203125,0.4649477005004883,0.1830902099609375,-0.13863849639892578
1683915231979443700,6.225443603515625,0.49164795875549316,0.1858048439025879,-0.15981197357177734
1683915231989484500,6.235484619140625,0.5512412786483765,0.1260671615600586,-0.1202707290649414
1683915231999525400,6.245525390625,0.5890241861343384,0.033084869384765625,-0.00684356689453125
1683915232009566200,6.255566162109375,0.6498985290527344,0.010286331176757812,0.07375144958496094
1683915232019607000,6.26560693359375,0.7231243848800659,0.060930728912353516,0.10360240936279297
1683915232029648000,6.27564794921875,0.762024998664856,0.08039617538452148,0.21567630767822266
1683915232039688700,6.285688720703125,0.7298965454101562,0.13766956329345703,0.1688222885131836
1683915232049729500,6.2957294921875,0.7385334968566895,0.15673828125,0.17527008056640625
1683915232059770400,6.305770263671875,0.7702919244766235,0.06578350067138672,0.31112194061279297
1683915232069811200,6.315811279296875,0.8704577088356018,-0.0311431884765625,0.4015979766845703
1683915232079852000,6.32585205078125,1.0101864337921143,-0.10032367706298828,0.59527587890625
1683915232089892900,6.335892822265625,1.159947156906128,-0.22897911071777344,0.8244600296020508
1683915232099933700,6.34593359375,1.2567882537841797,-0.326357364654541,0.9733734130859375
1683915232109974500,6.355974609375,1.2758922576904297,-0.38858938217163086,1.086369514465332
1683915232120015400,6.366015380859375,1.2518576383590698,-0.4448561668395996,1.2305660247802734
1683915232130056200,6.37605615234375,1.1810951232910156,-0.4480772018432617,1.3911056518554688
1683915232140097000,6.386096923828125,1.0504677295684814,-0.3938565254211426,1.5384960174560547
1683915232150137900,6.396137939453125,0.9813798666000366,-0.38010120391845703,1.7081470489501953
1683915232160178700,6.4061787109375,0.922690212726593,-0.40790462493896484,1.8533082008361816
1683915232170219500,6.416219482421875,0.9426818490028381,-0.3764214515686035,1.8998899459838867
1683915232180260400,6.42626025390625,0.9260963201522827,-0.39837646484375,1.834521770477295
1683915232190301200,6.43630126953125,0.8245283365249634,-0.4144926071166992,1.7538866996765137
1683915232200342000,6.446342041015625,0.6310997009277344,-0.47075796127319336,1.6420097351074219
1683915232210382800,6.4563828125,0.385728120803833,-0.5413832664489746,1.582930088043213
1683915232220423700,6.466423583984375,0.14519715309143066,-0.5765609741210938,1.4735584259033203
1683915232230464500,6.476464599609375,-0.126001238822937,-0.655672550201416,1.3518829345703125
1683915232240505300,6.48650537109375,-0.42025554180145264,-0.6477503776550293,1.193777084350586
1683915232250546200,6.496546142578125,-0.7239605188369751,-0.6243839263916016,1.0489754676818848
1683915232260587000,6.5065869140625,-0.9720886945724487,-0.5545749664306641,0.8743424415588379
1683915232270627800,6.5166279296875,-1.1849206686019897,-0.5316529273986816,0.727445125579834
1683915232280668700,6.526668701171875,-1.308678388595581,-0.40752649307250977,0.608367919921875
1683915232290709500,6.53670947265625,-1.3794379234313965,-0.37452077865600586,0.5470619201660156
1683915232300750300,6.546750244140625,-1.4001379013061523,-0.23337793350219727,0.3967604637145996
1683915232310791200,6.556791259765625,-1.3784772157669067,-0.041835784912109375,0.2171611785888672
1683915232320832000,6.56683203125,-1.3491212129592896,0.12267827987670898,0.03769683837890625
1683915232330872800,6.576872802734375,-1.3076653480529785,0.18037033081054688,-0.16691160202026367
1683915232340913700,6.58691357421875,-1.1331610679626465,0.10391092300415039,-0.398012638092041
1683915232350954500,6.59695458984375,-0.9532185196876526,0.1516561508178711,-0.5252728462219238
1683915232360995300,6.606995361328125,-0.804291307926178,0.15675115585327148,-0.4776606559753418
1683915232371036200,6.6170361328125,-0.7658932209014893,0.10023117065429688,-0.5822882652282715
1683915232381077000,6.627076904296875,-0.612057626247406,0.09473085403442383,-0.8963122367858887
1683915232391117800,6.637117919921875,-0.3982170820236206,0.1575016975402832,-1.23152494430542
1683915232401158700,6.64715869140625,-0.26632454991340637,0.18667173385620117,-1.3429327011108398
1683915232411199500,6.657199462890625,-0.2768856883049011,0.3310527801513672,-1.3892488479614258
1683915232421240300,6.667240234375,-0.44402453303337097,0.4472527503967285,-1.4448509216308594
1683915232431281200,6.67728125,-0.9003814458847046,0.5726304054260254,-1.7383513450622559
1683915232441322000,6.687322021484375,-1.6363052129745483,0.38356828689575195,-2.2040843963623047
1683915232451362800,6.69736279296875,-2.7480263710021973,-0.27797937393188477,-2.575929641723633
1683915232461403600,6.707403564453125,-4.01583194732666,-1.1657037734985352,-2.530383586883545
1683915232471444500,6.717444580078125,-4.599031925201416,-2.0041956901550293,-2.141244411468506
1683915232481485300,6.7274853515625,-4.03143835067749,-2.556796073913574,-1.9054489135742188
1683915232491526100,6.737526123046875,-2.6659531593322754,-3.1005120277404785,-2.4180960655212402
1683915232501567000,6.74756689453125,-1.353956937789917,-3.8532395362854004,-3.321497917175293
1683915232511607800,6.75760791015625,-0.5551964640617371,-4.136501789093018,-4.168900012969971
1683915232521648600,6.767648681640625,-1.7137819528579712,-4.066209316253662,-3.7082958221435547
1683915232531689500,6.777689453125,-4.495876789093018,-1.508519172668457,-1.3461389541625977
1683915232541730300,6.787730224609375,-4.078431606292725,1.3520517349243164,-0.024669170379638672
1683915232551771100,6.797771240234375,-0.6351343393325806,2.6003899574279785,0.6417584419250488
1683915232561812000,6.80781201171875,1.8320258855819702,2.5977163314819336,1.0987415313720703
1683915232571852800,6.817852783203125,2.6308252811431885,2.329723834991455,1.3937878608703613
1683915232581893600,6.8278935546875,3.207883358001709,1.71262788772583,1.9677734375
1683915232591934500,6.8379345703125,3.652559995651245,0.6887011528015137,2.241093158721924
1683915232601975300,6.847975341796875,3.2975049018859863,-0.032166481018066406,1.8553218841552734
1683915232612016000,6.85801611328125,3.9418444633483887,-1.6115937232971191,1.0841426849365234
1683915232622057000,6.868056884765625,4.056422710418701,-2.5814127922058105,1.5074858665466309
1683915232632097800,6.878097900390625,4.013521194458008,-2.6843509674072266,2.108808994293213
1683915232642138600,6.888138671875,3.853048086166382,-2.614741325378418,2.4766745567321777
1683915232652179500,6.898179443359375,3.6883699893951416,-2.6955814361572266,2.5813217163085938
1683915232662220300,6.90822021484375,3.614680528640747,-3.0030016899108887,2.1728696823120117
1683915232672261000,6.91826123046875,3.3633992671966553,-3.0257010459899902,2.525557041168213
1683915232682302000,6.928302001953125,2.9032726287841797,-2.943966865539551,2.6989541053771973
1683915232692342800,6.9383427734375,2.255608081817627,-2.6563596725463867,2.352144241333008
1683915232702383600,6.948383544921875,1.2796084880828857,-2.3243322372436523,2.000244140625
1683915232712424400,6.958424560546875,0.25393131375312805,-2.1877846717834473,1.527623176574707
1683915232722465300,6.96846533203125,-0.42603370547294617,-1.8279056549072266,1.2624664306640625
1683915232732506000,6.978506103515625,-0.6485378742218018,-1.5645689964294434,1.1830058097839355
1683915232742547000,6.988546875,-0.6575950980186462,-1.2394099235534668,1.3072481155395508
1683915232752587800,6.998587890625,-0.5422144532203674,-0.7030854225158691,1.5560150146484375
1683915232762628600,7.008628662109375,-0.34236082434654236,-0.2550773620605469,1.4056987762451172
1683915232772669400,7.01866943359375,-0.15931817889213562,-0.13140630722045898,0.991060733795166
1683915232782710300,7.028710205078125,0.0001544356346130371,0.09055185317993164,0.7299990653991699
1683915232792751000,7.038751220703125,0.3296816349029541,-0.13202619552612305,0.6517152786254883
1683915232802792000,7.0487919921875,0.6622649431228638,-0.7332954406738281,0.6169109344482422
1683915232812832800,7.058832763671875,0.8151238560676575,-1.1607604026794434,0.8136434555053711
1683915232822873600,7.06887353515625,0.8894228935241699,-1.4311327934265137,0.8629002571105957
1683915232832914400,7.07891455078125,0.875464141368866,-1.5804448127746582,0.8122210502624512
1683915232842955300,7.088955322265625,0.7678619623184204,-1.7294297218322754,0.6246747970581055
1683915232852996000,7.09899609375,0.668220043182373,-2.0627541542053223,0.4593496322631836
1683915232863037000,7.109036865234375,0.6140478849411011,-2.1686182022094727,0.8150396347045898
1683915232873077800,7.119077880859375,0.5173571705818176,-2.2711381912231445,1.3385529518127441
1683915232883118600,7.12911865234375,0.334148645401001,-2.3025455474853516,1.71809720993042
1683915232893159400,7.139159423828125,0.05357128381729126,-2.0736021995544434,2.017638683319092
1683915232903200300,7.1492001953125,-0.21885734796524048,-1.9357757568359375,2.1914448738098145
1683915232913241000,7.159240966796875,-0.41498011350631714,-1.9105334281921387,2.275578498840332
1683915232923282000,7.169281982421875,-0.5539924502372742,-2.1103005409240723,2.07058048248291
1683915232933322800,7.17932275390625,-0.6761943101882935,-2.24296236038208,1.993516445159912
1683915232943363600,7.189363525390625,-0.6746475100517273,-2.13441801071167,1.6961970329284668
1683915232953404400,7.199404296875,-0.6635996699333191,-1.831693172454834,1.6243653297424316
1683915232963445200,7.2094453125,-0.6615756750106812,-1.4304838180541992,1.4279041290283203
1683915232973486000,7.219486083984375,-0.5818183422088623,-1.1262855529785156,1.175215721130371
1683915232983527000,7.22952685546875,-0.5589096546173096,-0.7917861938476562,1.4172377586364746
1683915232993567700,7.239567626953125,-0.5701757073402405,-0.6504473686218262,1.3609180450439453
1683915233003608600,7.249608642578125,-0.6495764255523682,-0.6052417755126953,1.3186421394348145
1683915233013649400,7.2596494140625,-0.6676664352416992,-0.7364339828491211,1.2107596397399902
1683915233023690200,7.269690185546875,-0.7085516452789307,-0.6160473823547363,1.6583337783813477
1683915233033731000,7.27973095703125,-0.7477116584777832,-0.2949223518371582,2.2279953956604004
1683915233043772000,7.28977197265625,-0.7102675437927246,-0.8701081275939941,1.7002372741699219
1683915233053812700,7.299812744140625,-0.5929419994354248,-1.0548138618469238,1.2676100730895996
1683915233063853600,7.309853515625,-0.4468267560005188,-0.7608537673950195,1.7743072509765625
1683915233073894400,7.319894287109375,-0.40201735496520996,-1.1781325340270996,1.4757328033447266
1683915233083935200,7.329935302734375,-0.41014260053634644,-0.9781227111816406,1.7279267311096191
1683915233093976000,7.33997607421875,-0.5505799651145935,-0.5920600891113281,2.488830089569092
1683915233104017000,7.350016845703125,-0.6395254135131836,-0.8867559432983398,2.0674562454223633
1683915233114057700,7.3600576171875,-0.68631511926651,-1.6855616569519043,1.3988900184631348
1683915233124098600,7.3700986328125,-0.5785654187202454,-1.8692231178283691,1.323819637298584
1683915233134139400,7.380139404296875,-0.4179760813713074,-2.6539273262023926,0.07929611206054688
1683915233144180200,7.39018017578125,-0.1855461597442627,-2.9161462783813477,-0.1714305877685547
1683915233154221000,7.400220947265625,-0.06849932670593262,-2.3424172401428223,0.5683760643005371
1683915233164262000,7.410261962890625,-0.30553698539733887,-1.694366455078125,0.9789180755615234
1683915233174302700,7.420302734375,-0.6543624997138977,-1.5229158401489258,0.7706193923950195
1683915233184343600,7.430343505859375,-0.9177789092063904,-1.5903286933898926,0.5264763832092285
1683915233194384400,7.44038427734375,-1.047594428062439,-1.8230433464050293,0.3269362449645996
1683915233204425200,7.45042529296875,-1.0231355428695679,-2.3780078887939453,0.03542757034301758
1683915233214466000,7.460466064453125,-0.9160733222961426,-3.031461238861084,-0.22288179397583008
1683915233224507000,7.4705068359375,-0.8128112554550171,-3.758579730987549,-0.41898488998413086
1683915233234547700,7.480547607421875,-0.8998873233795166,-4.126127243041992,-0.14660167694091797
1683915233244588500,7.490588623046875,-1.1030371189117432,-4.3880510330200195,0.3377695083618164
1683915233254629400,7.50062939453125,-1.4330885410308838,-4.809293270111084,0.538367748260498
1683915233264670200,7.510670166015625,-1.6956043243408203,-5.266576290130615,0.43441247940063477
1683915233274711000,7.5207109375,-2.131391763687134,-4.351189136505127,1.4705085754394531
1683915233284752000,7.530751953125,-2.9654109477996826,-4.377190589904785,1.2871794700622559
1683915233294792700,7.540792724609375,-4.804085731506348,-4.6878581047058105,0.15226507186889648
1683915233304833500,7.55083349609375,-8.442225456237793,-4.337805271148682,-1.4872055053710938
1683915233314874400,7.560874267578125,-11.566278457641602,-2.5541882514953613,-3.145340919494629
1683915233324915200,7.570915283203125,-11.19781494140625,-0.9199967384338379,-3.6744813919067383
1683915233334956000,7.5809560546875,-8.734210014343262,0.4996953010559082,-3.9730420112609863
1683915233344997000,7.5909970703125,-5.736590385437012,1.264451026916504,-4.559726715087891
1683915233355038000,7.601037841796875,-2.5439705848693848,1.5376853942871094,-4.774651527404785
1683915233365078800,7.611078857421875,0.019262075424194336,1.749131679534912,-3.7081003189086914
1683915233375119600,7.62111962890625,2.316453695297241,2.0818748474121094,-2.1615214347839355
1683915233385160400,7.631160400390625,4.41807222366333,2.179243564605713,-0.17328596115112305
1683915233395201300,7.641201171875,6.1135382652282715,1.7478055953979492,1.0151395797729492
1683915233405242000,7.6512421875,7.253552436828613,1.2412867546081543,0.808253288269043
1683915233415283000,7.661282958984375,7.140449523925781,0.576786994934082,-0.16784143447875977
1683915233425323800,7.67132373046875,7.80441427230835,-0.362093448638916,-1.7228002548217773
1683915233435364600,7.681364501953125,7.808858871459961,-1.144740104675293,-2.29189395904541
1683915233445405400,7.691405517578125,6.893181800842285,-1.4949464797973633,-2.353346824645996
1683915233455446300,7.7014462890625,5.9107866287231445,-1.8635444641113281,-2.5080695152282715
1683915233465487000,7.711487060546875,4.22428035736084,-1.8125419616699219,-2.6266064643859863
1683915233475528000,7.72152783203125,1.4200632572174072,-1.5010876655578613,-2.3102784156799316
1683915233485568800,7.73156884765625,-1.8365952968597412,-1.1067047119140625,-1.7398409843444824
1683915233495609600,7.741609619140625,-3.6148841381073,-0.7496070861816406,-1.2577838897705078
1683915233505650400,7.751650390625,-3.693706512451172,-0.43460893630981445,-1.1521806716918945
1683915233515691300,7.761691162109375,-2.8056468963623047,-0.02622699737548828,-0.7340283393859863
1683915233525732000,7.771732177734375,-1.2210428714752197,0.4876570701599121,-0.053994178771972656
1683915233535773000,7.78177294921875,0.49958109855651855,1.0094938278198242,0.7657127380371094
1683915233545813800,7.791813720703125,1.8720614910125732,1.3797001838684082,1.4666500091552734
1683915233555854600,7.8018544921875,2.7538671493530273,1.5862078666687012,2.093928098678589
1683915233565895400,7.8118955078125,3.2411868572235107,1.4790935516357422,2.3861403465270996
1683915233575936300,7.821936279296875,3.7874038219451904,1.1201963424682617,2.30672550201416
1683915233585977000,7.83197705078125,4.23373556137085,0.8471179008483887,2.207002878189087
1683915233596018000,7.842017822265625,4.6186652183532715,1.0411381721496582,1.9909534454345703
1683915233606058800,7.852058837890625,4.743675231933594,1.11912202835083,2.268611431121826
1683915233616099600,7.862099609375,4.697180271148682,1.0737371444702148,2.5682430267333984
1683915233626140400,7.872140380859375,4.672700881958008,0.9949073791503906,2.2900214195251465
1683915233636181200,7.88218115234375,4.576565742492676,1.241349220275879,1.785947322845459
1683915233646222000,7.89222216796875,3.5394644737243652,1.5101876258850098,1.1202239990234375
1683915233656263000,7.902262939453125,2.1624832153320312,1.4224166870117188,-0.11736059188842773
1683915233666303700,7.9123037109375,0.0295560359954834,1.205125331878662,-0.8607540130615234
1683915233676344600,7.922344482421875,-2.25162672996521,0.6050333976745605,-1.5412893295288086
1683915233686385400,7.932385498046875,-3.6779701709747314,-0.0604400634765625,-2.607557773590088
1683915233696426200,7.94242626953125,-3.6599767208099365,-1.5976195335388184,-3.4380083084106445
1683915233706467000,7.952467041015625,-3.279099941253662,-3.184523105621338,-3.948376178741455
1683915233716508000,7.9625078125,-3.2227439880371094,-3.509040355682373,-3.646148204803467
1683915233726548700,7.972548828125,-3.3040363788604736,-2.170886993408203,-1.991872787475586
1683915233736589600,7.982589599609375,-3.5166728496551514,-1.5243663787841797,-1.6727771759033203
1683915233746630400,7.99263037109375,-3.751948595046997,-0.39522743225097656,-0.5984559059143066
1683915233756671200,8.002671142578125,-3.5637710094451904,0.472226619720459,-0.28495121002197266
1683915233766712000,8.012712158203126,-2.6590678691864014,0.6948065757751465,-0.7017841339111328
1683915233776753000,8.0227529296875,-2.5130887031555176,0.5867781639099121,-1.5207281112670898
1683915233786793700,8.032793701171874,-2.1924259662628174,0.23834657669067383,-1.6333045959472656
1683915233796834600,8.04283447265625,-1.8673210144042969,-0.26021432876586914,-1.4361491203308105
1683915233806875400,8.05287548828125,-2.0161845684051514,-0.003929615020751953,-0.6958179473876953
1683915233816916200,8.062916259765625,-2.248811721801758,0.8472990989685059,0.15281295776367188
1683915233826957000,8.07295703125,-1.7124958038330078,1.8766498565673828,0.7972207069396973
1683915233836998000,8.082997802734376,-0.7172389030456543,2.5791568756103516,1.528879165649414
1683915233847038700,8.093038818359375,-0.18626976013183594,3.7988572120666504,2.5557730197906494
1683915233857079600,8.10307958984375,-0.1651473045349121,5.098091125488281,3.9051356315612793
1683915233867120400,8.113120361328125,-0.6179180145263672,6.623320579528809,5.51254415512085
1683915233877161200,8.1231611328125,-0.9734535217285156,7.675807476043701,6.137118816375732
1683915233887202000,8.1332021484375,-1.1230099201202393,8.07978630065918,5.833912372589111
1683915233897243000,8.143242919921875,-1.0664570331573486,6.64055061340332,4.200118064880371
1683915233907283700,8.15328369140625,-0.9990227222442627,4.581145286560059,1.7491974830627441
1683915233917324500,8.163324462890625,-1.2203032970428467,2.561030626296997,-0.8343987464904785
1683915233927365400,8.173365478515626,-1.1605243682861328,0.6874055862426758,-2.355247974395752
1683915233937406500,8.183406494140625,-0.9203715324401855,-0.43713855743408203,-2.6204113960266113
1683915233947447300,8.193447265625,0.22350025177001953,-1.0752949714660645,-1.699775218963623
1683915233957488000,8.203488037109375,1.7053422927856445,-1.2946677207946777,-1.017225742340088
1683915233967529000,8.213529052734375,2.682018995285034,-1.7852163314819336,-1.306323528289795
1683915233977569800,8.22356982421875,2.6685328483581543,-2.6247987747192383,-2.6526684761047363
1683915233987610600,8.233610595703125,-1.091559886932373,-4.3959269523620605,-4.77959680557251
1683915233997651500,8.2436513671875,-0.5150063037872314,-5.173619747161865,-5.755360126495361
1683915234007692300,8.2536923828125,1.9287586212158203,-4.236537933349609,-4.317032814025879
1683915234017733000,8.263733154296874,3.8901500701904297,-2.5466017723083496,-2.2919373512268066
1683915234027774000,8.27377392578125,4.727149963378906,-0.33783435821533203,-1.0933690071105957
1683915234037814800,8.283814697265624,5.493865966796875,1.114851951599121,-0.757317066192627
1683915234047855600,8.293855712890625,5.681893348693848,1.7695932388305664,-0.5593757629394531
1683915234057896400,8.303896484375,5.2722673416137695,2.4341611862182617,-0.22926044464111328
1683915234067937300,8.313937255859376,5.107512950897217,3.1545464992523193,0.5222482681274414
1683915234077978000,8.32397802734375,5.049615383148193,3.594949245452881,1.1037907600402832
1683915234088019000,8.33401904296875,4.642154693603516,3.3087615966796875,1.3287134170532227
1683915234098059800,8.344059814453125,3.9144301414489746,2.2871527671813965,0.6728711128234863
1683915234108100600,8.3541005859375,3.3946611881256104,1.226560115814209,-0.24373960494995117
1683915234118141400,8.364141357421875,3.1255884170532227,0.40558815002441406,-0.8288369178771973
1683915234128182300,8.374182373046875,3.0387234687805176,-0.20022153854370117,-1.0623645782470703
1683915234138223000,8.38422314453125,3.007632255554199,-0.5092735290527344,-1.1060795783996582
1683915234148264000,8.394263916015625,2.9390504360198975,-0.610539436340332,-1.115612506866455
1683915234158304800,8.4043046875,2.8392066955566406,-0.5871315002441406,-1.0989913940429688
1683915234168345600,8.414345703125,2.709340810775757,-0.599820613861084,-1.1226792335510254
1683915234178386400,8.424386474609374,2.5387749671936035,-0.564971923828125,-0.9335417747497559
1683915234188427300,8.43442724609375,2.301546096801758,-0.4322695732116699,-0.4096035957336426
1683915234198468000,8.444468017578124,1.6979515552520752,-0.38784170150756836,0.5631356239318848
1683915234208509000,8.454509033203125,0.08002924919128418,-0.8918428421020508,1.7644109725952148
1683915234218549800,8.4645498046875,-2.2454030513763428,-0.7201509475708008,2.7262401580810547
1683915234228590600,8.474590576171876,-3.964120864868164,-0.24740362167358398,3.1641688346862793
1683915234238631400,8.48463134765625,-3.32439923286438,0.9670262336730957,2.9542722702026367
1683915234248672300,8.49467236328125,-1.2547929286956787,1.9254488945007324,2.38344669342041
1683915234258713000,8.504713134765625,0.5516144037246704,1.598351001739502,1.6911559104919434
1683915234268754000,8.51475390625,1.4476304054260254,0.6767396926879883,1.3450040817260742
1683915234278794800,8.524794677734375,1.7345402240753174,-0.04438209533691406,0.2450718879699707
1683915234288835600,8.534835693359375,1.879310131072998,-0.34128665924072266,-0.1033926010131836
1683915234298876400,8.54487646484375,1.8738441467285156,-0.7256550788879395,0.08924293518066406
1683915234308917200,8.554917236328125,1.8056676387786865,-1.125349998474121,0.43449926376342773
1683915234318958300,8.564958251953126,1.6569236516952515,-1.765587329864502,0.5315470695495605
1683915234328999200,8.574999267578125,1.4517220258712769,-3.018069267272949,-0.0788106918334961
1683915234339040000,8.5850400390625,1.079329013824463,-3.8807148933410645,0.28261232376098633
1683915234349080800,8.595080810546875,0.5386505722999573,-4.671971321105957,0.6733646392822266
1683915234359121700,8.60512158203125,-0.1723664104938507,-5.321340560913086,0.9800400733947754
1683915234369162500,8.61516259765625,-0.9667069315910339,-5.785982608795166,1.2848758697509766
1683915234379203300,8.625203369140625,-1.6394429206848145,-6.249587059020996,1.2864198684692383
1683915234389244200,8.635244140625,-2.0637316703796387,-6.360910415649414,1.391657829284668
1683915234399285000,8.645284912109375,-2.19757080078125,-5.816072940826416,2.1422982215881348
1683915234409325800,8.655325927734374,-2.1989216804504395,-5.030285358428955,2.977847099304199
1683915234419366700,8.66536669921875,-2.3866677284240723,-3.8787641525268555,3.4825363159179688
1683915234429407500,8.675407470703124,-2.5958750247955322,-2.574781894683838,3.34236478805542
1683915234439448300,8.6854482421875,-2.641622543334961,-1.5439248085021973,2.8208718299865723
1683915234449489200,8.6954892578125,-2.3777363300323486,-0.876523494720459,2.2068862915039062
1683915234459530000,8.705530029296876,-1.8562971353530884,-0.7986478805541992,1.5289335250854492
1683915234469570800,8.71557080078125,-1.2280282974243164,-1.2697052955627441,0.9138617515563965
1683915234479611600,8.725611572265626,-0.6045100688934326,-1.914137363433838,0.4948902130126953
1683915234489652500,8.735652587890625,-0.1569933295249939,-2.482207775115967,0.13346099853515625
1683915234499693300,8.745693359375,-0.048154354095458984,-2.8722710609436035,-0.2709498405456543
1683915234509734100,8.755734130859375,-0.0808069109916687,-3.1002602577209473,-0.7200627326965332
1683915234519775000,8.76577490234375,-0.34373801946640015,-3.358550548553467,-1.3705124855041504
1683915234529815800,8.77581591796875,-0.94791579246521,-3.6849327087402344,-2.068047046661377
1683915234539856600,8.785856689453125,-1.545668363571167,-4.150691032409668,-2.437844753265381
1683915234549897500,8.7958974609375,-1.8208948373794556,-4.792985916137695,-2.4679665565490723
1683915234559938300,8.805938232421875,-1.9269094467163086,-5.353913307189941,-1.9178671836853027
1683915234569979100,8.815979248046874,-2.1965372562408447,-5.387568473815918,-0.6431684494018555
1683915234580020000,8.82602001953125,-2.6875500679016113,-5.4253058433532715,0.5812220573425293
1683915234590060800,8.836060791015624,-3.0109829902648926,-5.610156059265137,1.3515267372131348
1683915234600102000,8.846101806640625,-3.2040748596191406,-4.946193218231201,1.8232030868530273
1683915234610142700,8.856142822265625,-3.9188783168792725,-4.293893337249756,2.479355812072754
1683915234620183600,8.86618359375,-5.16610860824585,-4.163781642913818,3.0745444297790527
1683915234630224400,8.876224365234375,-5.811678886413574,-2.839695930480957,3.016566753387451
1683915234640265200,8.88626513671875,-5.427728652954102,-1.2271361351013184,2.20656156539917
1683915234650306000,8.89630615234375,-4.34320068359375,-0.299288272857666,1.3404507637023926
1683915234660347000,8.906346923828124,-2.4844002723693848,-0.0823512077331543,0.42160463333129883
1683915234670387700,8.9163876953125,0.314433217048645,0.10556364059448242,-0.6113734245300293
1683915234680428500,8.926428466796875,3.2754414081573486,0.027984619140625,-0.5090975761413574
1683915234690469400,8.936469482421876,5.887286186218262,-0.5552492141723633,-0.7287807464599609
1683915234700510200,8.94651025390625,7.342276096343994,-1.419684886932373,-1.9203238487243652
1683915234710551000,8.956551025390626,8.01852798461914,-1.9894375801086426,-3.905391216278076
1683915234720592000,8.966591796875,8.49484634399414,-1.891214370727539,-5.587573051452637
1683915234730632700,8.9766328125,7.867671012878418,-1.782750129699707,-6.775816917419434
1683915234740673500,8.986673583984375,6.2866716384887695,-1.900963306427002,-6.1353254318237305
1683915234750714400,8.99671435546875,4.584656238555908,-1.2293329238891602,-3.9198718070983887
1683915234760755200,9.006755126953125,3.2542362213134766,-0.26105737686157227,-1.3794665336608887
1683915234770796000,9.016796142578125,2.077645778656006,0.4586911201477051,0.43879222869873047
1683915234780836900,9.0268369140625,1.1530466079711914,0.838493824005127,1.4088091850280762
1683915234790877700,9.036877685546875,0.4277637004852295,0.8260936737060547,1.74285888671875
1683915234800918500,9.04691845703125,-0.19209885597229004,0.5441293716430664,1.135106086730957
1683915234810959400,9.05695947265625,-0.251523494720459,0.28081846237182617,0.2504744529724121
1683915234821000200,9.067000244140624,0.09620833396911621,0.25023508071899414,0.010206222534179688
1683915234831041000,9.077041015625,0.6903872489929199,0.41059064865112305,0.23508310317993164
1683915234841082000,9.08708203125,1.1794774532318115,0.4426264762878418,0.6194820404052734
1683915234851123000,9.097123046875,1.4724338054656982,0.22216320037841797,0.8438224792480469
1683915234861163800,9.107163818359375,1.9867020845413208,0.13955307006835938,1.005326271057129
1683915234871204600,9.11720458984375,2.7055575847625732,0.2116694450378418,1.1158256530761719
1683915234881245400,9.127245361328125,3.475943088531494,0.5156259536743164,1.2337923049926758
1683915234891286300,9.137286376953124,4.164853572845459,1.1459450721740723,1.2316594123840332
1683915234901327000,9.1473271484375,4.496837139129639,1.848012924194336,1.1041011810302734
1683915234911368000,9.157367919921874,4.659473419189453,2.6522397994995117,0.9652290344238281
1683915234921408800,9.16740869140625,4.6764092445373535,3.4839744567871094,0.9336857795715332
1683915234931449600,9.17744970703125,4.624563217163086,4.164963722229004,1.3403425216674805
1683915234941490400,9.187490478515626,4.459342002868652,4.650031089782715,1.6680521965026855
1683915234951531300,9.19753125,4.16807222366333,5.029664039611816,1.7387065887451172
1683915234961572000,9.207572021484374,3.6387569904327393,5.184506893157959,1.514265537261963
1683915234971613000,9.217613037109375,3.033722162246704,5.086636543273926,0.7421956062316895
1683915234981653800,9.22765380859375,2.336045265197754,4.5818023681640625,-0.3530254364013672
1683915234991694600,9.237694580078125,0.9433262348175049,3.262824296951294,-1.9128026962280273
1683915235001735400,9.2477353515625,-1.39243483543396,1.3542671203613281,-3.2930502891540527
1683915235011776300,9.2577763671875,-4.887486457824707,-1.1364927291870117,-3.8019018173217773
1683915235021817000,9.267817138671875,-9.123126029968262,-3.9753708839416504,-3.024766445159912
1683915235031858000,9.27785791015625,-10.25020980834961,-6.200643539428711,-1.3775477409362793
1683915235041898800,9.287898681640625,-8.715003967285156,-7.694835662841797,0.729189395904541
1683915235051939600,9.297939697265624,-5.564783096313477,-8.052206039428711,2.3163113594055176
1683915235061980700,9.307980712890625,-2.9579968452453613,-7.1832170486450195,2.0999555587768555
1683915235072021500,9.318021484375,0.004055976867675781,-4.93370246887207,1.6637897491455078
1683915235082062300,9.328062255859376,3.0053043365478516,-2.5514373779296875,1.9662361145019531
1683915235092103200,9.338103271484375,5.569746971130371,-0.665961742401123,2.630739212036133
1683915235102144000,9.34814404296875,6.846406936645508,0.7080097198486328,2.978168487548828
1683915235112184800,9.358184814453125,6.8639655113220215,1.7502784729003906,2.7709994316101074
1683915235122225700,9.3682255859375,6.132392883300781,2.5025217533111572,2.7329154014587402
1683915235132266500,9.3782666015625,4.99941873550415,3.1080353260040283,2.734264373779297
1683915235142307300,9.388307373046874,4.087721824645996,3.6046223640441895,2.3701467514038086
1683915235152348200,9.39834814453125,3.3581132888793945,3.675917625427246,1.8614177703857422
1683915235162389000,9.408388916015625,2.538607597351074,3.3114280700683594,1.6838607788085938
1683915235172429800,9.418429931640626,1.6227742433547974,2.594717025756836,1.6516318321228027
1683915235182470700,9.428470703125,0.9143779277801514,1.2907824516296387,1.494694709777832
1683915235192511500,9.438511474609374,0.6478767395019531,-0.4128913879394531,0.8135056495666504
1683915235202552300,9.44855224609375,1.002206802368164,-2.1642608642578125,-0.515101432800293
1683915235212593200,9.45859326171875,2.025564670562744,-3.908275604248047,-2.726536750793457
1683915235222634000,9.468634033203125,3.323000431060791,-5.620632648468018,-5.93591833114624
1683915235232674800,9.4786748046875,4.177872657775879,-7.2879157066345215,-9.568222999572754
1683915235242715600,9.488715576171876,3.8749566078186035,-8.790620803833008,-13.26432991027832
1683915235252756500,9.498756591796875,1.6054778099060059,-9.612211227416992,-15.208303451538086
1683915235262797300,9.50879736328125,1.884110689163208,-7.300130367279053,-11.409260749816895
1683915235272838100,9.518838134765625,3.1765379905700684,-3.6870899200439453,-7.063300132751465
1683915235282879000,9.52887890625,2.842985153198242,-0.8596506118774414,-3.4977760314941406
1683915235292920000,9.538920166015625,1.8387874364852905,1.0296730995178223,-0.7841434478759766
1683915235302961000,9.5489609375,0.6245403289794922,2.3366575241088867,1.3173937797546387
1683915235313001700,9.559001708984376,-0.5738965272903442,3.612848997116089,3.159505844116211
1683915235323042600,9.56904248046875,-1.0535686016082764,4.426478385925293,4.8504462242126465
1683915235333083400,9.57908349609375,-0.2594435214996338,4.600013732910156,6.479128360748291
1683915235343124200,9.589124267578125,1.384359359741211,4.6135454177856445,7.609055995941162
1683915235353165000,9.5991650390625,2.654078483581543,4.206345081329346,7.741360187530518
1683915235363206000,9.609205810546875,3.499929189682007,3.2196035385131836,6.098128318786621
1683915235373246700,9.619246826171874,3.7099483013153076,1.5615973472595215,3.741337299346924
1683915235383287600,9.62928759765625,3.5669126510620117,-0.22697877883911133,2.1623377799987793
1683915235393328400,9.639328369140625,3.495234727859497,-1.5552783012390137,0.6159553527832031
1683915235403369200,9.649369140625,3.5145580768585205,-2.5474071502685547,-0.984954833984375
1683915235413410000,9.65941015625,3.524491310119629,-3.153564453125,-2.4291391372680664
1683915235423451000,9.669450927734376,3.57704496383667,-3.3881406784057617,-3.674093723297119
1683915235433491700,9.67949169921875,3.017423391342163,-2.750215530395508,-3.8729429244995117
1683915235443532500,9.689532470703124,0.9944486021995544,-1.117319107055664,-2.732247829437256
1683915235453573600,9.69957373046875,-1.9210567474365234,0.22582244873046875,-1.943960189819336
1683915235463614500,9.709614501953125,-3.194666862487793,1.0430145263671875,-1.3756966590881348
1683915235473655300,9.7196552734375,-2.7181622982025146,1.5883831977844238,-0.6648025512695312
1683915235483696000,9.729696044921875,-1.399684190750122,2.0428054332733154,-0.22521305084228516
1683915235493737000,9.739737060546876,-0.17947834730148315,1.9768586158752441,0.2692122459411621
1683915235503777800,9.74977783203125,0.5801634788513184,1.5619192123413086,0.6628828048706055
1683915235513818600,9.759818603515624,0.9098919034004211,1.046548843383789,1.0763068199157715
1683915235523859500,9.769859375,0.9763842225074768,0.33740997314453125,1.4187202453613281
1683915235533900300,9.779900390625,0.901451587677002,-0.3473014831542969,1.6469321250915527
1683915235543941000,9.789941162109375,0.8258642554283142,-0.7686400413513184,1.7848691940307617
1683915235553982000,9.79998193359375,0.927306592464447,-0.9919643402099609,1.8401942253112793
1683915235564022800,9.810022705078126,1.0243990421295166,-1.0800514221191406,1.782397747039795
1683915235574063600,9.820063720703125,0.9910632371902466,-1.087066650390625,1.5602760314941406
1683915235584104400,9.8301044921875,0.9534358382225037,-0.9915008544921875,1.4533381462097168
1683915235594145300,9.840145263671875,0.9520168304443359,-0.8648629188537598,1.1956205368041992
1683915235604186000,9.85018603515625,0.9763725399971008,-0.7746925354003906,0.7447772026062012
1683915235614227000,9.86022705078125,1.028984546661377,-0.7212457656860352,0.3738374710083008
1683915235624267800,9.870267822265625,0.9391737580299377,-0.7525739669799805,-0.04844999313354492
1683915235634308900,9.880308837890626,0.7698349356651306,-0.7996115684509277,-0.25678205490112305
1683915235644349700,9.890349609375,0.5145316123962402,-0.7789559364318848,-0.3641319274902344
1683915235654390500,9.900390625,0.24200671911239624,-0.831763744354248,-0.4258732795715332
1683915235664431400,9.910431396484375,0.08407557010650635,-0.7627115249633789,-0.41514015197753906
1683915235674472200,9.92047216796875,-0.0369834303855896,-0.6696352958679199,-0.32450342178344727
1683915235684513000,9.930512939453125,-0.1597495675086975,-0.5682811737060547,-0.23064184188842773
1683915235694553900,9.940553955078125,-0.26597651839256287,-0.3514237403869629,-0.1308603286743164
1683915235704594700,9.9505947265625,-0.3310282230377197,-0.14925432205200195,-0.11552047729492188
1683915235714635500,9.960635498046875,-0.47468990087509155,-0.09796142578125,-0.07025480270385742
1683915235724676400,9.97067626953125,-0.7733954191207886,-0.15654945373535156,0.028461933135986328
1683915235734717200,9.98071728515625,-1.1304476261138916,-0.47285938262939453,0.19532489776611328
1683915235744758000,9.990758056640624,-1.4666359424591064,-1.0885753631591797,0.2587571144104004
1683915235754798800,10.000798828125,-1.6249268054962158,-1.8443059921264648,0.31244564056396484
1683915235764839700,10.010839599609374,-1.6308927536010742,-2.526416778564453,0.42791128158569336
1683915235774880800,10.020880859375,-1.4228074550628662,-3.023813247680664,0.6442089080810547
1683915235784921600,10.030921630859375,-1.1648454666137695,-3.425546646118164,0.8346147537231445
1683915235794962400,10.04096240234375,-0.9670711755752563,-3.870497226715088,0.7866854667663574
1683915235805003300,10.051003173828125,-0.8717737793922424,-4.339802265167236,0.49429798126220703
1683915235815044000,10.061044189453124,-1.0539743900299072,-4.645945072174072,0.28424596786499023
1683915235825085000,10.0710849609375,-1.4833545684814453,-4.595521926879883,0.47147464752197266
1683915235835125800,10.081125732421874,-1.9633060693740845,-4.325561046600342,0.8953495025634766
1683915235845166600,10.09116650390625,-2.034393310546875,-4.413331985473633,0.775489330291748
1683915235855207400,10.10120751953125,-1.5718713998794556,-4.492505073547363,0.15686750411987305
1683915235865248300,10.111248291015626,-0.9942855834960938,-4.184266567230225,-0.5501503944396973
1683915235875289000,10.1212890625,-0.6138105988502502,-3.273562431335449,-1.3124980926513672
1683915235885330000,10.131329833984376,-0.34456127882003784,-2.095977783203125,-2.012178897857666
1683915235895370800,10.141370849609375,-0.2183840274810791,-0.9433784484863281,-2.3569464683532715
1683915235905411600,10.15141162109375,-0.2858721613883972,0.017204761505126953,-2.6455092430114746
1683915235915452400,10.161452392578125,-0.26492828130722046,0.8571224212646484,-2.7572503089904785
1683915235925493200,10.1714931640625,0.20993804931640625,1.3229846954345703,-2.492204189300537
1683915235935534000,10.1815341796875,1.1289207935333252,1.6393709182739258,-2.0307726860046387
1683915235945575200,10.1915751953125,2.279662609100342,2.144331455230713,-1.811558723449707
1683915235955616000,10.201615966796876,3.4179141521453857,2.3444876670837402,-1.9377360343933105
1683915235965656800,10.21165673828125,4.205121040344238,2.560081958770752,-2.3119473457336426
1683915235975697700,10.22169775390625,4.35407829284668,2.6703686714172363,-2.6445908546447754
1683915235985738500,10.231738525390625,4.037542343139648,2.7799556255340576,-2.534788131713867
1683915235995779300,10.241779296875,3.6311264038085938,2.769932508468628,-2.0391602516174316
1683915236005820200,10.251820068359375,3.189899444580078,2.5521485805511475,-1.0473642349243164
1683915236015861000,10.261861083984375,2.737823009490967,2.2084646224975586,0.031041622161865234
1683915236025901800,10.27190185546875,2.345649480819702,1.8441259860992432,0.7763543128967285
1683915236035942700,10.281942626953125,2.1240644454956055,1.551011562347412,1.0936799049377441
1683915236045983500,10.2919833984375,2.103992223739624,1.542963981628418,1.0037288665771484
1683915236056024300,10.3020244140625,1.9930951595306396,1.6066594123840332,0.7300782203674316
1683915236066065400,10.3120654296875,1.7772841453552246,1.4723525047302246,0.5241031646728516
1683915236076106200,10.322106201171875,1.4884952306747437,1.3199529647827148,0.3259620666503906
1683915236086147000,10.33214697265625,1.1635016202926636,1.2233929634094238,0.11930513381958008
1683915236096188000,10.34218798828125,0.8766855001449585,1.140066146850586,0.05855846405029297
1683915236106228700,10.352228759765625,0.6667435169219971,1.0999994277954102,-0.0702366828918457
1683915236116269600,10.36226953125,0.5529913902282715,1.1146650314331055,-0.25736427307128906
1683915236126310400,10.372310302734375,0.6247923374176025,1.0775084495544434,-0.339996337890625
1683915236136351200,10.382351318359374,0.8293240070343018,1.0546875,-0.43582773208618164
1683915236146392000,10.39239208984375,0.9736709594726562,1.0431742668151855,-0.4899168014526367
1683915236156433000,10.402432861328125,1.0391968488693237,1.0257058143615723,-0.45691967010498047
1683915236166473700,10.4124736328125,1.0662405490875244,1.0178041458129883,-0.31795167922973633
1683915236176514600,10.4225146484375,1.0173791646957397,1.0514335632324219,-0.13647222518920898
1683915236186555400,10.432555419921876,0.9811720848083496,1.0912880897521973,0.1002950668334961
1683915236196596200,10.44259619140625,1.0454521179199219,1.1950817108154297,0.3338303565979004
1683915236206637000,10.452636962890624,1.1460407972335815,1.1721010208129883,0.5372161865234375
1683915236216678100,10.46267822265625,1.098734974861145,0.9896340370178223,0.7149724960327148
1683915236226719000,10.472718994140624,0.8433842658996582,0.7841191291809082,0.864995002746582
1683915236236759800,10.482759765625,0.4275195598602295,0.5508008003234863,1.0471773147583008
1683915236246800600,10.492800537109375,-0.2295680046081543,0.20139408111572266,1.1657276153564453
1683915236256841500,10.502841552734376,-0.9724609851837158,-0.24384260177612305,1.0732336044311523
1683915236266882300,10.51288232421875,-1.8364530801773071,-0.7009520530700684,0.8810315132141113
1683915236276923100,10.522923095703124,-2.7199997901916504,-1.1828103065490723,0.9194478988647461
1683915236286964000,10.5329638671875,-3.2628204822540283,-1.6365389823913574,0.8271937370300293
1683915236297004800,10.5430048828125,-3.489109992980957,-2.0680055618286133,0.7753276824951172
1683915236307045600,10.553045654296875,-3.3881750106811523,-2.3284034729003906,0.6618294715881348
1683915236317086500,10.56308642578125,-2.9255332946777344,-2.3013124465942383,0.5835485458374023
1683915236327127300,10.573127197265626,-2.264436721801758,-2.0210280418395996,0.6065797805786133
1683915236337168100,10.583168212890625,-1.3962382078170776,-1.5311279296875,0.7586159706115723
1683915236347209200,10.593209228515626,-0.370693564414978,-0.9212160110473633,0.7384738922119141
1683915236357250000,10.60325,0.7713879346847534,-0.3143796920776367,0.7556295394897461
1683915236367291000,10.613290771484374,1.9339697360992432,0.20621299743652344,0.7347211837768555
1683915236377331700,10.623331787109375,2.9929003715515137,0.6063227653503418,0.640894889831543
1683915236387372500,10.63337255859375,3.7221264839172363,0.8793878555297852,0.45223140716552734
1683915236397413400,10.643413330078126,3.8198800086975098,1.0660405158996582,0.22147798538208008
1683915236407454200,10.6534541015625,3.5476021766662598,1.1474595069885254,0.08003473281860352
1683915236417495000,10.6634951171875,3.1538491249084473,1.118546962738037,-0.1053156852722168
1683915236427536000,10.673535888671875,2.509528160095215,1.3202266693115234,-0.6342582702636719
1683915236437576700,10.68357666015625,1.627288579940796,1.5973734855651855,-1.3285164833068848
1683915236447617500,10.693617431640625,0.5077653527259827,1.8462581634521484,-2.0272130966186523
1683915236457658600,10.70365869140625,-0.8100389242172241,2.064098358154297,-2.821077346801758
1683915236467699500,10.713699462890625,-1.527719497680664,1.989213466644287,-3.3237709999084473
1683915236477740300,10.723740234375,-1.2236398458480835,1.689713954925537,-3.3554582595825195
1683915236487781000,10.733781005859376,-0.2653614282608032,1.1173434257507324,-3.0516796112060547
1683915236497822000,10.743822021484375,0.88887619972229,0.5215587615966797,-2.681858539581299
1683915236507862800,10.75386279296875,1.831019401550293,0.1374497413635254,-2.0700182914733887
1683915236517903600,10.763903564453125,2.539980411529541,-0.2128458023071289,-1.407224178314209
1683915236527944400,10.7739443359375,3.0377326011657715,-0.3113861083984375,-0.674598217010498
1683915236537985300,10.7839853515625,3.3889894485473633,-0.2942495346069336,-0.17970514297485352
1683915236548026000,10.794026123046875,3.5976810455322266,-0.0049285888671875,0.08309078216552734
1683915236558067000,10.80406689453125,3.9289345741271973,0.11681699752807617,0.5239930152893066
1683915236568107800,10.814107666015625,4.093486309051514,0.34319448471069336,0.9262433052062988
1683915236578148900,10.82414892578125,3.938420295715332,0.42108154296875,1.2498736381530762
1683915236588189700,10.834189697265625,3.176853656768799,0.29198217391967773,1.3306512832641602
1683915236598230500,10.84423046875,2.342057704925537,0.15887689590454102,1.4601678848266602
1683915236608271400,10.854271240234375,1.8886430263519287,0.23513078689575195,1.548088550567627
1683915236618312200,10.864312255859375,1.8064383268356323,0.3875598907470703,1.519951343536377
1683915236628353000,10.87435302734375,1.7921202182769775,0.4262361526489258,1.3282537460327148
1683915236638393900,10.884393798828125,1.7157728672027588,0.30396413803100586,0.9217967987060547
1683915236648434700,10.8944345703125,1.6424105167388916,0.17733383178710938,0.3843202590942383
1683915236658475500,10.9044755859375,1.5593266487121582,-0.025765419006347656,-0.09467601776123047
1683915236668516400,10.914516357421874,1.501249074935913,-0.2743539810180664,-0.5009446144104004
1683915236678557400,10.924557373046875,1.2753239870071411,-0.7502250671386719,-0.9157118797302246
1683915236688598300,10.934598388671875,1.0484803915023804,-1.2046842575073242,-1.252762794494629
1683915236698639000,10.94463916015625,0.8686809539794922,-1.6063060760498047,-1.4527344703674316
1683915236708680000,10.954679931640625,0.5919371843338013,-1.9526090621948242,-1.8145256042480469
1683915236718720800,10.964720703125,0.1362229883670807,-1.9977750778198242,-2.0990805625915527
1683915236728761600,10.97476171875,-0.48619917035102844,-1.6205639839172363,-1.9940853118896484
1683915236738802400,10.984802490234374,-1.1937410831451416,-0.8643836975097656,-1.2902746200561523
1683915236748843300,10.99484326171875,-1.6023987531661987,-0.19258975982666016,-0.6214995384216309
1683915236758884000,11.004884033203124,-1.507781744003296,0.2325739860534668,-0.24961280822753906
1683915236768925000,11.014925048828125,-0.9498810768127441,0.4495539665222168,-0.03072357177734375
1683915236778965800,11.0249658203125,-0.2640380263328552,0.4249258041381836,0.1212158203125
1683915236789006600,11.035006591796876,0.4439978003501892,0.21851682662963867,0.1920452117919922
1683915236799047700,11.045047607421875,1.0479611158370972,-0.05523538589477539,0.22297430038452148
1683915236809088500,11.055088623046874,1.4427354335784912,-0.30318450927734375,0.3049783706665039
1683915236819129300,11.06512939453125,1.6662516593933105,-0.5011610984802246,0.42084360122680664
1683915236829170200,11.075170166015624,1.7840814590454102,-0.625025749206543,0.6440529823303223
1683915236839211000,11.0852109375,1.7779470682144165,-0.712587833404541,0.7897987365722656
1683915236849251800,11.095251953125,1.6795949935913086,-0.6984939575195312,0.9338545799255371
1683915236859292700,11.105292724609376,1.4613590240478516,-0.637202262878418,0.9753203392028809
1683915236869333500,11.11533349609375,1.2017524242401123,-0.49802684783935547,0.9026579856872559
1683915236879374300,11.125374267578126,0.9016841053962708,-0.31463623046875,0.8020024299621582
1683915236889415200,11.135415283203125,0.613524854183197,-0.17032527923583984,0.5249218940734863
1683915236899456000,11.1454560546875,0.316006064414978,0.03795051574707031,0.11238479614257812
1683915236909497000,11.1554970703125,0.08722877502441406,0.2044234275817871,-0.3580513000488281
1683915236919538000,11.165537841796874,-0.11845743656158447,0.3544502258300781,-0.7919559478759766
1683915236929578800,11.175578857421876,-0.24547535181045532,0.5209736824035645,-1.2151093482971191
1683915236939619600,11.18561962890625,-0.36414745450019836,0.6862392425537109,-1.6099472045898438
1683915236949660400,11.195660400390626,-0.4634403884410858,0.8536481857299805,-1.88694429397583
1683915236959701200,11.205701171875,-0.5444092750549316,0.9960145950317383,-1.9808850288391113
1683915236969742000,11.2157421875,-0.5997681021690369,1.0678019523620605,-1.9633736610412598
1683915236979783000,11.225782958984375,-0.5240470170974731,0.957056999206543,-1.762866497039795
1683915236989823700,11.23582373046875,-0.3568480312824249,0.5855293273925781,-1.3010306358337402
1683915236999864800,11.24586474609375,-0.1899646520614624,0.13828182220458984,-0.7632808685302734
1683915237009905700,11.25590576171875,-0.11584633588790894,-0.24784135818481445,-0.2631864547729492
1683915237019946500,11.265946533203126,-0.16952413320541382,-0.5723791122436523,0.1387195587158203
1683915237029987300,11.2759873046875,-0.2905387282371521,-0.856513500213623,0.44709205627441406
1683915237040028200,11.286028076171876,-0.4206414222717285,-1.0451874732971191,0.6908636093139648
1683915237050069000,11.296069091796875,-0.4856564998626709,-1.174058437347412,0.8604321479797363
1683915237060109800,11.30610986328125,-0.4727015495300293,-1.2406187057495117,0.9486055374145508
1683915237070150700,11.316150634765625,-0.33230137825012207,-1.2688055038452148,0.9315342903137207
1683915237080191500,11.32619140625,-0.10596224665641785,-1.1822733879089355,0.8834118843078613
1683915237090232300,11.336232421875,0.10106980800628662,-1.0552287101745605,0.8137283325195312
1683915237100273400,11.3462734375,0.3027937114238739,-0.8830385208129883,0.6914710998535156
1683915237110314200,11.356314208984376,0.4812154769897461,-0.7377071380615234,0.6124434471130371
1683915237120355000,11.36635498046875,0.6133911609649658,-0.6148190498352051,0.6103053092956543
1683915237130396000,11.37639599609375,0.6959956884384155,-0.5818533897399902,0.6591987609863281
1683915237140436700,11.386436767578125,0.7115684747695923,-0.6631460189819336,0.7118697166442871
1683915237150477600,11.3964775390625,0.7167781591415405,-0.7703070640563965,0.7184090614318848
1683915237160518400,11.406518310546875,0.7430124878883362,-0.9722676277160645,0.8052949905395508
1683915237170559200,11.416559326171875,0.8085103631019592,-1.1918721199035645,0.9336934089660645
1683915237180600000,11.42660009765625,0.9151526093482971,-1.4046530723571777,1.1006231307983398
1683915237190641000,11.436640869140625,1.0779885053634644,-1.5456080436706543,1.2959260940551758
1683915237200682000,11.446681884765624,1.2363007068634033,-1.581254482269287,1.3736348152160645
1683915237210722800,11.456722900390625,1.3669097423553467,-1.557316780090332,1.4511518478393555
1683915237220763600,11.466763671875,1.4742952585220337,-1.4739961624145508,1.5142192840576172
1683915237230804500,11.476804443359375,1.5660524368286133,-1.317272663116455,1.5606355667114258
1683915237240845300,11.48684521484375,1.5991559028625488,-1.1832842826843262,1.5597939491271973
1683915237250886100,11.49688623046875,1.6239567995071411,-1.0363655090332031,1.5143942832946777
1683915237260927000,11.506927001953125,1.592495322227478,-0.9722375869750977,1.345890998840332
1683915237270967800,11.5169677734375,1.53334641456604,-0.9069919586181641,1.2741975784301758
1683915237281009000,11.5270087890625,1.4807095527648926,-0.867006778717041,1.2107796669006348
1683915237291049700,11.5370498046875,1.4284275770187378,-0.8613371849060059,1.2196664810180664
1683915237301090600,11.547090576171875,1.3823131322860718,-0.8462510108947754,1.1782522201538086
1683915237311131400,11.55713134765625,1.3717012405395508,-0.8524165153503418,1.0767192840576172
1683915237321172200,11.567172119140626,1.4067203998565674,-0.820070743560791,0.9581489562988281
1683915237331213000,11.577213134765625,1.4158998727798462,-0.8303971290588379,0.848719596862793
1683915237341254000,11.58725390625,1.42713463306427,-0.8853282928466797,0.7457408905029297
1683915237351294700,11.597294677734375,1.458536148071289,-0.819727897644043,0.5582823753356934
1683915237361335600,11.60733544921875,1.4525737762451172,-0.7863211631774902,0.5321884155273438
1683915237371376400,11.61737646484375,1.4953422546386719,-0.6219120025634766,0.5374894142150879
1683915237381417500,11.62741748046875,1.5527244806289673,-0.4314103126525879,0.5665774345397949
1683915237391458300,11.637458251953126,1.5805091857910156,-0.19552898406982422,0.6025810241699219
1683915237401499100,11.6474990234375,1.5776485204696655,-0.03633308410644531,0.6361846923828125
1683915237411540000,11.6575400390625,1.4591238498687744,0.08448219299316406,0.6055564880371094
1683915237421580800,11.667580810546875,1.2548797130584717,0.022794723510742188,0.48076581954956055
1683915237431621600,11.67762158203125,0.8554460406303406,-0.059626102447509766,0.31791210174560547
1683915237441662500,11.687662353515625,0.25327444076538086,-0.21233415603637695,0.02992868423461914
1683915237451703300,11.697703369140624,-0.4973594546318054,-0.3947334289550781,-0.24068403244018555
1683915237461744000,11.707744140625,-1.2683894634246826,-0.47429943084716797,-0.5927467346191406
1683915237471785200,11.71778515625,-1.948171854019165,-0.6017951965332031,-0.7014055252075195
1683915237481826000,11.727825927734376,-2.5246024131774902,-0.8451642990112305,-0.5317826271057129
1683915237491867000,11.737866943359375,-3.438364028930664,-1.245821475982666,-0.30762577056884766
1683915237501907700,11.74790771484375,-4.296219348907471,-1.7189898490905762,0.010093212127685547
1683915237511948500,11.757948486328125,-4.394484519958496,-2.1025261878967285,0.39987945556640625
1683915237521989400,11.7679892578125,-3.7832345962524414,-2.411065101623535,0.8925995826721191
1683915237532030200,11.7780302734375,-2.568568468093872,-2.4848742485046387,1.4912796020507812
1683915237542071300,11.7880712890625,-1.5764473676681519,-2.2827000617980957,1.5038552284240723
1683915237552112000,11.798112060546876,-1.2906832695007324,-2.0484676361083984,0.8701095581054688
1683915237562153000,11.808153076171875,-1.2265644073486328,-1.7499847412109375,0.2632112503051758
1683915237572193800,11.81819384765625,-0.8596947193145752,-1.6254653930664062,-0.02971792221069336
1683915237582234600,11.828234619140625,-0.33138418197631836,-1.748067855834961,-0.20401573181152344
1683915237592275500,11.838275390625,0.25672268867492676,-1.9503374099731445,-0.16701221466064453
1683915237602316300,11.84831640625,0.6088812351226807,-2.2350893020629883,-0.0632028579711914
1683915237612357000,11.858357177734375,0.7232732772827148,-2.423597812652588,-0.04653358459472656
1683915237622398000,11.86839794921875,0.779578447341919,-2.4333839416503906,-0.05646228790283203
1683915237632439000,11.87843896484375,0.8612276315689087,-2.219363212585449,0.23551511764526367
1683915237642479900,11.88847998046875,0.9022493362426758,-1.8371233940124512,0.626129150390625
1683915237652520700,11.898520751953125,0.8364628553390503,-1.2934398651123047,0.6407880783081055
1683915237662561500,11.9085615234375,0.8364225625991821,-0.7276320457458496,0.42884349822998047
1683915237672602400,11.918602294921875,1.1730387210845947,-0.17108774185180664,0.04735612869262695
1683915237682643200,11.928643310546875,1.5895085334777832,0.39350271224975586,-0.33461809158325195
1683915237692684000,11.93868408203125,2.0134735107421875,0.9963884353637695,-0.6466569900512695
1683915237702724900,11.948724853515625,2.3540377616882324,1.5593452453613281,-0.7212815284729004
1683915237712765700,11.958765625,2.4837255477905273,1.9860315322875977,-0.7443804740905762
1683915237722806800,11.968806884765625,2.4872050285339355,2.1969923973083496,-0.6945915222167969
1683915237732847600,11.97884765625,2.375053644180298,2.3484208583831787,-0.5968608856201172
1683915237742888400,11.988888427734375,2.2662785053253174,2.435096263885498,-0.37322568893432617
1683915237752929300,11.99892919921875,2.0154318809509277,2.356595516204834,-0.029661178588867188
1683915237762970000,12.00897021484375,1.7177610397338867,2.2168002128601074,0.41757965087890625
1683915237773011000,12.019010986328125,1.1808494329452515,1.8969879150390625,0.34610462188720703
1683915237783051800,12.0290517578125,0.278350830078125,1.3567771911621094,0.04024791717529297
1683915237793092600,12.039092529296875,-0.47460246086120605,1.0911054611206055,-0.47178077697753906
1683915237803133400,12.049133544921874,-0.7403368949890137,0.8609414100646973,-0.8899755477905273
1683915237813174500,12.059174560546875,-0.5257422924041748,0.6339473724365234,-1.0580077171325684
1683915237823215400,12.06921533203125,-0.05136227607727051,0.691993236541748,-1.057335376739502
1683915237833256200,12.079256103515625,0.3151916265487671,0.9077506065368652,-0.9700946807861328
1683915237843297000,12.089297119140625,0.6142282485961914,1.0919175148010254,-0.5841202735900879
1683915237853337900,12.099337890625,0.9190970659255981,1.2446775436401367,-0.2358841896057129
1683915237863378700,12.109378662109375,1.0864803791046143,1.4568405151367188,-0.13601303100585938
1683915237873419800,12.119419677734374,1.0600104331970215,1.5937342643737793,-0.16120672225952148
1683915237883460600,12.129460693359375,1.061865210533142,1.7711982727050781,-0.038980960845947266
1683915237893501400,12.13950146484375,0.9026257991790771,1.9573216438293457,0.06714010238647461
1683915237903542300,12.149542236328125,0.6129103899002075,2.0277891159057617,-0.14086484909057617
1683915237913583000,12.1595830078125,0.23884427547454834,2.024411678314209,-0.24194574356079102
1683915237923624000,12.1696240234375,-0.1594223976135254,1.9510440826416016,-0.25662755966186523
1683915237933664800,12.179664794921875,-0.4700683355331421,1.8573265075683594,-0.3408513069152832
1683915237943705600,12.18970556640625,-0.6425793170928955,1.6976380348205566,-0.25853538513183594
1683915237953746700,12.19974658203125,-0.6862906217575073,1.5419812202453613,-0.0682382583618164
1683915237963787500,12.20978759765625,-0.6407328844070435,1.4053635597229004,0.13134288787841797
1683915237973828400,12.219828369140625,-0.5372188091278076,1.3766264915466309,0.21843290328979492
1683915237983869200,12.229869140625,-0.34143126010894775,1.3799481391906738,0.26255083084106445
1683915237993910000,12.239909912109376,-0.0829998254776001,1.4333696365356445,0.172210693359375
1683915238003950800,12.249950927734375,0.09990060329437256,1.3420677185058594,-0.017347335815429688
1683915238013991700,12.25999169921875,0.08783352375030518,1.1549177169799805,-0.17550039291381836
1683915238024032500,12.270032470703125,-0.3426889181137085,0.8788785934448242,-0.3547196388244629
1683915238034073600,12.280073486328124,-0.7766906023025513,0.6043801307678223,-0.39478540420532227
1683915238044114400,12.290114501953125,-1.072461724281311,0.35990333557128906,-0.43718433380126953
1683915238054155300,12.3001552734375,-1.2131507396697998,0.07860803604125977,-0.5335469245910645
1683915238064196000,12.310196044921875,-1.112475872039795,-0.2976999282836914,-0.5942678451538086
1683915238074237000,12.32023681640625,-1.0577924251556396,-0.7490859031677246,-0.34661245346069336
1683915238084277800,12.33027783203125,-1.2047401666641235,-1.1625819206237793,0.017044544219970703
1683915238094318600,12.340318603515625,-1.5476930141448975,-1.629652500152588,0.4523587226867676
1683915238104359700,12.350359619140624,-2.210916757583618,-2.0923638343811035,0.8375897407531738
1683915238114400500,12.360400390625,-3.0241775512695312,-2.4867491722106934,1.0596938133239746
1683915238124441300,12.37044140625,-3.6386497020721436,-2.815582752227783,0.9655370712280273
1683915238134482200,12.380482177734375,-3.556826114654541,-3.0944128036499023,-0.3066749572753906
1683915238144523000,12.39052294921875,-2.994992256164551,-3.2450990676879883,-1.912275791168213
1683915238154563800,12.400563720703126,-2.08001708984375,-3.005284309387207,-3.2458529472351074
1683915238164604700,12.410604736328125,-0.5690774917602539,-2.5206007957458496,-4.4045915603637695
1683915238174645800,12.420645751953124,0.8971070647239685,-2.0809144973754883,-5.646718502044678
1683915238184686600,12.4306865234375,1.4614611864089966,-1.8752522468566895,-6.832833290100098
1683915238194727400,12.4407275390625,0.6736859679222107,-1.5194315910339355,-7.437479496002197
1683915238204768300,12.450768310546875,0.5252888202667236,-0.08747339248657227,-5.02208137512207
1683915238214809000,12.46080908203125,2.117568254470825,1.0306158065795898,-1.9734158515930176
1683915238224850000,12.470849853515626,3.4558520317077637,1.3034162521362305,-0.17721128463745117
1683915238234890800,12.480890869140625,3.946730136871338,1.6443166732788086,1.037832260131836
1683915238244931600,12.490931640625,3.8787639141082764,2.2598838806152344,1.9073162078857422
1683915238254972700,12.50097265625,3.4895317554473877,2.9579105377197266,2.6599502563476562
1683915238265013500,12.511013427734374,3.1205928325653076,3.7119643688201904,3.4002325534820557
1683915238275054300,12.521054443359375,2.810062885284424,4.265986442565918,4.07790994644165
1683915238285095200,12.53109521484375,2.6411378383636475,4.5626325607299805,4.443704605102539
1683915238295136000,12.541135986328126,2.622434616088867,3.9769630432128906,3.3200552463531494
1683915238305176800,12.5511767578125,2.5794854164123535,2.6832776069641113,1.1190319061279297
1683915238315217700,12.5612177734375,2.6490654945373535,1.4866209030151367,-0.46649694442749023
1683915238325258500,12.571258544921875,2.778979539871216,0.5279932022094727,-1.822275161743164
1683915238335299600,12.581299560546874,2.825692653656006,-0.12459135055541992,-2.9130210876464844
1683915238345340400,12.59134033203125,2.7840805053710938,-0.4872298240661621,-3.622990131378174
1683915238355381200,12.60138134765625,2.672498941421509,-0.4780254364013672,-3.7258334159851074
1683915238365422000,12.611422119140625,2.5702292919158936,-0.12256956100463867,-3.179530620574951
1683915238375463000,12.621462890625,2.401353359222412,0.4303407669067383,-2.5680789947509766
1683915238385504000,12.63150390625,2.0281496047973633,0.8701701164245605,-1.9510483741760254
1683915238395544800,12.641544921875,1.4215655326843262,1.1562538146972656,-1.3734431266784668
1683915238405585700,12.651585693359374,0.4159230589866638,1.4520840644836426,-1.0318236351013184
1683915238415626500,12.66162646484375,-1.1564490795135498,1.6178255081176758,-0.9112672805786133
1683915238425667300,12.671667236328124,-2.9619035720825195,1.6263904571533203,-1.0216484069824219
