time,seconds_elapsed,z,y,x
1683935923136294000,0.0362939453125,0,0,0
1683935923146335000,0.0463349609375,0.16184520721435547,0.059783935546875,0.20549583435058594
1683935923156376000,0.0563759765625,0.05726909637451172,0.00900125503540039,0.13599038124084473
1683935923166417400,0.06641748046875,-0.07856464385986328,-0.024899959564208984,-0.06237173080444336
1683935923176458500,0.07645849609375,-0.1422567367553711,-0.17468976974487305,-0.19322586059570312
1683935923186499600,0.08649951171875,-0.32445716857910156,-0.38042211532592773,-0.5495941638946533
1683935923196540700,0.096540771484375,-0.2647833824157715,-0.5742807388305664,-0.6104645729064941
1683935923206581800,0.106581787109375,-0.2765660285949707,-0.3015570640563965,-0.8216156959533691
1683935923216623000,0.116623046875,-0.1638178825378418,-0.4026222229003906,-0.5748295783996582
1683935923226664200,0.126664306640625,-0.2058262825012207,-0.48043012619018555,-0.4112274646759033
1683935923236705300,0.136705322265625,-0.3480544090270996,-0.4914388656616211,-0.5737705230712891
1683935923246746400,0.146746337890625,-0.5467681884765625,-0.5050249099731445,-0.5945470333099365
1683935923256787700,0.15678759765625,-0.46592140197753906,-0.1205449104309082,-0.43100833892822266
1683935923266828800,0.166828857421875,-0.44019365310668945,-0.5530948638916016,-0.4717884063720703
1683935923276870000,0.176869873046875,-0.724299430847168,-0.7507266998291016,-0.42580461502075195
1683935923286911000,0.186910888671875,-0.5544137954711914,-0.30387115478515625,-0.7943875789642334
1683935923296952000,0.1969521484375,-3.009355068206787,-0.5012788772583008,1.4493660926818848
1683935923306993400,0.206993408203125,-2.876002311706543,0.47772789001464844,1.4665489196777344
1683935923317034500,0.217034423828125,-0.3240952491760254,0.6475539207458496,-0.5211324691772461
1683935923327075600,0.22707568359375,0.4923543930053711,0.18842077255249023,-1.4806103706359863
1683935923337116700,0.23711669921875,0.9635858535766602,0.5526576042175293,-2.4378609657287598
1683935923347158000,0.247157958984375,0.9267406463623047,2.474161386489868,-4.74232292175293
1683935923357199000,0.25719921875,0.19420814514160156,-0.08428573608398438,-3.5273115634918213
1683935923367240200,0.267240234375,-0.04286766052246094,-1.6323771476745605,-2.3148834705352783
1683935923377281300,0.27728125,-0.4208664894104004,-2.6723618507385254,-0.9555227756500244
1683935923387322400,0.287322265625,-0.41199636459350586,-3.7394299507141113,0.1403205394744873
1683935923397363700,0.29736376953125,-0.7693085670471191,-4.706672191619873,1.4550504684448242
1683935923407404800,0.30740478515625,0.5799813270568848,-0.35642385482788086,-1.1163618564605713
1683935923417446000,0.31744580078125,1.3054957389831543,0.9325251579284668,-0.3264505863189697
1683935923427487000,0.327487060546875,1.001744270324707,0.14758634567260742,0.9743034839630127
1683935923437528300,0.3375283203125,1.2892932891845703,0.34554004669189453,0.7976977825164795
1683935923447569400,0.3475693359375,1.2879533767700195,0.1558837890625,0.543381929397583
1683935923457610500,0.357610595703125,1.0086183547973633,-0.014590740203857422,0.35847020149230957
1683935923467651600,0.367651611328125,0.2510414123535156,-0.10312509536743164,0.21874594688415527
1683935923477693000,0.37769287109375,-0.12410306930541992,0.14169597625732422,0.2568652629852295
1683935923487734000,0.387734130859375,-0.4990220069885254,0.18059921264648438,0.08578205108642578
1683935923497775000,0.397775146484375,-0.3945736885070801,0.1836719512939453,0.28728437423706055
1683935923507816200,0.407816162109375,-0.43305540084838867,0.15110015869140625,0.025888919830322266
1683935923517857500,0.417857421875,-0.02587890625,0.14287137985229492,0.16539549827575684
1683935923527898600,0.427898681640625,-0.10115909576416016,-0.27544212341308594,0.25151610374450684
1683935923537939700,0.437939697265625,0.07165145874023438,-0.1756911277770996,0.21586060523986816
1683935923547980800,0.447980712890625,0.006819248199462891,-0.024698257446289062,0.16380000114440918
1683935923558022100,0.458022216796875,-0.3756589889526367,-0.023801803588867188,0.25102782249450684
1683935923568063200,0.468063232421875,-0.8650379180908203,-0.3108091354370117,0.14310526847839355
1683935923578104300,0.478104248046875,-1.1789417266845703,-0.1996288299560547,0.26615190505981445
1683935923588145400,0.4881455078125,-1.3111605644226074,-0.23931312561035156,0.310793399810791
1683935923598186500,0.4981865234375,-1.0255208015441895,-0.14165449142456055,0.37261486053466797
1683935923608227800,0.508227783203125,-0.740046501159668,-0.1586313247680664,0.4646430015563965
1683935923618269000,0.51826904296875,-0.6245784759521484,-0.21148395538330078,0.3226771354675293
1683935923628310000,0.52831005859375,-0.6075730323791504,-0.23054790496826172,0.15087080001831055
1683935923638351000,0.53835107421875,-0.5728745460510254,-0.28432798385620117,-0.08388376235961914
1683935923648392400,0.548392333984375,-0.5289196968078613,-0.23361492156982422,-0.2896139621734619
1683935923658433500,0.55843359375,-0.4073219299316406,-0.20171117782592773,-0.3842282295227051
1683935923668474600,0.568474609375,-0.35834264755249023,-0.3393721580505371,-0.3085775375366211
1683935923678515700,0.578515625,-0.41900110244750977,-0.2844223976135254,-0.2778339385986328
1683935923688556800,0.588556884765625,-0.3758993148803711,-0.13468694686889648,-0.3488895893096924
1683935923698598100,0.59859814453125,0.17875957489013672,-0.09002923965454102,-0.21019935607910156
1683935923708639200,0.60863916015625,0.4186086654663086,0.04220771789550781,-0.14307689666748047
1683935923718680300,0.618680419921875,0.31450796127319336,0.022124767303466797,-0.28587818145751953
1683935923728721700,0.6287216796875,0.6132826805114746,-0.11231422424316406,-0.39318132400512695
1683935923738762800,0.6387626953125,0.8561334609985352,-0.3086423873901367,-0.4956052303314209
1683935923748803800,0.648803955078125,0.8194255828857422,-0.36674070358276367,-0.7428851127624512
1683935923758845000,0.658844970703125,0.8472714424133301,-0.3475780487060547,-0.8329739570617676
1683935923768886000,0.668885986328125,0.7435941696166992,-0.2048654556274414,-0.6921937465667725
1683935923778927400,0.67892724609375,0.8665809631347656,0.3806772232055664,-0.6728243827819824
1683935923788968400,0.688968505859375,0.9469881057739258,0.018906593322753906,0.14943599700927734
1683935923799009500,0.699009521484375,1.344362735748291,0.722407341003418,-0.07504653930664062
1683935923809050600,0.709050537109375,1.0893917083740234,-0.49872827529907227,0.4325723648071289
1683935923819092000,0.719092041015625,1.2819089889526367,-0.05054140090942383,0.14936208724975586
1683935923829133000,0.729133056640625,1.1659579277038574,0.4593791961669922,-0.02566385269165039
1683935923839174100,0.739174072265625,0.9779601097106934,0.14084815979003906,0.07809686660766602
1683935923849215200,0.74921533203125,1.0841193199157715,0.1718297004699707,0.19510126113891602
1683935923859256600,0.759256591796875,1.240525245666504,1.9918217658996582,-0.8084492683410645
1683935923869297700,0.769297607421875,0.6933274269104004,0.5099015235900879,-0.2255992889404297
1683935923879338800,0.7793388671875,0.38694190979003906,-0.5342860221862793,-0.14642333984375
1683935923889379800,0.7893798828125,0.24347162246704102,-0.7945942878723145,-0.22895193099975586
1683935923899421200,0.799421142578125,0.1611166000366211,-0.6076030731201172,-0.562891960144043
1683935923909462300,0.809462158203125,0.41837596893310547,-0.4378933906555176,-0.8040752410888672
1683935923919503400,0.81950341796875,0.6913352012634277,-0.4388160705566406,-0.9066872596740723
1683935923929544400,0.82954443359375,0.5945854187011719,-0.48628759384155273,-0.7119936943054199
1683935923939585800,0.839585693359375,0.24112749099731445,-0.6093597412109375,-0.7981877326965332
1683935923949627000,0.849626953125,-0.12203359603881836,-0.8005771636962891,-0.8670840263366699
1683935923959668000,0.85966796875,-0.4563922882080078,-1.1354541778564453,-0.6174626350402832
1683935923969709000,0.869708984375,-0.4250950813293457,-0.4845266342163086,-0.46826601028442383
1683935923979750100,0.879750244140625,-0.6403388977050781,-0.004817008972167969,-0.16590642929077148
1683935923989791500,0.88979150390625,-1.1906580924987793,-0.005855560302734375,0.2832522392272949
1683935923999832600,0.89983251953125,-1.0631804466247559,0.12960290908813477,0.4749436378479004
1683935924009873700,0.909873779296875,-0.8879799842834473,0.02086782455444336,0.3831486701965332
1683935924019915000,0.9199150390625,-0.8020138740539551,-0.09322881698608398,0.08171463012695312
1683935924029956000,0.9299560546875,-0.6848900318145752,-0.16898345947265625,0.0019421577453613281
1683935924039997200,0.9399970703125,-0.5763659477233887,-0.4166436195373535,-0.11659431457519531
1683935924050038300,0.950038330078125,-0.5270662307739258,-0.48073434829711914,-0.29910707473754883
1683935924060079400,0.960079345703125,-0.44629335403442383,-0.48477697372436523,-0.3311138153076172
1683935924070120700,0.97012060546875,-3.9397473335266113,-0.7179999351501465,-0.4873476028442383
1683935924080161800,0.980161865234375,-2.0755624771118164,-0.0521392822265625,-0.7216768264770508
1683935924090203000,0.990202880859375,-0.3010556697845459,-0.45407819747924805,-0.25566911697387695
1683935924100244000,1.000243896484375,1.0822076797485352,-0.7779617309570312,-0.02436065673828125
1683935924110285300,1.010285400390625,1.0526437759399414,-0.6510357856750488,0.10027265548706055
1683935924120326400,1.020326416015625,0.5350322723388672,-0.41346216201782227,-0.6408400535583496
1683935924130367500,1.030367431640625,-0.7646639347076416,-0.16218185424804688,-1.126356601715088
1683935924140408600,1.04040869140625,1.0707776546478271,-0.4562091827392578,-0.3158607482910156
1683935924150450000,1.050449951171875,1.427159309387207,-0.4035072326660156,-0.781653881072998
1683935924160491000,1.060490966796875,1.6094396114349365,-0.13990020751953125,-0.7620396614074707
1683935924170532000,1.070531982421875,8.014501571655273,0.01929473876953125,1.079726219177246
1683935924180573200,1.0805732421875,4.255989074707031,0.037496089935302734,-0.039240360260009766
1683935924190614500,1.090614501953125,3.199113607406616,0.5567364692687988,-0.7383642196655273
1683935924200655600,1.100655517578125,0.28453588485717773,0.10317802429199219,-0.7981972694396973
1683935924210696700,1.11069677734375,0.380709171295166,1.159400463104248,-1.3650603294372559
1683935924220737800,1.12073779296875,0.3163135051727295,0.9351840019226074,-0.5029430389404297
1683935924230779100,1.130779052734375,0.15936779975891113,0.6487798690795898,-0.09060049057006836
1683935924240820200,1.1408203125,0.015228271484375,0.8768773078918457,-0.13826227188110352
1683935924250861300,1.150861328125,-0.9282845258712769,0.9905567169189453,-0.09101486206054688
1683935924260902400,1.16090234375,-2.4632010459899902,1.646451711654663,-0.38327503204345703
1683935924270943700,1.17094384765625,-2.249180793762207,1.3869428634643555,-0.007245540618896484
1683935924280984800,1.18098486328125,-0.5329782962799072,1.2305774688720703,0.23899269104003906
1683935924291026000,1.19102587890625,0.43294239044189453,0.7413506507873535,0.22466182708740234
1683935924301067000,1.20106689453125,0.5746134519577026,0.43915557861328125,-0.08493852615356445
1683935924311108000,1.211108154296875,0.3639791011810303,0.770500659942627,-0.20096158981323242
1683935924321149400,1.2211494140625,0.1439138650894165,0.5618867874145508,-0.4622063636779785
1683935924331190500,1.2311904296875,0.7580705881118774,0.6116518974304199,-0.5554022789001465
1683935924341231600,1.241231689453125,0.9971650838851929,0.4845914840698242,-0.7447738647460938
1683935924351273000,1.25127294921875,1.055002212524414,1.1036877632141113,0.1543569564819336
1683935924361314000,1.26131396484375,1.5131406784057617,0.39941883087158203,0.25161266326904297
1683935924371355100,1.271355224609375,1.9940695762634277,-0.1795644760131836,-1.1093053817749023
1683935924381396200,1.281396240234375,2.4278464317321777,-0.5823636054992676,-1.7780919075012207
1683935924391437300,1.291437255859375,2.368342399597168,-0.8635454177856445,-1.542241096496582
1683935924401478700,1.301478759765625,2.1902246475219727,-0.5768935680389404,-1.4522709846496582
1683935924411519700,1.311519775390625,1.1425821781158447,-0.24228262901306152,-0.6866846084594727
1683935924421560800,1.321560791015625,-0.6571553945541382,0.730780839920044,0.11548519134521484
1683935924431602200,1.331602294921875,-2.1966986656188965,1.2284529209136963,0.3834676742553711
1683935924441643300,1.341643310546875,-2.519801378250122,0.8259067535400391,0.08086299896240234
1683935924451684400,1.351684326171875,-1.7809410095214844,0.5678324699401855,-0.5922203063964844
1683935924461725400,1.361725341796875,-0.3528132438659668,-0.11632943153381348,-0.5326604843139648
1683935924471766800,1.371766845703125,0.6509276032447815,-0.7496235370635986,-0.9123954772949219
1683935924481808000,1.381807861328125,0.4811234772205353,-0.7455720901489258,-1.4067811965942383
1683935924491849000,1.391848876953125,1.0630793571472168,0.379009485244751,-1.4066309928894043
1683935924501890000,1.40189013671875,0.8457709550857544,0.38913512229919434,-0.6388521194458008
1683935924511931400,1.411931396484375,0.6281545162200928,0.18039226531982422,-0.1772603988647461
1683935924521972500,1.421972412109375,1.7646653652191162,0.8949663639068604,-0.17226696014404297
1683935924532013600,1.432013671875,1.1145235300064087,-0.08471918106079102,0.11608695983886719
1683935924542054700,1.4420546875,1.1026769876480103,-0.05650782585144043,0.6480236053466797
1683935924552096000,1.452095947265625,1.0265800952911377,-0.6329572200775146,0.8744783401489258
1683935924562137000,1.46213720703125,0.7950295209884644,-0.6196982860565186,0.6489095687866211
1683935924572178200,1.47217822265625,1.0989691019058228,-0.7080867290496826,0.5834293365478516
1683935924582219300,1.48221923828125,1.7359479665756226,-0.5401685237884521,0.7669572830200195
1683935924592260400,1.49226025390625,1.2453721761703491,-0.5113005638122559,0.20571422576904297
1683935924602301700,1.5023017578125,0.7872394919395447,-0.627443790435791,-0.1333293914794922
1683935924612342800,1.5123427734375,0.7645014524459839,-0.6462821960449219,-0.11873245239257812
1683935924622383900,1.5223837890625,0.7981733679771423,-0.6990888118743896,-0.12615585327148438
1683935924632425200,1.53242529296875,0.6781725287437439,-0.6043679714202881,-0.3621368408203125
1683935924642466300,1.54246630859375,0.49505698680877686,-0.868363618850708,-0.17157363891601562
1683935924652507400,1.55250732421875,0.3909801244735718,-0.7006568908691406,-0.45099449157714844
1683935924662548500,1.562548583984375,0.40056392550468445,-0.6431562900543213,-0.6402978897094727
1683935924672589600,1.572589599609375,0.8762893676757812,-0.6885771751403809,-0.1884021759033203
1683935924682631000,1.582630859375,1.108176589012146,-0.5311353206634521,0.12550640106201172
1683935924692672000,1.592672119140625,1.153059720993042,-0.7643513679504395,0.9973287582397461
1683935924702713000,1.602713134765625,1.1383497714996338,-0.8770289421081543,1.577986717224121
1683935924712754400,1.61275439453125,0.595119833946228,-0.8716135025024414,1.601851463317871
1683935924722795500,1.62279541015625,0.13158956170082092,-0.6939840316772461,1.2577486038208008
1683935924732836600,1.632836669921875,-0.2290671467781067,-0.7447738647460938,0.9833354949951172
1683935924742877700,1.642877685546875,-0.21741876006126404,-0.6520757675170898,1.115809440612793
1683935924752918800,1.652918701171875,-0.12840768694877625,-0.6918535232543945,1.2355499267578125
1683935924762960100,1.662960205078125,-0.11559604108333588,-0.8199186325073242,1.6546974182128906
1683935924773001200,1.673001220703125,-0.02028147131204605,-0.5093340873718262,1.6018056869506836
1683935924783042300,1.683042236328125,-0.23937781155109406,-0.29177141189575195,1.209946632385254
1683935924793083600,1.693083740234375,-0.4503674805164337,0.0368657112121582,0.7182540893554688
1683935924803124700,1.703124755859375,-0.4069609045982361,0.23222875595092773,0.4658632278442383
1683935924813165800,1.713165771484375,-0.236021026968956,0.47876405715942383,0.14349651336669922
1683935924823207000,1.72320703125,0.14490152895450592,0.5906126499176025,-0.08043479919433594
1683935924833248000,1.733248046875,0.47003841400146484,0.7646574974060059,-0.053619384765625
1683935924843289300,1.743289306640625,0.8816719055175781,1.138401985168457,0.4091663360595703
1683935924853330400,1.753330322265625,0.514972448348999,1.2899112701416016,0.8069124221801758
1683935924863371500,1.76337158203125,0.0802067369222641,1.2260546684265137,1.0831117630004883
1683935924873412900,1.773412841796875,0.16553738713264465,1.1263117790222168,0.6492557525634766
1683935924883454000,1.783453857421875,0.3308081030845642,0.9665560722351074,0.13902854919433594
1683935924893495000,1.7934951171875,0.6169335842132568,0.344851016998291,0.30269813537597656
1683935924903536000,1.8035361328125,1.128741979598999,0.21124982833862305,0.6874170303344727
1683935924913577200,1.8135771484375,0.7089207172393799,-0.32834959030151367,1.0663928985595703
1683935924923618600,1.82361865234375,0.04860296845436096,-0.7106227874755859,0.43155956268310547
1683935924933659600,1.83365966796875,-0.4055976867675781,-0.8333697319030762,-0.11292552947998047
1683935924943700700,1.84370068359375,-0.2546936571598053,-0.24886083602905273,-0.5498695373535156
1683935924953742000,1.8537421875,0.8128128051757812,0.9388575553894043,-0.25469207763671875
1683935924963783200,1.863783203125,0.7827792763710022,1.5747716426849365,0.813847541809082
1683935924973824300,1.87382421875,-0.14319992065429688,0.9864327907562256,0.7617092132568359
1683935924983865300,1.883865234375,0.18714940547943115,1.4945249557495117,0.4543018341064453
1683935924993906400,1.893906494140625,0.043606340885162354,1.5073657035827637,0.5879688262939453
1683935925003947800,1.90394775390625,-0.0025478005409240723,1.2849352359771729,0.6805887222290039
1683935925013988900,1.91398876953125,0.21100634336471558,1.066366195678711,0.7285118103027344
1683935925024030000,1.924030029296875,0.7697271108627319,1.220372200012207,0.46260738372802734
1683935925034071300,1.9340712890625,1.5178453922271729,1.5118463039398193,0.4211568832397461
1683935925044112400,1.9441123046875,1.901711106300354,1.7000212669372559,0.39333343505859375
1683935925054153500,1.954153564453125,1.0811161994934082,1.0482547283172607,0.5729694366455078
1683935925064194600,1.964194580078125,-0.27529698610305786,0.4344487190246582,0.1788167953491211
1683935925074235600,1.974235595703125,-1.5976046323776245,-1.0790314674377441,0.7630929946899414
1683935925084277000,1.984277099609375,-2.2421112060546875,-1.0215206146240234,-0.03662109375
1683935925094318000,1.994318115234375,-1.7070379257202148,-0.3168511390686035,-0.4359588623046875
1683935925104359200,2.004359130859375,-0.827723503112793,0.4028334617614746,-0.35553932189941406
1683935925114400500,2.014400390625,-0.10131633281707764,1.067121982574463,-0.4028329849243164
1683935925124441600,2.024441650390625,0.5025659203529358,1.7430968284606934,-1.0811381340026855
1683935925134482700,2.034482666015625,1.2577624320983887,3.212728500366211,-2.159852981567383
1683935925144523800,2.044523681640625,2.577714681625366,3.4280166625976562,-2.375087261199951
1683935925154565000,2.054565185546875,2.084810495376587,-1.0467643737792969,0.9203891754150391
1683935925164606200,2.064606201171875,2.694169044494629,-2.0694022178649902,1.3571929931640625
1683935925174647300,2.074647216796875,3.0328786373138428,-1.5235590934753418,0.7399110794067383
1683935925184688400,2.0846884765625,-0.0634576678276062,-3.3174705505371094,1.9763879776000977
1683935925194729700,2.094729736328125,-1.1015937328338623,-2.5100955963134766,-0.7330999374389648
1683935925204770800,2.104770751953125,-1.3795922994613647,-0.49471378326416016,-1.8220648765563965
1683935925214812000,2.11481201171875,-1.2533711194992065,1.1778364181518555,-2.296402931213379
1683935925224853000,2.12485302734375,-0.39069899916648865,1.9014701843261719,-1.4400882720947266
1683935925234894300,2.134894287109375,-0.6084657907485962,-0.17856073379516602,0.6984357833862305
1683935925244935400,2.144935302734375,0.04174809157848358,-1.1425304412841797,1.9578180313110352
1683935925254976500,2.1549765625,0.6576546430587769,-0.5060434341430664,2.10439395904541
1683935925265017600,2.165017578125,0.11033114045858383,-0.157501220703125,1.8085756301879883
1683935925275059000,2.175058837890625,-1.0073245763778687,-0.03850078582763672,0.7709722518920898
1683935925285100000,2.18510009765625,-1.7577905654907227,0.047208309173583984,-0.1141357421875
1683935925295141000,2.19514111328125,-1.9101841449737549,0.2080821990966797,-1.1270294189453125
1683935925305182200,2.20518212890625,-1.916762351989746,-0.36241626739501953,-1.0802092552185059
1683935925315223600,2.2152236328125,-1.1903815269470215,-0.20014429092407227,-0.784888744354248
1683935925325264600,2.2252646484375,-0.3720535635948181,-0.2050647735595703,-0.07279777526855469
1683935925335305700,2.2353056640625,0.08744320273399353,-0.22796916961669922,0.30345869064331055
1683935925345347000,2.24534716796875,-0.09308594465255737,-0.3639707565307617,0.5506868362426758
1683935925355388200,2.25538818359375,-0.3454993963241577,-0.5637331008911133,0.6241436004638672
1683935925365429200,2.26542919921875,-0.5854462385177612,-0.8136100769042969,0.4180169105529785
1683935925375470300,2.27547021484375,-1.8648567199707031,-2.9315223693847656,2.8600172996520996
1683935925385511700,2.28551171875,-0.31325018405914307,-0.46242189407348633,-0.3874025344848633
1683935925395552800,2.295552734375,1.892539381980896,1.3342890739440918,-1.2061853408813477
1683935925405593900,2.30559375,1.8066003322601318,-0.70208740234375,-0.02127838134765625
1683935925415635000,2.315635009765625,1.2157145738601685,-1.4951653480529785,0.7692432403564453
1683935925425676300,2.32567626953125,0.9833138585090637,-1.1555895805358887,0.5286364555358887
1683935925435717400,2.33571728515625,0.7969993352890015,-1.137822151184082,0.33445310592651367
1683935925445758500,2.345758544921875,0.6973223090171814,-1.373215675354004,0.5964818000793457
1683935925455799600,2.355799560546875,0.6913296580314636,-1.38814115524292,0.6887116432189941
1683935925465841000,2.3658408203125,0.6326509714126587,-1.3471636772155762,0.28336000442504883
1683935925475882000,2.375882080078125,0.6887723207473755,-1.5417699813842773,0.051589012145996094
1683935925485923000,2.385923095703125,0.6462762951850891,-1.3851304054260254,-0.20360517501831055
1683935925495964200,2.395964111328125,0.5164669156074524,-1.3293514251708984,-0.4563169479370117
1683935925506005500,2.406005615234375,0.385567307472229,-1.3530373573303223,-0.8311138153076172
1683935925516046600,2.416046630859375,0.17303061485290527,-1.252324104309082,-1.2973079681396484
1683935925526087700,2.426087646484375,-0.02466130256652832,-1.0652551651000977,-1.5811686515808105
1683935925536129000,2.43612890625,0.8360353708267212,0.0695028305053711,-1.0456781387329102
1683935925546170000,2.446170166015625,0.6800975799560547,-0.6801486015319824,-1.239729881286621
1683935925556211200,2.456211181640625,0.2601131200790405,-0.6789050102233887,-0.8314814567565918
1683935925566252300,2.466252197265625,0.1649562120437622,-0.26969289779663086,-0.9202451705932617
1683935925576293400,2.47629345703125,0.5036067962646484,-1.2576284408569336,-0.49800729751586914
1683935925586334700,2.486334716796875,0.18349766731262207,-0.6708683967590332,-1.4911084175109863
1683935925596375800,2.496375732421875,0.1813110113143921,-0.6498990058898926,-1.080068588256836
1683935925606417000,2.5064169921875,-0.5046693086624146,-0.8382763862609863,-1.0269522666931152
1683935925616458200,2.516458251953125,-1.6542669534683228,-0.6681857109069824,-1.122807502746582
1683935925626499300,2.526499267578125,-2.48771333694458,-0.40752124786376953,-0.6810016632080078
1683935925636540400,2.53654052734375,-2.5009467601776123,0.12180185317993164,-0.2436504364013672
1683935925646581500,2.54658154296875,-3.238945484161377,-0.4758262634277344,0.42572975158691406
1683935925656622800,2.556622802734375,-2.4279518127441406,-0.3663825988769531,0.36292123794555664
1683935925666664000,2.566663818359375,-1.459810495376587,0.48264551162719727,-0.31098413467407227
1683935925676705000,2.576705078125,-1.0655933618545532,0.624783992767334,-0.5711383819580078
1683935925686746000,2.58674609375,-0.6186157464981079,0.05644655227661133,0.18739557266235352
1683935925696787500,2.596787353515625,-0.17506909370422363,0.13938522338867188,0.5838098526000977
1683935925706828500,2.60682861328125,-0.03685641288757324,0.2006545066833496,0.7470922470092773
1683935925716869600,2.61686962890625,-0.24890148639678955,0.19333648681640625,0.6844182014465332
1683935925726910700,2.62691064453125,-0.4184762239456177,0.26207971572875977,0.2483348846435547
1683935925736952000,2.6369521484375,-0.506050705909729,0.38957691192626953,-0.16528701782226562
1683935925746993200,2.6469931640625,-0.6022638082504272,0.5328497886657715,-0.28331708908081055
1683935925757034200,2.6570341796875,-0.42781686782836914,0.7077889442443848,-0.2288951873779297
1683935925767075600,2.66707568359375,0.05186164379119873,0.7872428894042969,0.023629188537597656
1683935925777116700,2.67711669921875,1.7520790100097656,1.050011157989502,0.4568338394165039
1683935925787157800,2.68715771484375,0.7932567596435547,0.8282413482666016,0.19366168975830078
1683935925797198800,2.69719873046875,-0.6610202789306641,0.04454231262207031,-0.1945819854736328
1683935925807240000,2.707239990234375,-1.2939213514328003,-0.39170408248901367,-0.7526321411132812
1683935925817281300,2.71728125,-0.9573197364807129,-0.5094218254089355,-1.478395938873291
1683935925827322400,2.727322265625,-0.5768964290618896,0.3168673515319824,-2.047288417816162
1683935925837363500,2.737363525390625,-0.1321846842765808,0.06341314315795898,-1.7874464988708496
1683935925847404800,2.74740478515625,-0.01245182752609253,-0.3015317916870117,-1.5175180435180664
1683935925857446000,2.75744580078125,-0.26293426752090454,-0.6351556777954102,-1.0018854141235352
1683935925867487000,2.767487060546875,-0.8933623433113098,-0.6279664039611816,-0.5063281059265137
1683935925877528000,2.777528076171875,-1.2683393955230713,-0.3931269645690918,-0.16724109649658203
1683935925887569400,2.7875693359375,-1.222247838973999,-0.3536090850830078,0.18095922470092773
1683935925897610500,2.797610595703125,-0.9245986938476562,-0.4628109931945801,0.37086915969848633
1683935925907651600,2.807651611328125,-0.6759482622146606,-0.5287113189697266,0.06664562225341797
1683935925917693000,2.81769287109375,-0.533663809299469,-0.44391775131225586,-0.39530181884765625
1683935925927734000,2.827734130859375,0.05501747131347656,-0.5236015319824219,-0.9110560417175293
1683935925937775000,2.837775146484375,1.260869026184082,-0.5366616249084473,-0.5973167419433594
1683935925947816200,2.847816162109375,1.9302051067352295,0.7476420402526855,-0.32103776931762695
1683935925957857300,2.857857177734375,1.4666463136672974,0.7006716728210449,0.3630704879760742
1683935925967898600,2.867898681640625,0.6800816059112549,0.32872819900512695,-0.08563232421875
1683935925977939700,2.877939697265625,0.466970294713974,1.1487178802490234,-0.3747572898864746
1683935925987980800,2.887980712890625,0.4866318106651306,1.598118782043457,-0.28537845611572266
1683935925998022100,2.898022216796875,0.2369873821735382,1.8492560386657715,0.20297861099243164
1683935926008063200,2.908063232421875,-0.6294450759887695,2.479243278503418,0.18546581268310547
1683935926018104300,2.918104248046875,-1.2265524864196777,2.1172330379486084,-0.3434147834777832
1683935926028145400,2.9281455078125,-1.2761200666427612,1.3865323066711426,-0.7204723358154297
1683935926038186800,2.938186767578125,-1.2479954957962036,0.5159592628479004,-0.8345613479614258
1683935926048227800,2.948227783203125,-1.1050491333007812,-0.09908771514892578,-0.9194045066833496
1683935926058269000,2.95826904296875,-0.7546635866165161,-0.5248899459838867,-0.9326596260070801
1683935926068310000,2.96831005859375,-0.2742108106613159,-1.037909984588623,-0.8894753456115723
1683935926078351400,2.978351318359375,-0.5037813186645508,-2.203747272491455,-0.44809818267822266
1683935926088392400,2.988392333984375,-0.4450981020927429,-1.694819450378418,-0.16182756423950195
1683935926098433500,2.99843359375,-0.11307418346405029,-1.2919344902038574,1.001157283782959
1683935926108474600,3.008474609375,0.1330929398536682,0.0206451416015625,0.5220775604248047
1683935926118516000,3.018515869140625,-0.040524423122406006,0.6862897872924805,0.09530162811279297
1683935926128557000,3.02855712890625,-0.4401213526725769,0.8832941055297852,0.14744281768798828
1683935926138598100,3.03859814453125,-0.7040098905563354,1.121741771697998,0.13550186157226562
1683935926148639500,3.048639404296875,-0.8620526790618896,1.1016416549682617,-0.03335714340209961
1683935926158680600,3.0586806640625,-0.5553336143493652,1.0937509536743164,0.16589784622192383
1683935926168721700,3.0687216796875,-0.2717125415802002,0.8268961906433105,0.39165449142456055
1683935926178762800,3.0787626953125,-0.18596380949020386,0.6643376350402832,0.46718788146972656
1683935926188804000,3.08880419921875,-0.12640166282653809,0.8518881797790527,0.40118885040283203
1683935926198845200,3.09884521484375,-0.26382124423980713,0.7917327880859375,0.036618709564208984
1683935926208886300,3.10888623046875,-0.7432757019996643,0.908566951751709,-0.2827320098876953
1683935926218927400,3.11892724609375,-1.6136858463287354,1.4468369483947754,0.2687506675720215
1683935926228968700,3.12896875,-1.5945976972579956,0.82916259765625,0.2610507011413574
1683935926239009800,3.139009765625,-1.4172637462615967,0.18097305297851562,-0.033376216888427734
1683935926249051000,3.14905078125,-1.183448314666748,0.2727036476135254,-0.2853050231933594
1683935926259092000,3.159092041015625,-1.208348035812378,0.43462276458740234,-0.7465147972106934
1683935926269133300,3.16913330078125,-1.7894253730773926,-0.5745735168457031,-1.4821562767028809
1683935926279174400,3.17917431640625,-1.7639756202697754,-0.6298413276672363,-1.0811519622802734
1683935926289215500,3.189215576171875,-1.5773640871047974,-0.17941570281982422,-0.4572567939758301
1683935926299256800,3.1992568359375,-0.9748360514640808,0.2528066635131836,0.633573055267334
1683935926309298000,3.2092978515625,-0.43621253967285156,0.5523405075073242,1.731649398803711
1683935926319339000,3.219339111328125,-0.5238173007965088,0.5242915153503418,2.0351619720458984
1683935926329380000,3.229380126953125,-1.0944275856018066,-0.13478565216064453,1.8900108337402344
1683935926339421400,3.23942138671875,-1.858016014099121,-0.561589241027832,1.345776081085205
1683935926349462500,3.249462646484375,-2.8032612800598145,-1.011540412902832,0.45330381393432617
1683935926359503600,3.259503662109375,-3.5274386405944824,-1.505812168121338,-0.09705591201782227
1683935926369544700,3.269544677734375,-3.642092704772949,-1.4131717681884766,-0.15484189987182617
1683935926379586000,3.2795859375,-2.7334189414978027,-0.6127557754516602,0.10610723495483398
1683935926389627100,3.289627197265625,-1.7887343168258667,0.021130084991455078,0.8244566917419434
1683935926399668200,3.299668212890625,-1.356345772743225,-0.2781500816345215,1.48309326171875
1683935926409709300,3.309709228515625,-1.1459277868270874,-0.3904275894165039,2.1395411491394043
1683935926419750700,3.319750732421875,-0.6839942932128906,-1.0656304359436035,2.3903207778930664
1683935926429791700,3.329791748046875,0.6398587226867676,-2.329090118408203,2.5730996131896973
1683935926439832800,3.339832763671875,1.901798963546753,-2.3864879608154297,2.0823001861572266
1683935926449874200,3.349874267578125,2.5615711212158203,-1.7514004707336426,1.004819393157959
1683935926459915300,3.359915283203125,2.3830649852752686,-0.7748379707336426,-0.4737567901611328
1683935926469956400,3.369956298828125,1.7450110912322998,-0.6007695198059082,-1.3834128379821777
1683935926479997400,3.37999755859375,1.364340901374817,-0.4675421714782715,-1.8778815269470215
1683935926490038800,3.390038818359375,1.4720858335494995,0.19611406326293945,-2.2467498779296875
1683935926500079900,3.400079833984375,0.881207287311554,0.29913854598999023,-2.032437801361084
1683935926510121000,3.410120849609375,1.0030007362365723,0.7137155532836914,-1.880319595336914
1683935926520162300,3.420162353515625,1.0769381523132324,1.1337628364562988,-2.1620631217956543
1683935926530203400,3.430203369140625,0.7091345191001892,1.4855265617370605,-2.206183910369873
1683935926540244500,3.440244384765625,0.5361458659172058,1.620431900024414,-2.086252212524414
1683935926550285600,3.45028564453125,0.9650291204452515,1.3616437911987305,-1.492053508758545
1683935926560326700,3.46032666015625,1.3935141563415527,2.0471487045288086,-0.3989877700805664
1683935926570368000,3.470367919921875,0.7249345183372498,0.7984375953674316,0.4318242073059082
1683935926580409000,3.4804091796875,0.6304369568824768,0.12528276443481445,0.7210588455200195
1683935926590450200,3.4904501953125,1.1440175771713257,-0.0054779052734375,0.7076148986816406
1683935926600491500,3.500491455078125,1.7719786167144775,-0.06062173843383789,0.7751998901367188
1683935926610532600,3.51053271484375,2.217473268508911,-0.0607295036315918,0.6714048385620117
1683935926620573700,3.52057373046875,2.0636558532714844,-0.36037302017211914,0.4476957321166992
1683935926630614800,3.53061474609375,1.4345831871032715,-0.5773582458496094,0.5360302925109863
1683935926640656100,3.54065625,0.7952830791473389,-0.4378190040588379,0.47950267791748047
1683935926650697200,3.550697265625,1.0521128177642822,-0.417755126953125,0.1504049301147461
1683935926660738300,3.56073828125,1.2203396558761597,-0.7149214744567871,0.42232513427734375
1683935926670779600,3.570779541015625,1.2263965606689453,-0.6603870391845703,0.42487573623657227
1683935926680820700,3.58082080078125,1.0798616409301758,-0.11409282684326172,0.537933349609375
1683935926690861800,3.59086181640625,0.135142982006073,0.0306396484375,0.4885702133178711
1683935926700903000,3.60090283203125,-0.3890892267227173,-0.773167610168457,0.2391524314880371
1683935926710944300,3.6109443359375,-0.04825538396835327,-0.5362181663513184,-0.019077777862548828
1683935926720985300,3.6209853515625,0.3394603431224823,-0.5579991340637207,-0.27589941024780273
1683935926731026400,3.6310263671875,0.7524025440216064,-0.7352709770202637,-0.810856819152832
1683935926741067800,3.64106787109375,1.2426624298095703,-0.7212238311767578,-1.5412273406982422
1683935926751108900,3.65110888671875,1.6236475706100464,-0.6032586097717285,-1.932009220123291
1683935926761150000,3.66114990234375,1.6310813426971436,-0.4687619209289551,-2.0733823776245117
1683935926771191000,3.67119091796875,1.209657907485962,-0.506443977355957,-2.058505058288574
1683935926781232000,3.681232177734375,0.8181920051574707,-0.42871570587158203,-1.7626209259033203
1683935926791273500,3.6912734375,0.588707447052002,-0.3164362907409668,-1.4749383926391602
1683935926801314600,3.701314453125,0.5551793575286865,-0.5715947151184082,-0.9264507293701172
1683935926811355600,3.711355712890625,0.7130126953125,-0.39475345611572266,-0.46321582794189453
1683935926821397000,3.72139697265625,0.909991979598999,-0.03221416473388672,-0.15375041961669922
1683935926831438000,3.73143798828125,1.0090785026550293,0.1659564971923828,-0.14884328842163086
1683935926841479200,3.741479248046875,0.9506963491439819,-0.029087066650390625,0.12302875518798828
1683935926851520300,3.751520263671875,0.9779309630393982,-0.775245189666748,0.8268308639526367
1683935926861561600,3.7615615234375,1.157254934310913,0.5437707901000977,-0.034111976623535156
1683935926871602700,3.771602783203125,1.3241639137268066,0.1376814842224121,-0.2577395439147949
1683935926881643800,3.781643798828125,1.2360529899597168,-0.29260778427124023,0.49417924880981445
1683935926891684900,3.791684814453125,0.987094521522522,-0.22601556777954102,1.2204971313476562
1683935926901726200,3.801726318359375,0.6735294461250305,-0.08744001388549805,1.6886639595031738
1683935926911767300,3.811767333984375,0.3996903896331787,0.18581867218017578,2.1458888053894043
1683935926921808400,3.821808349609375,0.2352764904499054,-0.0797266960144043,2.4453673362731934
1683935926931849700,3.831849609375,0.3362828493118286,-0.024426937103271484,2.599459648132324
1683935926941890800,3.841890869140625,0.24013899266719818,-0.12197065353393555,2.082916736602783
1683935926951932000,3.851931884765625,0.16292673349380493,0.08938837051391602,1.1994152069091797
1683935926961973000,3.861972900390625,-0.017323121428489685,0.25322437286376953,0.5260148048400879
1683935926972014300,3.872014404296875,-0.3022614121437073,0.17993688583374023,-0.0031642913818359375
1683935926982055400,3.882055419921875,-0.6232748031616211,0.05654096603393555,-0.4115586280822754
1683935926992096500,3.892096435546875,-0.4913109838962555,-0.14381170272827148,-0.5851635932922363
1683935927002137900,3.902137939453125,-0.333534836769104,-0.20348882675170898,-1.1260504722595215
1683935927012179000,3.912178955078125,-0.22689953446388245,-0.26390647888183594,-1.0687990188598633
1683935927022220000,3.922219970703125,-0.2361525595188141,-0.30477333068847656,-1.217491626739502
1683935927032261000,3.93226123046875,-0.07805383205413818,-0.1405496597290039,-0.6648106575012207
1683935927042302500,3.942302490234375,-0.001634150743484497,0.36247682571411133,-0.4296107292175293
1683935927052343600,3.952343505859375,-0.08086609840393066,-0.0855703353881836,0.2557535171508789
1683935927062384600,3.962384521484375,-0.013737291097640991,-0.13338899612426758,0.803504467010498
1683935927072425700,3.97242578125,0.17572557926177979,-0.24068212509155273,1.4916439056396484
1683935927082467000,3.982467041015625,0.46183905005455017,-0.12957382202148438,1.455854892730713
1683935927092508200,3.992508056640625,0.8677260875701904,0.032521724700927734,0.742617130279541
1683935927102549200,4.00254931640625,0.43564122915267944,0.22350120544433594,0.3925051689147949
1683935927112590300,4.01259033203125,0.16142874956130981,0.8007774353027344,-0.10834884643554688
1683935927122631700,4.022631591796875,0.07414799928665161,0.4078059196472168,-0.024320602416992188
1683935927132672800,4.0326728515625,0.1965794563293457,0.5363383293151855,0.45327234268188477
1683935927142713900,4.0427138671875,0.31691914796829224,0.34125566482543945,1.4398984909057617
1683935927152755200,4.052755126953125,0.3842664957046509,0.3201479911804199,1.8473176956176758
1683935927162796300,4.06279638671875,0.5202942490577698,0.6554927825927734,1.297685146331787
1683935927172837400,4.07283740234375,0.7713209986686707,0.9165811538696289,0.7321062088012695
1683935927182878500,4.08287841796875,0.7108209133148193,0.5633201599121094,1.1364898681640625
1683935927192919800,4.092919921875,0.27137500047683716,0.7785253524780273,0.9569864273071289
1683935927202961000,4.1029609375,0.5982529520988464,0.5364322662353516,0.709284782409668
1683935927213002000,4.113001953125,1.2475249767303467,0.9183025360107422,0.39592504501342773
1683935927223043300,4.123043212890625,0.7158193588256836,0.3102736473083496,1.3831968307495117
1683935927233084400,4.13308447265625,-0.15089774131774902,0.31053924560546875,0.42959022521972656
1683935927243125500,4.14312548828125,-0.6041806936264038,0.6519889831542969,0.2629108428955078
1683935927253166600,4.15316650390625,-0.8963552713394165,0.671422004699707,0.4461050033569336
1683935927263208000,4.1632080078125,-0.7635923027992249,0.29124021530151367,0.4303250312805176
1683935927273249000,4.1732490234375,-0.3237536549568176,0.25750732421875,0.5858793258666992
1683935927283290000,4.1832900390625,-0.006289005279541016,0.22948551177978516,0.7853236198425293
1683935927293331500,4.19333154296875,-0.23496544361114502,0.21419048309326172,0.4710679054260254
1683935927303372500,4.20337255859375,-0.268460214138031,0.3644981384277344,-0.30410146713256836
1683935927313413600,4.21341357421875,-0.18747252225875854,0.28029394149780273,-0.6282963752746582
1683935927323454700,4.223454833984375,-0.5841864347457886,0.6153106689453125,-0.6633410453796387
1683935927333496000,4.23349609375,-0.8956728577613831,0.7076902389526367,-0.7325220108032227
1683935927343537200,4.243537109375,-0.8113039135932922,0.5679855346679688,-0.7930779457092285
1683935927353578200,4.253578125,-0.4285333752632141,0.49801206588745117,-0.8842477798461914
1683935927363619300,4.263619384765625,-0.18660187721252441,0.7260832786560059,-0.8992986679077148
1683935927373660700,4.27366064453125,-0.2795729339122772,1.1166715621948242,-1.9045066833496094
1683935927383701800,4.28370166015625,-0.5224853754043579,1.4061994552612305,-2.6682581901550293
1683935927393742800,4.293742919921875,-0.8329366445541382,1.3404769897460938,-2.9269344806671143
1683935927403784000,4.303783935546875,-0.8451865315437317,0.9459233283996582,-2.481752395629883
1683935927413825300,4.3138251953125,-0.6764299273490906,2.5076403617858887,-1.4305667877197266
1683935927423866400,4.323866455078125,-0.6026087999343872,-1.2668027877807617,-1.097472906112671
1683935927433907500,4.333907470703125,-0.16736462712287903,-0.26346397399902344,-0.505774974822998
1683935927443948800,4.34394873046875,0.4244654178619385,-0.05819225311279297,-0.5057697296142578
1683935927453990000,4.353989990234375,0.6327446103096008,-0.7747182846069336,0.4930229187011719
1683935927464031000,4.364031005859375,0.3242950439453125,1.9556612968444824,2.5480566024780273
1683935927474072000,4.374072021484375,0.06732732057571411,-1.0561094284057617,1.099463939666748
1683935927484113400,4.384113525390625,-0.48325929045677185,-2.163914680480957,2.337998390197754
1683935927494154500,4.394154541015625,-0.22167059779167175,-0.5572013854980469,4.362751007080078
1683935927504195600,4.404195556640625,-0.31968677043914795,-0.26661014556884766,4.830859184265137
1683935927514237000,4.41423681640625,-0.10194671154022217,-0.5792608261108398,4.752957344055176
1683935927524278000,4.424278076171875,0.36284399032592773,-0.3618202209472656,4.402284622192383
1683935927534319000,4.434319091796875,0.7776191830635071,-0.3439807891845703,3.9094088077545166
1683935927544360200,4.444360107421875,1.0271121263504028,-0.21130847930908203,3.0540874004364014
1683935927554401500,4.454401611328125,2.06187105178833,-0.5211105346679688,1.4092211723327637
1683935927564442600,4.464442626953125,0.3054056167602539,0.4494466781616211,1.4524877071380615
1683935927574483700,4.474483642578125,-0.9169379472732544,1.2875962257385254,1.2095756530761719
1683935927584525000,4.484525146484375,-0.6936044096946716,-1.6019973754882812,-0.3289377689361572
1683935927594566100,4.494566162109375,-0.1143837571144104,-0.1643514633178711,0.4092109203338623
1683935927604607200,4.504607177734375,-0.004111677408218384,0.26998043060302734,0.43774890899658203
1683935927614648300,4.5146484375,0.019556164741516113,-0.3332405090332031,0.3632843494415283
1683935927624689700,4.524689697265625,0.12324094772338867,-0.37368106842041016,0.4727194309234619
1683935927634730800,4.534730712890625,0.1978844404220581,-0.3161029815673828,0.44103550910949707
1683935927644771800,4.544771728515625,0.13548550009727478,-0.5005569458007812,0.4581789970397949
1683935927654813200,4.554813232421875,-0.012536793947219849,-0.6659774780273438,0.47415757179260254
1683935927664854300,4.564854248046875,-0.19302625954151154,-0.5701971054077148,0.273972749710083
1683935927674895400,4.574895263671875,-0.36457622051239014,-0.6009578704833984,0.3205997943878174
1683935927684936400,4.5849365234375,-0.4668511748313904,-1.1653976440429688,1.2373976707458496
1683935927694977800,4.594977783203125,-0.6166949272155762,-0.4000387191772461,0.9304051399230957
1683935927705019000,4.605018798828125,-0.5434601306915283,0.04369926452636719,-0.03201913833618164
1683935927715060000,4.61506005859375,-0.5531448125839233,-0.17618179321289062,0.4443552494049072
1683935927725101300,4.625101318359375,-0.8597487211227417,0.0207672119140625,0.37315821647644043
1683935927735142400,4.635142333984375,-1.0094866752624512,0.3406038284301758,0.25453615188598633
1683935927745183500,4.64518359375,-1.1228113174438477,0.6307382583618164,0.015776395797729492
1683935927755224600,4.655224609375,-0.9406579732894897,0.8154630661010742,-0.11423397064208984
1683935927765266000,4.665265869140625,-0.7069962620735168,0.801457405090332,0.18583297729492188
1683935927775307000,4.67530712890625,-0.5724835991859436,0.7716445922851562,0.517411470413208
1683935927785348000,4.68534814453125,-0.5519938468933105,0.6122369766235352,1.0104475021362305
1683935927795389200,4.69538916015625,-0.5668653845787048,0.6279754638671875,1.2368416786193848
1683935927805430500,4.705430419921875,-0.5900874137878418,0.7472734451293945,1.1203198432922363
1683935927815471600,4.7154716796875,-0.38979488611221313,1.4269309043884277,0.40467262268066406
1683935927825512700,4.7255126953125,-0.7262883186340332,1.2420458793640137,-0.00672602653503418
1683935927835553800,4.7355537109375,-0.8673619031906128,-0.02054882049560547,0.025456905364990234
1683935927845595100,4.74559521484375,-0.8250459432601929,0.05591773986816406,0.11195492744445801
1683935927855636200,4.75563623046875,-1.0106195211410522,0.42446041107177734,0.4096858501434326
1683935927865677300,4.76567724609375,-1.0916197299957275,0.4947938919067383,0.7660410404205322
1683935927875718700,4.77571875,-0.7141755819320679,0.1183004379272461,1.183741807937622
1683935927885759700,4.785759765625,-0.13248276710510254,-0.3336639404296875,1.13912034034729
1683935927895800800,4.79580078125,0.4099878668785095,-0.7523431777954102,0.9733986854553223
1683935927905842000,4.805842041015625,0.7992781400680542,-0.9875450134277344,0.41749095916748047
1683935927915883300,4.81588330078125,1.0387392044067383,-1.2152214050292969,-0.275327205657959
1683935927925924400,4.82592431640625,1.1304243803024292,-1.2981395721435547,-0.8433084487915039
1683935927935965400,4.83596533203125,1.0290120840072632,-1.3446102142333984,-1.231849193572998
1683935927946006800,4.8460068359375,0.9889923334121704,-1.088296890258789,-1.1641921997070312
1683935927956048000,4.8560478515625,0.5129419565200806,-1.8436517715454102,-0.7389812469482422
1683935927966089000,4.8660888671875,1.4314956665039062,-1.8669300079345703,-1.5641543865203857
1683935927976130000,4.876130126953125,1.1501721143722534,-0.8960189819335938,-0.6346054077148438
1683935927986171400,4.88617138671875,0.5880594253540039,-1.1862716674804688,0.23032665252685547
1683935927996212500,4.89621240234375,0.20263659954071045,0.9182329177856445,2.0667176246643066
1683935928006253600,4.906253662109375,0.6540230512619019,-2.2369956970214844,0.36698102951049805
1683935928016295000,4.916294921875,1.0949280261993408,-0.6020030975341797,0.5180702209472656
1683935928026336000,4.9263359375,0.7185357809066772,-0.4603099822998047,0.5830135345458984
1683935928036377000,4.936377197265625,0.22176778316497803,0.41214656829833984,0.42029237747192383
1683935928046418200,4.946418212890625,0.6483324766159058,1.080970287322998,-0.13112974166870117
1683935928056459500,4.95645947265625,1.108602523803711,0.6032195091247559,-0.4746217727661133
1683935928066500600,4.96650048828125,1.125993251800537,-0.2633991241455078,-1.1642005443572998
1683935928076541700,4.976541748046875,1.0453486442565918,1.141789436340332,-0.5344948768615723
1683935928086582800,4.986582763671875,1.0920616388320923,0.2034769058227539,-1.1713712215423584
1683935928096624000,4.9966240234375,1.306160807609558,0.21011829376220703,-1.5733089447021484
1683935928106665200,5.006665283203125,1.4861609935760498,0.4565458297729492,-1.4674973487854004
1683935928116706300,5.016706298828125,1.5154720544815063,0.21971511840820312,-1.6161198616027832
1683935928126747600,5.02674755859375,1.5344202518463135,0.7911252975463867,-1.3654046058654785
1683935928136788700,5.036788818359375,1.3404614925384521,0.9274230003356934,-1.0463850498199463
1683935928146829800,5.046829833984375,1.1014506816864014,0.7607016563415527,-0.6819586753845215
1683935928156871000,5.056870849609375,1.1362959146499634,0.6825385093688965,-0.5630393028259277
1683935928166912300,5.066912353515625,0.9401127099990845,0.5968647003173828,-0.5457320213317871
1683935928176953300,5.076953369140625,0.4251425266265869,0.4043569564819336,-0.46025753021240234
1683935928186994400,5.086994384765625,-0.01895308494567871,0.2209010124206543,-0.4180736541748047
1683935928197035800,5.097035888671875,-0.35019683837890625,0.11741256713867188,-0.4295005798339844
1683935928207076900,5.107076904296875,-1.140852928161621,0.6373209953308105,0.0588078498840332
1683935928217118000,5.117117919921875,-1.1394002437591553,0.7094507217407227,0.1452498435974121
1683935928227159000,5.127158935546875,-0.9493522644042969,-0.48955535888671875,-0.32285356521606445
1683935928237200400,5.137200439453125,-0.17496061325073242,-0.8648061752319336,-0.4888300895690918
1683935928247241500,5.147241455078125,0.41568970680236816,-0.7143592834472656,-0.30237627029418945
1683935928257282600,5.157282470703125,0.5998365879058838,-0.5999383926391602,-0.19170570373535156
1683935928267324000,5.167323974609375,0.7482646703720093,-1.6148290634155273,-0.825920581817627
1683935928277365000,5.177364990234375,1.1472541093826294,-0.940302848815918,-0.35592079162597656
1683935928287406000,5.187406005859375,0.7742999792098999,-0.39471435546875,-0.10061025619506836
1683935928297447200,5.197447265625,0.29393959045410156,-0.37729358673095703,-0.2914915084838867
1683935928307488500,5.207488525390625,0.05724191665649414,-0.31236743927001953,-0.5004329681396484
1683935928317529600,5.217529541015625,-0.09328126907348633,-0.0013570785522460938,-0.536348819732666
1683935928327570700,5.22757080078125,-0.18803644180297852,0.2823944091796875,-0.4621133804321289
1683935928337612000,5.237612060546875,-0.20515799522399902,0.3834395408630371,-0.37972164154052734
1683935928347653000,5.247653076171875,-0.22713470458984375,0.5997714996337891,-0.17667865753173828
1683935928357694200,5.257694091796875,-0.3272707462310791,0.6846580505371094,0.0030488967895507812
1683935928367735300,5.2677353515625,-0.3009774684906006,0.7719788551330566,0.22082233428955078
1683935928377776600,5.277776611328125,-0.2210240364074707,0.7871856689453125,0.5374026298522949
1683935928387817700,5.287817626953125,-0.15891551971435547,0.8401088714599609,0.7207088470458984
1683935928397858800,5.29785888671875,-0.28435850143432617,0.8634881973266602,0.8910880088806152
1683935928407900200,5.307900146484375,-0.21169185638427734,0.921999454498291,0.8377599716186523
1683935928417941200,5.317941162109375,-0.30461764335632324,0.9286932945251465,0.5588274002075195
1683935928427982300,5.327982421875,-0.5712404251098633,0.8181667327880859,0.2963838577270508
1683935928438023400,5.3380234375,-0.7595369815826416,0.7600383758544922,0.35502004623413086
1683935928448064800,5.348064697265625,-0.9749293327331543,0.5208225250244141,0.8963718414306641
1683935928458105900,5.35810595703125,-1.1919846534729004,2.902341842651367,2.367419719696045
1683935928468147000,5.36814697265625,-1.5194838047027588,0.524867057800293,0.7760915756225586
1683935928478188300,5.378188232421875,-1.0129342079162598,-1.2993841171264648,0.005688667297363281
1683935928488229400,5.3882294921875,-0.09216928482055664,-2.5457544326782227,-0.9286832809448242
1683935928498270500,5.3982705078125,1.188397765159607,-1.6337699890136719,-0.38847827911376953
1683935928508311600,5.4083115234375,1.8905932903289795,-0.4670991897583008,0.0502777099609375
1683935928518353000,5.418352783203125,1.7705669403076172,-0.4581336975097656,-0.15578269958496094
1683935928528394000,5.42839404296875,1.3360364437103271,-0.40700626373291016,-1.7338781356811523
1683935928538435000,5.43843505859375,0.8216109275817871,-0.4502296447753906,-2.316723585128784
1683935928548476400,5.448476318359375,0.11681818962097168,-0.49987220764160156,-1.69618821144104
1683935928558517500,5.458517578125,-0.7731118202209473,-0.46746349334716797,-1.0363247394561768
1683935928568558600,5.46855859375,-1.7665746212005615,-0.2952556610107422,-1.0618994235992432
1683935928578599700,5.478599609375,-2.5529110431671143,-0.4096717834472656,-0.786808967590332
1683935928588641000,5.48864111328125,-3.1891350746154785,-0.6248798370361328,-0.5778212547302246
1683935928598682000,5.49868212890625,-3.2489993572235107,-0.828094482421875,-0.036754608154296875
1683935928608723200,5.50872314453125,-2.59798002243042,-1.1149730682373047,0.3946113586425781
1683935928618764500,5.5187646484375,-1.3334887027740479,-1.3098974227905273,0.6684632301330566
1683935928628805600,5.5288056640625,0.034819841384887695,-1.9619636535644531,1.266523838043213
1683935928638846700,5.5388466796875,1.365347146987915,-2.064206123352051,1.8838739395141602
1683935928648887800,5.5488876953125,2.163541555404663,-2.101536750793457,1.933347225189209
1683935928658929200,5.55892919921875,2.5491225719451904,-1.749466896057129,1.1377830505371094
1683935928668970200,5.56897021484375,2.811244010925293,-1.067575454711914,-0.06363105773925781
1683935928679011300,5.57901123046875,2.37823748588562,1.1748361587524414,-1.1780893802642822
1683935928689052700,5.589052734375,2.3464362621307373,0.20994186401367188,-1.1397368907928467
1683935928699093800,5.59909375,1.9033257961273193,-2.698312759399414,-2.775599956512451
1683935928709134800,5.609134765625,1.7138946056365967,-1.016606330871582,-2.2661404609680176
1683935928719176000,5.619176025390625,1.509398341178894,0.43381786346435547,-2.326087236404419
1683935928729217300,5.62921728515625,0.9633997678756714,1.9027533531188965,-1.1129963397979736
1683935928739258400,5.63925830078125,0.24244928359985352,-0.17133140563964844,-2.0663933753967285
1683935928749299500,5.649299560546875,0.10867118835449219,-1.7787952423095703,-1.4956941604614258
1683935928759340500,5.659340576171875,0.2951667308807373,-0.4093647003173828,-0.9752445220947266
1683935928769382000,5.6693818359375,0.20288872718811035,0.5337047576904297,-0.7765889167785645
1683935928779423000,5.679423095703125,0.2859365940093994,0.9027729034423828,-0.4951057434082031
1683935928789464000,5.689464111328125,0.552855372428894,0.7036752700805664,-0.2864091396331787
1683935928799505400,5.69950537109375,0.8887369632720947,0.6492719650268555,0.012779474258422852
1683935928809546500,5.70954638671875,1.2316018342971802,0.5673627853393555,0.25417351722717285
1683935928819587600,5.719587646484375,1.5301764011383057,0.6112442016601562,0.4521024227142334
1683935928829628700,5.729628662109375,1.8046517372131348,0.5315542221069336,0.38308119773864746
1683935928839670000,5.739669921875,2.1124491691589355,0.45450782775878906,0.31585121154785156
1683935928849711000,5.749711181640625,2.3930132389068604,0.16887855529785156,0.43823838233947754
1683935928859752200,5.759752197265625,2.617781162261963,-0.29802703857421875,0.8197035789489746
1683935928869793500,5.76979345703125,2.8373560905456543,-0.3545970916748047,1.317289113998413
1683935928879834600,5.779834716796875,3.0127434730529785,-0.19617557525634766,1.6464879512786865
1683935928889875700,5.789875732421875,3.0018091201782227,-0.17432785034179688,1.8246145248413086
1683935928899916800,5.799916748046875,2.810732841491699,-0.3463706970214844,1.822251796722412
1683935928909958100,5.809958251953125,2.6524128913879395,-0.27073001861572266,1.8827061653137207
1683935928919999200,5.819999267578125,2.362546920776367,-0.11894893646240234,1.8669610023498535
1683935928930040300,5.830040283203125,1.8931653499603271,-0.32236385345458984,1.5645251274108887
1683935928940081700,5.84008154296875,1.3527034521102905,-0.5344963073730469,1.1584713459014893
1683935928950122800,5.850122802734375,0.7844076752662659,-0.6911344528198242,0.9002923965454102
1683935928960163800,5.860163818359375,0.2906644940376282,-0.7426900863647461,0.7094190120697021
1683935928970205000,5.870204833984375,0.027099967002868652,-0.5933351516723633,0.5338637828826904
1683935928980246300,5.880246337890625,0.2767031788825989,0.03802776336669922,-0.0233151912689209
1683935928990287400,5.890287353515625,0.5593703985214233,-0.24985027313232422,-0.4727499485015869
1683935929000328400,5.900328369140625,1.0357093811035156,-0.4882545471191406,-0.5923759937286377
1683935929010369800,5.910369873046875,1.2243852615356445,-1.50543212890625,-0.8259177207946777
1683935929020411000,5.920410888671875,2.0689749717712402,-0.4027976989746094,-1.1737728118896484
1683935929030452000,5.930451904296875,1.5597578287124634,-0.8188858032226562,-1.0047454833984375
1683935929040493000,5.9404931640625,1.3709983825683594,0.1226186752319336,-0.7671453952789307
1683935929050534400,5.950534423828125,0.5211803913116455,-0.11615180969238281,-0.4369368553161621
1683935929060575500,5.960575439453125,0.15005677938461304,0.4415760040283203,-0.2180774211883545
1683935929070616600,5.970616455078125,-0.5130547285079956,0.15233612060546875,-0.2658424377441406
1683935929080658000,5.980657958984375,-0.36099857091903687,0.6661052703857422,-0.299576997756958
1683935929090699000,5.990698974609375,-0.0987926572561264,0.3503885269165039,-0.08467793464660645
1683935929100740000,6.000739990234375,0.5753496289253235,0.5242996215820312,-0.21394991874694824
1683935929110781200,6.01078125,0.92717444896698,0.08963489532470703,-0.4387624263763428
1683935929120822500,6.020822509765625,0.9827144145965576,-0.5541095733642578,-0.5693962574005127
1683935929130863600,6.030863525390625,1.037960410118103,-0.5976762771606445,-0.6578691005706787
1683935929140904700,6.04090478515625,0.8406041860580444,-0.5235490798950195,-0.6135556697845459
1683935929150946000,6.050946044921875,0.4247610569000244,-0.39977169036865234,-0.3322181701660156
1683935929160987100,6.060987060546875,0.02359098196029663,0.05483055114746094,-0.029389619827270508
1683935929171028200,6.0710283203125,-0.2960539162158966,0.4176015853881836,0.3678305149078369
1683935929181069300,6.0810693359375,-0.3765867352485657,0.20732593536376953,0.8208556175231934
1683935929191110700,6.091110595703125,0.08047395944595337,1.2543840408325195,0.3125617504119873
1683935929201151700,6.10115185546875,0.39295268058776855,0.44814300537109375,0.8598017692565918
1683935929211192800,6.11119287109375,0.596468985080719,0.058487892150878906,0.8469440937042236
1683935929221234200,6.121234130859375,0.6953591704368591,-0.17642879486083984,0.7798833847045898
1683935929231275300,6.131275146484375,0.7243536710739136,-0.2922487258911133,0.8305935859680176
1683935929241316400,6.14131640625,0.7123907804489136,0.05875968933105469,0.9231655597686768
1683935929251357400,6.151357421875,0.40047526359558105,0.3928194046020508,0.47534847259521484
1683935929261398800,6.161398681640625,0.13797235488891602,0.767582893371582,-0.12388467788696289
1683935929271440000,6.17143994140625,-0.014399528503417969,0.856658935546875,-0.3508732318878174
1683935929281481000,6.18148095703125,0.14351922273635864,0.3297309875488281,-0.662395715713501
1683935929291522300,6.191522216796875,0.37435007095336914,0.4015798568725586,-0.7491903305053711
1683935929301563400,6.2015634765625,0.5292302966117859,0.29305458068847656,-0.6636590957641602
1683935929311604500,6.2116044921875,0.21497207880020142,1.9171242713928223,0.390639066696167
1683935929321645600,6.2216455078125,-0.15315520763397217,-0.9087696075439453,-0.978050708770752
1683935929331687000,6.23168701171875,0.15191560983657837,-1.2758207321166992,-0.7937242984771729
1683935929341728000,6.24172802734375,0.5208494663238525,0.7543735504150391,-1.1407010555267334
1683935929351769000,6.25176904296875,-0.022953152656555176,1.993945598602295,0.7575359344482422
1683935929361810400,6.261810546875,-0.5577626824378967,0.21561145782470703,0.445556640625
1683935929371851500,6.2718515625,-0.42963922023773193,-1.1415767669677734,0.2529284954071045
1683935929381892600,6.281892578125,0.05510972440242767,-1.377518653869629,0.03576350212097168
1683935929391934000,6.291933837890625,0.5190172791481018,-1.1642608642578125,0.08596372604370117
1683935929401975000,6.30197509765625,0.7227078080177307,-0.8218231201171875,-0.11222052574157715
1683935929412016000,6.31201611328125,0.6984063982963562,-0.7812290191650391,-0.3483445644378662
1683935929422057200,6.32205712890625,0.28888577222824097,-1.7430267333984375,-0.13006162643432617
1683935929432098600,6.3320986328125,0.8291834592819214,-0.4338827133178711,-1.5105268955230713
1683935929442139600,6.3421396484375,0.9555764198303223,-0.5407686233520508,-0.7837553024291992
1683935929452180700,6.3521806640625,0.7116289138793945,-0.3672313690185547,-0.3256561756134033
1683935929462222000,6.36222216796875,0.8049379587173462,0.6257438659667969,0.3032400608062744
1683935929472263200,6.37226318359375,0.28843170404434204,-0.37721729278564453,-0.0032362937927246094
1683935929482304300,6.38230419921875,0.35717302560806274,-0.6816482543945312,0.33704304695129395
1683935929492345300,6.392345458984375,0.469342976808548,-0.41829395294189453,0.7175321578979492
1683935929502386700,6.40238671875,0.4684116840362549,-0.17641925811767578,0.7690675258636475
1683935929512427800,6.412427734375,0.5903539657592773,-0.08474063873291016,0.8283147811889648
1683935929522468900,6.42246875,0.6023025512695312,-0.17128562927246094,0.8220829963684082
1683935929532510200,6.43251025390625,0.3498935401439667,-0.3406562805175781,0.7407000064849854
1683935929542551300,6.44255126953125,0.4843551516532898,0.5549354553222656,0.03435039520263672
1683935929552592400,6.45259228515625,0.5003722906112671,-0.03822135925292969,0.01570725440979004
1683935929562633500,6.462633544921875,0.46507006883621216,-0.2070322036743164,0.14547157287597656
1683935929572674800,6.4726748046875,0.4176417291164398,-0.31560325622558594,0.09673595428466797
1683935929582716000,6.4827158203125,0.1703866720199585,-0.3828115463256836,0.001046895980834961
1683935929592757000,6.492757080078125,0.23193702101707458,-0.17670536041259766,-0.4100813865661621
1683935929602798300,6.50279833984375,0.1696280837059021,-0.9472217559814453,-0.1511094570159912
1683935929612839400,6.51283935546875,0.19977319240570068,-0.8045730590820312,0.2630007266998291
1683935929622880500,6.522880615234375,0.29838499426841736,-0.4309091567993164,0.4680488109588623
1683935929632921600,6.532921630859375,0.40642210841178894,-0.13994598388671875,0.5735864639282227
1683935929642963000,6.542962890625,0.6079601049423218,0.08843231201171875,0.658627986907959
1683935929653004000,6.553004150390625,1.1398581266403198,1.3219738006591797,0.7766110897064209
1683935929663045000,6.563045166015625,0.9616250991821289,0.6792430877685547,1.258089542388916
1683935929673086500,6.57308642578125,0.9613804817199707,0.40093135833740234,1.230661392211914
1683935929683127600,6.58312744140625,1.1158127784729004,0.2666740417480469,0.9457910060882568
1683935929693168600,6.593168701171875,1.1949594020843506,0.15338897705078125,0.6784703731536865
1683935929703209700,6.603209716796875,1.173876404762268,0.14575958251953125,0.4947628974914551
1683935929713251000,6.6132509765625,1.1361647844314575,0.5010709762573242,0.624730110168457
1683935929723292200,6.623292236328125,0.9132119417190552,0.4677000045776367,0.5822310447692871
1683935929733333200,6.633333251953125,0.6252487897872925,0.533477783203125,0.5583512783050537
1683935929743374600,6.64337451171875,0.45021504163742065,0.44765186309814453,0.5047810077667236
1683935929753415700,6.653415771484375,0.36772671341896057,0.37316131591796875,0.528207540512085
1683935929763456800,6.663456787109375,0.3925580084323883,0.3172025680541992,0.5743277072906494
1683935929773497900,6.673497802734375,0.5286605954170227,0.3324432373046875,0.6840741634368896
1683935929783539200,6.683539306640625,0.689610481262207,0.39954090118408203,0.8563685417175293
1683935929793580300,6.693580322265625,0.7696866393089294,0.34378719329833984,0.9274983406066895
1683935929803621400,6.703621337890625,0.8347565531730652,0.29897499084472656,0.9829397201538086
1683935929813662700,6.713662841796875,0.9474427103996277,0.09598255157470703,0.8837771415710449
1683935929823703800,6.723703857421875,1.1492562294006348,0.13359737396240234,0.7132546901702881
1683935929833745000,6.733744873046875,1.2207260131835938,0.08033466339111328,0.789548397064209
1683935929843786200,6.7437861328125,1.1357351541519165,-0.011804580688476562,0.9419431686401367
1683935929853827300,6.753827392578125,1.026072382926941,0.2141275405883789,1.0102825164794922
1683935929863868400,6.763868408203125,0.9387917518615723,0.46955204010009766,0.971278190612793
1683935929873909500,6.773909423828125,0.7504852414131165,0.5365753173828125,0.7780895233154297
1683935929883950800,6.783950927734375,0.5408229827880859,0.5206260681152344,0.5550239086151123
1683935929893992000,6.793991943359375,0.3131001591682434,0.34810638427734375,0.28900623321533203
1683935929904033000,6.804032958984375,0.24123327434062958,0.16558361053466797,0.08757734298706055
1683935929914074400,6.814074462890625,0.3037288188934326,-0.040771484375,-0.09708285331726074
1683935929924115500,6.824115478515625,0.17425373196601868,-0.5105857849121094,-0.19739723205566406
1683935929934156500,6.834156494140625,0.44705814123153687,-0.23152828216552734,-0.5945886373519897
1683935929944197600,6.84419775390625,0.7083812952041626,-0.13951873779296875,-0.7510592937469482
1683935929954239000,6.854239013671875,0.9140793085098267,-0.33075428009033203,-0.9428496360778809
1683935929964280000,6.864280029296875,1.087781310081482,-0.3170013427734375,-0.8274881839752197
1683935929974321200,6.874321044921875,1.0842211246490479,-0.2650032043457031,-0.5141118764877319
1683935929984362500,6.884362548828125,1.0296697616577148,-0.18106651306152344,-0.33841490745544434
1683935929994403600,6.894403564453125,0.920488715171814,-0.013353347778320312,-0.11652231216430664
1683935930004444700,6.904444580078125,0.832534670829773,0.2017955780029297,0.10459208488464355
1683935930014485800,6.91448583984375,0.7976379990577698,0.36387157440185547,0.29791879653930664
1683935930024527000,6.924527099609375,0.6739515066146851,0.47986316680908203,0.5221786499023438
1683935930034568200,6.934568115234375,0.4734063148498535,0.5992641448974609,0.6863462924957275
1683935930044609300,6.944609375,0.2554556727409363,0.7381687164306641,0.8839371204376221
1683935930054650600,6.954650634765625,0.010908931493759155,0.9220924377441406,1.1142313480377197
1683935930064691700,6.964691650390625,-0.32262781262397766,1.0738677978515625,1.331322431564331
1683935930074732800,6.97473291015625,-0.7500838041305542,1.0073232650756836,1.4448492527008057
1683935930084774100,6.984774169921875,-1.209153413772583,0.689875602722168,1.3615977764129639
1683935930094815200,6.994815185546875,-1.6064987182617188,0.38733768463134766,1.2005493640899658
1683935930104856300,7.004856201171875,-1.9163964986801147,0.08976078033447266,1.155088186264038
1683935930114897700,7.014897705078125,-1.9733375310897827,-0.07687664031982422,1.2025794982910156
1683935930124938800,7.024938720703125,-1.8686952590942383,-0.32773685455322266,1.187483787536621
1683935930134979800,7.034979736328125,-1.7961026430130005,-0.5859746932983398,1.1225330829620361
1683935930145021000,7.04502099609375,-1.6318821907043457,-0.6612844467163086,1.1573560237884521
1683935930155062300,7.055062255859375,-1.3642488718032837,-0.6152887344360352,1.2878215312957764
1683935930165103400,7.065103271484375,-1.2143840789794922,-0.7020130157470703,1.1689841747283936
1683935930175144400,7.07514453125,-1.0696535110473633,-0.7584800720214844,0.9604089260101318
1683935930185185800,7.085185791015625,-1.0628279447555542,-0.9481639862060547,0.44957566261291504
1683935930195227000,7.095226806640625,-0.9783095121383667,-1.0428276062011719,0.2324819564819336
1683935930205268000,7.10526806640625,-0.887192964553833,-1.0996437072753906,0.06759405136108398
1683935930215309000,7.11530908203125,-0.5534114837646484,-1.1548070907592773,-0.24969244003295898
1683935930225350400,7.125350341796875,-0.23613131046295166,-1.2691221237182617,-0.7174475193023682
1683935930235391500,7.1353916015625,0.12818694114685059,-1.3479795455932617,-0.9756255149841309
1683935930245432600,7.1454326171875,0.4002227783203125,-1.139267921447754,-0.8160462379455566
1683935930255474000,7.155473876953125,0.6129598617553711,-0.7220087051391602,-0.43134307861328125
1683935930265515000,7.165514892578125,0.8777565956115723,-0.3260974884033203,-0.02511763572692871
1683935930275556000,7.17555615234375,1.143033504486084,0.05392646789550781,0.284806489944458
1683935930285597200,7.18559716796875,1.3951151371002197,0.3669319152832031,0.387831449508667
1683935930295638500,7.195638427734375,1.563295841217041,0.6033859252929688,0.4207768440246582
1683935930305679600,7.2056796875,1.7313287258148193,0.7494421005249023,0.38700032234191895
1683935930315720700,7.215720703125,2.051358938217163,0.8895339965820312,0.48134827613830566
1683935930325762000,7.225761962890625,2.3533971309661865,0.9598507881164551,0.6956253051757812
1683935930335803100,7.23580322265625,2.5045814514160156,0.84783935546875,0.6325700283050537
1683935930345844200,7.24584423828125,2.498267889022827,0.6805639266967773,0.33624768257141113
1683935930355885600,7.255885498046875,2.3491146564483643,0.4252767562866211,0.037961721420288086
1683935930365926700,7.2659267578125,2.127336025238037,0.17815208435058594,-0.27271556854248047
1683935930375967700,7.2759677734375,1.922804355621338,0.1479930877685547,-0.425412654876709
1683935930386008800,7.2860087890625,1.5959312915802002,0.21346759796142578,-0.41466736793518066
1683935930396050200,7.29605029296875,1.3057868480682373,-0.0054759979248046875,-0.5600824356079102
1683935930406091300,7.30609130859375,1.0228748321533203,-0.20119762420654297,-0.7905735969543457
1683935930416132400,7.31613232421875,0.7400312423706055,-0.13850021362304688,-0.8417830467224121
1683935930426173700,7.326173583984375,0.5500467419624329,-0.1154327392578125,-0.899519681930542
1683935930436214800,7.33621484375,0.21866655349731445,-0.2721290588378906,-1.0717389583587646
1683935930446255900,7.346255859375,-0.15824604034423828,-0.19221782684326172,-0.9970226287841797
1683935930456297000,7.356296875,-0.36667871475219727,-0.37064361572265625,-1.0140178203582764
1683935930466338300,7.36633837890625,-0.3994334936141968,-0.47270965576171875,-1.180145263671875
1683935930476379400,7.37637939453125,-0.30721962451934814,-0.5964336395263672,-1.322969913482666
1683935930486420500,7.38642041015625,-0.2529348134994507,-0.6953248977661133,-1.251166582107544
1683935930496461800,7.3964619140625,-0.2943819761276245,-0.7103147506713867,-1.1434309482574463
1683935930506503000,7.4065029296875,-0.3470797538757324,-0.6257152557373047,-1.103172779083252
1683935930516544000,7.4165439453125,-0.3496209383010864,-0.545039176940918,-1.0560107231140137
1683935930526585000,7.426585205078125,-0.2771259546279907,-0.5431365966796875,-0.8878598213195801
1683935930536626400,7.43662646484375,-0.21927332878112793,-0.5919017791748047,-0.7744531631469727
1683935930546667500,7.44666748046875,-0.20084941387176514,-0.6127805709838867,-0.7119307518005371
1683935930556708600,7.45670849609375,-0.15925109386444092,-0.6250715255737305,-0.717736005783081
1683935930566750000,7.46675,-0.09144794940948486,-0.5739383697509766,-0.6777000427246094
1683935930576791000,7.476791015625,-0.022174954414367676,-0.45690155029296875,-0.7397463321685791
1683935930586832100,7.48683203125,0.03897273540496826,-0.3524188995361328,-0.7975442409515381
1683935930596873500,7.49687353515625,0.1024925708770752,-0.20735931396484375,-0.9022872447967529
1683935930606914600,7.50691455078125,0.12391817569732666,-0.08823204040527344,-0.9787070751190186
1683935930616955600,7.51695556640625,0.1326833963394165,-0.009052276611328125,-0.9951915740966797
1683935930626997000,7.5269970703125,0.15721845626831055,0.0780487060546875,-0.892291784286499
1683935930637038000,7.5370380859375,0.09628117084503174,0.13491535186767578,-0.7588338851928711
1683935930647079200,7.5470791015625,0.01593625545501709,0.18316078186035156,-0.5903763771057129
1683935930657120300,7.557120361328125,-0.07513225078582764,0.16785717010498047,-0.3586921691894531
1683935930667161600,7.56716162109375,-0.16274166107177734,0.1488046646118164,-0.10233354568481445
1683935930677202700,7.57720263671875,-0.10975515842437744,0.15485095977783203,0.06941461563110352
1683935930687243800,7.587243896484375,0.08003532886505127,0.1313495635986328,0.19120359420776367
1683935930697285000,7.59728515625,0.38360440731048584,0.15993213653564453,0.23789405822753906
1683935930707326200,7.607326171875,0.6801965236663818,0.2068309783935547,0.31000185012817383
1683935930717367300,7.6173671875,0.8556963205337524,0.25253963470458984,0.36638545989990234
1683935930727408400,7.627408447265625,0.903926432132721,0.3608236312866211,0.37424278259277344
1683935930737449700,7.63744970703125,0.8285285234451294,0.4282541275024414,0.3529500961303711
1683935930747490800,7.64749072265625,0.8096247911453247,0.4285430908203125,0.17927217483520508
1683935930757532000,7.657531982421875,0.7827408909797668,0.40258121490478516,0.05608701705932617
1683935930767573200,7.6675732421875,0.646294355392456,0.3098154067993164,-0.11909723281860352
1683935930777614300,7.6776142578125,0.4616858959197998,0.15785598754882812,-0.3659172058105469
1683935930787655400,7.687655517578125,0.3331109285354614,-0.04560661315917969,-0.7372651100158691
1683935930797696800,7.69769677734375,0.23087799549102783,-0.130706787109375,-1.002791166305542
1683935930807737900,7.70773779296875,0.0894160270690918,-0.07622337341308594,-1.2107982635498047
1683935930817779000,7.717779052734375,0.01585829257965088,-0.10202217102050781,-1.3428165912628174
1683935930827820000,7.727820068359375,-0.05646085739135742,-0.13362789154052734,-1.4063289165496826
1683935930837861400,7.737861328125,-0.046260952949523926,-0.1997528076171875,-1.3633506298065186
1683935930847902500,7.74790234375,-0.08096790313720703,-0.26694297790527344,-1.368936538696289
1683935930857943600,7.757943603515625,-0.26614248752593994,-0.27338314056396484,-1.3130691051483154
1683935930867985000,7.76798486328125,-0.514349102973938,-0.3894824981689453,-1.0822479724884033
1683935930878026000,7.77802587890625,-0.6442668437957764,-0.40531253814697266,-0.8236250877380371
1683935930888067000,7.788067138671875,-0.46246767044067383,-0.2994041442871094,-0.5684847831726074
1683935930898108200,7.798108154296875,-0.09273123741149902,-0.10957145690917969,-0.3140721321105957
1683935930908149500,7.8081494140625,0.1433330774307251,0.10236454010009766,-0.21014165878295898
1683935930918190600,7.818190673828125,0.18328386545181274,0.3482789993286133,-0.10768890380859375
1683935930928231700,7.828231689453125,0.08057379722595215,0.5103597640991211,-0.028728485107421875
1683935930938273000,7.83827294921875,-0.06134474277496338,0.5857868194580078,0.045397281646728516
1683935930948314000,7.848314208984375,-0.1801595687866211,0.531764030456543,-0.02091360092163086
1683935930958355200,7.858355224609375,-0.3062053918838501,0.4133281707763672,-0.09779548645019531
1683935930968396500,7.868396484375,-0.2745628356933594,0.3719339370727539,-0.06563282012939453
1683935930978437600,7.878437744140625,-0.06592369079589844,0.3483390808105469,-0.017502307891845703
1683935930988478700,7.888478759765625,0.09944409132003784,0.19483661651611328,0.06598711013793945
1683935930998520000,7.89852001953125,0.12269425392150879,-0.17929363250732422,0.24856948852539062
1683935931008561200,7.90856103515625,-0.018060386180877686,-0.6142301559448242,0.4712486267089844
1683935931018602200,7.918602294921875,-0.24556398391723633,-1.0362815856933594,0.6090326309204102
1683935931028643300,7.928643310546875,-0.552099347114563,-1.385361671447754,0.5752773284912109
1683935931038684700,7.9386845703125,-1.1943650245666504,-1.5321063995361328,0.3297123908996582
1683935931048725800,7.948725830078125,-2.4245498180389404,-1.6709766387939453,0.23387575149536133
1683935931058766800,7.958766845703125,-3.6600308418273926,-1.8166561126708984,0.8108482360839844
1683935931068808200,7.96880810546875,-3.7643015384674072,-1.8333024978637695,1.716700553894043
1683935931078849300,7.978849365234375,-2.140580654144287,-1.5718135833740234,2.1658883094787598
1683935931088890400,7.988890380859375,-0.025776565074920654,-1.1305732727050781,2.036292552947998
1683935931098931500,7.998931396484375,1.3108203411102295,-0.6937875747680664,1.7656512260437012
1683935931108972800,8.008972900390624,1.6749110221862793,-0.25901126861572266,1.4949750900268555
1683935931119014000,8.019013916015625,1.6329742670059204,0.23336410522460938,0.8779687881469727
1683935931129055000,8.029054931640625,1.4603734016418457,0.5987377166748047,0.08696889877319336
1683935931139096300,8.039096435546876,1.2225115299224854,0.7175197601318359,-0.5056524276733398
1683935931149137400,8.049137451171875,0.9151053428649902,0.5113077163696289,-0.9772822856903076
1683935931159178500,8.059178466796874,0.545383095741272,0.2157888412475586,-1.3029897212982178
1683935931169219800,8.0692197265625,0.27884045243263245,-0.03839111328125,-1.492619276046753
1683935931179261000,8.079260986328125,0.26975083351135254,-0.1640033721923828,-1.5607080459594727
1683935931189302000,8.089302001953126,0.45899850130081177,-0.2277507781982422,-1.429734706878662
1683935931199343000,8.099343017578125,0.6803885698318481,-0.1363983154296875,-1.2660229206085205
1683935931209384400,8.109384521484374,0.8447151780128479,-0.07206916809082031,-1.1315302848815918
1683935931219425500,8.119425537109375,0.8563308715820312,0.027126312255859375,-0.9786546230316162
1683935931229466600,8.129466552734375,0.8019928932189941,0.06509685516357422,-0.8705236911773682
1683935931239508000,8.139508056640626,0.7908386588096619,0.08911418914794922,-0.6462111473083496
1683935931249549000,8.149549072265625,0.8880263566970825,0.1033487319946289,-0.372173547744751
1683935931259590100,8.159590087890624,1.1007829904556274,0.12902164459228516,-0.23340058326721191
1683935931269631200,8.16963134765625,1.2524375915527344,0.2186441421508789,-0.2059187889099121
1683935931279672600,8.179672607421875,1.3605287075042725,0.2598686218261719,-0.21784567832946777
1683935931289713700,8.189713623046876,1.4458224773406982,0.2575397491455078,-0.29546475410461426
1683935931299755000,8.199755126953125,1.4701159000396729,0.21871662139892578,-0.3482658863067627
1683935931309796000,8.209796142578124,1.3653125762939453,0.21494579315185547,-0.44339466094970703
1683935931319837200,8.219837158203125,1.1448462009429932,0.22930335998535156,-0.5545649528503418
1683935931329878300,8.229878173828125,0.7938472032546997,0.22119903564453125,-0.6455864906311035
1683935931339919600,8.239919677734376,0.4458402991294861,0.18808650970458984,-0.6214127540588379
1683935931349960700,8.249960693359375,0.25988733768463135,0.008286476135253906,-0.6016027927398682
1683935931360001800,8.260001708984374,0.09285075962543488,-0.18149185180664062,-0.5785105228424072
1683935931370043100,8.270043212890625,-0.005486985668540001,-0.3213319778442383,-0.5278720855712891
1683935931380084200,8.280084228515625,-0.09805074334144592,-0.39937686920166016,-0.5046489238739014
1683935931390125300,8.290125244140626,-0.19692453742027283,-0.3487434387207031,-0.5537464618682861
1683935931400166400,8.30016650390625,-0.29390496015548706,-0.28159046173095703,-0.5975909233093262
1683935931410207700,8.310207763671874,-0.33735811710357666,-0.20022869110107422,-0.5237841606140137
1683935931420248800,8.320248779296875,-0.2638038694858551,-0.07364177703857422,-0.4641306400299072
1683935931430290000,8.3302900390625,-0.03723321855068207,-0.045196533203125,-0.3422515392303467
1683935931440331300,8.340331298828126,0.3174433708190918,-0.04071331024169922,-0.256544828414917
1683935931450372400,8.350372314453125,0.6244956851005554,-0.09580230712890625,-0.1874234676361084
1683935931460413400,8.360413330078124,0.7948293089866638,-0.2077322006225586,-0.1319279670715332
1683935931470454800,8.370454833984375,0.8375855684280396,-0.33136463165283203,-0.11964964866638184
1683935931480495900,8.380495849609375,0.7809076309204102,-0.30471134185791016,-0.19457268714904785
1683935931490537000,8.390536865234376,0.7295873761177063,-0.31456851959228516,-0.3234219551086426
1683935931500578000,8.400578125,0.6900579333305359,-0.17249011993408203,-0.4089169502258301
1683935931510619400,8.410619384765624,0.6852282285690308,-0.09845733642578125,-0.5105018615722656
1683935931520660500,8.420660400390625,0.6573125123977661,-0.17975521087646484,-0.6351754665374756
1683935931530701600,8.43070166015625,0.6443926095962524,-0.18898296356201172,-0.6319952011108398
1683935931540743000,8.440742919921876,0.6365886330604553,-0.1555500030517578,-0.5720069408416748
1683935931550784000,8.450783935546875,0.6105737686157227,-0.29669189453125,-0.5957770347595215
1683935931560825000,8.4608251953125,0.6225891709327698,-0.4296875,-0.541090726852417
1683935931570866400,8.470866455078125,0.5919468402862549,-0.501378059387207,-0.5115237236022949
1683935931580907500,8.480907470703125,0.5871447324752808,-0.18233108520507812,-0.4661388397216797
1683935931590948600,8.490948486328126,0.4823129177093506,-0.013425827026367188,-0.35064244270324707
1683935931600990000,8.500989990234375,0.44028526544570923,0.045833587646484375,-0.10727095603942871
1683935931611031000,8.511031005859374,0.4484529495239258,-0.2024059295654297,0.07723617553710938
1683935931621072100,8.521072021484375,0.4970734119415283,-0.3038330078125,0.18809819221496582
1683935931631113200,8.53111328125,0.5770938992500305,-0.2733955383300781,0.24659156799316406
1683935931641154600,8.541154541015626,0.6604537963867188,-0.17323017120361328,0.30425095558166504
1683935931651195600,8.551195556640625,0.7136114239692688,-0.005919456481933594,0.3229184150695801
1683935931661236700,8.56123681640625,0.7571211457252502,0.17306900024414062,0.40418362617492676
1683935931671278000,8.571278076171875,0.727465808391571,0.485626220703125,0.44014644622802734
1683935931681319200,8.581319091796875,0.6576093435287476,0.5813350677490234,0.5261824131011963
1683935931691360300,8.5913603515625,0.6040502786636353,0.6168022155761719,0.6750731468200684
1683935931701401600,8.601401611328125,0.5541478395462036,0.4915914535522461,0.806952714920044
1683935931711442700,8.611442626953124,0.5014911890029907,0.4645671844482422,0.9346473217010498
1683935931721483800,8.62148388671875,0.4778236746788025,0.5121850967407227,0.9738495349884033
1683935931731525000,8.631525146484375,0.41762804985046387,0.6378879547119141,0.7873754501342773
1683935931741566200,8.641566162109376,0.4003739356994629,0.6851158142089844,0.6056573390960693
1683935931751607300,8.651607177734375,0.3754507303237915,0.6879043579101562,0.4468536376953125
1683935931761648400,8.6616484375,0.37164419889450073,0.8570241928100586,0.21989130973815918
1683935931771689700,8.671689697265625,0.36851680278778076,0.9821872711181641,-0.08167338371276855
1683935931781730800,8.681730712890625,0.3807920813560486,0.7027788162231445,-0.03307175636291504
1683935931791772000,8.69177197265625,0.3380255103111267,0.2608623504638672,0.012935400009155273
1683935931801813200,8.701813232421875,0.29398876428604126,-0.06799697875976562,0.014653682708740234
1683935931811854300,8.711854248046874,0.25835227966308594,-0.09960079193115234,-0.05938982963562012
1683935931821895400,8.7218955078125,0.2801799774169922,0.11256885528564453,0.005615949630737305
1683935931831936800,8.731936767578125,0.321977436542511,0.45493030548095703,0.1000220775604248
1683935931841977900,8.741977783203126,0.34027916193008423,0.6574392318725586,0.24582409858703613
1683935931852019000,8.75201904296875,0.3259831666946411,0.7270059585571289,0.5507111549377441
1683935931862060000,8.76206005859375,0.2934730648994446,0.7704715728759766,0.7843821048736572
1683935931872101400,8.772101318359375,0.21653693914413452,0.9097270965576172,0.8086709976196289
1683935931882142500,8.782142578125,0.10582947731018066,0.9854898452758789,0.7426314353942871
1683935931892183600,8.79218359375,-0.011246442794799805,1.031743049621582,0.65008544921875
1683935931902225000,8.802224853515625,-0.14110517501831055,0.8176717758178711,0.5837891101837158
1683935931912266000,8.812265869140624,-0.23115110397338867,0.6383523941040039,0.6572518348693848
1683935931922307000,8.82230712890625,-0.2667858600616455,0.062206268310546875,1.0059983730316162
1683935931932348400,8.832348388671875,-0.3017016053199768,-0.5705480575561523,1.307349443435669
1683935931942389500,8.842389404296876,-0.323613703250885,-1.0054655075073242,1.4842395782470703
1683935931952430600,8.8524306640625,-0.3674253225326538,-1.1900367736816406,1.355130910873413
1683935931962472000,8.862471923828124,-0.3775990605354309,-1.225356101989746,1.2001020908355713
1683935931972513000,8.872512939453125,-0.34537482261657715,-1.1074352264404297,0.9322795867919922
1683935931982554000,8.88255419921875,-0.2852267026901245,-0.7172632217407227,0.6379377841949463
1683935931992595200,8.89259521484375,-0.19186615943908691,-0.20176315307617188,0.4345667362213135
1683935932002636500,8.902636474609375,-0.11922824382781982,0.29032039642333984,0.28449392318725586
1683935932012677600,8.912677734375,-0.0680152177810669,0.5084371566772461,0.18017077445983887
1683935932022718700,8.92271875,0.03590202331542969,0.5494661331176758,0.21816062927246094
1683935932032760000,8.932760009765625,0.12985408306121826,0.14682674407958984,0.4322199821472168
1683935932042801200,8.94280126953125,0.2632550001144409,0.5284509658813477,0.5334353446960449
1683935932052842200,8.95284228515625,0.3326364755630493,0.9020557403564453,0.43782925605773926
1683935932062883600,8.962883544921874,0.3761371374130249,0.3848114013671875,0.664391040802002
1683935932072924700,8.972924560546875,0.4344632625579834,0.08426570892333984,0.9651463031768799
1683935932082965800,8.9829658203125,0.5289410352706909,0.23054027557373047,1.0796589851379395
1683935932093006800,8.9930068359375,0.5301796197891235,0.5524988174438477,1.0613667964935303
1683935932103048200,9.003048095703125,0.5465983152389526,0.7823781967163086,1.0167255401611328
1683935932113089300,9.01308935546875,0.5874196290969849,0.9156522750854492,1.072481393814087
1683935932123130600,9.023130615234376,0.5649935603141785,0.8950061798095703,1.2104783058166504
1683935932133171700,9.033171630859375,0.5789800882339478,0.7303485870361328,1.3199131488800049
1683935932143212800,9.043212890625,0.5564536452293396,0.5440568923950195,1.4465422630310059
1683935932153254000,9.05325390625,0.5608491897583008,0.2839193344116211,1.5358734130859375
1683935932163295200,9.063295166015624,0.5851638913154602,0.22237491607666016,1.650029182434082
1683935932173336300,9.07333642578125,0.6274812817573547,0.08853530883789062,1.839371681213379
1683935932183377400,9.08337744140625,0.6809619069099426,-0.09653759002685547,2.0464630126953125
1683935932193418800,9.093418701171874,0.8335486650466919,-0.26174259185791016,2.1902289390563965
1683935932203459800,9.1034599609375,0.9577940106391907,-0.5267324447631836,2.186868190765381
1683935932213501000,9.1135009765625,1.0014861822128296,-1.0705890655517578,2.2987606525421143
1683935932223542300,9.123542236328126,1.0157239437103271,-1.6566247940063477,2.4525201320648193
1683935932233583400,9.133583251953125,0.9912052750587463,-2.1179561614990234,2.429827928543091
1683935932243624400,9.14362451171875,0.8650804758071899,-2.1711416244506836,2.1732943058013916
1683935932253665800,9.153665771484375,0.603272020816803,-1.8746528625488281,1.5885915756225586
1683935932263707000,9.163706787109374,0.19521886110305786,-1.5715246200561523,0.6609756946563721
1683935932273748000,9.173748046875,-0.23616379499435425,-1.5638456344604492,-0.14208674430847168
1683935932283789000,9.1837890625,-0.6181218028068542,-1.6879472732543945,-0.7369880676269531
1683935932293830400,9.193830322265624,-1.1605641841888428,-1.8824272155761719,-1.2706681489944458
1683935932303871500,9.20387158203125,-3.778809070587158,-1.895817756652832,-2.3506600856781006
1683935932313912600,9.21391259765625,-5.703540802001953,-1.6345500946044922,-2.9840548038482666
1683935932323954000,9.223953857421876,-6.318161964416504,-1.3963851928710938,-3.205893039703369
1683935932333995000,9.2339951171875,-4.747622489929199,-1.0722036361694336,-2.881026029586792
1683935932344036000,9.2440361328125,-1.7504479885101318,-0.1924419403076172,-2.320307731628418
1683935932354077400,9.254077392578125,0.6061176657676697,0.4582986831665039,-1.7135119438171387
1683935932364118500,9.264118408203124,1.9318121671676636,0.8143854141235352,-1.408477783203125
1683935932374159600,9.27415966796875,2.045233964920044,0.9796333312988281,-0.9214656352996826
1683935932384200700,9.28420068359375,1.6998820304870605,0.9983224868774414,-0.36127495765686035
1683935932394242000,9.294241943359374,1.2246429920196533,1.0926828384399414,0.0005412101745605469
1683935932404283100,9.304283203125,0.7971886396408081,1.1437959671020508,0.22198987007141113
1683935932414324500,9.314324462890625,0.6083901524543762,1.031362533569336,0.3853919506072998
1683935932424365600,9.324365478515626,0.7769688367843628,0.815159797668457,0.44621706008911133
1683935932434406700,9.33440673828125,1.1637057065963745,0.4240436553955078,0.4234426021575928
1683935932444447700,9.34444775390625,1.5586259365081787,-0.0072574615478515625,0.32416820526123047
1683935932454489000,9.354489013671875,1.8920972347259521,-0.30840206146240234,0.13797283172607422
1683935932464530200,9.3645302734375,2.100724697113037,-0.634343147277832,-0.015380620956420898
1683935932474571300,9.3745712890625,2.1127848625183105,-0.8817911148071289,-0.21754789352416992
1683935932484612600,9.384612548828125,2.0082240104675293,-1.0408096313476562,-0.4616692066192627
1683935932494653700,9.39465380859375,1.8439494371414185,-1.1879682540893555,-0.5438387393951416
1683935932504694800,9.40469482421875,1.6062854528427124,-1.1939687728881836,-0.6392176151275635
1683935932514736000,9.414736083984375,1.646392583847046,-0.9742851257324219,-0.8121740818023682
1683935932524777200,9.424777099609376,1.7665976285934448,-0.6213455200195312,-1.0261545181274414
1683935932534818300,9.434818359375,1.7374076843261719,-0.3995647430419922,-1.1923680305480957
1683935932544859600,9.444859619140624,1.5058549642562866,-0.2753868103027344,-1.1694164276123047
1683935932554900700,9.454900634765625,1.0652443170547485,-0.18748950958251953,-1.1209838390350342
1683935932564941800,9.46494189453125,0.7014077305793762,-0.0744638442993164,-1.150454044342041
1683935932574983200,9.474983154296876,0.5700136423110962,0.04932689666748047,-1.228811264038086
1683935932585024300,9.485024169921875,0.6146746873855591,0.1506948471069336,-1.3223042488098145
1683935932595065300,9.4950654296875,0.701579213142395,0.23293018341064453,-1.4943182468414307
1683935932605106400,9.5051064453125,0.7174685001373291,0.27964115142822266,-1.6083195209503174
1683935932615147800,9.515147705078125,0.6279882192611694,0.23777198791503906,-1.6008985042572021
1683935932625188900,9.52518896484375,0.38078951835632324,0.1445779800415039,-1.5816009044647217
1683935932635230000,9.53522998046875,-0.006057262420654297,0.029895782470703125,-1.4591264724731445
1683935932645271300,9.545271240234374,-0.27596795558929443,-0.08573436737060547,-1.3758273124694824
1683935932655312400,9.5553125,-0.3420858383178711,-0.15464496612548828,-1.4054887294769287
1683935932665353500,9.565353515625,-0.26303422451019287,-0.22443771362304688,-1.490156650543213
1683935932675394800,9.575394775390626,-0.1987377405166626,-0.2996225357055664,-1.5747754573822021
1683935932685436000,9.585435791015625,-0.15343749523162842,-0.4127225875854492,-1.6484794616699219
1683935932695477000,9.59547705078125,-0.10372638702392578,-0.6680049896240234,-1.6430974006652832
1683935932705518300,9.605518310546875,-0.010935544967651367,-0.9043712615966797,-1.4998207092285156
1683935932715559400,9.615559326171875,0.03145098686218262,-0.7681093215942383,-1.3378093242645264
1683935932725600500,9.6256005859375,0.03467714786529541,-0.3223285675048828,-1.1049833297729492
1683935932735641900,9.635641845703125,0.015035152435302734,-0.36838626861572266,-0.623720645904541
1683935932745683000,9.645682861328124,-0.051864027976989746,-0.4417381286621094,-0.2911958694458008
1683935932755724000,9.65572412109375,-0.1636490821838379,-0.26238059997558594,-0.16328048706054688
1683935932765765400,9.665765380859375,-0.1370452642440796,0.07215309143066406,-0.20433855056762695
1683935932775806500,9.675806396484376,-0.04615366458892822,0.7146663665771484,-0.22707676887512207
1683935932785847600,9.68584765625,0.1163644790649414,0.7991504669189453,-0.04671812057495117
1683935932795888600,9.695888671875,0.3772038221359253,-0.5762882232666016,0.07993030548095703
1683935932805930000,9.705929931640625,0.6486079692840576,-1.5595026016235352,0.4496793746948242
1683935932815971000,9.71597119140625,0.8500470519065857,-1.5125656127929688,0.6156954765319824
1683935932826012200,9.72601220703125,0.9165545701980591,-1.1470060348510742,0.34012651443481445
1683935932836053500,9.736053466796875,0.8230463266372681,-0.8973684310913086,-0.03553485870361328
1683935932846094600,9.746094482421874,0.640175461769104,-0.8084049224853516,-0.3174905776977539
1683935932856135700,9.7561357421875,0.4287515878677368,-0.664494514465332,-0.46065306663513184
1683935932866177000,9.766177001953125,0.221504807472229,-0.4077920913696289,-0.633918285369873
1683935932876218000,9.776218017578126,0.06849348545074463,-0.3080606460571289,-0.5403947830200195
1683935932886259200,9.78625927734375,-0.06536078453063965,-0.04806232452392578,-0.30144453048706055
1683935932896300500,9.796300537109374,-0.19565486907958984,0.1790323257446289,0.007807731628417969
1683935932906341600,9.806341552734375,-0.2536658048629761,0.6204395294189453,0.20154953002929688
1683935932916382700,9.8163828125,-0.27859294414520264,1.0629043579101562,0.28286123275756836
1683935932926424000,9.826424072265626,-0.30132555961608887,1.2581849098205566,0.32999372482299805
1683935932936465200,9.836465087890625,-0.29065024852752686,1.3478827476501465,0.4042367935180664
1683935932946506200,9.84650634765625,-0.24588525295257568,1.420731544494629,0.40124082565307617
1683935932956547600,9.856547607421875,-0.1304774284362793,1.4457826614379883,0.39962100982666016
1683935932966588700,9.866588623046875,-0.0287473201751709,1.4302635192871094,0.24283075332641602
1683935932976629800,9.876629638671876,-0.02908635139465332,1.2597055435180664,0.02585458755493164
1683935932986671000,9.886671142578125,-0.12786126136779785,0.8851685523986816,-0.2644524574279785
1683935932996712200,9.896712158203124,-0.2269895076751709,0.3770732879638672,-0.552581787109375
1683935933006753300,9.906753173828125,-0.2426600456237793,-0.13706588745117188,-0.7751443386077881
1683935933016794400,9.91679443359375,0.00252532958984375,-0.3601417541503906,-1.0291774272918701
1683935933026835700,9.926835693359376,0.4030792713165283,-0.3804302215576172,-1.1030642986297607
1683935933036876800,9.936876708984375,0.8058815002441406,-0.24092483520507812,-1.1160731315612793
1683935933046918000,9.94691796875,1.0630226135253906,-0.26179981231689453,-1.0645751953125
1683935933056959200,9.956959228515625,1.1658411026000977,-0.37781810760498047,-1.052971363067627
1683935933067000300,9.967000244140625,1.075094223022461,-0.44281005859375,-1.1171116828918457
1683935933077041400,9.97704150390625,0.9481611251831055,-0.5095834732055664,-1.1617727279663086
1683935933087082800,9.987082763671875,0.7190066576004028,-0.4425020217895508,-1.1624019145965576
1683935933097123800,9.997123779296874,0.5088281631469727,-0.37609291076660156,-1.1597869396209717
1683935933107165000,10.0071650390625,0.3507019281387329,-0.30796337127685547,-1.0538265705108643
1683935933117206300,10.017206298828125,0.28325819969177246,-0.2214069366455078,-0.9388813972473145
1683935933127247400,10.027247314453126,0.2777712345123291,-0.13749980926513672,-0.9035935401916504
1683935933137288400,10.037288330078125,0.4188995361328125,-0.0077724456787109375,-0.9541604518890381
1683935933147329800,10.047329833984374,0.28684937953948975,0.06248664855957031,-0.87984299659729
1683935933157371000,10.057370849609375,0.2053060531616211,0.24317073822021484,-1.024092674255371
1683935933167412000,10.067411865234375,0.22935175895690918,0.26193904876708984,-1.02754545211792
1683935933177453300,10.077453369140626,0.18889307975769043,0.29341983795166016,-1.0793743133544922
1683935933187494400,10.087494384765625,0.20067477226257324,0.2894935607910156,-1.1322803497314453
1683935933197535500,10.097535400390624,0.14710485935211182,0.13534927368164062,-1.0840144157409668
1683935933207576800,10.107576904296875,0.06179523468017578,-0.00388336181640625,-0.9918999671936035
1683935933217618000,10.117617919921875,-0.05441880226135254,0.017145156860351562,-0.836850643157959
1683935933227659000,10.127658935546876,-0.16484463214874268,0.08046722412109375,-0.6170518398284912
1683935933237700400,10.137700439453125,-0.24963951110839844,0.1952047348022461,-0.4473581314086914
1683935933247741400,10.147741455078124,-0.15667498111724854,0.18927574157714844,-0.28943872451782227
1683935933257782500,10.157782470703125,0.06239020824432373,-0.19262981414794922,-0.007361888885498047
1683935933267823600,10.16782373046875,0.15918266773223877,-0.7684907913208008,0.2716679573059082
1683935933277865000,10.177864990234376,0.021088242530822754,-1.2160835266113281,0.4971156120300293
1683935933287906000,10.187906005859375,-0.3036305904388428,-1.5267400741577148,0.637843132019043
1683935933297947400,10.197947509765624,-0.7521306276321411,-1.7153139114379883,0.6825299263000488
1683935933307988500,10.207988525390626,-1.307377815246582,-1.765580177307129,0.6345109939575195
1683935933318029600,10.218029541015625,-2.3775758743286133,-1.9424781799316406,0.7766404151916504
1683935933328070700,10.228070556640626,-3.8682291507720947,-2.2469921112060547,1.2707209587097168
1683935933338112000,10.238112060546875,-3.9866442680358887,-2.4010562896728516,1.7508816719055176
1683935933348153000,10.248153076171874,-2.871673822402954,-2.3730459213256836,1.7027525901794434
1683935933358194200,10.258194091796875,-1.6632320880889893,-2.0200490951538086,1.2080087661743164
1683935933368235500,10.268235595703125,-0.7757594585418701,-1.402796745300293,0.5653352737426758
1683935933378276600,10.278276611328126,-0.1619420051574707,-0.795196533203125,0.17722225189208984
1683935933388317700,10.288317626953125,0.46668705344200134,-0.1984405517578125,-0.24587392807006836
1683935933398359000,10.298359130859374,0.9050056338310242,0.38877201080322266,-0.6199395656585693
1683935933408400100,10.308400146484376,0.9501063823699951,0.887110710144043,-0.9514260292053223
1683935933418441200,10.318441162109375,0.5508683919906616,1.2402281761169434,-1.4334659576416016
1683935933428482600,10.328482666015624,-0.022108376026153564,1.1387696266174316,-1.626762866973877
1683935933438523600,10.338523681640625,-0.5673973560333252,0.8372001647949219,-1.6060645580291748
1683935933448564700,10.348564697265624,-0.9027002453804016,0.4624519348144531,-1.4208664894104004
1683935933458606000,10.358606201171876,-0.8517513871192932,0.1820087432861328,-1.179877758026123
1683935933468647200,10.368647216796875,-0.44663625955581665,0.07502365112304688,-0.7682530879974365
1683935933478688300,10.378688232421876,0.23531407117843628,0.041347503662109375,-0.16643428802490234
1683935933488729600,10.3887294921875,0.9111425876617432,0.04017066955566406,0.515437126159668
1683935933498770700,10.398770751953125,1.467268943786621,0.010695457458496094,1.1489157676696777
1683935933508811800,10.408811767578126,1.9277586936950684,0.06871223449707031,1.5047869682312012
1683935933518853000,10.41885302734375,2.148383378982544,0.30890560150146484,1.5037131309509277
1683935933528894200,10.428894287109374,2.10718035697937,0.5756235122680664,1.3041887283325195
1683935933538935300,10.438935302734375,1.9031344652175903,0.718235969543457,1.0589523315429688
1683935933548976600,10.4489765625,1.5849697589874268,0.8178110122680664,0.7619369029998779
1683935933559017700,10.459017822265626,1.1251616477966309,0.8408184051513672,0.48670077323913574
1683935933569058800,10.469058837890625,0.5191825032234192,0.7234401702880859,0.16051077842712402
1683935933579100200,10.47910009765625,-0.14134211838245392,0.5763568878173828,-0.23642373085021973
1683935933589141200,10.489141357421875,-0.5492604970932007,0.27548694610595703,-0.531606912612915
1683935933599182300,10.499182373046875,-0.5808640718460083,-0.0952157974243164,-0.85190749168396
1683935933609223700,10.5092236328125,-0.2992587089538574,-0.5063514709472656,-1.0290086269378662
1683935933619264800,10.5192646484375,0.0426027774810791,-0.7753963470458984,-1.2262508869171143
1683935933629305900,10.529305908203124,0.4127165973186493,-0.8755998611450195,-1.2819974422454834
1683935933639347200,10.53934716796875,0.7320743203163147,-0.8597793579101562,-1.3159966468811035
1683935933649388300,10.54938818359375,0.9132440090179443,-0.7666645050048828,-1.27885103225708
1683935933659429400,10.559429443359376,0.99495530128479,-0.6446142196655273,-1.2146751880645752
1683935933669470700,10.569470703125,1.0230824947357178,-0.5418529510498047,-1.2079582214355469
1683935933679511800,10.57951171875,1.000995397567749,-0.3870725631713867,-1.1614997386932373
1683935933689553000,10.589552978515625,0.9963294267654419,-0.24272727966308594,-1.1187982559204102
1683935933699594200,10.59959423828125,1.0360583066940308,-0.06107139587402344,-0.9937498569488525
1683935933709635300,10.60963525390625,1.1432080268859863,0.06469154357910156,-0.8580224514007568
1683935933719676400,10.619676513671875,1.2934792041778564,0.17513751983642578,-0.6857337951660156
1683935933729717800,10.6297177734375,1.3796234130859375,0.1844024658203125,-0.5054619312286377
1683935933739758800,10.6397587890625,1.4667330980300903,0.15256023406982422,-0.37906384468078613
1683935933749800000,10.649800048828125,1.481081485748291,0.07737064361572266,-0.2513885498046875
1683935933759841300,10.65984130859375,1.4085543155670166,0.18375301361083984,-0.22902894020080566
1683935933769882400,10.66988232421875,1.3017656803131104,0.1873760223388672,-0.2153315544128418
1683935933779923500,10.67992333984375,1.1679608821868896,0.14338397979736328,-0.136322021484375
1683935933789964800,10.68996484375,1.0212366580963135,0.11395454406738281,-0.15932416915893555
1683935933800006000,10.700005859375,0.8610082268714905,0.09200382232666016,-0.2358238697052002
1683935933810047000,10.710046875,0.7323917150497437,0.1326274871826172,-0.3268554210662842
1683935933820088300,10.72008837890625,0.5735889077186584,0.04959869384765625,-0.3840916156768799
1683935933830129400,10.73012939453125,0.4403461217880249,-0.0061779022216796875,-0.43601012229919434
1683935933840170500,10.74017041015625,0.3758023977279663,0.02013874053955078,-0.48265528678894043
1683935933850211600,10.750211669921875,0.27005451917648315,0.0352020263671875,-0.4834146499633789
1683935933860253000,10.7602529296875,0.1235952377319336,0.0127105712890625,-0.47922706604003906
1683935933870294000,10.7702939453125,0.0020608901977539062,-0.016182899475097656,-0.3580904006958008
1683935933880335400,10.78033544921875,-0.04571974277496338,-0.03708648681640625,-0.25425076484680176
1683935933890376400,10.79037646484375,-0.011454343795776367,-0.019115447998046875,-0.05150914192199707
1683935933900417500,10.80041748046875,0.12440991401672363,0.02072429656982422,0.2012805938720703
1683935933910459000,10.810458984375,0.2376464605331421,0.08455848693847656,0.46979498863220215
1683935933920500000,10.8205,0.34735989570617676,0.16028690338134766,0.6557154655456543
1683935933930541000,10.830541015625,0.39838743209838867,0.1761646270751953,0.8044126033782959
1683935933940582400,10.84058251953125,0.42391204833984375,0.1658315658569336,1.0045719146728516
1683935933950623500,10.85062353515625,0.3849750757217407,0.23918819427490234,1.1249265670776367
1683935933960664600,10.86066455078125,0.3521747589111328,0.2357959747314453,1.227543830871582
1683935933970706000,10.870705810546875,0.27886962890625,0.3059883117675781,1.319206714630127
1683935933980747000,10.8807470703125,0.22799432277679443,0.37996768951416016,1.2514588832855225
1683935933990788000,10.8907880859375,0.16728627681732178,0.4409294128417969,1.1276428699493408
1683935934000829400,10.900829345703125,0.09506416320800781,0.4317941665649414,1.0174899101257324
1683935934010870500,10.91087060546875,0.046561479568481445,0.37933921813964844,0.8328399658203125
1683935934020911600,10.92091162109375,0.04273414611816406,0.25286006927490234,0.73134446144104
1683935934030953000,10.930952880859374,0.029996395111083984,0.20084476470947266,0.5910418033599854
1683935934040994000,10.940994140625,0.04934060573577881,0.10640144348144531,0.4461991786956787
1683935934051035100,10.95103515625,0.09304559230804443,0.139190673828125,0.3256821632385254
1683935934061076500,10.961076416015626,0.12647438049316406,0.19356250762939453,0.19332671165466309
1683935934071117600,10.97111767578125,0.1375488042831421,0.13812255859375,0.17583084106445312
1683935934081158700,10.98115869140625,0.14515137672424316,0.10441207885742188,0.17724609375
1683935934091200000,10.991199951171875,0.1415567398071289,0.2093057632446289,0.15215015411376953
1683935934101241000,11.001240966796875,0.11757433414459229,0.24005794525146484,0.19880962371826172
1683935934111282200,11.0112822265625,0.12209892272949219,0.24233150482177734,0.3455076217651367
1683935934121323500,11.021323486328125,0.15332961082458496,0.19696998596191406,0.4814186096191406
1683935934131364600,11.031364501953124,0.18716728687286377,0.21071910858154297,0.6019725799560547
1683935934141405700,11.04140576171875,0.22509610652923584,0.1957254409790039,0.6549947261810303
1683935934151447000,11.051447021484375,0.22868549823760986,0.26783180236816406,0.6419787406921387
1683935934161488100,11.061488037109376,0.21218228340148926,0.23019027709960938,0.6701993942260742
1683935934171529200,11.071529296875,0.23447442054748535,0.25881481170654297,0.7225651741027832
1683935934181570600,11.081570556640624,0.22859597206115723,0.2631959915161133,0.7095944881439209
1683935934191611600,11.091611572265625,0.23035955429077148,0.2156829833984375,0.745995283126831
1683935934201652700,11.10165283203125,0.25593316555023193,0.1854534149169922,0.7676088809967041
1683935934211694000,11.111694091796876,0.2906832695007324,0.19827842712402344,0.7682130336761475
1683935934221735200,11.121735107421875,0.3559352159500122,0.0959329605102539,0.8287761211395264
1683935934231776300,11.1317763671875,0.4443470239639282,-0.1528177261352539,1.0205578804016113
1683935934241817600,11.141817626953125,0.5411281585693359,-0.40454578399658203,1.1334562301635742
1683935934251858700,11.151858642578125,0.6078031063079834,-0.5343570709228516,1.2211182117462158
1683935934261899800,11.161899658203126,0.6698398590087891,-0.551152229309082,1.2167034149169922
1683935934271941000,11.171941162109375,0.7006549835205078,-0.5015525817871094,1.2350273132324219
1683935934281982200,11.181982177734374,0.7615987062454224,-0.48111820220947266,1.284364938735962
1683935934292023600,11.1920234375,0.8023351430892944,-0.47571849822998047,1.3463308811187744
1683935934302064600,11.202064697265625,0.7880337238311768,-0.5277986526489258,1.3819656372070312
1683935934312105700,11.212105712890626,0.7649884223937988,-0.4905691146850586,1.4216351509094238
1683935934322146800,11.222146728515625,0.7344192266464233,-0.537531852722168,1.4360804557800293
1683935934332188200,11.232188232421874,0.6646429300308228,-0.6087226867675781,1.4714374542236328
1683935934342229200,11.242229248046876,0.5406408309936523,-0.6262598037719727,1.3592886924743652
1683935934352270300,11.252270263671875,0.34504616260528564,-0.6424741744995117,1.1995809078216553
1683935934362311700,11.262311767578124,0.17124581336975098,-0.4989166259765625,0.9105463027954102
1683935934372352800,11.272352783203125,-0.04448258876800537,-0.32749080657958984,0.7445886135101318
1683935934382394000,11.28239404296875,-0.2327890396118164,-0.036919593811035156,0.4215564727783203
1683935934392435200,11.292435302734376,-0.4216207265853882,0.3026418685913086,0.153670072555542
1683935934402476300,11.302476318359375,-0.5697765350341797,0.5917739868164062,-0.18665575981140137
1683935934412517600,11.312517578125,-0.7177826166152954,0.8148431777954102,-0.48943614959716797
1683935934422558700,11.322558837890625,-0.8286923766136169,0.9275379180908203,-0.6950423717498779
1683935934432599800,11.332599853515624,-1.0242646932601929,0.9369029998779297,-0.9113311767578125
1683935934442641200,11.34264111328125,-1.77705717086792,0.8310174942016602,-1.2129039764404297
1683935934452682200,11.35268212890625,-2.9891796112060547,0.5075254440307617,-1.4908628463745117
1683935934462723300,11.362723388671874,-3.529116153717041,0.16104698181152344,-1.6424896717071533
1683935934472764700,11.3727646484375,-3.194314479827881,-0.02397441864013672,-1.7278932332992554
1683935934482805800,11.3828056640625,-2.0480310916900635,0.039422035217285156,-1.679814338684082
1683935934492846800,11.392846923828126,-0.5501741170883179,0.23385238647460938,-1.5301260948181152
1683935934502888200,11.40288818359375,0.35031819343566895,0.22370052337646484,-1.3511528968811035
1683935934512929300,11.41292919921875,0.2965756952762604,-0.061046600341796875,-1.362621784210205
1683935934522970400,11.422970458984375,-0.00958251953125,-0.4083576202392578,-1.292612075805664
1683935934533011700,11.43301171875,-0.19595777988433838,-0.686488151550293,-1.1491422653198242
1683935934543052800,11.443052734375,-0.07571691274642944,-0.8721017837524414,-1.0091910362243652
1683935934553094000,11.453093994140625,0.2500634789466858,-0.8749618530273438,-0.9082250595092773
1683935934563135200,11.46313525390625,0.6814497709274292,-0.8768310546875,-0.9251194000244141
1683935934573176300,11.47317626953125,0.9983936548233032,-0.9442558288574219,-0.9896402359008789
1683935934583217700,11.4832177734375,1.1008172035217285,-1.0911693572998047,-1.101012945175171
1683935934593258800,11.4932587890625,1.0854182243347168,-1.2883281707763672,-1.2437632083892822
1683935934603299800,11.5032998046875,1.1017725467681885,-1.3088865280151367,-1.3179435729980469
1683935934613341000,11.5133408203125,1.127511978149414,-1.1974201202392578,-1.345890998840332
1683935934623382300,11.52338232421875,1.1270607709884644,-0.9555139541625977,-1.3361260890960693
1683935934633423400,11.53342333984375,1.107260823249817,-0.6552810668945312,-1.380910873413086
1683935934643464700,11.543464599609376,1.0084311962127686,-0.4434394836425781,-1.4112179279327393
1683935934653505800,11.553505859375,0.8686481714248657,-0.3510856628417969,-1.3900957107543945
1683935934663547000,11.563546875,0.7057662606239319,-0.2645092010498047,-1.2581264972686768
1683935934673588200,11.573588134765625,0.5507745742797852,-0.18584823608398438,-1.1028239727020264
1683935934683629300,11.58362939453125,0.32316774129867554,-0.1368246078491211,-0.9162137508392334
1683935934693670400,11.59367041015625,0.08280444145202637,-0.03385353088378906,-0.8210437297821045
1683935934703711700,11.603711669921875,0.08315420150756836,0.03290367126464844,-0.9510254859924316
1683935934713752800,11.6137529296875,0.31317728757858276,-0.0012693405151367188,-1.2326951026916504
1683935934723794000,11.6237939453125,0.5547083616256714,0.06737804412841797,-1.4294655323028564
1683935934733835300,11.633835205078125,0.7241808176040649,0.10803794860839844,-1.5457134246826172
1683935934743876400,11.64387646484375,0.7306749820709229,0.2486124038696289,-1.6799683570861816
1683935934753917400,11.65391748046875,0.7337774634361267,0.319000244140625,-1.8282127380371094
1683935934763958800,11.663958740234374,0.6124551296234131,0.24684810638427734,-1.7651119232177734
1683935934773999900,11.673999755859375,0.43062177300453186,0.20784759521484375,-1.7060816287994385
1683935934784041000,11.684041015625,0.3268895149230957,0.1123495101928711,-1.576490879058838
1683935934794082300,11.694082275390626,0.2037639021873474,0.057953834533691406,-1.462726354598999
1683935934804123400,11.704123291015625,0.22070527076721191,0.021445274353027344,-1.4488883018493652
1683935934814164500,11.71416455078125,0.32146692276000977,-0.05338764190673828,-1.344083547592163
1683935934824205800,11.724205810546875,0.35627996921539307,-0.10618209838867188,-1.1812098026275635
1683935934834247000,11.734246826171875,0.1276814341545105,-0.20867252349853516,-0.9436600208282471
1683935934844288000,11.7442880859375,-0.15849322080612183,-0.3324737548828125,-0.6534309387207031
1683935934854329300,11.754329345703125,-0.31419527530670166,-0.3985939025878906,-0.46769285202026367
1683935934864370400,11.764370361328124,-0.3162168264389038,-0.39479923248291016,-0.38779735565185547
1683935934874411800,11.774411865234375,-0.31504637002944946,-0.30707740783691406,-0.24216794967651367
1683935934884452900,11.784452880859375,-0.3313664197921753,-0.25324535369873047,-0.10157108306884766
1683935934894494000,11.794493896484376,-0.3352243900299072,-0.2335224151611328,-0.036004066467285156
1683935934904535300,11.804535400390625,-0.2673147916793823,-0.21686077117919922,-0.055047035217285156
1683935934914576400,11.814576416015624,-0.15205848217010498,-0.1437397003173828,-0.1779923439025879
1683935934924617500,11.824617431640625,-0.0121687650680542,-0.023644447326660156,-0.25638294219970703
1683935934934658800,11.834658935546875,0.14868944883346558,0.040973663330078125,-0.33775949478149414
1683935934944700000,11.844699951171876,0.27363139390945435,0.09819602966308594,-0.3004727363586426
1683935934954741000,11.854740966796875,0.36359310150146484,0.2653055191040039,-0.37882328033447266
1683935934964782300,11.8647822265625,0.3451833724975586,0.38686084747314453,-0.35500621795654297
1683935934974823400,11.874823486328125,0.3144502639770508,0.37209224700927734,-0.39606523513793945
1683935934984864500,11.884864501953125,0.27671945095062256,0.40061378479003906,-0.39102983474731445
1683935934994905900,11.89490576171875,0.196050763130188,0.42974281311035156,-0.5131378173828125
1683935935004947000,11.904947021484375,0.23526763916015625,0.4863128662109375,-0.589116096496582
1683935935014988300,11.91498828125,0.33709216117858887,0.5833501815795898,-0.7919883728027344
1683935935025029400,11.925029296875,0.4483948349952698,0.616455078125,-0.9417352676391602
1683935935035070500,11.935070556640625,0.5053194165229797,0.5807552337646484,-0.9677319526672363
1683935935045111800,11.94511181640625,0.507485032081604,0.5641417503356934,-0.8714990615844727
1683935935055153000,11.95515283203125,0.46368569135665894,0.5515837669372559,-0.7233381271362305
1683935935065194000,11.965194091796874,0.42967861890792847,0.5376887321472168,-0.5045509338378906
1683935935075235300,11.9752353515625,0.38221830129623413,0.5340290069580078,-0.24148845672607422
1683935935085276400,11.9852763671875,0.3655053973197937,0.5048007965087891,-0.024660587310791016
1683935935095317500,11.9953173828125,0.41488349437713623,0.44275379180908203,0.2030339241027832
1683935935105358800,12.00535888671875,0.4306376576423645,0.4005136489868164,0.3361320495605469
1683935935115400000,12.01539990234375,0.39441877603530884,0.3828001022338867,0.4222278594970703
1683935935125441000,12.02544091796875,0.381791353225708,0.3967561721801758,0.40396547317504883
1683935935135482400,12.035482421875,0.356797456741333,0.40406036376953125,0.36272668838500977
1683935935145523500,12.0455234375,0.31993114948272705,0.3879203796386719,0.3415250778198242
1683935935155564800,12.055564697265625,0.19486665725708008,0.2977867126464844,0.260739803314209
1683935935165606000,12.06560595703125,0.047589778900146484,0.21432018280029297,0.2002096176147461
1683935935175647000,12.07564697265625,-0.21722590923309326,0.12241840362548828,0.23919391632080078
1683935935185688300,12.085688232421875,-0.38214707374572754,0.036314964294433594,0.22849321365356445
1683935935195729400,12.0957294921875,-0.49439918994903564,0.03054332733154297,0.2236342430114746
1683935935205770500,12.1057705078125,-0.7040127515792847,0.062331199645996094,0.25891590118408203
1683935935215811800,12.115811767578125,-0.8312170505523682,0.12262916564941406,0.26378297805786133
1683935935225853000,12.12585302734375,-0.6520841121673584,0.15251636505126953,0.2445521354675293
1683935935235894000,12.13589404296875,-0.29631996154785156,0.18844127655029297,0.15274953842163086
1683935935245935400,12.145935302734374,-0.20343363285064697,0.11756134033203125,0.16128873825073242
1683935935255976400,12.1559765625,-0.18871235847473145,-0.04365348815917969,0.019873619079589844
1683935935266017500,12.166017578125,-0.29516685009002686,-0.2119760513305664,-0.06637334823608398
1683935935276059000,12.176058837890626,-0.4544713497161865,-0.27344417572021484,-0.030371665954589844
1683935935286100000,12.186099853515625,-0.3847459554672241,-0.22393512725830078,-0.05858802795410156
1683935935296141300,12.196141357421874,0.10030651092529297,-0.24369144439697266,-0.269650936126709
1683935935306182400,12.206182373046875,0.7090640068054199,-0.31105709075927734,-0.6489987373352051
1683935935316223500,12.216223388671875,0.9989680051803589,-0.36095142364501953,-0.9115948677062988
1683935935326264800,12.226264892578126,0.7545241117477417,-0.5328149795532227,-1.1006007194519043
1683935935336306000,12.236305908203125,-0.05074805021286011,-0.7412548065185547,-1.2659461498260498
1683935935346347000,12.246346923828124,-0.9446443319320679,-0.9911670684814453,-1.5717496871948242
1683935935356388400,12.256388427734375,-1.572277307510376,-1.4545259475708008,-1.6351733207702637
1683935935366429400,12.266429443359375,-2.4471168518066406,-1.8920602798461914,-1.6611602306365967
1683935935376470500,12.276470458984376,-3.2260420322418213,-2.3497982025146484,-1.4248945713043213
1683935935386512000,12.286511962890625,-3.029052972793579,-2.7451248168945312,-0.9000952243804932
1683935935396553000,12.296552978515624,-1.7541083097457886,-2.7408456802368164,-0.44138193130493164
1683935935406594000,12.306593994140625,-0.1849340796470642,-2.3978681564331055,-0.16599178314208984
1683935935416635400,12.316635498046875,1.1754807233810425,-1.6939401626586914,-0.13114595413208008
1683935935426676500,12.326676513671876,2.1658244132995605,-0.8140068054199219,-0.14764833450317383
1683935935436717800,12.3367177734375,2.555142402648926,0.3121023178100586,-0.2143411636352539
1683935935446759000,12.346759033203124,2.5608980655670166,1.2122001647949219,-0.2516765594482422
1683935935456800000,12.356800048828125,2.373344659805298,1.6490674018859863,-0.24348783493041992
1683935935466841300,12.36684130859375,2.0594491958618164,1.6279373168945312,-0.28064441680908203
1683935935476882400,12.37688232421875,1.7584292888641357,1.3118414878845215,-0.3004593849182129
1683935935486923500,12.386923583984375,1.5511744022369385,1.025702953338623,-0.4332003593444824
1683935935496964900,12.39696484375,1.4834809303283691,0.6240291595458984,-0.5986447334289551
1683935935507006000,12.407005859375,1.4890680313110352,0.3394966125488281,-0.8160223960876465
1683935935517047000,12.417047119140625,1.545985221862793,0.15062332153320312,-0.9097843170166016
1683935935527088400,12.42708837890625,1.4995590448379517,0.0002765655517578125,-1.0081427097320557
1683935935537129500,12.43712939453125,1.2371578216552734,-0.1783285140991211,-1.0701072216033936
1683935935547170600,12.447170654296874,0.6416100859642029,-0.43773651123046875,-1.1364960670471191
1683935935557212000,12.4572119140625,0.05772411823272705,-0.54168701171875,-1.1526999473571777
1683935935567253000,12.4672529296875,-0.21504676342010498,-0.4075040817260742,-1.1049752235412598
1683935935577294300,12.47729443359375,-0.1043531596660614,-0.32029056549072266,-0.867175817489624
1683935935587335400,12.48733544921875,0.20705775916576385,-0.09601688385009766,-0.6571786403656006
1683935935597376500,12.49737646484375,0.6297160387039185,0.19832134246826172,-0.5275306701660156
1683935935607417900,12.50741796875,0.9912803173065186,0.27605533599853516,-0.32320380210876465
1683935935617459000,12.517458984375,1.2414333820343018,0.35982418060302734,-0.2669687271118164
1683935935627500000,12.5275,1.4004237651824951,0.3803443908691406,-0.2346329689025879
1683935935637541400,12.537541259765625,1.5753449201583862,0.3807802200317383,-0.18311572074890137
