time,seconds_elapsed,z,y,x
1683935822411918000,0.02691796875,0,0,0
1683935822421959400,0.03695947265625,0.20337772369384766,-0.15225112438201904,-0.0762823224067688
1683935822432000800,0.047000732421875,0.2276296615600586,-0.4119666814804077,0.6726289987564087
1683935822442042000,0.0570419921875,-0.14795589447021484,-0.615607738494873,1.3801219463348389
1683935822452083500,0.06708349609375,-0.7989816665649414,-0.25072264671325684,1.4173400402069092
1683935822462124800,0.077124755859375,-1.0568370819091797,0.1961221694946289,0.6177263259887695
1683935822472166100,0.087166259765625,-0.6065778732299805,-0.1767256259918213,-0.11351180076599121
1683935822482207500,0.09720751953125,-0.22711563110351562,-0.37002110481262207,-0.23996734619140625
1683935822492248800,0.107248779296875,-0.37361621856689453,0.05744051933288574,-1.1613242626190186
1683935822502290200,0.117290283203125,-0.35590362548828125,-1.4034243822097778,-3.1766891479492188
1683935822512331500,0.12733154296875,-1.011190414428711,-2.976210832595825,-1.898668646812439
1683935822522372900,0.137372802734375,-2.2836647033691406,-3.5729947090148926,0.24083399772644043
1683935822532414200,0.147414306640625,-2.8452253341674805,-2.604598045349121,0.7623488903045654
1683935822542455600,0.15745556640625,-2.568816661834717,-1.2036492824554443,0.5626842975616455
1683935822552497000,0.167496826171875,-1.336937427520752,-0.4055750370025635,0.5079174041748047
1683935822562538200,0.177538330078125,0.09344673156738281,0.054119110107421875,0.07305765151977539
1683935822572579600,0.18757958984375,0.5663919448852539,-0.4474153518676758,0.6153123378753662
1683935822582621000,0.197620849609375,-0.3230314254760742,-0.5841381549835205,0.9228537082672119
1683935822592662300,0.207662353515625,-1.669393539428711,-0.2588503360748291,0.8398270606994629
1683935822602703600,0.21770361328125,-2.61014986038208,-0.428908109664917,1.1730587482452393
1683935822612745200,0.2277451171875,-2.882582664489746,-1.1281745433807373,2.099907159805298
1683935822622786600,0.23778662109375,-2.730539321899414,-1.7784993648529053,2.907589912414551
1683935822632827600,0.24782763671875,-3.045290470123291,-2.312805652618408,2.8883869647979736
1683935822642869000,0.257868896484375,-0.3372159004211426,0.10315132141113281,0.9405529499053955
1683935822652910300,0.267910400390625,-0.04657268524169922,-0.1586596965789795,0.35326623916625977
1683935822662952000,0.277951904296875,0.9134654998779297,-0.928316593170166,0.8042006492614746
1683935822672993300,0.2879931640625,1.6353940963745117,-0.8946933746337891,0.6805593967437744
1683935822683034600,0.29803466796875,1.9025068283081055,-0.46407365798950195,1.0416717529296875
1683935822693076000,0.308075927734375,1.7528581619262695,0.17410612106323242,2.0140933990478516
1683935822703117000,0.318116943359375,0.9606800079345703,0.3996310234069824,2.5983316898345947
1683935822713158400,0.328158447265625,0.46002674102783203,0.7126133441925049,2.546443223953247
1683935822723200000,0.338199951171875,0.4739532470703125,0.7286949157714844,2.0089902877807617
1683935822733241300,0.348241455078125,0.4556121826171875,0.6248135566711426,1.6786730289459229
1683935822743282700,0.35828271484375,0.5595664978027344,0.8534703254699707,1.85005784034729
1683935822753324000,0.368323974609375,0.11631584167480469,0.6252479553222656,1.6181373596191406
1683935822763365000,0.378365234375,-0.11641311645507812,1.1050012111663818,1.9571170806884766
1683935822773406700,0.38840673828125,0.8324298858642578,1.1674458980560303,2.0989198684692383
1683935822783448000,0.398447998046875,0.7553215026855469,0.7466936111450195,1.7736854553222656
1683935822793489400,0.408489501953125,1.0475187301635742,0.8877246379852295,1.5033760070800781
1683935822803530800,0.41853076171875,0.9306478500366211,0.7883896827697754,1.4533796310424805
1683935822813572000,0.428572021484375,1.3507452011108398,1.1056420803070068,1.6866264343261719
1683935822823613400,0.438613525390625,1.323277473449707,1.178140640258789,1.8886113166809082
1683935822833654800,0.44865478515625,1.4946527481079102,0.44388294219970703,1.0647599697113037
1683935822843696000,0.458696044921875,1.2822294235229492,0.025425434112548828,0.038689613342285156
1683935822853737500,0.468737548828125,0.7523355484008789,-0.4516286849975586,-0.965050220489502
1683935822863778800,0.47877880859375,0.3183879852294922,-0.5974006652832031,-1.4927723407745361
1683935822873820200,0.488820068359375,-0.016571044921875,-0.5673470497131348,-1.6142884492874146
1683935822883861500,0.498861572265625,-0.36145925521850586,-0.4325852394104004,-1.7002103328704834
1683935822893902800,0.50890283203125,-1.2368578910827637,-0.6317992210388184,-0.1038520336151123
1683935822903944200,0.518944091796875,-0.4614439010620117,-0.020890235900878906,-0.17886018753051758
1683935822913985500,0.528985595703125,-0.8092331886291504,0.6749210357666016,-1.0684144496917725
1683935822924027000,0.53902685546875,-0.8358640670776367,0.5016365051269531,-0.9963350296020508
1683935822934068200,0.549068115234375,-0.6803174018859863,0.08350467681884766,-1.1380038261413574
1683935822944109600,0.559109619140625,-0.44220972061157227,-0.08823537826538086,-1.3119683265686035
1683935822954151000,0.56915087890625,-0.1578354835510254,-0.12500572204589844,-1.485992670059204
1683935822964192300,0.579192138671875,0.17230987548828125,0.19824934005737305,-0.6346118450164795
1683935822974233600,0.589233642578125,-0.041428565979003906,-0.07773685455322266,-0.22800374031066895
1683935822984275000,0.59927490234375,0.3450641632080078,0.321474552154541,-0.3386392593383789
1683935822994316300,0.60931640625,0.5157418251037598,0.8200211524963379,-0.03505659103393555
1683935823004357600,0.619357666015625,0.33203697204589844,0.3160543441772461,0.046783447265625
1683935823014399000,0.62939892578125,0.2877378463745117,0.26186704635620117,-0.12413501739501953
1683935823024440300,0.6394404296875,-0.08530998229980469,0.1459650993347168,-0.5127334594726562
1683935823034481700,0.649481689453125,-0.6403918266296387,0.39188671112060547,-0.46015310287475586
1683935823044523000,0.65952294921875,-0.9465179443359375,0.4404945373535156,-0.5434927940368652
1683935823054564400,0.669564453125,-0.6485047340393066,0.6001982688903809,-0.6543827056884766
1683935823064605700,0.679605712890625,-0.5835785865783691,0.47264814376831055,-0.29642271995544434
1683935823074647000,0.68964697265625,-0.46930599212646484,0.5130815505981445,0.11023664474487305
1683935823084688400,0.6996884765625,0.11721181869506836,0.6924262046813965,0.23667478561401367
1683935823094729700,0.709729736328125,0.7490568161010742,0.676185131072998,0.5626461505889893
1683935823104771000,0.71977099609375,1.4120726585388184,0.24267911911010742,0.844663143157959
1683935823114812400,0.7298125,1.9904627799987793,0.515324592590332,0.22413229942321777
1683935823124853800,0.739853759765625,2.050870895385742,0.5956153869628906,0.09095549583435059
1683935823134895000,0.74989501953125,1.8237438201904297,0.5556764602661133,0.3615083694458008
1683935823144936400,0.7599365234375,1.688913345336914,0.494260311126709,0.38465094566345215
1683935823154977800,0.769977783203125,1.109952449798584,0.4172019958496094,0.31079578399658203
1683935823165019100,0.78001904296875,0.5042281150817871,0.5335745811462402,0.33347606658935547
1683935823175060500,0.790060546875,0.16316843032836914,0.7166018486022949,0.14409875869750977
1683935823185101800,0.800101806640625,-0.19250774383544922,0.6949081420898438,-0.07234644889831543
1683935823195143200,0.81014306640625,-0.05615091323852539,0.43477773666381836,-0.18592381477355957
1683935823205184500,0.8201845703125,0.15421485900878906,0.3970193862915039,-0.2938845157623291
1683935823215225900,0.830225830078125,0.47495031356811523,0.18481969833374023,-0.37677764892578125
1683935823225267200,0.84026708984375,0.8234496116638184,0.08571958541870117,-0.2431795597076416
1683935823235308500,0.85030859375,1.0600976943969727,-0.034940242767333984,-0.1987287998199463
1683935823245350000,0.860349853515625,0.9394412040710449,-0.1533522605895996,-0.1772305965423584
1683935823255391200,0.87039111328125,0.6966280937194824,-0.16595983505249023,-0.2556648254394531
1683935823265432600,0.8804326171875,0.4545755386352539,-0.21919631958007812,-0.33704400062561035
1683935823275474000,0.890473876953125,0.2447071075439453,-0.22651386260986328,-0.3050351142883301
1683935823285515300,0.900515380859375,0.029187679290771484,-0.25099802017211914,-0.32733845710754395
1683935823295556600,0.910556640625,-0.15322637557983398,-0.20845317840576172,-0.32941102981567383
1683935823305598000,0.920597900390625,-0.3113560676574707,-0.22433710098266602,-0.3285503387451172
1683935823315639300,0.930639404296875,-0.4822359085083008,-0.3113412857055664,-0.39389896392822266
1683935823325680600,0.9406806640625,-0.6549181938171387,-0.35859203338623047,-0.5581636428833008
1683935823335722000,0.950721923828125,-0.6866946220397949,-0.43682098388671875,-0.7252912521362305
1683935823345763300,0.960763427734375,-0.520726203918457,-0.508852481842041,-0.7463655471801758
1683935823355804700,0.9708046875,-0.43300962448120117,-0.5035347938537598,-0.8042302131652832
1683935823365846000,0.980845947265625,-0.4545402526855469,-0.7139792442321777,-1.288557529449463
1683935823375887400,0.990887451171875,-0.5796303749084473,-0.7264347076416016,-1.708844780921936
1683935823385928700,1.0009287109375,-0.7240638732910156,-0.5403528213500977,-0.8176803588867188
1683935823395970000,1.010969970703125,-0.5546736717224121,-0.4117889404296875,-0.8305728435516357
1683935823406011400,1.021011474609375,-0.6468586921691895,-0.5712952613830566,-0.923253059387207
1683935823416052700,1.031052734375,-0.7246513366699219,-0.5855650901794434,-0.3942694664001465
1683935823426094000,1.041093994140625,-0.4149751663208008,-0.47604942321777344,0.039948225021362305
1683935823436135400,1.051135498046875,0.27086448669433594,-0.5196695327758789,0.0359492301940918
1683935823446176800,1.0611767578125,0.8214292526245117,-0.612823486328125,-0.09126043319702148
1683935823456218000,1.071218017578125,1.0147576332092285,-0.6543569564819336,-0.2671515941619873
1683935823466259500,1.081259521484375,1.093306064605713,-0.710200309753418,-0.48081302642822266
1683935823476300800,1.09130078125,1.2754454612731934,-0.8408761024475098,-0.7584037780761719
1683935823486342100,1.101342041015625,1.349771499633789,-0.8347392082214355,-0.6924350261688232
1683935823496383500,1.111383544921875,1.1251220703125,-0.7284550666809082,-0.5905897617340088
1683935823506424800,1.1214248046875,0.6259250640869141,-0.6672782897949219,-0.5805542469024658
1683935823516466200,1.131466064453125,0.22675371170043945,-0.5808486938476562,-0.7034218311309814
1683935823526507500,1.141507568359375,-0.06395387649536133,-0.32035303115844727,-0.728754997253418
1683935823536548900,1.151548828125,0.018114566802978516,-0.13895940780639648,-0.6481399536132812
1683935823546590200,1.161590087890625,0.04329729080200195,-0.1620330810546875,-0.30484747886657715
1683935823556631600,1.171631591796875,0.07349729537963867,0.16576766967773438,0.12719249725341797
1683935823566673000,1.1816728515625,-0.0452427864074707,0.37508487701416016,0.4667637348175049
1683935823576714200,1.19171435546875,-0.48387622833251953,0.2391648292541504,0.584036111831665
1683935823586755600,1.201755615234375,-0.7017025947570801,0.38843345642089844,0.6379294395446777
1683935823596797000,1.211796875,-0.4953579902648926,0.5827960968017578,0.8196203708648682
1683935823606838300,1.22183837890625,-0.32735443115234375,0.38359594345092773,1.016845941543579
1683935823616879600,1.231879638671875,-0.1371769905090332,0.15737390518188477,0.9320766925811768
1683935823626921000,1.2419208984375,0.06313037872314453,0.18535280227661133,0.7996063232421875
1683935823636962300,1.25196240234375,0.10454225540161133,0.22461509704589844,0.6540584564208984
1683935823647003600,1.262003662109375,-0.13501930236816406,0.13077974319458008,0.5914919376373291
1683935823657045000,1.272044921875,-0.45745325088500977,0.10959720611572266,0.3697800636291504
1683935823667086300,1.28208642578125,-0.5902175903320312,0.2530937194824219,0.3579695224761963
1683935823677127700,1.292127685546875,-0.5293993949890137,0.21300554275512695,0.29857540130615234
1683935823687169000,1.3021689453125,-0.1368856430053711,0.09795999526977539,0.2086191177368164
1683935823697210400,1.31221044921875,0.1886153221130371,0.060210227966308594,0.20640826225280762
1683935823707251700,1.322251708984375,0.17943096160888672,0.0839848518371582,0.2874906063079834
1683935823717293000,1.33229296875,-0.032685279846191406,-0.11728239059448242,0.32042884826660156
1683935823727334400,1.34233447265625,-0.01464986801147461,-0.11136722564697266,0.39496660232543945
1683935823737375700,1.352375732421875,-0.33632707595825195,-0.13767147064208984,0.2056436538696289
1683935823747417000,1.3624169921875,-0.7581839561462402,-0.11916017532348633,0.2704195976257324
1683935823757458400,1.37245849609375,-0.7628698348999023,0.017310619354248047,0.10314750671386719
1683935823767499800,1.382499755859375,-0.44802093505859375,-0.2302112579345703,-0.014874458312988281
1683935823777541000,1.392541015625,-0.2000117301940918,-0.3051905632019043,-0.25529956817626953
1683935823787582500,1.40258251953125,0.14781808853149414,-0.3093385696411133,-0.5319604873657227
1683935823797623800,1.412623779296875,0.32706499099731445,-0.4726390838623047,-0.6324372291564941
1683935823807665200,1.4226650390625,-0.1322488784790039,-0.4709172248840332,-1.0162670612335205
1683935823817706500,1.43270654296875,-0.6518306732177734,-0.45916080474853516,-0.9847609996795654
1683935823827747800,1.442747802734375,-1.1840596199035645,-0.08926773071289062,-0.8147239685058594
1683935823837789200,1.4527890625,-1.5395026206970215,-0.5073413848876953,-0.47302961349487305
1683935823847830500,1.46283056640625,-0.9142422676086426,0.17363405227661133,-0.6828196048736572
1683935823857872000,1.472871826171875,-0.20865440368652344,-0.4172987937927246,-0.29912233352661133
1683935823867913200,1.482913330078125,0.49303340911865234,-0.5698895454406738,-0.19236516952514648
1683935823877954600,1.49295458984375,0.5509219169616699,-0.5127429962158203,-0.44649648666381836
1683935823887996000,1.502995849609375,0.4429287910461426,-0.12822294235229492,-0.5772929191589355
1683935823898037200,1.513037353515625,0.667658805847168,-0.2557344436645508,-0.35053443908691406
1683935823908078600,1.52307861328125,0.43983030319213867,-0.09775161743164062,-0.12330484390258789
1683935823918120000,1.533119873046875,0.1127786636352539,0.018070220947265625,-0.19266080856323242
1683935823928161300,1.543161376953125,0.19040489196777344,-0.09744071960449219,-0.06844520568847656
1683935823938202600,1.55320263671875,0.039113521575927734,0.06296205520629883,-0.12076282501220703
1683935823948244200,1.563244140625,-5.517648220062256,0.0009002685546875,-0.6429457664489746
1683935823958285300,1.573285400390625,-2.510730266571045,1.3734078407287598,-1.0138640403747559
1683935823968326700,1.58332666015625,1.6609115600585938,0.473358154296875,-0.2461094856262207
1683935823978368000,1.593367919921875,2.701843738555908,-0.5264887809753418,0.3812117576599121
1683935823988409300,1.603409423828125,2.021770477294922,-0.31748485565185547,-0.46568870544433594
1683935823998451000,1.613450927734375,2.416170120239258,-0.014613628387451172,-0.5023097991943359
1683935824008492300,1.6234921875,2.4285635948181152,0.045900821685791016,-0.036431312561035156
1683935824018533600,1.63353369140625,1.349374771118164,-0.13271331787109375,-0.47992944717407227
1683935824028574700,1.64357470703125,2.706533908843994,-0.3976297378540039,0.4138331413269043
1683935824038616000,1.653615966796875,1.602102279663086,-0.6980745792388916,-0.6158185005187988
1683935824048657700,1.66365771484375,0.44489145278930664,-0.6075444221496582,-1.510694980621338
1683935824058699000,1.673698974609375,-1.0981407165527344,-0.6653552055358887,-1.4979019165039062
1683935824068740400,1.683740234375,-2.7767539024353027,0.14276552200317383,-1.1853952407836914
1683935824078781400,1.693781494140625,-3.0709314346313477,1.0372858047485352,-0.26927852630615234
1683935824088822800,1.70382275390625,-1.9901173114776611,1.2414281368255615,1.3444147109985352
1683935824098864400,1.713864501953125,-1.7021397352218628,1.375592827796936,2.326289176940918
1683935824108905700,1.72390576171875,-1.7892450094223022,1.4864581823349,2.3395824432373047
1683935824118947000,1.733947021484375,-1.5096575021743774,1.4765783548355103,2.188605308532715
1683935824128988200,1.74398828125,-1.0164287090301514,1.2493774890899658,1.508234977722168
1683935824139029500,1.754029541015625,-0.25075292587280273,1.2529401779174805,0.4827995300292969
1683935824149070800,1.76407080078125,0.013519525527954102,1.061002254486084,-0.6220998764038086
1683935824159112400,1.774112548828125,-0.07137560844421387,0.730971097946167,-1.730234146118164
1683935824169153800,1.78415380859375,0.25547266006469727,0.8520934581756592,-2.8024044036865234
1683935824179195100,1.794195068359375,0.5752768516540527,1.4299602508544922,-3.821869373321533
1683935824189236200,1.804236328125,1.5717811584472656,1.6457998752593994,-3.5920658111572266
1683935824199277600,1.814277587890625,0.664583683013916,1.2365334033966064,-3.342379570007324
1683935824209319200,1.824319091796875,0.31580686569213867,1.1896430253982544,-2.572896957397461
1683935824219360500,1.834360595703125,0.29447996616363525,0.9732799530029297,-1.4663090705871582
1683935824229401900,1.84440185546875,0.8583426475524902,0.12563657760620117,-2.3312740325927734
1683935824239443200,1.854443115234375,0.83672034740448,0.9315558671951294,-0.7595968246459961
1683935824249484300,1.864484375,1.8630070686340332,-0.03234601020812988,0.4998006820678711
1683935824259526000,1.87452587890625,1.999880075454712,-0.05440676212310791,0.4617805480957031
1683935824269567200,1.884567138671875,1.0038982629776,-0.458011269569397,-0.2608652114868164
1683935824279608600,1.894608642578125,0.7674136161804199,-0.7206705808639526,-0.4277839660644531
1683935824289650000,1.90464990234375,-0.8549529314041138,-0.9624942541122437,-0.21416091918945312
1683935824299691300,1.914691162109375,-1.1159818172454834,-0.638648509979248,-1.217477798461914
1683935824309732600,1.924732666015625,-1.7988417148590088,-0.7847726345062256,-2.651365280151367
1683935824319774000,1.93477392578125,-1.8660435676574707,-0.840955376625061,-3.4502573013305664
1683935824329815300,1.944815185546875,-1.9678088426589966,-0.13407862186431885,-4.496434688568115
1683935824339856600,1.954856689453125,-1.8993334770202637,-0.7987537384033203,-3.8619909286499023
1683935824349898000,1.96489794921875,0.08462550491094589,-1.9084088802337646,-1.1720781326293945
1683935824359939300,1.974939208984375,1.9207098484039307,-1.5559430122375488,0.2439556121826172
1683935824369980700,1.984980712890625,2.594071388244629,-1.6022884845733643,1.096135139465332
1683935824380022000,1.99502197265625,2.6567201614379883,-1.001605749130249,1.0503463745117188
1683935824390063400,2.0050634765625,2.0306203365325928,-0.9272172451019287,1.0668134689331055
1683935824400104700,2.015104736328125,1.3886229991912842,-0.263322114944458,0.9366769790649414
1683935824410146000,2.02514599609375,-0.17993959784507751,0.39740824699401855,-0.4039440155029297
1683935824420187400,2.0351875,-1.1719558238983154,0.8572835922241211,-0.7491168975830078
1683935824430228700,2.045228759765625,-2.2900617122650146,1.0115687847137451,-0.7108879089355469
1683935824440270000,2.05527001953125,-1.661181092262268,1.13519287109375,0.09404659271240234
1683935824450311400,2.0653115234375,0.175373375415802,0.37411046028137207,2.9033327102661133
1683935824460352800,2.075352783203125,1.12460458278656,0.022904157638549805,4.7577667236328125
1683935824470394000,2.08539404296875,1.2517906427383423,0.2357175350189209,5.0015411376953125
1683935824480435500,2.095435546875,0.7205670475959778,-0.07440519332885742,5.257938385009766
1683935824490476800,2.105476806640625,-0.5404143929481506,-0.5040607452392578,4.455685615539551
1683935824500518100,2.11551806640625,-2.0527758598327637,-0.9472489356994629,3.040816307067871
1683935824510559500,2.1255595703125,-2.650524139404297,-1.3837647438049316,1.0449905395507812
1683935824520600800,2.135600830078125,-2.301164388656616,-1.963045597076416,0.3661842346191406
1683935824530642200,2.14564208984375,-1.09981369972229,-0.929840087890625,-2.059208869934082
1683935824540683500,2.15568359375,0.11927860975265503,-0.893427848815918,-1.502838134765625
1683935824550724900,2.165724853515625,0.10431085526943207,-1.5890569686889648,0.6124353408813477
1683935824560766200,2.17576611328125,0.11129699647426605,-1.2033491134643555,0.9856472015380859
1683935824570807600,2.1858076171875,0.14035631716251373,-0.6835651397705078,1.1538000106811523
1683935824580849000,2.195848876953125,0.1386650651693344,-0.15100336074829102,0.38249874114990234
1683935824590890200,2.20589013671875,0.32053717970848083,-0.2442641258239746,0.5553197860717773
1683935824600931600,2.215931640625,0.6146605610847473,-0.1889481544494629,1.3319129943847656
1683935824610973000,2.225972900390625,0.867901086807251,0.18698406219482422,1.2074050903320312
1683935824621014300,2.23601416015625,0.8566299676895142,-0.13210105895996094,1.5482587814331055
1683935824631055600,2.2460556640625,0.4885106086730957,0.47302985191345215,1.240447998046875
1683935824641097000,2.256096923828125,0.6638914942741394,0.4909677505493164,1.1003923416137695
1683935824651138300,2.26613818359375,0.6508018374443054,0.5612809658050537,1.3236637115478516
1683935824661179600,2.2761796875,0.23537082970142365,1.0294921398162842,1.922389030456543
1683935824671221000,2.286220947265625,0.017198607325553894,1.3070085048675537,0.9571857452392578
1683935824681262300,2.296262451171875,0.31460633873939514,1.414299726486206,-0.4833345413208008
1683935824691303700,2.3063037109375,0.8914079666137695,1.3256196975708008,0.10324573516845703
1683935824701345000,2.316344970703125,1.1871567964553833,1.2474660873413086,0.8936023712158203
1683935824711386400,2.326386474609375,1.1795729398727417,1.3547413349151611,0.9530801773071289
1683935824721427700,2.336427734375,1.2293596267700195,1.3676817417144775,0.6188592910766602
1683935824731469000,2.346468994140625,1.179680585861206,1.093876838684082,0.2932271957397461
1683935824741510400,2.356510498046875,1.5296646356582642,0.6563858985900879,0.6984491348266602
1683935824751551700,2.3665517578125,2.735262632369995,1.5045077800750732,0.3012065887451172
1683935824761593000,2.376593017578125,1.9413366317749023,0.15701913833618164,-0.10698223114013672
1683935824771634400,2.386634521484375,1.2495638132095337,0.39156341552734375,1.1200437545776367
1683935824781675800,2.39667578125,1.1508311033248901,1.239328145980835,0.057633399963378906
1683935824791717000,2.406717041015625,0.4581305980682373,-0.015676498413085938,0.0923776626586914
1683935824801758500,2.416758544921875,0.020140543580055237,-0.5256400108337402,-0.8786287307739258
1683935824811799800,2.4267998046875,0.1939990073442459,0.8817861080169678,-1.159754753112793
1683935824821841200,2.436841064453125,0.23038601875305176,0.4023594856262207,-0.054421424865722656
1683935824831882500,2.446882568359375,0.6190247535705566,-0.5975675582885742,-0.5844535827636719
1683935824841923800,2.456923828125,0.9151673316955566,-0.040251731872558594,-0.6053457260131836
1683935824851965200,2.466965087890625,1.3743339776992798,-0.2421555519104004,-0.35272979736328125
1683935824862006500,2.477006591796875,1.408457636833191,-0.24906301498413086,-0.633448600769043
1683935824872047900,2.4870478515625,1.3198933601379395,-0.23263263702392578,-0.9701299667358398
1683935824882089200,2.497089111328125,0.8910210728645325,-0.30433082580566406,-1.1032915115356445
1683935824892130600,2.507130615234375,0.1347658783197403,-0.4513735771179199,-1.0500092506408691
1683935824902172000,2.517171875,-0.05148321017622948,-0.12052679061889648,-0.4847440719604492
1683935824912213200,2.527213134765625,0.18371498584747314,0.47049999237060547,0.09335136413574219
1683935824922254600,2.537254638671875,-0.6138935089111328,0.0529932975769043,-0.1022481918334961
1683935824932296000,2.5472958984375,-0.9211814999580383,0.516939640045166,-0.04815196990966797
1683935824942337300,2.557337158203125,-0.5745435357093811,0.8559150695800781,0.9103059768676758
1683935824952378600,2.567378662109375,-0.47873395681381226,0.5211844444274902,0.20941162109375
1683935824962420000,2.577419921875,-0.30194276571273804,0.8468332290649414,0.7251148223876953
1683935824972461000,2.5874609375,0.6743980050086975,0.5847921371459961,-0.6416168212890625
1683935824982502700,2.597502685546875,0.29883840680122375,0.4729652404785156,-1.5665621757507324
1683935824992544000,2.6075439453125,0.955837607383728,1.6636550426483154,-0.6374397277832031
1683935825002585300,2.61758544921875,0.665888786315918,1.6438772678375244,-1.1002674102783203
1683935825012626700,2.627626708984375,0.008276522159576416,-0.07327842712402344,-1.2483081817626953
1683935825022667800,2.637667724609375,-0.17757302522659302,-0.1304783821105957,-0.7238569259643555
1683935825032709400,2.64770947265625,-0.0883089005947113,-0.0454716682434082,-0.13695907592773438
1683935825042750700,2.657750732421875,-0.17202380299568176,0.06283044815063477,0.8848085403442383
1683935825052792000,2.6677919921875,0.020978718996047974,0.34703874588012695,1.3918275833129883
1683935825062833200,2.677833251953125,0.39014932513237,0.276731014251709,1.4230890274047852
1683935825072874500,2.68787451171875,0.5674031972885132,-0.045693397521972656,1.3431930541992188
1683935825082916000,2.697916015625,0.8020768761634827,-0.4421834945678711,1.5070877075195312
1683935825092957400,2.70795751953125,0.7825092077255249,0.20145368576049805,0.7984037399291992
1683935825102998800,2.717998779296875,0.6681301593780518,-0.7243618965148926,0.3310413360595703
1683935825113040000,2.728039794921875,0.6156038045883179,-0.9698944091796875,-0.10577392578125
1683935825123081200,2.738081298828125,0.786486029624939,-0.4380168914794922,-0.36790943145751953
1683935825133122800,2.748122802734375,0.9197313189506531,-1.0418715476989746,-0.5006198883056641
1683935825143164200,2.7581640625,0.6502224802970886,-1.6673197746276855,0.12396240234375
1683935825153205200,2.768205322265625,0.9318667054176331,-1.179586410522461,0.41460227966308594
1683935825163246600,2.77824658203125,0.9910918474197388,-1.1510982513427734,0.8184027671813965
1683935825173288000,2.788287841796875,1.019974708557129,-1.1197514533996582,0.6694073677062988
1683935825183329500,2.79832958984375,1.44996976852417,-2.6476712226867676,1.2934346199035645
1683935825193371000,2.808370849609375,1.2358450889587402,-0.09036588668823242,-0.3453340530395508
1683935825203412000,2.818411865234375,0.6017578840255737,0.8613944053649902,-0.7738919258117676
1683935825213453300,2.828453369140625,-0.30950552225112915,0.17519521713256836,-0.18073606491088867
1683935825223494700,2.83849462890625,-0.8305482864379883,0.1502828598022461,-0.27649354934692383
1683935825233536300,2.848536376953125,-1.1893329620361328,-0.3672366142272949,-0.5208296775817871
1683935825243577300,2.858577392578125,-1.0707411766052246,-0.35707712173461914,-0.4570732116699219
1683935825253618700,2.86861865234375,-0.60701584815979,-0.4528236389160156,-0.056797027587890625
1683935825263660000,2.878659912109375,-0.1406375914812088,-0.8641543388366699,0.3780536651611328
1683935825273701400,2.888701416015625,-0.16932357847690582,-1.315673828125,0.7044425010681152
1683935825283742700,2.89874267578125,-0.5513477325439453,-1.1603074073791504,0.797339916229248
1683935825293784000,2.9087841796875,-0.9992385506629944,0.08168506622314453,-0.2523193359375
1683935825303825400,2.918825439453125,-1.1506237983703613,-0.2844047546386719,0.3809795379638672
1683935825313866800,2.92886669921875,-0.6356333494186401,-0.8320727348327637,0.6060423851013184
1683935825323908000,2.938908203125,-0.5860882997512817,-1.227210521697998,0.4166374206542969
1683935825333949400,2.948949462890625,-0.6524792909622192,-1.2665610313415527,-0.032741546630859375
1683935825343990800,2.95899072265625,-0.5094221234321594,-1.3084750175476074,-0.33542680740356445
1683935825354032000,2.9690322265625,-0.09299576282501221,-1.015486240386963,-0.5097775459289551
1683935825364073500,2.979073486328125,-0.4856989085674286,-0.8669724464416504,-1.0873870849609375
1683935825374114800,2.98911474609375,-0.44017088413238525,-0.45050764083862305,-1.3062753677368164
1683935825384156200,2.99915625,-0.42861756682395935,-0.026836395263671875,-1.2074570655822754
1683935825394197500,3.009197509765625,-0.4231948256492615,-0.22907114028930664,-0.9769253730773926
1683935825404238800,3.01923876953125,-0.2603786289691925,-0.047332763671875,-0.9000687599182129
1683935825414280200,3.0292802734375,-0.027522683143615723,-0.12213516235351562,-1.0422859191894531
1683935825424321500,3.039321533203125,0.31984031200408936,0.24947261810302734,-1.385965347290039
1683935825434363000,3.04936279296875,0.5009925365447998,0.5425100326538086,-1.2354469299316406
1683935825444404200,3.059404296875,0.47709351778030396,0.6271467208862305,-1.184758186340332
1683935825454445600,3.069445556640625,0.7990716099739075,0.7502217292785645,-1.236539363861084
1683935825464487000,3.07948681640625,0.558548092842102,0.28431177139282227,-0.7845745086669922
1683935825474528300,3.0895283203125,0.3607789874076843,0.1325058937072754,-0.10142135620117188
1683935825484569600,3.099569580078125,0.04214131832122803,0.2866792678833008,-0.14622259140014648
1683935825494611000,3.10961083984375,-0.17381465435028076,0.31475305557250977,0.368380069732666
1683935825504652300,3.11965234375,-0.48634588718414307,0.3727836608886719,0.262937068939209
1683935825514693600,3.129693603515625,-0.6590406894683838,0.35070085525512695,0.14717864990234375
1683935825524735000,3.13973486328125,-0.8046743869781494,-0.036353111267089844,0.1780261993408203
1683935825534776300,3.1497763671875,-0.9524790048599243,0.2185525894165039,-0.5362448692321777
1683935825544817700,3.159817626953125,-1.0139652490615845,0.1594257354736328,-0.9545831680297852
1683935825554859000,3.16985888671875,-0.5832130908966064,0.25632476806640625,-1.4660205841064453
1683935825564900400,3.179900390625,-0.38120055198669434,0.15549564361572266,-1.886730670928955
1683935825574941700,3.189941650390625,-0.17352604866027832,-0.06483602523803711,-2.1724534034729004
1683935825584983000,3.199983154296875,0.04949057102203369,-0.6082677841186523,-2.0697150230407715
1683935825595024400,3.2100244140625,0.22631347179412842,-0.43215513229370117,-1.8340344429016113
1683935825605065700,3.220065673828125,0.1304764747619629,-0.0923147201538086,-1.4761285781860352
1683935825615107000,3.230107177734375,0.1569075584411621,0.19443368911743164,-0.48412561416625977
1683935825625148400,3.2401484375,0.054376959800720215,0.008505821228027344,-0.20702600479125977
1683935825635189800,3.250189697265625,-0.4040724039077759,0.02442312240600586,0.6222090721130371
1683935825645231000,3.260231201171875,-0.5505578517913818,0.5907831192016602,1.8560619354248047
1683935825655272400,3.2702724609375,-0.10375213623046875,0.7073240280151367,1.5904088020324707
1683935825665313800,3.280313720703125,-0.4874354600906372,-0.008879661560058594,1.804802417755127
1683935825675355100,3.290355224609375,-0.41158807277679443,0.28077077865600586,2.147519111633301
1683935825685396500,3.300396484375,0.7772386074066162,0.34678030014038086,0.7040629386901855
1683935825695437800,3.310437744140625,0.0632849931716919,-1.9396038055419922,0.98309326171875
1683935825705479200,3.320479248046875,0.3824423551559448,-2.474489688873291,-0.06585454940795898
1683935825715520500,3.3305205078125,0.7773287296295166,-0.30322694778442383,-1.405026912689209
1683935825725561900,3.340561767578125,0.521782398223877,-1.2013049125671387,0.37335920333862305
1683935825735603200,3.350603271484375,-0.025681734085083008,-0.6136293411254883,0.48023366928100586
1683935825745644500,3.36064453125,-0.3240480422973633,0.7033195495605469,-1.0918645858764648
1683935825755686000,3.370685791015625,-0.05212891101837158,0.403200626373291,-0.5290331840515137
1683935825765727200,3.380727294921875,0.04655158519744873,-0.6606254577636719,1.042710304260254
1683935825775768600,3.3907685546875,-0.32937049865722656,-1.3015637397766113,0.6726446151733398
1683935825785810000,3.400809814453125,-0.8877158164978027,-1.022498607635498,0.08625221252441406
1683935825795851300,3.410851318359375,-0.9303315877914429,0.1730508804321289,-0.5239744186401367
1683935825805892600,3.420892578125,-0.9748783111572266,-0.1011509895324707,0.2451767921447754
1683935825815934000,3.430933837890625,-1.0811043977737427,-1.4441885948181152,0.2784261703491211
1683935825825975300,3.440975341796875,-1.034694790840149,-1.654653549194336,-0.42125368118286133
1683935825836016600,3.4510166015625,-0.9905818700790405,-1.2207236289978027,-1.01708984375
1683935825846058000,3.46105810546875,-1.03948175907135,-1.114332675933838,-0.6828999519348145
1683935825856099300,3.471099365234375,-0.4112662076950073,-0.7790427207946777,-0.524846076965332
1683935825866140700,3.481140625,-0.3640553951263428,-0.936007022857666,-0.37524986267089844
1683935825876182000,3.49118212890625,-0.32721972465515137,-0.8167662620544434,-0.14545488357543945
1683935825886223400,3.501223388671875,-0.14515376091003418,-0.2429213523864746,0.031005859375
1683935825896264700,3.5112646484375,-0.3581441640853882,0.32015275955200195,-0.3435025215148926
1683935825906306000,3.52130615234375,-0.42765212059020996,0.2502765655517578,-1.0377206802368164
1683935825916347400,3.531347412109375,-0.3342396020889282,0.20343923568725586,-0.5520157814025879
1683935825926388700,3.541388671875,-0.3721461296081543,-0.13695621490478516,0.3291797637939453
1683935825936430000,3.55143017578125,-0.06355738639831543,0.3951420783996582,0.2503833770751953
1683935825946471400,3.561471435546875,0.7775117754936218,1.6555771827697754,0.10866928100585938
1683935825956512800,3.5715126953125,0.4312359094619751,1.564997673034668,-0.14225196838378906
1683935825966554000,3.58155419921875,-0.09989917278289795,0.5529308319091797,-0.8373665809631348
1683935825976595500,3.591595458984375,-0.14813017845153809,-0.14355993270874023,-0.8656840324401855
1683935825986636800,3.60163671875,0.3037705421447754,-0.6959695816040039,-0.04149007797241211
1683935825996678000,3.611677978515625,0.17113959789276123,-0.0422205924987793,-0.1327672004699707
1683935826006719500,3.621719482421875,-0.4206085205078125,0.24961185455322266,0.2529277801513672
1683935826016760800,3.6317607421875,-0.4694838523864746,-0.02491283416748047,0.2927055358886719
1683935826026802000,3.641802001953125,-0.27390122413635254,-0.5469446182250977,0.340057373046875
1683935826036843300,3.65184326171875,-0.07623302936553955,-0.4937868118286133,0.5567226409912109
1683935826046884600,3.661884521484375,-0.2727036476135254,-0.17386198043823242,0.1543745994567871
1683935826056926200,3.67192626953125,-0.5310721397399902,0.2119903564453125,-0.47214221954345703
1683935826066967300,3.68196728515625,-0.5688731670379639,0.34831953048706055,-0.43880701065063477
1683935826077008600,3.692008544921875,-0.3906198740005493,1.0630345344543457,-0.35875654220581055
1683935826087050000,3.702050048828125,-0.27483928203582764,1.0539183616638184,-0.5242161750793457
1683935826097091300,3.71209130859375,-0.39194369316101074,1.0722417831420898,-0.40790796279907227
1683935826107132700,3.722132568359375,-0.47682762145996094,0.620664119720459,-0.3610954284667969
1683935826117174000,3.732174072265625,-0.4918687343597412,0.22005701065063477,-0.3806147575378418
1683935826127215400,3.74221533203125,-0.327231764793396,-0.2846364974975586,-1.0529108047485352
1683935826137256700,3.752256591796875,0.15449583530426025,0.41966962814331055,-1.2763581275939941
1683935826147298000,3.762298095703125,0.8012053966522217,1.2901062965393066,-0.3968219757080078
1683935826157339400,3.77233935546875,0.7970566749572754,0.9698200225830078,0.752230167388916
1683935826167380700,3.782380615234375,0.28269946575164795,0.6301593780517578,1.5704588890075684
1683935826177422000,3.792422119140625,0.014429092407226562,1.7062606811523438,2.2111363410949707
1683935826187463400,3.80246337890625,-0.0538942813873291,0.9187717437744141,1.6667118072509766
1683935826197504800,3.8125048828125,-0.03476989269256592,0.6131744384765625,0.7797074317932129
1683935826207546000,3.822546142578125,-0.015024781227111816,0.584414005279541,0.3957858085632324
1683935826217587500,3.83258740234375,0.011072158813476562,0.6646804809570312,0.22199392318725586
1683935826227628800,3.84262890625,-0.03290402889251709,0.7312884330749512,0.052964210510253906
1683935826237670100,3.852670166015625,0.003861546516418457,0.7796788215637207,-0.0627298355102539
1683935826247711500,3.86271142578125,-0.09325850009918213,0.9622406959533691,-0.19542980194091797
1683935826257752800,3.8727529296875,-0.20705807209014893,1.074615478515625,-0.28464651107788086
1683935826267794200,3.882794189453125,-0.28529787063598633,1.0397624969482422,-0.36714839935302734
1683935826277835500,3.89283544921875,-0.26502788066864014,1.0216965675354004,-0.33818578720092773
1683935826287876900,3.902876953125,-0.20561575889587402,2.322429656982422,-0.621070384979248
1683935826297918200,3.912918212890625,0.0817333459854126,3.839618682861328,-1.198437213897705
1683935826307959600,3.92295947265625,-1.5888540744781494,2.731907606124878,-1.7600655555725098
1683935826318001000,3.9330009765625,-1.9116015434265137,1.8905487060546875,-2.2253284454345703
1683935826328042200,3.943042236328125,-1.2098159790039062,1.2700309753417969,-2.238044261932373
1683935826338083600,3.95308349609375,-0.6071486473083496,0.4482455253601074,-1.5341806411743164
1683935826348125000,3.963125,-0.3298017978668213,-0.23158025741577148,-0.9873251914978027
1683935826358166300,3.973166259765625,-0.058458566665649414,-0.19826412200927734,-0.23643875122070312
1683935826368207600,3.98320751953125,-0.401458740234375,-0.8242282867431641,0.2635307312011719
1683935826378249000,3.9932490234375,-0.6357040405273438,-1.079576015472412,0.5441989898681641
1683935826388290300,4.003290283203125,-0.3755180835723877,0.17478704452514648,0.18453311920166016
1683935826398331600,4.01333154296875,-0.4648113250732422,-0.3530454635620117,0.7164011001586914
1683935826408373000,4.023373046875,-0.6880156993865967,-0.7576174736022949,1.7446160316467285
1683935826418414300,4.033414306640625,-0.9781808853149414,-1.1943507194519043,2.215510368347168
1683935826428455700,4.04345556640625,-1.2370996475219727,-1.7051992416381836,1.9330673217773438
1683935826438497000,4.0534970703125,-1.4426569938659668,-1.4028148651123047,1.2884039878845215
1683935826448538400,4.063538330078125,-1.397491693496704,-0.45235633850097656,0.7211785316467285
1683935826458579700,4.073579833984375,-1.5118885040283203,0.8876738548278809,0.1424884796142578
1683935826468620800,4.083620849609375,-1.5392024517059326,1.3586578369140625,-0.25035905838012695
1683935826478662400,4.093662353515625,-1.767264723777771,2.1467909812927246,-0.32727527618408203
1683935826488703700,4.103703857421875,-2.340611457824707,0.8069057464599609,-1.045609474182129
1683935826498744800,4.113744873046875,-0.9744846820831299,0.5289573669433594,-0.8165631294250488
1683935826508786200,4.1237861328125,0.5804404020309448,0.19755935668945312,-0.33606624603271484
1683935826518827500,4.13382763671875,1.855757236480713,-0.6606845855712891,0.40199947357177734
1683935826528868900,4.143868896484375,2.6813225746154785,-1.766545295715332,1.108853816986084
1683935826538910200,4.15391015625,2.8716325759887695,-1.9088735580444336,1.6638789176940918
1683935826548951600,4.16395166015625,2.2488343715667725,-1.7503862380981445,1.9828248023986816
1683935826558993000,4.173992919921875,1.3579888343811035,-1.270859718322754,1.9291605949401855
1683935826569034200,4.1840341796875,0.6997271180152893,-0.3023691177368164,1.724543571472168
1683935826579075600,4.19407568359375,0.24772953987121582,0.4371070861816406,1.451850414276123
1683935826589117000,4.204116943359375,0.04496490955352783,1.5121269226074219,0.4274134635925293
1683935826599158300,4.214158203125,0.047792673110961914,2.2894253730773926,-0.8855979442596436
1683935826609199600,4.22419970703125,0.19640016555786133,2.723452091217041,-2.5167956352233887
1683935826619241000,4.234240966796875,1.0558595657348633,2.146228313446045,-3.0283353328704834
1683935826629282300,4.2442822265625,2.0171890258789062,1.2589459419250488,-2.53544545173645
1683935826639323600,4.25432373046875,2.6521177291870117,0.22547626495361328,-1.3258554935455322
1683935826649365000,4.264364990234375,2.659126043319702,0.07465076446533203,-0.6414885520935059
1683935826659406300,4.27440625,2.356229305267334,0.18809890747070312,-0.1573162078857422
1683935826669447700,4.28444775390625,1.8748726844787598,0.5655622482299805,0.29553842544555664
1683935826679489000,4.294489013671875,1.354547142982483,0.8078632354736328,0.6441552639007568
1683935826689530400,4.3045302734375,0.9299440383911133,1.0805139541625977,0.5095064640045166
1683935826699571700,4.31457177734375,0.41719189286231995,0.9834423065185547,-0.21828055381774902
1683935826709613000,4.324613037109375,0.28846824169158936,0.21552658081054688,-0.6729531288146973
1683935826719654400,4.334654296875,0.4978952407836914,-0.4073352813720703,-0.9065113067626953
1683935826729695700,4.34469580078125,1.0829524993896484,-0.7240657806396484,-0.5889987945556641
1683935826739737000,4.354737060546875,1.3365716934204102,-0.7717208862304688,-0.2679111957550049
1683935826749778400,4.3647783203125,1.303560733795166,-0.9779415130615234,0.1633145809173584
1683935826759819800,4.37481982421875,1.1159197092056274,-1.289113998413086,0.7721216678619385
1683935826769861000,4.384861083984375,1.1629971265792847,-1.3736047744750977,1.3559837341308594
1683935826779902500,4.39490234375,1.3421169519424438,-1.4439678192138672,1.3535659313201904
1683935826789943800,4.40494384765625,1.3188040256500244,-1.7905197143554688,0.8452434539794922
1683935826799985200,4.414985107421875,1.2916340827941895,-2.083817481994629,0.23631930351257324
1683935826810026500,4.425026611328125,1.2909340858459473,-1.708730697631836,-0.405444860458374
1683935826820067800,4.43506787109375,1.249107837677002,-1.518233299255371,-1.0775612592697144
1683935826830109000,4.44510888671875,0.9963440299034119,-1.2198810577392578,-1.64106285572052
1683935826840150500,4.455150634765625,0.894085705280304,-0.8765068054199219,-1.7564425468444824
1683935826850192000,4.46519189453125,0.7116928696632385,-0.7320957183837891,-1.7627403736114502
1683935826860233000,4.47523291015625,0.5208331346511841,-0.8677129745483398,-1.5186574459075928
1683935826870274300,4.4852744140625,0.3167281746864319,-1.0256128311157227,-1.0312808752059937
1683935826880315600,4.495315673828125,0.3650510907173157,-1.2046890258789062,-0.30004000663757324
1683935826890357000,4.50535693359375,0.5822197794914246,-0.8392190933227539,0.12880373001098633
1683935826900398300,4.5153984375,0.685242235660553,-0.3742246627807617,0.060150146484375
1683935826910439700,4.525439697265625,0.7872523069381714,-0.01654529571533203,-0.3040947914123535
1683935826920481000,4.53548095703125,0.9413936138153076,0.2492504119873047,-0.4129229784011841
1683935826930522400,4.5455224609375,1.04410982131958,0.28978538513183594,-0.41685163974761963
1683935826940563700,4.555563720703125,1.0434439182281494,0.21784591674804688,-0.3089001178741455
1683935826950605000,4.56560498046875,1.0519225597381592,-0.04787445068359375,-0.10281515121459961
1683935826960646400,4.575646484375,1.1284774541854858,-0.05865478515625,0.272446870803833
1683935826970687700,4.585687744140625,1.231366515159607,-0.812861442565918,0.22418808937072754
1683935826980729000,4.59572900390625,1.3372479677200317,-0.2643566131591797,0.42022061347961426
1683935826990770400,4.6057705078125,1.110073208808899,-0.6868982315063477,-0.07427740097045898
1683935827000811800,4.615811767578125,0.95615553855896,-0.2344970703125,-0.1551494598388672
1683935827010853000,4.62585302734375,0.7123458385467529,0.21831512451171875,0.16669392585754395
1683935827020894500,4.63589453125,0.6210657954216003,-0.24034500122070312,-0.04406142234802246
1683935827030935800,4.645935791015625,0.6046625375747681,0.04394340515136719,0.08917737007141113
1683935827040977200,4.65597705078125,0.5248898863792419,0.028359413146972656,-0.21915674209594727
1683935827051018500,4.6660185546875,0.528437077999115,-0.18744945526123047,-0.7685178518295288
1683935827061059800,4.676059814453125,0.449428915977478,-0.018976211547851562,-1.2149657011032104
1683935827071101200,4.68610107421875,0.4382352828979492,0.10161781311035156,-1.5243316888809204
1683935827081142500,4.696142578125,0.38531556725502014,0.17937183380126953,-1.4005945920944214
1683935827091183900,4.706183837890625,0.4453642964363098,0.31824684143066406,-0.9232258796691895
1683935827101225200,4.71622509765625,0.37066638469696045,-0.06574535369873047,-0.6367156505584717
1683935827111266600,4.7262666015625,0.38339370489120483,-0.14762592315673828,-0.3239567279815674
1683935827121308000,4.736307861328125,0.5063013434410095,0.22165489196777344,-0.11603331565856934
1683935827131349000,4.746348876953125,0.6543039679527283,-0.08786392211914062,-0.3085746765136719
1683935827141390300,4.756390380859375,0.719819188117981,-0.07112598419189453,-0.304736852645874
1683935827151431700,4.766431640625,0.6718170642852783,-0.08220481872558594,-0.49838972091674805
1683935827161473000,4.77647314453125,0.6407038569450378,-0.20386123657226562,-0.7216541767120361
1683935827171514400,4.786514404296875,0.7222249507904053,-0.3975362777709961,-0.802170991897583
1683935827181555700,4.7965556640625,0.7818464040756226,-0.6911697387695312,-0.8840831518173218
1683935827191597000,4.80659716796875,0.8043093681335449,-0.6852197647094727,-0.9034714698791504
1683935827201638400,4.816638427734375,0.8126212358474731,-0.44068145751953125,-0.8429931402206421
1683935827211679700,4.8266796875,0.6872423887252808,-0.03262805938720703,-0.9763408899307251
1683935827221721000,4.83672119140625,0.697741687297821,0.05327415466308594,-1.2231725454330444
1683935827231762400,4.846762451171875,0.5110165476799011,0.0677490234375,-1.8157618045806885
1683935827241803800,4.8568037109375,0.34849435091018677,-0.16053295135498047,-1.8883757591247559
1683935827251845000,4.86684521484375,0.12366007268428802,-0.1633453369140625,-1.707578182220459
1683935827261886500,4.876886474609375,-0.13849309086799622,-0.06319522857666016,-1.6571247577667236
1683935827271927800,4.886927734375,-0.3840441107749939,-0.07591915130615234,-1.5697605609893799
1683935827281969200,4.89696923828125,-0.5075203776359558,-0.09952926635742188,-1.4471263885498047
1683935827292010500,4.907010498046875,-0.4798506498336792,-0.11635208129882812,-1.1955561637878418
1683935827302051800,4.9170517578125,-0.37430816888809204,-0.020290374755859375,-0.9514872431755066
1683935827312093200,4.92709326171875,-0.21747946739196777,-0.005950927734375,-0.7090127468109131
1683935827322134500,4.937134521484375,0.08350247144699097,-0.3814659118652344,-0.38339805603027344
1683935827332176000,4.94717578125,0.4553478956222534,-0.7378206253051758,0.37479090690612793
1683935827342217200,4.95721728515625,0.7857600450515747,-1.2527313232421875,2.2768383026123047
1683935827352258600,4.967258544921875,1.1376317739486694,-1.2285270690917969,2.64690899848938
1683935827362300000,4.9772998046875,1.2382289171218872,-1.192972183227539,2.415895938873291
1683935827372341200,4.98734130859375,1.2525569200515747,-0.7009906768798828,2.0928890705108643
1683935827382382300,4.99738232421875,1.0845592021942139,-0.34316539764404297,1.5794641971588135
1683935827392423700,5.007423583984375,0.9193294048309326,-0.38636207580566406,0.8788936734199524
1683935827402465000,5.017465087890625,0.8322917222976685,-0.4945564270019531,0.2493857741355896
1683935827412506400,5.02750634765625,0.5344892144203186,-0.6864233016967773,-0.2770092487335205
1683935827422547700,5.037547607421875,0.32845622301101685,-0.8965234756469727,-1.1537814140319824
1683935827432589000,5.047589111328125,0.34399405121803284,-1.0214033126831055,-1.6263930797576904
1683935827442630400,5.05763037109375,0.5570603013038635,-0.8293437957763672,-1.5417759418487549
1683935827452671700,5.067671630859375,0.7460609674453735,-0.5985841751098633,-1.2875943183898926
1683935827462713000,5.077713134765625,0.9198197722434998,-0.026609420776367188,-0.7617053985595703
1683935827472754400,5.08775439453125,0.9970341920852661,0.47198009490966797,-0.35319551825523376
1683935827482795800,5.097795654296875,1.0719456672668457,0.7322349548339844,0.13414806127548218
1683935827492837000,5.107837158203125,1.088935136795044,0.5637578964233398,0.45243552327156067
1683935827502878500,5.11787841796875,0.9225122928619385,0.3833637237548828,0.6087609529495239
1683935827512919800,5.127919921875,0.6683864593505859,0.47052955627441406,0.7377625703811646
1683935827522961200,5.137961181640625,0.23164041340351105,0.47348785400390625,0.7946340441703796
1683935827533002500,5.14800244140625,-0.15666399896144867,0.8658676147460938,0.4897643029689789
1683935827543043800,5.1580439453125,-0.45972850918769836,1.7469596862792969,1.1868077516555786
1683935827553085200,5.168085205078125,-0.8892480731010437,1.1637077331542969,1.929964542388916
1683935827563126500,5.17812646484375,-1.2520040273666382,0.5979223251342773,2.579035520553589
1683935827573167900,5.18816796875,-1.484644889831543,0.3315601348876953,3.178774833679199
1683935827583209200,5.198209228515625,-1.559615135192871,0.12771320343017578,3.14212703704834
1683935827593250300,5.208250244140625,-1.4371806383132935,0.27055835723876953,2.3990066051483154
1683935827603291600,5.218291748046875,-1.1392829418182373,0.5562677383422852,1.5404397249221802
1683935827613333000,5.2283330078125,-0.7886050939559937,0.7001228332519531,0.9267919063568115
1683935827623374300,5.238374267578125,-0.3695421516895294,0.6210012435913086,0.5475976467132568
1683935827633415700,5.248415771484375,0.11118459701538086,0.3383951187133789,0.2522561550140381
1683935827643457000,5.25845703125,0.5327752828598022,0.08430099487304688,0.06387192010879517
1683935827653498400,5.268498291015625,0.8601946830749512,-0.02922821044921875,-0.17344065010547638
1683935827663539700,5.278539794921875,1.0225906372070312,-0.21014118194580078,-0.3855077624320984
1683935827673581000,5.2885810546875,1.134861707687378,-0.33136558532714844,-0.5598462820053101
1683935827683622400,5.298622314453125,1.2298951148986816,-0.4379425048828125,-0.7120400071144104
1683935827693663700,5.308663818359375,1.3117165565490723,-0.5198469161987305,-0.7230954170227051
1683935827703705000,5.318705078125,1.3739726543426514,-0.48102760314941406,-0.7325989007949829
1683935827713746400,5.328746337890625,1.3338570594787598,-0.3549175262451172,-0.619331955909729
1683935827723787800,5.338787841796875,1.1993218660354614,-0.232330322265625,-0.5418311953544617
1683935827733829000,5.3488291015625,1.0822198390960693,-0.18261432647705078,-0.5376465320587158
1683935827743870500,5.358870361328125,0.9845007658004761,-0.1079397201538086,-0.5834829807281494
1683935827753911800,5.368911865234375,0.8266135454177856,-0.1210641860961914,-0.5607035160064697
1683935827763953200,5.378953125,0.5964348316192627,-0.050436973571777344,-0.5548405647277832
1683935827773994200,5.388994140625,0.40297263860702515,-0.03525257110595703,-0.5179435014724731
1683935827784035800,5.399035888671875,0.21696189045906067,0.03902626037597656,-0.5087412595748901
1683935827794077000,5.409076904296875,0.04735419154167175,0.1387653350830078,-0.2585762143135071
1683935827804118300,5.4191181640625,-0.08527880907058716,0.23769378662109375,0.021929726004600525
1683935827814159600,5.42915966796875,-0.14340642094612122,0.26910972595214844,0.30710816383361816
1683935827824201000,5.439200927734375,-0.1929536759853363,0.27872562408447266,0.4995414614677429
1683935827834242300,5.4492421875,-0.22850531339645386,0.1998424530029297,0.6304067373275757
1683935827844283600,5.45928369140625,-0.2660638689994812,0.09957027435302734,0.5613170266151428
1683935827854325000,5.469324951171875,-0.275044322013855,0.0662851333618164,0.5191806554794312
1683935827864366300,5.479366455078125,-0.26857075095176697,0.19528865814208984,0.5364341735839844
1683935827874407700,5.48940771484375,-0.2556946277618408,0.2473468780517578,0.42187783122062683
1683935827884449000,5.499448974609375,-0.24148190021514893,0.30150413513183594,0.31894049048423767
1683935827894490400,5.509490478515625,-0.2217985987663269,0.3792848587036133,0.29329538345336914
1683935827904531700,5.51953173828125,-0.13773512840270996,0.3111114501953125,0.331213116645813
1683935827914573000,5.529572998046875,-0.07364636659622192,0.2788972854614258,0.23929902911186218
1683935827924614400,5.539614501953125,0.02101185917854309,0.2395610809326172,0.1606522649526596
1683935827934655700,5.54965576171875,0.08512428402900696,0.2288808822631836,0.02320333570241928
1683935827944697000,5.559697021484375,0.19741007685661316,0.1464395523071289,-0.11895943433046341
1683935827954738400,5.569738525390625,0.34252357482910156,0.1929616928100586,-0.23619210720062256
1683935827964779500,5.579779541015625,0.43784788250923157,0.2701444625854492,-0.2605311870574951
1683935827974820900,5.58982080078125,0.5903709530830383,0.3660116195678711,-0.2608492374420166
1683935827984862200,5.5998623046875,0.7126489281654358,0.4758453369140625,-0.24265263974666595
1683935827994903600,5.609903564453125,0.8104789853096008,0.5065822601318359,-0.1675475388765335
1683935828004945000,5.61994482421875,0.840074896812439,0.3914985656738281,-0.22062921524047852
1683935828014986200,5.629986328125,0.8429272174835205,0.2263193130493164,-0.27597856521606445
1683935828025027600,5.640027587890625,0.80247563123703,0.20683670043945312,-0.3578988015651703
1683935828035069000,5.65006884765625,0.7458386421203613,0.2297220230102539,-0.39865052700042725
1683935828045110300,5.6601103515625,0.5787220001220703,0.2514963150024414,-0.5020744204521179
1683935828055151600,5.670151611328125,0.356832891702652,0.16913509368896484,-0.5483604073524475
1683935828065193000,5.68019287109375,-0.05480685830116272,0.10225105285644531,-0.5674946308135986
1683935828075234300,5.690234375,-0.6434338688850403,-0.22310161590576172,-0.5321694016456604
1683935828085275600,5.700275634765625,-1.3613473176956177,-0.6347522735595703,-0.40331900119781494
1683935828095317000,5.71031689453125,-1.8341830968856812,-0.9963455200195312,-0.3125721216201782
1683935828105358300,5.7203583984375,-1.9689220190048218,-1.2423830032348633,-0.42837512493133545
1683935828115399700,5.730399658203125,-1.6961321830749512,-0.5678348541259766,-1.0106090307235718
1683935828125441000,5.74044091796875,-1.1091468334197998,0.12816715240478516,-1.6770853996276855
1683935828135482000,5.750482177734375,-0.5944769382476807,0.03864574432373047,-1.9111909866333008
1683935828145523500,5.7605234375,-0.2708896994590759,-0.1419820785522461,-1.3881072998046875
1683935828155564800,5.770564697265625,-0.16279587149620056,-0.34533023834228516,-0.6177329421043396
1683935828165606100,5.780606201171875,-0.18557265400886536,-0.07054996490478516,0.1835079789161682
1683935828175647500,5.7906474609375,-0.24040958285331726,0.2999897003173828,0.6604555249214172
1683935828185688800,5.800688720703125,-0.21916866302490234,0.33850860595703125,0.5927793979644775
1683935828195730200,5.810730224609375,-0.23095548152923584,0.12862586975097656,0.21381664276123047
1683935828205771500,5.820771484375,-0.15885794162750244,-0.0527191162109375,0.11372315883636475
1683935828215812900,5.830812744140625,-0.062370359897613525,-0.04521369934082031,0.340425968170166
1683935828225854200,5.840854248046875,0.05104526877403259,-0.1090402603149414,0.42681390047073364
1683935828235895600,5.8508955078125,0.2085002362728119,-0.10061264038085938,0.36318063735961914
1683935828245937000,5.86093701171875,0.34329062700271606,-0.06549072265625,0.2918049097061157
1683935828255978200,5.870978271484375,0.41603097319602966,0.008170127868652344,0.20885825157165527
1683935828266019600,5.88101953125,0.3984276354312897,0.007978439331054688,0.16735804080963135
1683935828276061000,5.89106103515625,0.2848057746887207,0.000904083251953125,0.1221621036529541
1683935828286102300,5.901102294921875,0.10761979222297668,0.07763957977294922,0.08063846826553345
1683935828296143400,5.911143310546875,-0.05301031470298767,0.14006328582763672,0.08292710781097412
1683935828306184700,5.921184814453125,-0.18905559182167053,0.07596397399902344,0.059297800064086914
1683935828316226000,5.93122607421875,-0.24713030457496643,0.024071693420410156,-0.04220569133758545
1683935828326267400,5.941267333984375,-0.2820449769496918,0.0056705474853515625,-0.14824354648590088
1683935828336308700,5.951308837890625,-0.29119691252708435,0.07081222534179688,-0.17997324466705322
1683935828346350000,5.96135009765625,-0.24604111909866333,0.07360458374023438,-0.24976468086242676
1683935828356391400,5.971391357421875,-0.171118825674057,0.035610198974609375,-0.2896050214767456
1683935828366432800,5.981432861328125,-0.09580078721046448,0.07161426544189453,-0.27595770359039307
1683935828376474000,5.99147412109375,-0.03237491846084595,0.08598899841308594,-0.2525385618209839
1683935828386515500,6.001515380859375,0.05241727828979492,0.12178325653076172,-0.2528165578842163
1683935828396556800,6.011556884765625,0.12714934349060059,0.09533309936523438,-0.26913344860076904
1683935828406598100,6.02159814453125,0.1843993365764618,0.06409835815429688,-0.2725330591201782
1683935828416639500,6.031639404296875,0.2046312391757965,0.04722785949707031,-0.2392299771308899
1683935828426680800,6.041680908203125,0.19246768951416016,-0.010274887084960938,-0.22614508867263794
1683935828436722200,6.05172216796875,0.16914761066436768,-0.05341911315917969,-0.19684410095214844
1683935828446763300,6.06176318359375,0.09414321184158325,-0.1683197021484375,-0.2769046425819397
1683935828456804600,6.0718046875,0.008598655462265015,-0.08269596099853516,-0.23320388793945312
1683935828466846000,6.081845947265625,-0.08961540460586548,-0.08855915069580078,-0.2080463171005249
1683935828476887300,6.09188720703125,-0.14403319358825684,0.16058635711669922,0.18228870630264282
1683935828486928600,6.1019287109375,-0.15782582759857178,0.526519775390625,0.614356517791748
1683935828496970000,6.111969970703125,-0.1240617036819458,0.6512956619262695,0.858566164970398
1683935828507011300,6.12201123046875,-0.02776813507080078,0.39246273040771484,0.954630434513092
1683935828517052700,6.132052734375,0.05798056721687317,0.008441925048828125,0.592310905456543
1683935828527094000,6.142093994140625,0.044051021337509155,-0.30068492889404297,0.17743736505508423
1683935828537135400,6.15213525390625,0.011161863803863525,-0.2799263000488281,-0.016076982021331787
1683935828547176700,6.1621767578125,-0.046633243560791016,-0.21643924713134766,0.058516740798950195
1683935828557218000,6.172218017578125,-0.07683384418487549,-0.15547657012939453,0.1368158459663391
1683935828567259400,6.18225927734375,-0.07377868890762329,-0.011096954345703125,0.1135249137878418
1683935828577300700,6.19230078125,-0.031448423862457275,0.06125831604003906,0.06593656539916992
1683935828587342000,6.202342041015625,0.006570577621459961,0.13107872009277344,0.036776959896087646
1683935828597383200,6.212383056640625,0.05218958854675293,0.2270803451538086,-0.034234821796417236
1683935828607424500,6.222424560546875,0.07843849062919617,0.03574180603027344,-0.13807988166809082
1683935828617465900,6.2324658203125,0.056380391120910645,-0.0230560302734375,-0.1758882999420166
1683935828627507200,6.242507080078125,-0.055999577045440674,0.048462867736816406,-0.09311598539352417
1683935828637548500,6.252548583984375,-0.15367895364761353,0.11160945892333984,-0.046438634395599365
1683935828647590000,6.26258984375,-0.18439525365829468,0.1853799819946289,-0.11832350492477417
1683935828657631200,6.27263134765625,-0.12371230125427246,0.1895294189453125,-0.15330076217651367
1683935828667672600,6.282672607421875,-0.04234468936920166,0.1512298583984375,-0.16443246603012085
1683935828677714000,6.2927138671875,0.046745359897613525,0.1183919906616211,-0.2258877158164978
1683935828687755300,6.30275537109375,0.10249820351600647,0.032054901123046875,-0.3360599875450134
1683935828697796600,6.312796630859375,0.12946203351020813,-0.010400772094726562,-0.40621668100357056
1683935828707838000,6.322837890625,0.09763386845588684,-0.045014381408691406,-0.40655308961868286
1683935828717879000,6.332879150390625,0.03934788703918457,-0.05074787139892578,-0.4256322979927063
1683935828727920400,6.34292041015625,-0.04147130250930786,0.004810333251953125,-0.3524360656738281
1683935828737961700,6.352961669921875,-0.0896226167678833,0.04292488098144531,-0.26637351512908936
1683935828748003000,6.363003173828125,-0.1033889651298523,0.014471054077148438,-0.20076537132263184
1683935828758044400,6.37304443359375,-0.12827426195144653,0.0053310394287109375,-0.1389455795288086
1683935828768085800,6.383085693359375,-0.14273107051849365,0.003391265869140625,-0.06191229820251465
1683935828778127000,6.393127197265625,-0.15845370292663574,-0.00559234619140625,0.013440728187561035
1683935828788168400,6.40316845703125,-0.16839748620986938,-0.04977226257324219,-0.0044553279876708984
1683935828798209800,6.413209716796875,-0.17723709344863892,-0.07207965850830078,-0.062157511711120605
1683935828808251100,6.423251220703125,-0.20571476221084595,-0.07297039031982422,-0.1253572702407837
1683935828818292500,6.43329248046875,-0.20357680320739746,-0.015198707580566406,-0.12531590461730957
1683935828828333800,6.443333740234375,-0.10786575078964233,0.006173133850097656,-0.0757492184638977
1683935828838375200,6.453375244140625,-0.0062677860260009766,-0.008193016052246094,-0.1254907250404358
1683935828848416500,6.46341650390625,0.0840294361114502,-0.005939483642578125,-0.11440438032150269
1683935828858457600,6.47345751953125,0.1543276011943817,-0.046141624450683594,0.02377486228942871
1683935828868499000,6.4834990234375,0.21427267789840698,-0.04565620422363281,0.12415903806686401
1683935828878540300,6.493540283203125,0.28908196091651917,0.03956890106201172,0.22802621126174927
1683935828888581600,6.50358154296875,0.31625473499298096,0.12343120574951172,0.36832961440086365
1683935828898623000,6.513623046875,0.3123212456703186,0.14720630645751953,0.4896751046180725
1683935828908664300,6.523664306640625,0.26795151829719543,0.2037525177001953,0.5780916213989258
1683935828918705700,6.53370556640625,0.21238380670547485,0.23835277557373047,0.6294080018997192
1683935828928747000,6.5437470703125,0.11364024877548218,0.18776607513427734,0.6676774024963379
1683935828938788400,6.553788330078125,0.05799973011016846,0.15454483032226562,0.6559649705886841
1683935828948829700,6.56382958984375,0.007150530815124512,0.14072418212890625,0.6236711144447327
1683935828958871000,6.57387109375,-0.03931379318237305,0.05186271667480469,0.6555054783821106
1683935828968912400,6.583912353515625,-0.08864098787307739,-0.0024633407592773438,0.6417505741119385
1683935828978953500,6.593953369140625,-0.15641266107559204,-0.04644584655761719,0.5928484201431274
1683935828988994800,6.603994873046875,-0.22488510608673096,-0.06377124786376953,0.590937077999115
1683935828999036200,6.6140361328125,-0.23958104848861694,0.01815032958984375,0.5306844115257263
1683935829009077500,6.624077392578125,-0.2584679126739502,0.0046825408935546875,0.3984774351119995
1683935829019118800,6.634118896484375,-0.2630586624145508,-0.090789794921875,0.18832239508628845
1683935829029160200,6.64416015625,-0.28897982835769653,-0.012688636779785156,-0.02962714433670044
1683935829039201500,6.654201416015625,-0.2953866124153137,0.03356742858886719,-0.2523871064186096
1683935829049243000,6.664242919921875,-0.30122309923171997,0.1261892318725586,-0.41162872314453125
1683935829059284200,6.6742841796875,-0.25241684913635254,0.20084476470947266,-0.6002549529075623
1683935829069325600,6.68432568359375,-0.15703392028808594,0.18014049530029297,-0.7422827482223511
1683935829079367000,6.694366943359375,-0.07484203577041626,-0.00024700164794921875,-0.8384224772453308
1683935829089408300,6.704408203125,-0.004011690616607666,0.029582977294921875,-0.933319091796875
1683935829099449300,6.714449462890625,0.007548272609710693,0.03542613983154297,-0.9697098135948181
1683935829109490700,6.72449072265625,-0.027467012405395508,0.09773826599121094,-1.0264803171157837
1683935829119532000,6.734531982421875,-0.09632784128189087,0.21319007873535156,-1.0534288883209229
1683935829129573400,6.744573486328125,-0.17162537574768066,0.18314361572265625,-0.9907197952270508
1683935829139614700,6.75461474609375,-0.25455522537231445,0.0829458236694336,-0.9669203162193298
1683935829149656000,6.764656005859375,-0.29279226064682007,0.0007257461547851562,-0.9558576941490173
1683935829159697400,6.774697509765625,-0.32902783155441284,-0.09218788146972656,-0.8567848205566406
1683935829169738800,6.78473876953125,-0.39528149366378784,-0.14384078979492188,-0.5821581482887268
1683935829179780000,6.794780029296875,-0.3990248441696167,-0.13126564025878906,-0.3416658639907837
1683935829189821400,6.804821533203125,-0.3794636130332947,-0.08604907989501953,-0.21825432777404785
1683935829199862800,6.81486279296875,-0.2974696159362793,-0.08877944946289062,-0.2189067006111145
1683935829209904000,6.824904052734375,-0.24776023626327515,-0.2046041488647461,-0.1956319808959961
1683935829219945500,6.834945556640625,-0.14707589149475098,-0.2033243179321289,-0.16020214557647705
1683935829229986600,6.844986572265625,-0.027235448360443115,-0.1127777099609375,-0.07743281126022339
1683935829240028000,6.85502783203125,0.11487284302711487,0.06323051452636719,-0.011107802391052246
1683935829250069200,6.8650693359375,0.22286391258239746,0.16567325592041016,0.036381423473358154
1683935829260110600,6.875110595703125,0.30744773149490356,0.29241943359375,0.11901295185089111
1683935829270152000,6.88515185546875,0.3118957579135895,0.2665882110595703,0.1458987593650818
1683935829280193300,6.895193359375,0.27517786622047424,0.3002586364746094,0.15303337574005127
1683935829290234600,6.905234619140625,0.2563821077346802,0.2441425323486328,0.1595173478126526
1683935829300276000,6.91527587890625,0.20093074440956116,0.24097919464111328,0.23372384905815125
1683935829310317300,6.9253173828125,0.11707904934883118,0.20750999450683594,0.2508838176727295
1683935829320358700,6.935358642578125,0.060409218072891235,0.11830329895019531,0.22787675261497498
1683935829330400000,6.94539990234375,-0.01646074652671814,0.04954719543457031,0.10036253929138184
1683935829340441000,6.955441162109375,-0.07301804423332214,-0.010909080505371094,0.06351083517074585
1683935829350482400,6.965482421875,-0.12588262557983398,0.00032901763916015625,0.007668137550354004
1683935829360523800,6.975523681640625,-0.1911909580230713,0.03020000457763672,-0.049484312534332275
1683935829370565000,6.985565185546875,-0.2350653111934662,0.0901021957397461,-0.08604654669761658
1683935829380606500,6.9956064453125,-0.2849227786064148,0.07590389251708984,-0.06937927007675171
1683935829390647800,7.005647705078125,-0.28789588809013367,0.0782918930053711,-0.07607224583625793
1683935829400689200,7.015689208984375,-0.2653219997882843,-0.0066432952880859375,-0.10021212697029114
1683935829410730500,7.02573046875,-0.2013615369796753,-0.038552284240722656,-0.12671557068824768
1683935829420771800,7.035771728515625,-0.15427690744400024,-0.027686119079589844,-0.1534799039363861
1683935829430813200,7.045813232421875,-0.08490210771560669,0.032344818115234375,-0.1428615152835846
1683935829440854500,7.0558544921875,-0.0439678430557251,0.11954879760742188,-0.1732381284236908
1683935829450895600,7.0658955078125,-0.03756023943424225,0.14165115356445312,-0.1099449098110199
1683935829460937000,7.07593701171875,-0.003353402018547058,0.24565410614013672,-0.12818202376365662
1683935829470978300,7.085978271484375,0.01675020158290863,0.2700672149658203,-0.026081353425979614
1683935829481019600,7.09601953125,0.031496912240982056,0.23739147186279297,0.052938491106033325
1683935829491061000,7.10606103515625,0.10944795608520508,0.10386848449707031,0.14899811148643494
1683935829501102300,7.116102294921875,0.1645229607820511,-0.05577373504638672,0.28710031509399414
1683935829511143700,7.126143798828125,0.18819424510002136,-0.2080831527709961,0.36897486448287964
1683935829521185000,7.13618505859375,0.15483686327934265,-0.25191307067871094,0.4129965007305145
1683935829531226400,7.146226318359375,0.12824705243110657,-0.3420562744140625,0.378695547580719
1683935829541267700,7.156267822265625,0.12856845557689667,-0.3458566665649414,0.3043946623802185
1683935829551309000,7.16630908203125,0.2357407808303833,-0.28361988067626953,0.23438093066215515
1683935829561350100,7.17635009765625,0.32757043838500977,-0.1470012664794922,0.18465274572372437
1683935829571391500,7.1863916015625,0.36589205265045166,0.03457069396972656,0.07094570994377136
1683935829581432800,7.196432861328125,0.4048110544681549,0.17089271545410156,-0.12460964918136597
1683935829591474200,7.20647412109375,0.44090259075164795,0.16849040985107422,-0.2720816731452942
1683935829601515500,7.216515625,0.5252367258071899,0.24852943420410156,-0.4385082423686981
1683935829611556900,7.226556884765625,0.6082230806350708,0.24712276458740234,-0.5228961706161499
1683935829621598200,7.23659814453125,0.6630662083625793,0.10675334930419922,-0.5051724910736084
1683935829631639600,7.2466396484375,0.680653989315033,-0.017256736755371094,-0.4879138767719269
1683935829641681000,7.256680908203125,0.7105574011802673,-0.05458259582519531,-0.4165066182613373
1683935829651722200,7.26672216796875,0.7146312594413757,-0.08674049377441406,-0.36915886402130127
1683935829661763600,7.276763671875,0.6794180274009705,-0.09970378875732422,-0.2677597403526306
1683935829671804700,7.2868046875,0.6293994784355164,-0.09375953674316406,-0.10471436381340027
1683935829681846000,7.296845947265625,0.5582205057144165,-0.04330158233642578,0.005454838275909424
1683935829691887400,7.306887451171875,0.4835219979286194,-0.019652366638183594,0.1476457715034485
1683935829701928700,7.3169287109375,0.4228295087814331,0.005969047546386719,0.31305623054504395
1683935829711970000,7.326969970703125,0.3998224139213562,0.052382469177246094,0.3764004409313202
1683935829722011400,7.337011474609375,0.3903203308582306,0.10040664672851562,0.47152242064476013
1683935829732052700,7.347052734375,0.4008810520172119,0.09352779388427734,0.5127007365226746
1683935829742094000,7.357093994140625,0.3859998881816864,0.049155235290527344,0.5875158905982971
1683935829752135400,7.367135498046875,0.39035192131996155,0.0008907318115234375,0.6264960169792175
1683935829762176800,7.3771767578125,0.3874463140964508,-0.04180335998535156,0.5927867889404297
1683935829772217900,7.3872177734375,0.377507746219635,-0.08136177062988281,0.6191717386245728
1683935829782259200,7.39725927734375,0.379886656999588,-0.07778167724609375,0.5652233362197876
1683935829792300500,7.407300537109375,0.38044869899749756,-0.03650474548339844,0.4609948396682739
1683935829802342000,7.417341796875,0.4070796072483063,-0.05944633483886719,0.2940884232521057
1683935829812383200,7.42738330078125,0.4281867444515228,-0.05616188049316406,0.11653980612754822
1683935829822424600,7.437424560546875,0.44303518533706665,-0.10484790802001953,0.06839314103126526
1683935829832466000,7.4474658203125,0.41359224915504456,-0.13167762756347656,0.0674062967300415
1683935829842507300,7.45750732421875,0.34997087717056274,-0.1393747329711914,0.0703761875629425
1683935829852548600,7.467548583984375,0.27683332562446594,-0.10232830047607422,0.16164374351501465
1683935829862590000,7.47758984375,0.17376160621643066,-0.11071395874023438,0.16995534300804138
1683935829872631000,7.487631103515625,0.06338542699813843,-0.1001596450805664,0.22611001133918762
1683935829882672400,7.49767236328125,-0.004037618637084961,-0.0968332290649414,0.2796255946159363
1683935829892713700,7.507713623046875,-0.05217248201370239,-0.07702445983886719,0.34437358379364014
1683935829902755000,7.517755126953125,-0.07661890983581543,-0.052753448486328125,0.3914446234703064
1683935829912796400,7.52779638671875,-0.08466565608978271,-0.04525566101074219,0.45135676860809326
1683935829922837800,7.537837646484375,-0.08129125833511353,-0.049530982971191406,0.4648515284061432
1683935829932879000,7.547879150390625,-0.050655514001846313,-0.046584129333496094,0.4847416281700134
1683935829942920400,7.55792041015625,0.008358865976333618,-0.07894325256347656,0.5061310529708862
1683935829952961800,7.5679619140625,0.019489258527755737,-0.10367298126220703,0.4843422770500183
1683935829963003000,7.5780029296875,0.02343258261680603,-0.0690908432006836,0.45959019660949707
1683935829973044500,7.58804443359375,0.0204545259475708,-0.037407875061035156,0.37112003564834595
1683935829983085600,7.59808544921875,0.027224600315093994,-0.06272697448730469,0.3450416028499603
1683935829993127000,7.608126953125,0.027126193046569824,-0.03580474853515625,0.2814154028892517
1683935830003168300,7.618168212890625,0.04846826195716858,-0.04227256774902344,0.2234850525856018
1683935830013209600,7.628209716796875,0.061928749084472656,-0.008649826049804688,0.19987355172634125
1683935830023251000,7.6382509765625,0.026964902877807617,-0.04157257080078125,0.1605100780725479
1683935830033292300,7.648292236328125,-0.02025425434112549,-0.010446548461914062,0.1902763694524765
1683935830043333600,7.658333740234375,-0.07795193791389465,-0.04338264465332031,0.2150069624185562
1683935830053375000,7.668375,-0.08366173505783081,-0.06392478942871094,0.22542709112167358
1683935830063416000,7.678416015625,-0.07854798436164856,-0.06522846221923828,0.24755290150642395
1683935830073457700,7.688457763671875,-0.04740366339683533,-0.04295539855957031,0.26455259323120117
1683935830083498800,7.698498779296875,-0.04575514793395996,0.004797935485839844,0.26032984256744385
1683935830093540000,7.7085400390625,-0.07195582985877991,0.03058910369873047,0.28910791873931885
1683935830103581400,7.71858154296875,-0.08359819650650024,0.011330604553222656,0.3011508285999298
1683935830113622800,7.728622802734375,-0.035622477531433105,-0.02162647247314453,0.3116651177406311
1683935830123664100,7.7386640625,0.08211573958396912,-0.025704383850097656,0.34622427821159363
1683935830133705500,7.74870556640625,0.18019774556159973,-0.013189315795898438,0.3497191071510315
1683935830143746800,7.758746826171875,0.25326281785964966,0.05090141296386719,0.33924731612205505
1683935830153788200,7.7687880859375,0.2779519557952881,0.03150653839111328,0.32690146565437317
1683935830163829200,7.778829345703125,0.32358160614967346,-0.004044532775878906,0.3077927827835083
1683935830173870600,7.78887060546875,0.3851830065250397,-0.04372406005859375,0.30132293701171875
1683935830183912000,7.798911865234375,0.4334225654602051,-0.038046836853027344,0.33978092670440674
1683935830193953300,7.808953369140625,0.4626184105873108,-0.039600372314453125,0.3185899257659912
1683935830203994600,7.81899462890625,0.4209035634994507,-0.06473731994628906,0.3840915560722351
1683935830214036000,7.829035888671875,0.3376178443431854,-0.07069015502929688,0.3863920569419861
1683935830224077300,7.839077392578125,0.21968460083007812,-0.07887935638427734,0.3801983892917633
1683935830234118700,7.84911865234375,0.11859562993049622,-0.049182891845703125,0.32555249333381653
1683935830244160000,7.859159912109375,0.0695311427116394,-0.01991558074951172,0.19810080528259277
1683935830254201300,7.869201416015625,0.02203512191772461,-0.045241355895996094,0.114847332239151
1683935830264242400,7.879242431640625,-0.014356225728988647,-0.04655265808105469,0.04191666841506958
1683935830274283800,7.88928369140625,-0.025387555360794067,-0.045432090759277344,-0.04188269376754761
1683935830284325000,7.8993251953125,-0.04858660697937012,-0.008967399597167969,-0.12367764115333557
1683935830294366500,7.909366455078125,-0.0459960401058197,0.0010242462158203125,-0.18425273895263672
1683935830304407800,7.91940771484375,-0.06494364142417908,0.015584945678710938,-0.2144378125667572
1683935830314449200,7.92944921875,-0.03891691565513611,-0.01716327667236328,-0.19099131226539612
1683935830324490500,7.939490478515625,0.036404430866241455,-0.04698944091796875,-0.11249619722366333
1683935830334531800,7.94953173828125,0.1457011103630066,-0.0763235092163086,-0.048214614391326904
1683935830344573200,7.9595732421875,0.2564777135848999,-0.06284809112548828,0.011431634426116943
1683935830354614500,7.969614501953125,0.36513060331344604,-0.019071578979492188,0.07319596409797668
1683935830364655600,7.979655517578125,0.4309264123439789,-0.037303924560546875,0.1716766655445099
1683935830374697000,7.989697021484375,0.4804159700870514,-0.010527610778808594,0.2441016435623169
1683935830384738300,7.99973828125,0.4817247688770294,0.02052593231201172,0.23642875254154205
1683935830394779600,8.009779541015625,0.4871954023838043,0.006358146667480469,0.24852308630943298
1683935830404821000,8.019821044921875,0.4736669063568115,-0.014596939086914062,0.22907483577728271
1683935830414862300,8.0298623046875,0.4538888931274414,0.04723358154296875,0.07663995027542114
1683935830424903700,8.039903564453125,0.3366641402244568,0.0868539810180664,-0.12773996591567993
1683935830434945000,8.049945068359374,0.1813419610261917,0.08110618591308594,-0.3050101399421692
1683935830444986000,8.059986083984375,0.03210318088531494,0.10372734069824219,-0.5114387273788452
1683935830455027700,8.07002783203125,-0.11702586710453033,0.12834930419921875,-0.6798477172851562
1683935830465068800,8.08006884765625,-0.22471609711647034,0.14318466186523438,-0.7940185070037842
1683935830475110100,8.090110107421875,-0.33267441391944885,0.11308670043945312,-0.9036969542503357
1683935830485151500,8.1001513671875,-0.35291415452957153,0.1188192367553711,-0.9797646999359131
1683935830495192800,8.11019287109375,-0.35464584827423096,0.07027435302734375,-1.012178659439087
1683935830505234200,8.120234130859375,-0.31241950392723083,0.04127025604248047,-0.9348506927490234
1683935830515275500,8.130275634765624,-0.2038581669330597,0.02906322479248047,-0.8337953090667725
1683935830525316900,8.14031689453125,-0.07837831974029541,0.012125968933105469,-0.6784442663192749
1683935830535358200,8.150358154296875,0.0360231027007103,0.021127700805664062,-0.39729851484298706
1683935830545399300,8.1603994140625,0.1333782970905304,0.05096626281738281,-0.11832967400550842
1683935830555440600,8.170440673828125,0.19639086723327637,0.06841087341308594,0.17587363719940186
1683935830565482000,8.18048193359375,0.20127829909324646,0.11612129211425781,0.40619802474975586
1683935830575523300,8.1905234375,0.2122216522693634,0.2595396041870117,0.5288594365119934
1683935830585564700,8.200564697265625,0.17554298043251038,0.2499217987060547,0.6063218116760254
1683935830595606000,8.21060595703125,0.1288125067949295,0.08286476135253906,0.7078941464424133
1683935830605647400,8.2206474609375,0.08241890370845795,-0.0693807601928711,0.8047412037849426
1683935830615688700,8.230688720703125,0.033205337822437286,-0.030504226684570312,0.6709932088851929
1683935830625730000,8.24072998046875,0.005948387086391449,0.05260658264160156,0.39501240849494934
1683935830635771100,8.250771240234375,-0.053217627108097076,0.11790847778320312,0.10819685459136963
1683935830645812500,8.2608125,-0.13099664449691772,0.1256237030029297,-0.1363545060157776
1683935830655853800,8.270853759765625,-0.17674680054187775,0.08844852447509766,-0.34330135583877563
1683935830665895200,8.280895263671875,-0.24927370250225067,0.06125354766845703,-0.5058701038360596
1683935830675936500,8.2909365234375,-0.2820053696632385,0.02737712860107422,-0.6102776527404785
1683935830685977900,8.300977783203125,-0.2991490662097931,0.0010509490966796875,-0.6833977699279785
1683935830696019200,8.311019287109374,-0.3246004581451416,-0.02021312713623047,-0.7091509103775024
1683935830706060500,8.321060546875,-0.320395827293396,-0.031795501708984375,-0.7519868016242981
1683935830716101600,8.3311015625,-0.303058385848999,-0.005625724792480469,-0.7127143144607544
1683935830726143200,8.341143310546874,-0.31957969069480896,0.05998992919921875,-0.6583048105239868
1683935830736184300,8.351184326171875,-0.30328434705734253,0.08431434631347656,-0.595665693283081
1683935830746225700,8.3612255859375,-0.23355597257614136,0.03035449981689453,-0.4874303340911865
1683935830756267000,8.37126708984375,-0.18498381972312927,0.054843902587890625,-0.3164001703262329
1683935830766308400,8.381308349609375,-0.16297820210456848,0.029410362243652344,-0.17370277643203735
1683935830776349700,8.391349609375,-0.12552779912948608,0.053809165954589844,-0.06402862071990967
1683935830786391000,8.40139111328125,-0.13916397094726562,0.04956531524658203,0.04099917411804199
1683935830796432400,8.411432373046875,-0.14193004369735718,0.06425762176513672,0.08961319923400879
1683935830806473700,8.4214736328125,-0.14096304774284363,0.13990116119384766,0.08824631571769714
1683935830816514800,8.431514892578125,-0.12164625525474548,0.08710670471191406,0.1393270194530487
1683935830826556200,8.44155615234375,-0.1328398585319519,0.011667251586914062,0.21203288435935974
1683935830836597500,8.451597412109376,-0.16396957635879517,-0.05066204071044922,0.26440340280532837
1683935830846638800,8.461638916015625,-0.16098573803901672,-0.07888031005859375,0.2776811718940735
1683935830856680200,8.47168017578125,-0.11372733116149902,-0.021803855895996094,0.19504177570343018
1683935830866721500,8.481721435546875,-0.08491796255111694,-0.005690574645996094,0.17295265197753906
1683935830876763000,8.491762939453125,-0.10064777731895447,0.01726818084716797,0.1725512146949768
1683935830886804200,8.50180419921875,-0.13618630170822144,0.056362152099609375,0.15809568762779236
1683935830896845600,8.511845458984375,-0.14822018146514893,0.07126808166503906,0.1487773060798645
1683935830906886700,8.52188671875,-0.1531878113746643,0.09533977508544922,0.15133363008499146
1683935830916928000,8.531927978515625,-0.16685396432876587,0.020107269287109375,0.20282185077667236
1683935830926969300,8.54196923828125,-0.16829049587249756,0.019132614135742188,0.23833498358726501
1683935830937010700,8.5520107421875,-0.17711466550827026,0.01587677001953125,0.22281935811042786
1683935830947052000,8.562052001953125,-0.14846020936965942,-0.0084686279296875,0.1785346269607544
1683935830957093400,8.57209326171875,-0.15973329544067383,-0.04184722900390625,0.17680194973945618
1683935830967134700,8.582134765625,-0.12009799480438232,-0.018253326416015625,0.14410629868507385
1683935830977176000,8.592176025390625,-0.0777464509010315,-0.018646240234375,0.11358705163002014
1683935830987217200,8.602217041015624,-0.01457303762435913,0.023334503173828125,0.0709913969039917
1683935830997258500,8.612258544921875,-0.0066114068031311035,0.03401756286621094,-0.0068511962890625
1683935831007299800,8.6222998046875,0.03378778696060181,0.049228668212890625,-0.06918215751647949
1683935831017341200,8.632341064453126,0.051756858825683594,0.05948162078857422,-0.10901838541030884
1683935831027382500,8.642382568359375,0.08778119087219238,0.06954574584960938,-0.1381739377975464
1683935831037423900,8.652423828125,0.0804327130317688,0.09824562072753906,-0.12122628092765808
1683935831047465200,8.66246533203125,0.10111290216445923,0.100555419921875,-0.10642904043197632
1683935831057506600,8.672506591796875,0.08104509115219116,0.07695293426513672,-0.06852686405181885
1683935831067548000,8.6825478515625,0.09855109453201294,0.07258415222167969,-0.05688956379890442
1683935831077589000,8.692589111328125,0.08514177799224854,0.04233360290527344,-0.03982341289520264
1683935831087630300,8.70263037109375,0.0795741081237793,0.0030975341796875,-0.006235361099243164
1683935831097671700,8.712671630859376,0.08144557476043701,-0.035503387451171875,-0.015990257263183594
1683935831107713000,8.722713134765625,0.062220096588134766,-0.064056396484375,-0.056476891040802
1683935831117754400,8.73275439453125,0.04312014579772949,-0.049782752990722656,-0.1381164789199829
1683935831127795700,8.742795654296875,0.038888633251190186,-0.04530048370361328,-0.195489764213562
1683935831137837000,8.752837158203125,0.04774904251098633,0.08599662780761719,-0.21900832653045654
1683935831147878100,8.762878173828126,0.0812562108039856,0.04532051086425781,-0.2532167136669159
1683935831157919700,8.772919677734375,0.08982974290847778,-0.046722412109375,-0.16977763175964355
1683935831167960800,8.7829609375,0.0972251296043396,-0.057353973388671875,-0.1204603910446167
1683935831178002200,8.793002197265626,0.13584423065185547,-0.032586097717285156,-0.10525894165039062
1683935831188043500,8.80304345703125,0.13121837377548218,-0.020017623901367188,-0.10442811250686646
1683935831198084900,8.8130849609375,0.10669273138046265,0.027692794799804688,-0.12889206409454346
1683935831208126200,8.823126220703125,0.0529138445854187,0.08401679992675781,-0.14389503002166748
1683935831218167600,8.83316748046875,0.04396462440490723,0.09455680847167969,-0.13705706596374512
1683935831228209000,8.843208984375,0.019291043281555176,0.11878681182861328,-0.0194091796875
1683935831238250000,8.85325,0.006087660789489746,0.11637592315673828,0.07949662208557129
1683935831248291300,8.863291259765624,0.03036057949066162,0.0971822738647461,0.1874619424343109
1683935831258332700,8.873332763671876,0.06497222185134888,0.054541587829589844,0.2867715358734131
1683935831268374000,8.8833740234375,0.10148757696151733,-0.008600234985351562,0.31053397059440613
1683935831278415400,8.893415283203124,0.14123421907424927,-0.006995201110839844,0.3653900921344757
1683935831288456700,8.903456787109375,0.16045475006103516,-0.028784751892089844,0.4035669267177582
1683935831298498000,8.913498046875,0.1502685546875,-0.0218048095703125,0.3783740699291229
1683935831308539400,8.923539306640626,0.13962417840957642,0.06516647338867188,0.3060693144798279
1683935831318580700,8.933580810546875,0.1477041244506836,0.07998180389404297,0.3043332099914551
1683935831328621800,8.943621826171874,0.16084027290344238,0.09206199645996094,0.3808567225933075
1683935831338663200,8.9536630859375,0.14154160022735596,0.047367095947265625,0.4270275831222534
1683935831348704500,8.96370458984375,0.14426469802856445,-0.00360107421875,0.4797723889350891
1683935831358745900,8.973745849609376,0.10491394996643066,-0.0794687271118164,0.48368874192237854
1683935831368787200,8.983787109375,0.08293581008911133,-0.21510028839111328,0.4487593472003937
1683935831378828500,8.99382861328125,0.0030521154403686523,-0.25418949127197266,0.40646663308143616
1683935831388870000,9.003869873046876,-0.07926356792449951,-0.2502460479736328,0.3365118205547333
1683935831398911200,9.0139111328125,-0.2052934169769287,-0.3312416076660156,0.4060472249984741
1683935831408952300,9.023952392578124,-0.3201040029525757,-0.2320871353149414,0.4450177848339081
1683935831418993700,9.03399365234375,-0.38901233673095703,-0.21239471435546875,0.5225907564163208
1683935831429035000,9.044034912109375,-0.4603368043899536,-0.14129924774169922,0.6399938464164734
1683935831439076400,9.054076416015626,-0.5231246948242188,-0.09255027770996094,0.7282382249832153
1683935831449117700,9.06411767578125,-0.6016165018081665,-0.10336685180664062,0.7943150997161865
1683935831459159000,9.074158935546874,-0.6817660331726074,-0.1632833480834961,0.8635067343711853
1683935831469200400,9.084200439453125,-0.7355283498764038,-0.18906021118164062,0.8170450925827026
1683935831479241700,9.09424169921875,-0.7490862607955933,-0.2543020248413086,0.7828820943832397
1683935831489282800,9.10428271484375,-0.8460985422134399,-0.29046630859375,0.6896357536315918
1683935831499324200,9.11432421875,-0.9853750467300415,-0.310333251953125,0.5784252882003784
1683935831509365500,9.124365478515625,-0.9339580535888672,-0.31427001953125,0.4646419882774353
1683935831519406800,9.13440673828125,-0.5923168659210205,-0.2377920150756836,0.2642946243286133
1683935831529448200,9.1444482421875,-0.10039687156677246,-0.14704227447509766,0.10533612966537476
1683935831539489500,9.154489501953124,0.3525925874710083,-0.057770729064941406,-0.08709228038787842
1683935831549531000,9.16453076171875,0.845454216003418,-0.048125267028808594,-0.27789393067359924
1683935831559572200,9.174572265625,1.2054812908172607,-0.019639015197753906,-0.4615307152271271
1683935831569613300,9.18461328125,1.3403021097183228,-0.0009765625,-0.36941978335380554
1683935831579654700,9.194654541015625,1.2221693992614746,0.09615421295166016,-0.238104447722435
1683935831589696000,9.204696044921874,0.9400358200073242,0.04691886901855469,0.015164017677307129
1683935831599737300,9.2147373046875,0.6429256200790405,-0.0006093978881835938,0.16757342219352722
1683935831609778700,9.22477880859375,0.32193470001220703,-0.1475362777709961,0.31668099761009216
1683935831619820000,9.234820068359374,-0.13904356956481934,-0.3279094696044922,0.37604856491088867
1683935831629861400,9.244861328125,-0.6044448614120483,-0.49013519287109375,0.5635725259780884
1683935831639902500,9.25490234375,-0.8250199556350708,-0.44347190856933594,0.5956532955169678
1683935831649943800,9.26494384765625,-0.5567554235458374,-0.30481719970703125,0.4506652355194092
1683935831659985200,9.274985107421875,-0.27794957160949707,-0.1096334457397461,0.3898354768753052
1683935831670026500,9.285026611328124,-0.19619882106781006,0.06544971466064453,0.2614319920539856
1683935831680067800,9.29506787109375,-0.15535354614257812,0.14624691009521484,-0.026855111122131348
1683935831690109200,9.305109130859375,0.0177534818649292,0.2095775604248047,-0.33957383036613464
1683935831700150500,9.315150634765626,0.16336369514465332,0.16508007049560547,-0.5778287649154663
1683935831710191900,9.32519189453125,0.38889819383621216,0.18305397033691406,-0.8116529583930969
1683935831720233200,9.335233154296875,0.5772375464439392,0.1896533966064453,-0.8687176704406738
1683935831730274300,9.3452744140625,0.7552978992462158,0.13488197326660156,-0.8249302506446838
1683935831740315600,9.355315673828125,0.6959962844848633,0.10225582122802734,-0.6190462112426758
1683935831750357000,9.36535693359375,0.45657801628112793,0.06972885131835938,-0.36694031953811646
1683935831760398300,9.3753984375,0.2877870202064514,-0.025119781494140625,-0.27957969903945923
1683935831770439700,9.385439697265625,0.1593787670135498,0.016012191772460938,-0.16440320014953613
1683935831780481000,9.39548095703125,0.09973686933517456,-0.014822959899902344,-0.0909426212310791
1683935831790522400,9.4055224609375,0.02043735980987549,-0.019458770751953125,0.025733649730682373
1683935831800563500,9.4155634765625,-0.06782370805740356,-0.06731510162353516,0.1426604986190796
1683935831810604800,9.425604736328125,-0.19351184368133545,-0.12515926361083984,0.2541329860687256
1683935831820646100,9.435646240234375,-0.3134385943412781,-0.0832967758178711,0.20252984762191772
1683935831830687500,9.4456875,-0.3142082095146179,-0.09242057800292969,0.07718908786773682
1683935831840728800,9.455728759765625,-0.1664499044418335,-0.037540435791015625,-0.1401323676109314
1683935831850770200,9.465770263671875,0.006950080394744873,0.00030994415283203125,-0.3605775237083435
1683935831860811500,9.4758115234375,0.09827572107315063,0.014307975769042969,-0.6407098770141602
1683935831870852900,9.485852783203125,0.11189037561416626,0.030866622924804688,-0.8583256006240845
1683935831880894000,9.49589404296875,0.09165394306182861,0.05467510223388672,-0.9637706279754639
1683935831890935300,9.505935302734375,0.04054558277130127,0.1286611557006836,-1.0887670516967773
1683935831900976600,9.5159765625,-0.012797057628631592,0.20256900787353516,-1.1687395572662354
1683935831911018000,9.52601806640625,-0.09442645311355591,0.33129310607910156,-1.1300064325332642
1683935831921059300,9.536059326171875,-0.22526687383651733,0.3451805114746094,-1.108366847038269
1683935831931100700,9.5461005859375,-0.378304660320282,0.3783245086669922,-1.0454846620559692
1683935831941142000,9.55614208984375,-0.5525311827659607,0.33754634857177734,-0.9266806840896606
1683935831951183400,9.566183349609375,-0.753386914730072,0.3065166473388672,-0.6972351670265198
1683935831961224400,9.576224365234374,-0.8575679659843445,0.27556514739990234,-0.5319983959197998
1683935831971265800,9.586265869140625,-0.8195330500602722,0.19927978515625,-0.34979939460754395
1683935831981307100,9.59630712890625,-0.7621835470199585,0.12797260284423828,-0.21031081676483154
1683935831991348500,9.606348388671876,-0.6786475777626038,0.11902809143066406,-0.026622116565704346
1683935832001389800,9.616389892578125,-0.5071108341217041,0.10768890380859375,0.1666579246520996
1683935832011431200,9.62643115234375,-0.22460955381393433,-0.0183868408203125,0.32528841495513916
1683935832021472500,9.636472412109375,0.07005047798156738,-0.13527679443359375,0.515386700630188
1683935832031513900,9.646513916015625,0.28465086221694946,-0.03430938720703125,0.6465654969215393
1683935832041555000,9.656554931640626,0.46093565225601196,0.013826370239257812,0.6947278380393982
1683935832051596300,9.66659619140625,0.5851324796676636,-0.0074100494384765625,0.7164331674575806
1683935832061637600,9.6766376953125,0.5567179918289185,-0.052458763122558594,0.467836856842041
1683935832071679000,9.686678955078126,0.5883976817131042,-0.049551963806152344,0.20318931341171265
1683935832081720300,9.69672021484375,0.6480335593223572,0.046586036682128906,0.04833954572677612
1683935832091761700,9.70676171875,0.7004029750823975,0.1164693832397461,-0.06863892078399658
1683935832101803000,9.716802978515625,0.7009847164154053,0.20099258422851562,-0.11096715927124023
1683935832111844000,9.726843994140625,0.6449193954467773,0.22130107879638672,-0.04813581705093384
1683935832121885400,9.736885498046876,0.5172721147537231,0.26099205017089844,-0.019138097763061523
1683935832131926800,9.7469267578125,0.3393141031265259,0.23626422882080078,0.04772430658340454
1683935832141968100,9.756968017578124,0.1459919810295105,0.21878337860107422,0.04696476459503174
1683935832152009500,9.767009521484376,0.059230923652648926,0.25634765625,-0.00850820541381836
1683935832162050800,9.77705078125,-0.03145432472229004,0.3226966857910156,-0.11256623268127441
1683935832172092200,9.787092041015624,-0.1747165322303772,0.4987783432006836,-0.4279174506664276
1683935832182133500,9.797133544921875,-0.28119099140167236,0.639164924621582,-0.635860800743103
1683935832192174800,9.8071748046875,-0.32225680351257324,0.6902303695678711,-0.7141600251197815
1683935832202216000,9.8172158203125,-0.2819371819496155,0.6246261596679688,-0.7295382618904114
1683935832212257300,9.82725732421875,-0.16564887762069702,0.3777313232421875,-0.6822932958602905
1683935832222298600,9.837298583984374,-0.05239510536193848,0.0872201919555664,-0.5583516359329224
1683935832232340000,9.847340087890625,-0.05813473463058472,-0.09486770629882812,-0.4345797896385193
1683935832242381300,9.85738134765625,-0.1260082721710205,-0.22928428649902344,-0.23126347362995148
1683935832252422700,9.867422607421876,-0.15953558683395386,-0.4050712585449219,0.00022044777870178223
1683935832262464000,9.877464111328125,-0.13821876049041748,-0.5662765502929688,0.24606379866600037
1683935832272505000,9.887505126953124,-0.1154831051826477,-0.786931037902832,0.32956209778785706
1683935832282546400,9.89754638671875,-0.13728773593902588,-1.1267032623291016,0.44885462522506714
1683935832292587800,9.907587890625,-0.12454989552497864,-1.4779729843139648,0.4906505048274994
1683935832302629000,9.917629150390624,-0.12822458148002625,-1.847818374633789,0.5666936635971069
1683935832312670500,9.92767041015625,-0.33600035309791565,-2.274312973022461,0.42759060859680176
1683935832322711800,9.9377119140625,-1.0128288269042969,-2.700176239013672,0.29489216208457947
1683935832332753200,9.947753173828126,-1.5741716623306274,-2.7482919692993164,0.445783406496048
1683935832342794200,9.957794189453125,-0.9948011636734009,-1.6694164276123047,0.7639086246490479
1683935832352835600,9.967835693359374,-0.08703044056892395,-0.027095794677734375,0.9025992155075073
1683935832362877000,9.977876953125,0.26359227299690247,0.9187755584716797,0.7250396013259888
1683935832372918300,9.987918212890625,0.29415637254714966,1.3631772994995117,0.4840962886810303
1683935832382959600,9.997959716796874,0.29315561056137085,1.7298812866210938,0.17046082019805908
1683935832393001000,10.0080009765625,0.23584936559200287,1.8805131912231445,-0.20236605405807495
1683935832403042300,10.018042236328125,0.1595516800880432,1.6843414306640625,-0.6005649566650391
1683935832413083600,10.028083740234376,0.20045992732048035,1.357290267944336,-0.9383721947669983
1683935832423124700,10.038124755859375,0.37914878129959106,1.0047779083251953,-1.1112546920776367
1683935832433166000,10.048166015625,0.5911222696304321,0.6912555694580078,-1.1267292499542236
1683935832443207400,10.05820751953125,0.7985677719116211,0.3449087142944336,-1.0238978862762451
1683935832453248800,10.068248779296875,0.8911538124084473,-0.007925987243652344,-0.7194651961326599
1683935832463290000,10.0782900390625,0.9351984262466431,-0.38152313232421875,-0.35804283618927
1683935832473331500,10.08833154296875,0.9421340227127075,-0.7017688751220703,0.03784334659576416
1683935832483372800,10.098372802734374,0.9305552244186401,-0.7753381729125977,0.32939308881759644
1683935832493414000,10.108413818359375,0.8961986303329468,-0.7986125946044922,0.6052108407020569
1683935832503455200,10.118455322265625,0.8946851491928101,-0.7548685073852539,0.7829980850219727
1683935832513496600,10.12849658203125,0.9682213068008423,-0.43647098541259766,0.634474515914917
1683935832523538000,10.138537841796875,1.0416629314422607,-0.11874103546142578,0.4890596270561218
1683935832533579300,10.148579345703125,1.0330018997192383,0.2294015884399414,0.24435511231422424
1683935832543620600,10.15862060546875,1.0192272663116455,0.5457906723022461,0.03158766031265259
1683935832553662000,10.168661865234375,0.9607781171798706,0.7516841888427734,-0.19271963834762573
1683935832563703000,10.178703125,0.9286024570465088,0.758906364440918,-0.420807421207428
1683935832573744400,10.188744384765625,0.9051886796951294,0.615595817565918,-0.6157277226448059
1683935832583785700,10.19878564453125,0.9128562808036804,0.42711448669433594,-0.77638179063797
1683935832593827000,10.2088271484375,0.9291319847106934,0.19121074676513672,-0.8835391998291016
1683935832603868400,10.218868408203125,0.9496645927429199,-0.0035352706909179688,-0.8972571492195129
1683935832613909800,10.22890966796875,0.9728941917419434,-0.09266281127929688,-0.9137628078460693
1683935832623951000,10.238951171875,0.9200283288955688,-0.10270500183105469,-0.8901776671409607
1683935832633992400,10.248992431640625,0.8542917966842651,0.032939910888671875,-0.8858298063278198
1683935832644033500,10.259033447265624,0.7857363224029541,0.1491107940673828,-0.9078084826469421
1683935832654075000,10.269074951171875,0.7140654921531677,0.1981182098388672,-0.8846790790557861
1683935832664116200,10.2791162109375,0.6411230564117432,0.2565603256225586,-0.8428007960319519
1683935832674157600,10.289157470703126,0.5717484951019287,0.28856849670410156,-0.8464871644973755
1683935832684199000,10.299198974609375,0.4542730450630188,0.2750406265258789,-0.828304648399353
1683935832694240300,10.309240234375,0.3802553713321686,0.2280254364013672,-0.7908565998077393
1683935832704281600,10.319281494140625,0.2812243402004242,0.16907596588134766,-0.7722806930541992
1683935832714322700,10.32932275390625,0.2303016483783722,0.12449073791503906,-0.7034890651702881
1683935832724364000,10.339364013671876,0.2494068145751953,0.0680246353149414,-0.6617000699043274
1683935832734405400,10.3494052734375,0.3305709660053253,0.011734962463378906,-0.5902056694030762
1683935832744446700,10.35944677734375,0.43904852867126465,0.022512435913085938,-0.5630828142166138
1683935832754488000,10.369488037109376,0.5262244343757629,0.033294677734375,-0.5630181431770325
1683935832764529400,10.379529296875,0.6062615513801575,0.029672622680664062,-0.5579525232315063
1683935832774570800,10.38957080078125,0.6649446487426758,-0.00032329559326171875,-0.5783047676086426
1683935832784611800,10.39961181640625,0.7143704295158386,0.005428314208984375,-0.5376954674720764
1683935832794653200,10.409653076171875,0.7519592642784119,0.01338958740234375,-0.4934869408607483
1683935832804694500,10.419694580078126,0.7653908133506775,0.030694007873535156,-0.43829602003097534
1683935832814736000,10.42973583984375,0.7853262424468994,0.07161521911621094,-0.3241562843322754
1683935832824777200,10.439777099609374,0.8022629022598267,0.009552001953125,-0.11813855171203613
1683935832834818600,10.449818603515626,0.7918936014175415,-0.03816032409667969,0.04752528667449951
1683935832844860000,10.45985986328125,0.7780044674873352,-0.07391834259033203,0.21323823928833008
1683935832854901200,10.4699013671875,0.74394291639328,0.05261993408203125,0.32711857557296753
1683935832864942300,10.4799423828125,0.6596548557281494,-0.024217605590820312,0.5433984398841858
1683935832874983700,10.489983642578125,0.6001118421554565,-0.13397598266601562,0.751034140586853
1683935832885025000,10.50002490234375,0.5859534740447998,0.005232810974121094,0.8522626757621765
1683935832895066400,10.51006640625,0.5992226004600525,0.04396343231201172,0.8583332300186157
1683935832905107700,10.520107666015624,0.570193350315094,0.04210662841796875,0.9037481546401978
1683935832915149000,10.530149169921875,0.5375837087631226,0.035614967346191406,0.9021891355514526
1683935832925190100,10.540190185546875,0.5117773413658142,-0.0041599273681640625,0.8682083487510681
1683935832935231500,10.5502314453125,0.43853044509887695,-0.053272247314453125,0.8116019368171692
1683935832945272800,10.56027294921875,0.40916797518730164,-0.061623573303222656,0.7474550008773804
1683935832955314200,10.570314208984374,0.38737332820892334,-0.09146785736083984,0.704908013343811
1683935832965355500,10.58035546875,0.35093575716018677,-0.12121295928955078,0.6739755272865295
1683935832975396900,10.59039697265625,0.3231431245803833,-0.12453937530517578,0.6087504625320435
1683935832985438200,10.600438232421874,0.28036922216415405,-0.16605377197265625,0.5456419587135315
1683935832995479300,10.610479248046875,0.2116224318742752,-0.18576812744140625,0.47873491048812866
1683935833005520600,10.620520751953125,0.17043086886405945,-0.22176456451416016,0.42594408988952637
1683935833015562000,10.63056201171875,0.15541858971118927,-0.20081615447998047,0.38991081714630127
1683935833025603300,10.640603271484375,0.1785300225019455,-0.15204715728759766,0.428810179233551
1683935833035644700,10.650644775390624,0.269568532705307,-0.0923757553100586,0.4187880754470825
1683935833045686000,10.66068603515625,0.3769466280937195,-0.04546833038330078,0.45891207456588745
1683935833055727400,10.670727294921875,0.4804793894290924,-0.0016469955444335938,0.46537119150161743
1683935833065768700,10.680768798828124,0.5744185447692871,-0.02206707000732422,0.42912882566452026
1683935833075809800,10.690809814453125,0.669622004032135,-0.04681205749511719,0.4402425289154053
1683935833085851100,10.70085107421875,0.741596519947052,-0.047570228576660156,0.3895857334136963
1683935833095892500,10.710892578125,0.7853637933731079,-0.0035753250122070312,0.33711886405944824
1683935833105933800,10.720933837890625,0.819918155670166,0.03025531768798828,0.3206638693809509
1683935833115975200,10.73097509765625,0.8382537961006165,0.11532115936279297,0.3017829656600952
1683935833126016500,10.7410166015625,0.8340038061141968,0.13773727416992188,0.26197636127471924
1683935833136057900,10.751057861328125,0.8127546310424805,0.13850116729736328,0.24454915523529053
1683935833146099000,10.761098876953126,0.8223322629928589,0.11559867858886719,0.29874610900878906
1683935833156140300,10.771140380859375,0.7986840605735779,0.03884315490722656,0.2890280485153198
1683935833166181600,10.781181640625,0.8078937530517578,-0.015500068664550781,0.2938114404678345
1683935833176223000,10.791222900390625,0.8108620643615723,-0.0078029632568359375,0.2774941921234131
1683935833186264300,10.801264404296875,0.821540355682373,0.011466026306152344,0.2944706678390503
1683935833196305700,10.8113056640625,0.778671145439148,0.04451465606689453,0.2991091012954712
1683935833206346800,10.8213466796875,0.735534131526947,0.0063381195068359375,0.29896628856658936
1683935833216388000,10.83138818359375,0.6793485879898071,0.020478248596191406,0.3019152879714966
1683935833226429400,10.841429443359376,0.623367190361023,0.03890514373779297,0.30398261547088623
1683935833236470800,10.851470703125,0.5968658924102783,0.04270648956298828,0.35021674633026123
1683935833246512000,10.86151220703125,0.5645490884780884,0.055703163146972656,0.3832329511642456
1683935833256553500,10.871553466796875,0.5711870193481445,0.08480167388916016,0.46914124488830566
1683935833266594800,10.8815947265625,0.5687723755836487,0.09679222106933594,0.5409072637557983
1683935833276636000,10.891635986328126,0.5546919107437134,0.12020587921142578,0.5962595343589783
1683935833286677200,10.90167724609375,0.5761208534240723,0.11244487762451172,0.6897472739219666
1683935833296718600,10.911718505859374,0.6085073351860046,0.09507369995117188,0.7202121019363403
1683935833306760000,10.921760009765626,0.6603658199310303,0.025829315185546875,0.7994078397750854
1683935833316801300,10.93180126953125,0.7162426710128784,-0.007232666015625,0.9021697640419006
1683935833326842600,10.941842529296874,0.7727054357528687,0.035248756408691406,0.9199407696723938
1683935833336883700,10.9518837890625,0.8011835813522339,-0.17258548736572266,1.0053789615631104
1683935833346925300,10.96192529296875,0.8233623504638672,-0.2706947326660156,1.03511381149292
1683935833356966400,10.97196630859375,0.8481678366661072,-0.45377349853515625,1.0184358358383179
1683935833367007700,10.9820078125,0.8984649181365967,-0.527134895324707,0.9689257144927979
1683935833377049000,10.992049072265624,0.9517126083374023,-0.43619632720947266,0.856960117816925
1683935833387090400,11.00209033203125,0.9277004599571228,-0.34874439239501953,0.6968870162963867
1683935833397131800,11.0121318359375,0.8969959020614624,-0.26715660095214844,0.5984545946121216
1683935833407173000,11.022173095703126,0.8379954695701599,-0.19366741180419922,0.5514400005340576
1683935833417214200,11.032214111328125,0.8004546165466309,-0.2575407028198242,0.4702235460281372
1683935833427255600,11.042255615234374,0.7909983396530151,-0.47058677673339844,0.3863499164581299
1683935833437297000,11.052296875,0.8761987090110779,-0.6044816970825195,0.3152049779891968
1683935833447338200,11.062338134765625,0.9230939745903015,-0.7408485412597656,0.2158067226409912
1683935833457379600,11.072379638671874,0.9793921709060669,-0.8514299392700195,0.20173561573028564
1683935833467421000,11.0824208984375,0.9648560881614685,-0.8988103866577148,0.24446368217468262
1683935833477462300,11.092462158203125,0.938572108745575,-0.9546098709106445,0.3117324113845825
1683935833487503400,11.10250341796875,0.9039750099182129,-0.9102277755737305,0.3240002393722534
1683935833497544700,11.112544677734375,0.8616420030593872,-0.91998291015625,0.4065976142883301
1683935833507586000,11.1225859375,0.7819830179214478,-0.6979532241821289,0.331071138381958
1683935833517627400,11.13262744140625,0.6993455290794373,-0.4271736145019531,0.19306862354278564
1683935833527668700,11.142668701171875,0.5564170479774475,-0.15805339813232422,0.13804805278778076
1683935833537710000,11.1527099609375,0.39877212047576904,0.07888984680175781,0.025327563285827637
1683935833547751200,11.162751220703125,0.26145198941230774,0.31264495849609375,0.028714776039123535
1683935833557792500,11.17279248046875,0.20099739730358124,0.5152835845947266,0.06416058540344238
1683935833567833900,11.182833740234376,0.15058982372283936,0.7014284133911133,-0.06483900547027588
1683935833577875200,11.192875244140625,0.08879803121089935,0.8310995101928711,-0.09349524974822998
1683935833587916500,11.20291650390625,-0.09340829402208328,0.8693304061889648,-0.18977487087249756
1683935833597958000,11.2129580078125,-0.3342782258987427,0.8357620239257812,-0.19018280506134033
1683935833607999200,11.222999267578125,-0.7585563063621521,0.7618961334228516,-0.17373239994049072
1683935833618040600,11.23304052734375,-1.4399433135986328,0.7031545639038086,-0.16108226776123047
1683935833628081700,11.24308154296875,-3.156898021697998,0.49581146240234375,-0.3397451639175415
1683935833638123000,11.253123046875,-5.550992965698242,0.1099853515625,-0.43458425998687744
1683935833648164400,11.263164306640626,-6.857864856719971,-0.25701332092285156,-0.18615484237670898
1683935833658205700,11.273205810546875,-5.783786296844482,-0.5315628051757812,0.20786833763122559
1683935833668247000,11.2832470703125,-3.3948962688446045,-0.5603504180908203,0.3360669016838074
1683935833678288400,11.293288330078125,-1.2349491119384766,-0.3238487243652344,0.057669103145599365
1683935833688329700,11.303329833984375,0.13805699348449707,-0.23116683959960938,-0.29129308462142944
1683935833698370800,11.313370849609376,0.8335085511207581,-0.2908296585083008,-0.6209893226623535
1683935833708412200,11.323412109375,1.0787991285324097,-0.43724918365478516,-0.909772515296936
1683935833718453500,11.33345361328125,0.9996087551116943,-0.6100597381591797,-1.1003752946853638
1683935833728494800,11.343494873046875,0.708810031414032,-0.6896657943725586,-1.2161648273468018
1683935833738536200,11.3535361328125,0.3702448308467865,-0.650050163269043,-1.207285761833191
1683935833748577500,11.36357763671875,0.2556414008140564,-0.5297069549560547,-1.3358180522918701
1683935833758618600,11.37361865234375,0.4357084631919861,-0.38361454010009766,-1.5567448139190674
1683935833768660000,11.383659912109374,0.769141435623169,-0.31400585174560547,-1.8300120830535889
1683935833778701300,11.393701416015626,1.0772197246551514,-0.2935514450073242,-1.9848238229751587
1683935833788742700,11.40374267578125,1.1823062896728516,-0.4525470733642578,-2.109478235244751
1683935833798784000,11.413783935546874,0.9852162003517151,-0.6088142395019531,-2.140550374984741
1683935833808825300,11.423825439453125,0.5266229510307312,-0.6343698501586914,-2.007235288619995
1683935833818866700,11.43386669921875,-0.029656410217285156,-0.4642143249511719,-1.7874128818511963
1683935833828907800,11.44390771484375,-0.46727311611175537,-0.2099008560180664,-1.5711694955825806
1683935833838949000,11.45394921875,-0.5882699489593506,0.09934616088867188,-1.4590312242507935
1683935833848990500,11.463990478515624,-0.4062845706939697,0.4351310729980469,-1.4815160036087036
1683935833859031800,11.47403173828125,-0.1222158670425415,0.7002048492431641,-1.4394303560256958
1683935833869073200,11.4840732421875,0.19501131772994995,0.7904071807861328,-1.3693510293960571
1683935833879114500,11.494114501953124,0.41399717330932617,0.8667278289794922,-1.3066939115524292
1683935833889155800,11.50415576171875,0.5280174016952515,0.9891624450683594,-1.1770843267440796
1683935833899197000,11.514197021484375,0.703859269618988,1.0597238540649414,-0.9616180062294006
1683935833909238300,11.52423828125,0.7644224166870117,1.0689382553100586,-0.7505257725715637
1683935833919279600,11.534279541015625,0.7347995638847351,1.0477914810180664,-0.48267871141433716
1683935833929321000,11.544321044921874,0.6275644302368164,0.9290590286254883,-0.14552569389343262
1683935833939362300,11.5543623046875,0.4414515197277069,0.8295450210571289,0.14393486082553864
1683935833949403600,11.564403564453125,0.2853946089744568,0.7370700836181641,0.44482558965682983
1683935833959445000,11.574445068359376,0.15435737371444702,0.5417203903198242,0.6652261018753052
1683935833969486000,11.584486083984375,-0.025927424430847168,0.3225393295288086,0.7825073003768921
1683935833979527400,11.59452734375,-0.29204845428466797,0.14141464233398438,0.818800687789917
1683935833989568800,11.60456884765625,-0.5875165462493896,0.045653343200683594,0.45394039154052734
1683935833999610000,11.614610107421875,-0.968185305595398,-0.11087608337402344,-0.4555259048938751
1683935834009651500,11.6246513671875,-1.2854962348937988,-0.17978954315185547,-1.3693172931671143
1683935834019692800,11.63469287109375,-1.3843412399291992,-0.2756614685058594,-1.8801801204681396
1683935834029734000,11.64473388671875,-1.1811498403549194,-0.32177257537841797,-2.018158435821533
1683935834039775200,11.654775146484376,-0.8152922987937927,-0.27265357971191406,-2.044210910797119
1683935834049816600,11.664816650390625,-0.45709842443466187,-0.2214651107788086,-2.0369150638580322
1683935834059858000,11.67485791015625,-0.11186802387237549,-0.11293792724609375,-2.0590736865997314
1683935834069899300,11.684899169921875,0.09461134672164917,0.01972484588623047,-2.117485284805298
1683935834079940600,11.694940673828125,0.1253441572189331,0.18383502960205078,-2.1639933586120605
1683935834089982000,11.70498193359375,0.026705682277679443,0.40801239013671875,-2.2244904041290283
1683935834100023000,11.71502294921875,-0.04199284315109253,0.6562223434448242,-2.1817691326141357
1683935834110064400,11.725064453125,-0.12406480312347412,0.8733854293823242,-2.1451809406280518
1683935834120105700,11.735105712890626,-0.2477211356163025,1.0164737701416016,-2.1060843467712402
1683935834130147000,11.74514697265625,-0.2894898056983948,1.0807609558105469,-2.035555362701416
1683935834140188400,11.7551884765625,-0.31180208921432495,1.0376348495483398,-1.9781652688980103
1683935834150229800,11.765229736328125,-0.24168938398361206,0.8586606979370117,-1.9062694311141968
1683935834160270800,11.775270751953125,-0.11513334512710571,0.6421899795532227,-1.7658791542053223
1683935834170312200,11.785312255859376,-0.004976928234100342,0.5461082458496094,-1.4393426179885864
1683935834180353500,11.795353515625,0.05471295118331909,0.5893564224243164,-0.9865816235542297
1683935834190395000,11.805394775390624,-0.09394782781600952,0.5135688781738281,-0.49153709411621094
1683935834200436200,11.815436279296875,-0.21886152029037476,0.2996101379394531,-0.0019355416297912598
1683935834210477600,11.8254775390625,-0.23283332586288452,0.014234542846679688,0.601464033126831
1683935834220519000,11.835518798828126,-0.04051387310028076,-0.18502140045166016,1.1642601490020752
1683935834230560000,11.84556005859375,0.032145917415618896,-0.3438596725463867,1.698807716369629
1683935834240601300,11.855601318359374,-0.13419997692108154,-0.49828052520751953,2.0662052631378174
1683935834250642700,11.865642578125,-0.41812223196029663,-0.5981788635253906,2.2113196849823
1683935834260684000,11.87568408203125,-0.5949659943580627,-0.7392082214355469,2.3858184814453125
1683935834270725400,11.885725341796874,-0.5196513533592224,-0.8327817916870117,2.3588876724243164
1683935834280766700,11.8957666015625,-0.32900142669677734,-0.8906669616699219,2.193744659423828
1683935834290808000,11.90580810546875,-0.15668749809265137,-0.7907562255859375,1.7598509788513184
1683935834300849200,11.91584912109375,-0.24504947662353516,-0.5282402038574219,0.9172195792198181
1683935834310890500,11.925890380859375,-0.4221498370170593,-0.060214996337890625,-0.10205364227294922
1683935834320931800,11.935931884765624,-0.5240089893341064,0.5319662094116211,-1.1031179428100586
1683935834330973200,11.94597314453125,-0.5596594214439392,1.0167016983032227,-1.9860221147537231
1683935834341014500,11.9560146484375,-0.6021295785903931,0.8185405731201172,-2.4274275302886963
1683935834351056000,11.966055908203124,-0.7613109946250916,0.38533878326416016,-2.719376564025879
1683935834361097000,11.976096923828125,-0.8765151500701904,-0.010128021240234375,-2.9779891967773438
1683935834371138300,11.98613818359375,-1.0633289813995361,-0.3298377990722656,-3.0672383308410645
1683935834381179600,11.9961796875,-1.330089807510376,-0.4263267517089844,-2.9898605346679688
1683935834391221000,12.006220947265625,-1.7930254936218262,-0.5253105163574219,-2.8493874073028564
1683935834401262300,12.016262451171874,-2.3734188079833984,-0.6394624710083008,-2.752135753631592
1683935834411303700,12.0263037109375,-2.709365129470825,-0.9913568496704102,-2.496738910675049
1683935834421345000,12.036344970703125,-2.4252305030822754,-1.582789421081543,-1.9537938833236694
1683935834431386000,12.04638623046875,-1.5807632207870483,-2.1117143630981445,-1.037349820137024
1683935834441427500,12.056427490234375,-0.5206589102745056,-2.510870933532715,-0.07390414923429489
1683935834451468800,12.06646875,0.3869377672672272,-2.751649856567383,0.7556277513504028
1683935834461510100,12.07651025390625,1.007096767425537,-2.726978302001953,1.34500253200531
1683935834471551500,12.086551513671875,1.3606923818588257,-2.024416923522949,1.4564363956451416
1683935834481592800,12.0965927734375,1.576408863067627,-0.8820095062255859,1.4845050573349
1683935834491634200,12.10663427734375,1.81406569480896,0.14058399200439453,1.4181548357009888
1683935834501675300,12.11667529296875,1.9725103378295898,0.850616455078125,1.1898343563079834
1683935834511716600,12.126716552734376,1.9729938507080078,1.086857795715332,0.649174153804779
1683935834521758000,12.136758056640625,1.9035871028900146,1.0084514617919922,-0.09617991745471954
1683935834531799300,12.14679931640625,1.6646842956542969,0.9816789627075195,-0.77973872423172
1683935834541840600,12.156840576171875,1.2163739204406738,1.0657787322998047,-1.2602734565734863
1683935834551882000,12.166882080078125,0.7193174362182617,1.1427850723266602,-1.5373324155807495
1683935834561923000,12.176923095703126,0.2410842776298523,1.1715192794799805,-1.7462158203125
1683935834571964400,12.18696435546875,-0.010247111320495605,1.0564212799072266,-1.835976481437683
1683935834582005800,12.197005859375,-0.0866173505783081,0.8313694000244141,-1.880267858505249
1683935834592047000,12.207047119140626,-0.02758854627609253,0.5850543975830078,-1.7934588193893433
1683935834602088400,12.21708837890625,0.10241025686264038,0.42975616455078125,-1.6181648969650269
1683935834612129800,12.2271298828125,0.2557417154312134,0.19329166412353516,-1.4446513652801514
1683935834622171000,12.2371708984375,0.418221652507782,-0.03816986083984375,-1.339172601699829
1683935834632212200,12.247212158203125,0.5874520540237427,-0.1452178955078125,-1.2659374475479126
1683935834642253600,12.257253662109376,0.7772040367126465,-0.039764404296875,-1.2151116132736206
1683935834652295000,12.267294921875,0.9659461975097656,0.24676895141601562,-1.1703189611434937
1683935834662336300,12.277336181640624,1.1459932327270508,0.6018848419189453,-1.1299121379852295
1683935834672377600,12.287377685546875,1.296907901763916,0.8034067153930664,-1.098926067352295
1683935834682419000,12.2974189453125,1.4195003509521484,0.9018077850341797,-1.0339781045913696
1683935834692460000,12.3074599609375,1.507258653640747,0.9020566940307617,-1.0083433389663696
1683935834702501400,12.31750146484375,1.640197992324829,0.8354520797729492,-1.0513652563095093
1683935834712542700,12.327542724609375,1.719038963317871,0.592498779296875,-1.0604336261749268
1683935834722584000,12.337583984375,1.7421634197235107,0.33152198791503906,-1.0765068531036377
1683935834732625400,12.34762548828125,1.6414767503738403,0.13143348693847656,-1.2116525173187256
1683935834742666800,12.357666748046874,1.4530752897262573,-0.017731666564941406,-1.4671275615692139
1683935834752707800,12.367707763671875,1.2117798328399658,-0.05434226989746094,-1.685692310333252
1683935834762749200,12.377749267578125,0.9586275815963745,-0.10305500030517578,-1.814434289932251
1683935834772790500,12.38779052734375,0.6644791960716248,-0.09226799011230469,-1.925844430923462
1683935834782831900,12.397831787109375,0.34231430292129517,-0.007828712463378906,-1.9303221702575684
1683935834792873200,12.407873291015624,0.06437084823846817,0.03063201904296875,-1.9545509815216064
1683935834802914600,12.41791455078125,-0.06705270707607269,0.10912799835205078,-1.9240808486938477
1683935834812955600,12.42795556640625,-0.00000973045825958252,0.20370101928710938,-1.6534063816070557
1683935834822997000,12.4379970703125,0.19632360339164734,0.16643714904785156,-1.2356863021850586
1683935834833038300,12.448038330078125,0.3949902057647705,0.1912374496459961,-0.8781123757362366
1683935834843079700,12.45807958984375,0.5625343322753906,0.22548866271972656,-0.5528697967529297
1683935834853121000,12.46812109375,0.6771396994590759,0.2310323715209961,-0.27289777994155884
