time,seconds_elapsed,z,y,x
1683915369660166400,0.03616650390625,0,0,0
1683915369670207200,0.046207275390625,-0.09624660015106201,-0.1546459197998047,-0.2070755958557129
1683915369680248000,0.056248046875,0.08240175247192383,0.058457374572753906,-0.13894224166870117
1683915369690288600,0.06628857421875,1.0292807817459106,0.6808414459228516,-0.2375631332397461
1683915369700329500,0.07632958984375,1.5750259160995483,0.9777851104736328,0.4197416305541992
1683915369710370300,0.086370361328125,2.4410717487335205,0.7751340866088867,1.6758575439453125
1683915369720411000,0.096410888671875,3.8368823528289795,-0.37029361724853516,3.013655185699463
1683915369730451700,0.10645166015625,0.18769550323486328,-0.6792449951171875,3.920294761657715
1683915369740492500,0.116492431640625,0.8235008716583252,2.1190571784973145,3.7687549591064453
1683915369750533400,0.126533447265625,0.876370906829834,4.23458194732666,3.925776481628418
1683915369760574000,0.136573974609375,-0.06720924377441406,4.113288879394531,4.614616394042969
1683915369770614800,0.14661474609375,-0.7492201328277588,2.3094940185546875,3.4245548248291016
1683915369780655600,0.156655517578125,-0.3482625484466553,3.5003256797790527,1.7232799530029297
1683915369790696200,0.1666962890625,0.16069412231445312,4.340319633483887,1.6484003067016602
1683915369800737000,0.176737060546875,0.3701481819152832,4.560884952545166,1.425008773803711
1683915369810777900,0.18677783203125,-0.019070863723754883,4.764737606048584,1.215529441833496
1683915369820818700,0.196818603515625,-2.355447769165039,3.382591962814331,1.2391929626464844
1683915369830859300,0.206859375,-4.03425931930542,5.3054327964782715,-0.9588279724121094
1683915369840900000,0.216900146484375,-6.174892902374268,5.87062406539917,-1.938462257385254
1683915369850941000,0.22694091796875,-6.609794616699219,5.695915699005127,-3.8544492721557617
1683915369860981500,0.2369814453125,-4.3528361320495605,4.3932294845581055,-3.9844655990600586
1683915369871022300,0.247022216796875,-0.730614185333252,3.8770334720611572,-4.594804286956787
1683915369881063200,0.257063232421875,1.3730590343475342,0.8080124855041504,-4.2085347175598145
1683915369891104000,0.26710400390625,0.8700199127197266,-4.956020355224609,-4.609806537628174
1683915369901144600,0.27714453125,2.3843488693237305,-4.8586835861206055,-5.324201583862305
1683915369911185400,0.287185302734375,2.616201400756836,-1.978874683380127,-3.981870651245117
1683915369921226200,0.297226318359375,1.607535481452942,-1.0759475231170654,-3.8708953857421875
1683915369931266800,0.307266845703125,0.24602483212947845,0.42092442512512207,-2.2194738388061523
1683915369941307600,0.3173076171875,1.8223267793655396,-0.31607937812805176,-3.323589324951172
1683915369951348500,0.327348388671875,1.5427007675170898,-3.3494036197662354,-3.030351161956787
1683915369961389300,0.337389404296875,0.9151286482810974,-5.859066963195801,-1.2677979469299316
1683915369971430000,0.347429931640625,1.1062872409820557,-4.3233747482299805,-2.56392765045166
1683915369981470700,0.357470703125,1.638480544090271,0.6295604705810547,-2.900430202484131
1683915369991511600,0.367511474609375,1.3264011144638062,3.9526498317718506,-1.054703712463379
1683915370001552100,0.37755224609375,1.3762915134429932,4.647533416748047,0.20724964141845703
1683915370011593000,0.387593017578125,-0.6060497164726257,-0.7542015314102173,2.8306331634521484
1683915370021633800,0.3976337890625,2.7067179679870605,-1.5370537042617798,0.9511661529541016
1683915370031674600,0.407674560546875,3.401517629623413,-3.699679136276245,0.35384273529052734
1683915370041715200,0.417715087890625,2.9323959350585938,-2.549596071243286,0.8179655075073242
1683915370051756000,0.427756103515625,1.17189359664917,-0.3932957649230957,0.8849210739135742
1683915370061796900,0.437796875,0.7726731300354004,-0.3104207515716553,0.9581108093261719
1683915370071837400,0.44783740234375,1.2139755487442017,-0.6843299865722656,0.8911123275756836
1683915370081878300,0.457878173828125,0.6440805792808533,0.3043363094329834,-0.6637706756591797
1683915370091919000,0.467919189453125,1.1257737874984741,-1.272383689880371,-0.22498703002929688
1683915370101960000,0.4779599609375,1.3506057262420654,-0.8137693405151367,-2.401866912841797
1683915370112000500,0.48800048828125,0.5505193471908569,-0.6514699459075928,-2.2664594650268555
1683915370122041300,0.498041259765625,0.4660228490829468,-0.9273312091827393,-0.8984308242797852
1683915370132082200,0.508082275390625,0.7235829830169678,0.4045288562774658,0.2721738815307617
1683915370142123000,0.518123046875,1.96067214012146,-0.08895301818847656,3.487433433532715
1683915370152163600,0.52816357421875,4.069372653961182,-1.2736618518829346,5.575791358947754
1683915370162204400,0.538204345703125,3.816392660140991,-2.3164916038513184,5.53602409362793
1683915370172245200,0.548245361328125,1.0055475234985352,-3.203598737716675,4.341851234436035
1683915370182285800,0.558285888671875,-0.6393021941184998,-3.6891987323760986,2.46773624420166
1683915370192326700,0.56832666015625,-1.190566062927246,-4.514745712280273,1.8370380401611328
1683915370202367500,0.578367431640625,-1.127902626991272,-5.318587779998779,0.8783254623413086
1683915370212408300,0.588408203125,-0.3520898222923279,-5.696354866027832,-0.33237171173095703
1683915370222449000,0.598448974609375,-0.14947223663330078,-5.858141899108887,-1.4006962776184082
1683915370232489700,0.60848974609375,0.20637452602386475,-5.727412700653076,-1.4959945678710938
1683915370242530600,0.618530517578125,-0.22680336236953735,-4.8041887283325195,-0.6648712158203125
1683915370252571400,0.6285712890625,0.18977713584899902,-3.163254737854004,1.2738227844238281
1683915370262612000,0.638612060546875,0.18998515605926514,-2.852606773376465,1.4148550033569336
1683915370272652800,0.64865283203125,0.14832770824432373,-2.4275460243225098,1.6816253662109375
1683915370282693600,0.658693603515625,0.195550799369812,-2.0858516693115234,2.092360496520996
1683915370292734200,0.668734130859375,0.43386781215667725,-1.8947110176086426,2.3900146484375
1683915370302775000,0.678775146484375,0.9447613954544067,-1.704498291015625,2.6382551193237305
1683915370312815900,0.68881591796875,1.499921202659607,-1.4378762245178223,2.555797576904297
1683915370322856700,0.698856689453125,1.827515959739685,-1.2548623085021973,2.2868757247924805
1683915370332897300,0.708897216796875,1.6602696180343628,-1.007551908493042,1.6916780471801758
1683915370342938000,0.718938232421875,1.1639958620071411,-0.5922966003417969,0.9024219512939453
1683915370352979000,0.72897900390625,0.6620538234710693,-0.0354008674621582,0.18482589721679688
1683915370363019800,0.739019775390625,0.37202322483062744,0.5318388938903809,-0.4867210388183594
1683915370373060400,0.749060302734375,0.2939351797103882,1.135538101196289,-1.2350969314575195
1683915370383101200,0.75910107421875,0.37980592250823975,1.8287594318389893,-1.8171329498291016
1683915370393142000,0.76914208984375,0.5433057546615601,2.5484395027160645,-2.5416417121887207
1683915370403182800,0.779182861328125,0.6280255317687988,3.2231533527374268,-3.3969597816467285
1683915370413223400,0.789223388671875,0.6462412476539612,3.8384416103363037,-4.354649066925049
1683915370423264300,0.79926416015625,0.8382264971733093,4.213921546936035,-4.845343112945557
1683915370433305000,0.80930517578125,1.266416311264038,4.572622776031494,-5.131655216217041
1683915370443346000,0.819345947265625,1.7641873359680176,4.787798881530762,-5.103157043457031
1683915370453386500,0.829386474609375,2.0734262466430664,4.846660614013672,-4.84058141708374
1683915370463427300,0.83942724609375,2.016063690185547,4.798413276672363,-4.640879154205322
1683915370473468200,0.84946826171875,1.3791873455047607,4.253104209899902,-4.534917831420898
1683915370483509000,0.859509033203125,0.6662544012069702,3.7870590686798096,-4.803541660308838
1683915370493549600,0.869549560546875,0.37929558753967285,3.4063992500305176,-4.52346134185791
1683915370503590400,0.87959033203125,0.09240376949310303,2.609973430633545,-3.8952078819274902
1683915370513631200,0.88963134765625,-0.26802974939346313,1.8165282011032104,-3.2549915313720703
1683915370523671800,0.899671875,-0.7369532585144043,1.121673583984375,-2.888917922973633
1683915370533712600,0.909712646484375,-0.9817570447921753,0.4379425048828125,-2.6566710472106934
1683915370543753500,0.91975341796875,-0.640992283821106,-0.22188377380371094,-1.9293770790100098
1683915370553794300,0.929794189453125,-0.29168903827667236,-0.3539133071899414,-0.8450088500976562
1683915370563835000,0.9398349609375,-0.42250287532806396,-1.5387630462646484,0.811274528503418
1683915370573875700,0.949875732421875,-0.32355237007141113,-2.8861618041992188,1.9219083786010742
1683915370583916500,0.95991650390625,0.01831817626953125,-3.2713828086853027,2.5479226112365723
1683915370593957400,0.969957275390625,0.08727705478668213,-3.4847240447998047,3.226449489593506
1683915370603998000,0.979998046875,-0.12257647514343262,-3.661693572998047,3.8373098373413086
1683915370614038800,0.990038818359375,-0.5669863224029541,-3.7654829025268555,4.374311447143555
1683915370624079600,1.00007958984375,-1.2353169918060303,-3.5802807807922363,5.055666446685791
1683915370634120400,1.010120361328125,-1.6583976745605469,-3.0892114639282227,6.0529375076293945
1683915370644161000,1.0201611328125,-1.938575267791748,-2.7055482864379883,6.777894973754883
1683915370654201900,1.030201904296875,-2.0196475982666016,-2.2411904335021973,7.005650043487549
1683915370664242700,1.04024267578125,-1.5449252128601074,-1.1031432151794434,6.289138317108154
1683915370674283500,1.050283447265625,-0.9849667549133301,-0.17822599411010742,5.228447437286377
1683915370684324000,1.060323974609375,-0.38549280166625977,0.6796255111694336,4.354800224304199
1683915370694365000,1.070364990234375,0.13235902786254883,0.8268957138061523,4.077192783355713
1683915370704405800,1.08040576171875,0.6253693103790283,0.18499374389648438,3.925537586212158
1683915370714446600,1.090446533203125,1.0064492225646973,-0.9650416374206543,3.478656768798828
1683915370724487200,1.100487060546875,1.353644609451294,-2.0902109146118164,2.8409652709960938
1683915370734528000,1.110528076171875,1.7431421279907227,-2.770298480987549,2.2891979217529297
1683915370744568800,1.12056884765625,2.2181246280670166,-3.1239404678344727,1.7522740364074707
1683915370754609700,1.130609619140625,2.586500883102417,-3.355278491973877,1.332991600036621
1683915370764650200,1.140650146484375,2.703993797302246,-3.3315773010253906,0.7449536323547363
1683915370774691000,1.150691162109375,2.632642984390259,-3.156543254852295,-0.13732337951660156
1683915370784732000,1.16073193359375,2.442225217819214,-2.517063617706299,-1.1624712944030762
1683915370794772700,1.170772705078125,2.1138482093811035,-1.5616741180419922,-2.0476179122924805
1683915370804813300,1.180813232421875,1.696426510810852,-0.5374464988708496,-2.760469913482666
1683915370814854100,1.190854248046875,1.3070058822631836,0.44862842559814453,-3.341139316558838
1683915370824895000,1.20089501953125,1.0590429306030273,1.2680778503417969,-3.8133697509765625
1683915370834935800,1.210935791015625,0.969367504119873,2.0254807472229004,-4.175792694091797
1683915370844976600,1.2209765625,0.977980375289917,2.6892595291137695,-4.419648170471191
1683915370855017200,1.231017333984375,1.0817022323608398,3.2551708221435547,-4.587323188781738
1683915370865058000,1.24105810546875,1.262940526008606,3.6707613468170166,-4.717548370361328
1683915370875099000,1.251098876953125,1.337128758430481,3.789999485015869,-4.796140670776367
1683915370885139700,1.2611396484375,1.3979358673095703,3.62861704826355,-4.763237953186035
1683915370895180300,1.27118017578125,1.5153520107269287,3.2317135334014893,-4.652426719665527
1683915370905221000,1.28122119140625,1.6748073101043701,2.7820205688476562,-4.562253952026367
1683915370915262000,1.291261962890625,1.9314510822296143,2.320798873901367,-4.4815521240234375
1683915370925302800,1.301302734375,2.2007052898406982,1.7409319877624512,-4.399380683898926
1683915370935343400,1.31134326171875,2.4182229042053223,1.0291576385498047,-4.3167829513549805
1683915370945384200,1.32138427734375,2.5974998474121094,0.29254913330078125,-4.215479850769043
1683915370955425000,1.331425048828125,2.7347488403320312,-0.5145406723022461,-4.14778995513916
1683915370965465900,1.3414658203125,2.5448718070983887,-1.6148853302001953,-4.162909984588623
1683915370975506400,1.35150634765625,1.5229709148406982,-3.4433889389038086,-4.105073928833008
1683915370985547300,1.36154736328125,0.6320207118988037,-4.801056385040283,-3.6522557735443115
1683915370995588000,1.371588134765625,0.028557777404785156,-4.940252780914307,-2.8421554565429688
1683915371005629000,1.38162890625,-0.22684049606323242,-4.36651611328125,-1.7868103981018066
1683915371015669500,1.39166943359375,-0.30397462844848633,-3.6946892738342285,-0.7302660942077637
1683915371025710300,1.40171044921875,-0.24431276321411133,-3.2214741706848145,0.1605072021484375
1683915371035751200,1.411751220703125,-0.08584976196289062,-2.9365625381469727,0.859919548034668
1683915371045792000,1.4217919921875,0.007030010223388672,-2.659848213195801,1.1704678535461426
1683915371055832800,1.431832763671875,-0.09068822860717773,-2.2716283798217773,1.0035905838012695
1683915371065873400,1.441873291015625,-0.3832685947418213,-1.8047738075256348,0.6201257705688477
1683915371075914200,1.451914306640625,-0.8325588703155518,-1.3981060981750488,0.2961392402648926
1683915371085955000,1.461955078125,-1.46470046043396,-1.072446346282959,0.07906389236450195
1683915371095996000,1.471995849609375,-2.1391072273254395,-0.8633847236633301,0.16540813446044922
1683915371106036500,1.482036376953125,-2.6753947734832764,-0.8261780738830566,0.617682933807373
1683915371116077300,1.492077392578125,-2.916994571685791,-0.8748641014099121,1.3175530433654785
1683915371126118100,1.5021181640625,-2.9053003787994385,-0.9245157241821289,1.9866652488708496
1683915371136159000,1.512158935546875,-2.7580606937408447,-0.8120741844177246,2.383148670196533
1683915371146199600,1.522199462890625,-2.5676181316375732,-0.5408244132995605,2.524260997772217
1683915371156240400,1.532240478515625,-2.3759818077087402,-0.21704721450805664,2.484999179840088
1683915371166281200,1.54228125,-2.1802875995635986,0.07734870910644531,2.3480443954467773
1683915371176322000,1.552322021484375,-1.9022917747497559,0.36603403091430664,2.0140700340270996
1683915371186363000,1.56236279296875,-1.4721856117248535,0.5886845588684082,1.4458842277526855
1683915371196403500,1.572403564453125,-0.9044108390808105,0.6086082458496094,0.8578610420227051
1683915371206444300,1.5824443359375,-0.43552684783935547,0.39266347885131836,0.37634897232055664
1683915371216485000,1.592485107421875,-0.14693903923034668,-0.0472569465637207,-0.0200653076171875
1683915371226526000,1.60252587890625,0.031948089599609375,-0.619941234588623,-0.3963742256164551
1683915371236566500,1.61256640625,0.10105729103088379,-1.2540264129638672,-0.6746978759765625
1683915371246607400,1.622607421875,-0.019352436065673828,-1.9702343940734863,-0.7827610969543457
1683915371256648200,1.632648193359375,-0.590179443359375,-2.8376760482788086,-0.46408605575561523
1683915371266689000,1.64268896484375,-1.4606044292449951,-3.6486244201660156,0.41782236099243164
1683915371276729900,1.652729736328125,-1.638514518737793,-3.962592124938965,1.2357358932495117
1683915371286770400,1.6627705078125,-0.9194369316101074,-3.6475062370300293,1.5498480796813965
1683915371296811300,1.672811279296875,0.19658637046813965,-2.921769142150879,1.1132044792175293
1683915371306852000,1.68285205078125,1.1571376323699951,-2.1720008850097656,0.36607885360717773
1683915371316893000,1.692892822265625,1.632967472076416,-1.5670075416564941,-0.3168525695800781
1683915371326933500,1.70293359375,1.4926960468292236,-1.111586570739746,-0.8114275932312012
1683915371336974300,1.712974365234375,1.4719481468200684,-0.7294888496398926,-1.3486247062683105
1683915371347015200,1.72301513671875,1.5434447526931763,-0.43575620651245117,-1.919020652770996
1683915371357056000,1.733055908203125,1.6531093120574951,-0.03379487991333008,-2.3722877502441406
1683915371367096800,1.743096923828125,1.8344016075134277,0.4196925163269043,-2.6323940753936768
1683915371377137400,1.753137451171875,2.1104209423065186,0.9131402969360352,-2.661165952682495
1683915371387178200,1.76317822265625,2.476321220397949,1.3568544387817383,-2.529445171356201
1683915371397219000,1.773218994140625,2.782111644744873,1.6650757789611816,-2.295693874359131
1683915371407260000,1.783260009765625,2.8832294940948486,1.7763457298278809,-1.9471070766448975
1683915371417300700,1.79330078125,2.6607887744903564,1.6134066581726074,-1.5162627696990967
1683915371427341300,1.80334130859375,1.9971272945404053,1.2900280952453613,-1.0283584594726562
1683915371437382100,1.813382080078125,1.2713558673858643,0.9054470062255859,-0.5284309387207031
1683915371447423000,1.823423095703125,0.8081399202346802,0.632084846496582,-0.20430946350097656
1683915371457463800,1.8334638671875,0.5794718861579895,0.49176883697509766,0.03855323791503906
1683915371467504400,1.84350439453125,0.350725382566452,0.7336864471435547,0.15978050231933594
1683915371477545200,1.853545166015625,0.11035031080245972,1.2353873252868652,0.2117009162902832
1683915371487586000,1.8635859375,-0.1588723361492157,1.7973456382751465,0.1191105842590332
1683915371497627000,1.873626953125,-0.28026169538497925,1.9739289283752441,0.040787696838378906
1683915371507667700,1.883667724609375,-0.4121514558792114,1.6517066955566406,-0.007729053497314453
1683915371517708300,1.893708251953125,-0.45526742935180664,1.142136573791504,-0.07905340194702148
1683915371527749000,1.9037490234375,-0.3732965588569641,0.5616178512573242,-0.09875202178955078
1683915371537790000,1.9137900390625,-0.2983909249305725,-0.15421390533447266,0.015111446380615234
1683915371547830800,1.923830810546875,-0.034931838512420654,-0.7832794189453125,0.16041946411132812
1683915371557871600,1.93387158203125,0.27944719791412354,-1.061781883239746,0.31069421768188477
1683915371567912400,1.943912353515625,0.4453774094581604,-0.8143014907836914,0.2525472640991211
1683915371577953000,1.953953125,0.4825536012649536,-0.1840047836303711,0.2144179344177246
1683915371587993900,1.963993896484375,0.45150601863861084,0.3726329803466797,0.3315243721008301
1683915371598034700,1.97403466796875,0.37674617767333984,0.782048225402832,0.4601712226867676
1683915371608075500,1.984075439453125,0.2955799698829651,1.1133842468261719,0.4989914894104004
1683915371618116400,1.994116455078125,0.2695156931877136,1.3779950141906738,0.43942832946777344
1683915371628157000,2.004156982421875,0.32734519243240356,1.553903579711914,0.3142099380493164
1683915371638197800,2.01419775390625,0.41153085231781006,1.631187915802002,0.05118560791015625
1683915371648238600,2.024238525390625,0.4663337469100952,1.1627216339111328,-0.05881643295288086
1683915371658279400,2.034279541015625,0.44739508628845215,0.6556806564331055,-0.2155141830444336
1683915371668320300,2.0443203125,0.3095030188560486,0.30974578857421875,-0.42246437072753906
1683915371678360800,2.05436083984375,0.06298142671585083,0.200775146484375,-0.5999164581298828
1683915371688401700,2.064401611328125,-0.22908037900924683,0.27094364166259766,-0.6234040260314941
1683915371698442500,2.0744423828125,-0.5044422745704651,0.40703868865966797,-0.4672126770019531
1683915371708483300,2.0844833984375,-0.7253978848457336,0.5711889266967773,-0.27532339096069336
1683915371718524200,2.094524169921875,-0.870367169380188,0.6883349418640137,-0.05781698226928711
1683915371728564700,2.104564697265625,-0.9400153160095215,0.7493195533752441,0.15067577362060547
1683915371738605600,2.11460546875,-0.9360857605934143,0.7852649688720703,0.3161783218383789
1683915371748646400,2.124646484375,-0.8778307437896729,0.7771544456481934,0.4687666893005371
1683915371758687200,2.134687255859375,-0.7672120928764343,0.7250523567199707,0.6337189674377441
1683915371768728000,2.14472802734375,-0.6513831615447998,0.5836396217346191,0.8773894309997559
1683915371778768600,2.1547685546875,-0.5742249488830566,0.2127699851989746,1.2814216613769531
1683915371788809500,2.1648095703125,-0.5869718790054321,-0.3319387435913086,1.7275257110595703
1683915371798850300,2.174850341796875,-0.6422700881958008,-0.7889575958251953,2.103339195251465
1683915371808891100,2.18489111328125,-0.7255654335021973,-1.2019619941711426,2.4800009727478027
1683915371818932000,2.194931884765625,-0.7435559630393982,-1.4345107078552246,2.8624191284179688
1683915371828972500,2.20497265625,-0.7550697326660156,-1.665614128112793,3.245016574859619
1683915371839013400,2.215013427734375,-0.8548179864883423,-1.839709758758545,3.5195841789245605
1683915371849054200,2.22505419921875,-1.123641848564148,-2.0522923469543457,3.698410987854004
1683915371859095000,2.235094970703125,-1.7039127349853516,-2.1917099952697754,3.8398308753967285
1683915371869136000,2.245135986328125,-2.527270793914795,-2.2835030555725098,3.9809517860412598
1683915371879176400,2.255176513671875,-3.0299105644226074,-2.396820545196533,4.033956527709961
1683915371889217300,2.26521728515625,-3.012498617172241,-2.5745105743408203,3.810629367828369
1683915371899258000,2.275258056640625,-2.577476978302002,-2.4447250366210938,3.1070737838745117
1683915371909299000,2.285298828125,-1.9408022165298462,-2.1153531074523926,2.273092269897461
1683915371919339800,2.29533984375,-1.335891604423523,-1.891664981842041,1.590195655822754
1683915371929380600,2.305380615234375,-1.0128402709960938,-1.961669921875,1.2112736701965332
1683915371939421200,2.315421142578125,-0.7656844258308411,-2.1351990699768066,1.003274917602539
1683915371949462000,2.3254619140625,-0.5336313247680664,-2.1987199783325195,0.5902519226074219
1683915371959502800,2.3355029296875,-0.16394126415252686,-2.207998752593994,0.1496868133544922
1683915371969543700,2.345543701171875,0.36838412284851074,-2.244762897491455,-0.2628192901611328
1683915371979584500,2.35558447265625,0.9727375507354736,-2.3152852058410645,-0.613102912902832
1683915371989625000,2.365625,1.5293997526168823,-2.3631300926208496,-0.9195156097412109
1683915371999666000,2.375666015625,2.057796001434326,-2.320972442626953,-1.1081476211547852
1683915372009706800,2.385706787109375,2.5700531005859375,-2.2345433235168457,-1.2808918952941895
1683915372019747600,2.39574755859375,2.928353786468506,-2.084707260131836,-1.4843125343322754
1683915372029788400,2.405788330078125,3.0185155868530273,-1.8565073013305664,-1.714979648590088
1683915372039829000,2.4158291015625,2.917539596557617,-1.5346474647521973,-1.997342586517334
1683915372049869800,2.425869873046875,2.6771392822265625,-1.128854751586914,-2.2797722816467285
1683915372059910700,2.43591064453125,2.3898253440856934,-0.48339223861694336,-2.3544392585754395
1683915372069951500,2.445951416015625,2.214796543121338,0.18735027313232422,-2.426555633544922
1683915372079992300,2.455992431640625,2.096367359161377,0.7878022193908691,-2.495100736618042
1683915372090033200,2.466033203125,2.007112979888916,1.3061213493347168,-2.5284667015075684
1683915372100073700,2.47607373046875,1.9548420906066895,1.817023754119873,-2.490832805633545
1683915372110114600,2.486114501953125,2.0194549560546875,2.410562515258789,-2.271587371826172
1683915372120155400,2.4961552734375,2.109031915664673,2.8323044776916504,-2.0109734535217285
1683915372130196200,2.5061962890625,2.362753391265869,2.9490737915039062,-1.6711828708648682
1683915372140237000,2.516237060546875,2.75846004486084,2.705536365509033,-1.3140897750854492
1683915372150277600,2.526277587890625,3.0389151573181152,2.18292236328125,-0.9592099189758301
1683915372160318500,2.536318359375,3.112428665161133,1.5264625549316406,-0.6706652641296387
1683915372170359300,2.546359375,2.8861441612243652,0.8001704216003418,-0.48437023162841797
1683915372180400000,2.556400146484375,2.547825813293457,0.25570201873779297,-0.4419584274291992
1683915372190441000,2.56644091796875,2.219569206237793,0.1311330795288086,-0.6708345413208008
1683915372200481800,2.576481689453125,2.003957509994507,0.3011913299560547,-1.131727695465088
1683915372210522400,2.5865224609375,1.9084373712539673,0.5775442123413086,-1.7124977111816406
1683915372220563200,2.596563232421875,1.9224860668182373,0.8002805709838867,-2.38578462600708
1683915372230604000,2.60660400390625,1.9940375089645386,0.8864521980285645,-3.094970703125
1683915372240644900,2.616644775390625,1.9761486053466797,0.8663549423217773,-3.599292755126953
1683915372250685700,2.626685791015625,1.8296597003936768,0.7899675369262695,-3.907060146331787
1683915372260726500,2.6367265625,1.5149543285369873,0.7078533172607422,-4.066516876220703
1683915372270767000,2.64676708984375,1.0685449838638306,0.586552619934082,-4.085784912109375
1683915372280808000,2.656807861328125,0.4791279435157776,0.36652708053588867,-3.9995126724243164
1683915372290848800,2.666848876953125,-0.256406307220459,0.06618022918701172,-3.7738499641418457
1683915372300889600,2.6768896484375,-1.1160422563552856,-0.28101539611816406,-3.3333492279052734
1683915372310930400,2.686930419921875,-1.990230679512024,-0.6520309448242188,-2.4447319507598877
1683915372320971300,2.69697119140625,-2.678311347961426,-1.0061187744140625,-1.1624372005462646
1683915372331011800,2.70701171875,-3.166548728942871,-1.2781381607055664,0.13435649871826172
1683915372341052700,2.717052734375,-3.538146495819092,-1.265568733215332,1.3208661079406738
1683915372351093500,2.727093505859375,-3.5211853981018066,-1.3145227432250977,2.1681947708129883
1683915372361134300,2.73713427734375,-3.2778725624084473,-1.340956687927246,2.7300682067871094
1683915372371175200,2.747175048828125,-2.940614700317383,-1.3637266159057617,3.038825035095215
1683915372381216000,2.757216064453125,-2.5687308311462402,-1.4194297790527344,3.112435817718506
1683915372391256600,2.767256591796875,-2.07344126701355,-1.5031347274780273,2.9101333618164062
1683915372401297400,2.77729736328125,-1.4662232398986816,-1.7469329833984375,2.52827787399292
1683915372411338200,2.787338134765625,-0.813922643661499,-2.0859508514404297,2.0587539672851562
1683915372421379000,2.797379150390625,-0.31074953079223633,-2.4446353912353516,1.5836772918701172
1683915372431420000,2.807419921875,-0.14724302291870117,-2.856832504272461,1.1284480094909668
1683915372441460700,2.817460693359375,-0.5922611951828003,-3.531026840209961,0.692115306854248
1683915372451501300,2.827501220703125,-1.024884581565857,-3.90325927734375,0.31740331649780273
1683915372461542100,2.837542236328125,-0.9357513189315796,-3.674220085144043,0.1151742935180664
1683915372471583000,2.8475830078125,-0.22111904621124268,-3.158660888671875,-0.03803110122680664
1683915372481623800,2.857623779296875,0.7735468745231628,-2.460005760192871,-0.17241907119750977
1683915372491664600,2.86766455078125,1.6871323585510254,-1.6022281646728516,-0.3721494674682617
1683915372501705500,2.87770556640625,2.3139729499816895,-0.9631671905517578,-0.6923003196716309
1683915372511746000,2.88774609375,2.6619200706481934,-0.5865297317504883,-1.3449053764343262
1683915372521787000,2.897786865234375,2.889343738555908,-0.2628946304321289,-2.2378921508789062
1683915372531827700,2.90782763671875,3.047626256942749,0.21151447296142578,-3.0716254711151123
1683915372541868500,2.91786865234375,3.14432954788208,0.5778851509094238,-3.515623092651367
1683915372551909400,2.927909423828125,3.171140193939209,0.6939525604248047,-3.628045082092285
1683915372561950200,2.9379501953125,3.09212064743042,0.5764017105102539,-3.5554537773132324
1683915372571991000,2.947990966796875,2.9628171920776367,0.3649120330810547,-3.4243924617767334
1683915372582031600,2.958031494140625,2.7674174308776855,0.1097555160522461,-3.2547760009765625
1683915372592072400,2.968072509765625,2.5312366485595703,-0.18802165985107422,-3.055367946624756
1683915372602113300,2.97811328125,2.2854719161987305,-0.5185966491699219,-2.817467451095581
1683915372612154000,2.988154052734375,2.003513813018799,-0.8331384658813477,-2.606868267059326
1683915372622195000,2.99819482421875,1.708024501800537,-1.0796546936035156,-2.4128880500793457
1683915372632235800,3.00823583984375,1.3863574266433716,-1.2443227767944336,-2.2483456134796143
1683915372642276600,3.018276611328125,1.0240734815597534,-1.3049564361572266,-2.0857861042022705
1683915372652317200,3.028317138671875,0.5673261880874634,-1.2319250106811523,-1.9023144245147705
1683915372662358000,3.03835791015625,0.0126304030418396,-1.0654306411743164,-1.6952097415924072
1683915372672398800,3.04839892578125,-0.6303856372833252,-0.8559532165527344,-1.4666247367858887
1683915372682439700,3.058439697265625,-1.2382575273513794,-0.6257944107055664,-1.2189223766326904
1683915372692480500,3.06848046875,-1.6812995672225952,-0.4307699203491211,-0.9412875175476074
1683915372702521300,3.078521240234375,-1.8859511613845825,-0.24942302703857422,-0.6753876209259033
1683915372712562200,3.088562255859375,-1.8436237573623657,-0.06451129913330078,-0.473738431930542
1683915372722602800,3.098602783203125,-1.556967854499817,0.1181344985961914,-0.3169574737548828
1683915372732643600,3.1086435546875,-1.1053595542907715,0.2625160217285156,-0.20510435104370117
1683915372742684400,3.118684326171875,-0.5737953186035156,0.3849658966064453,-0.15321063995361328
1683915372752725200,3.128725341796875,-0.015683792531490326,0.5051279067993164,-0.15308141708374023
1683915372762766000,3.13876611328125,0.5347174406051636,0.6377553939819336,-0.20873117446899414
1683915372772807000,3.148806884765625,1.0284957885742188,0.7685537338256836,-0.30797624588012695
1683915372782847500,3.158847412109375,1.4606640338897705,0.7180042266845703,-0.41539430618286133
1683915372792888300,3.168888427734375,1.6734672784805298,0.629791259765625,-0.47222137451171875
1683915372802929200,3.17892919921875,1.7044703960418701,0.5840559005737305,-0.4747483730316162
1683915372812970000,3.188969970703125,1.659287452697754,0.569615364074707,-0.3946094512939453
1683915372823010800,3.1990107421875,1.5802826881408691,0.5858249664306641,-0.1715068817138672
1683915372833051600,3.2090517578125,1.563490867614746,0.6345643997192383,0.15137386322021484
1683915372843092500,3.219092529296875,1.4795966148376465,0.7276782989501953,0.3613743782043457
1683915372853133300,3.22913330078125,1.3479599952697754,0.8064908981323242,0.4833102226257324
1683915372863174000,3.239173828125,1.187681794166565,0.8482742309570312,0.5794310569763184
1683915372873214700,3.249214599609375,0.915148138999939,0.8637290000915527,0.5978994369506836
1683915372883255600,3.259255615234375,0.5955184698104858,0.9192895889282227,0.5858745574951172
1683915372893296400,3.26929638671875,0.3403578996658325,0.9395828247070312,0.7141366004943848
1683915372903337200,3.279337158203125,-0.07150936126708984,0.7334747314453125,1.1694526672363281
1683915372913378000,3.2893779296875,-0.6657748222351074,0.3913307189941406,1.850447654724121
1683915372923418600,3.299418701171875,-1.1736817359924316,0.13332462310791016,2.348766803741455
1683915372933459500,3.30945947265625,-1.5654234886169434,0.0940999984741211,2.4666028022766113
1683915372943500300,3.319500244140625,-1.9203977584838867,0.1461191177368164,2.376431465148926
1683915372953541000,3.329541015625,-2.382436990737915,0.14076519012451172,2.2339115142822266
1683915372963582000,3.33958203125,-2.635128974914551,0.0049762725830078125,2.2165722846984863
1683915372973622800,3.349622802734375,-2.3124566078186035,-0.1063232421875,2.2999625205993652
1683915372983663600,3.35966357421875,-1.774756669998169,-0.1439952850341797,2.4347901344299316
1683915372993704400,3.369704345703125,-1.2048382759094238,-0.16750144958496094,2.6274070739746094
1683915373003745000,3.3797451171875,-0.6085839867591858,-0.18318462371826172,2.893068313598633
1683915373013785900,3.389785888671875,-0.06514227390289307,-0.1679067611694336,3.202439308166504
1683915373023826700,3.39982666015625,0.2505539059638977,-0.12104225158691406,3.5471010208129883
1683915373033867500,3.409867431640625,-0.011592984199523926,-0.05611419677734375,4.01878023147583
1683915373043908400,3.419908447265625,-0.802646815776825,0.10893630981445312,4.566296577453613
1683915373053949200,3.42994921875,-1.2055401802062988,0.4203510284423828,4.696588516235352
1683915373063990000,3.439989990234375,-1.0174909830093384,0.7692499160766602,4.459728717803955
1683915373074030600,3.450030517578125,-0.411459356546402,1.009481430053711,3.975188732147217
1683915373084071400,3.460071533203125,0.174295112490654,1.117405891418457,3.3155040740966797
1683915373094112300,3.4701123046875,0.6852731704711914,1.0889325141906738,2.6496973037719727
1683915373104153000,3.480153076171875,1.136755108833313,0.9867258071899414,2.007286548614502
1683915373114194000,3.49019384765625,1.5854322910308838,0.774620532989502,1.3341641426086426
1683915373124234800,3.50023486328125,2.0605578422546387,0.43085241317749023,0.717679500579834
1683915373134275600,3.510275634765625,2.5745787620544434,-0.0067920684814453125,0.26346683502197266
1683915373144316400,3.52031640625,3.158041477203369,-0.48181772232055664,-0.037752628326416016
1683915373154357000,3.53035693359375,3.6847033500671387,-0.9598650932312012,-0.21320199966430664
1683915373164397800,3.540397705078125,4.069460868835449,-1.4182181358337402,-0.34194517135620117
1683915373174438700,3.550438720703125,4.361927032470703,-1.8121018409729004,-0.41224145889282227
1683915373184479500,3.5604794921875,4.5495076179504395,-2.172621250152588,-0.44683313369750977
1683915373194520300,3.570520263671875,4.665739059448242,-2.469796657562256,-0.44874143600463867
1683915373204561200,3.58056103515625,4.762604713439941,-2.7098827362060547,-0.47005796432495117
1683915373214602000,3.59060205078125,4.849121570587158,-2.8749637603759766,-0.47794055938720703
1683915373224642800,3.600642822265625,4.902055740356445,-2.8907470703125,-0.44315385818481445
1683915373234683400,3.610683349609375,5.000753879547119,-2.834373950958252,-0.3456387519836426
1683915373244724500,3.620724365234375,5.006381034851074,-2.679776191711426,-0.21194744110107422
1683915373254765000,3.63076513671875,4.624049186706543,-2.362826347351074,-0.074462890625
1683915373264806000,3.640805908203125,3.7950961589813232,-1.9323086738586426,0.08858871459960938
1683915373274846700,3.6508466796875,2.6342036724090576,-1.4446754455566406,0.26100683212280273
1683915373284887600,3.660887451171875,2.0326292514801025,-0.9656519889831543,0.21701669692993164
1683915373294928400,3.670928466796875,1.9866524934768677,-0.5411033630371094,-0.06016874313354492
1683915373304969200,3.68096923828125,2.233133316040039,-0.2251758575439453,-0.36684513092041016
1683915373315010000,3.691010009765625,2.524794578552246,-0.11014652252197266,-0.6190762519836426
1683915373325051000,3.70105078125,2.7651076316833496,-0.21031856536865234,-0.8639287948608398
1683915373335091500,3.711091552734375,2.939037322998047,-0.4581465721130371,-1.206624984741211
1683915373345132300,3.72113232421875,3.058588743209839,-0.7549285888671875,-1.6167187690734863
1683915373355173000,3.731173095703125,3.1365838050842285,-1.0375981330871582,-2.0369110107421875
1683915373365214000,3.7412138671875,3.1404762268066406,-1.2641258239746094,-2.4525222778320312
1683915373375254800,3.7512548828125,3.108438730239868,-1.4532217979431152,-2.8468828201293945
1683915373385295600,3.761295654296875,3.094449996948242,-1.592827320098877,-3.2132277488708496
1683915373395336400,3.77133642578125,3.0785574913024902,-1.6606431007385254,-3.5604939460754395
1683915373405377300,3.781377197265625,3.0141379833221436,-1.6725916862487793,-3.853036880493164
1683915373415418000,3.791418212890625,2.862130641937256,-1.6476664543151855,-4.064998149871826
1683915373425458700,3.801458740234375,2.6271796226501465,-1.5780868530273438,-4.195013046264648
1683915373435499500,3.81149951171875,2.370126485824585,-1.4641938209533691,-4.206700325012207
1683915373445540400,3.821540283203125,2.0287089347839355,-1.3157529830932617,-4.073192596435547
1683915373455581200,3.831581298828125,1.5317718982696533,-1.1595845222473145,-3.749922752380371
1683915373465622000,3.8416220703125,0.9572912454605103,-0.9931578636169434,-3.2137274742126465
1683915373475662800,3.851662841796875,0.40611082315444946,-0.8263969421386719,-2.5211634635925293
1683915373485703700,3.86170361328125,-0.12240970134735107,-0.6896800994873047,-1.7546935081481934
1683915373495744500,3.87174462890625,-0.7010163068771362,-0.6005668640136719,-0.939537525177002
1683915373505785300,3.881785400390625,-1.1894011497497559,-0.5212717056274414,-0.15143203735351562
1683915373515826000,3.891825927734375,-1.350302815437317,-0.41609859466552734,0.4167923927307129
1683915373525866800,3.90186669921875,-1.0536046028137207,-0.3189878463745117,0.7139105796813965
1683915373535907600,3.911907470703125,-0.3595566749572754,-0.2918105125427246,0.7285728454589844
1683915373545948400,3.921948486328125,0.46931231021881104,-0.3047032356262207,0.5668129920959473
1683915373555989200,3.9319892578125,1.2638168334960938,-0.29244041442871094,0.2666592597961426
1683915373566030000,3.942030029296875,1.8574271202087402,-0.2907853126525879,-0.05096578598022461
1683915373576071000,3.95207080078125,2.149224281311035,-0.3527512550354004,-0.3192024230957031
1683915373586111700,3.96211181640625,2.0760416984558105,-0.571474552154541,-0.5139045715332031
1683915373596152600,3.972152587890625,1.4556121826171875,-1.0624489784240723,-0.7004499435424805
1683915373606193400,3.982193359375,0.5208368301391602,-1.7495369911193848,-0.9050288200378418
1683915373616234000,3.99223388671875,-0.20140373706817627,-2.4448695182800293,-1.0406537055969238
1683915373626274800,4.00227490234375,-0.6113871335983276,-3.103243350982666,-1.0737223625183105
1683915373636315600,4.012315673828125,-0.768702507019043,-3.688406467437744,-1.03672456741333
1683915373646356500,4.0223564453125,-0.7129288911819458,-4.007354259490967,-1.0237555503845215
1683915373656397300,4.032397216796875,-0.35768699645996094,-3.943753242492676,-1.0083527565002441
1683915373666438100,4.042438232421875,0.28062760829925537,-3.5439252853393555,-1.0268168449401855
1683915373676479000,4.05247900390625,1.0920990705490112,-2.9333457946777344,-0.9672412872314453
1683915373686519800,4.062519775390625,1.9571805000305176,-2.236513137817383,-0.8457040786743164
1683915373696560600,4.072560546875,2.691206693649292,-1.5144033432006836,-0.7163524627685547
1683915373706601200,4.082601318359375,3.194486618041992,-0.8119964599609375,-0.5985527038574219
1683915373716642000,4.09264208984375,3.5055322647094727,-0.16941595077514648,-0.496279239654541
1683915373726683000,4.102682861328125,3.674757957458496,0.40403318405151367,-0.3949580192565918
1683915373736723700,4.1127236328125,3.7109217643737793,0.8997650146484375,-0.30097484588623047
1683915373746764500,4.1227646484375,3.603851795196533,1.2781729698181152,-0.1963939666748047
1683915373756805400,4.132805419921875,3.4002299308776855,1.4366588592529297,-0.009602069854736328
1683915373766846200,4.14284619140625,3.1230626106262207,1.3610649108886719,0.21373653411865234
1683915373776887000,4.152886962890625,2.7718915939331055,1.163508415222168,0.368924617767334
1683915373786927900,4.162927978515625,2.3336663246154785,0.9089961051940918,0.42877864837646484
1683915373796968700,4.17296875,1.8068400621414185,0.6105761528015137,0.41142797470092773
1683915373807009500,4.183009521484375,1.2492390871047974,0.31037139892578125,0.3907594680786133
1683915373817050000,4.193050048828125,0.819394052028656,0.07561063766479492,0.39423656463623047
1683915373827091000,4.203091064453125,0.6121403574943542,-0.0562129020690918,0.4042243957519531
1683915373837129500,4.21312939453125,0.5864245891571045,-0.11781692504882812,0.4258294105529785
1683915373847170300,4.22317041015625,0.6640119552612305,-0.14374065399169922,0.43402528762817383
1683915373857211100,4.233211181640625,0.7822509407997131,-0.1519308090209961,0.43369293212890625
1683915373867252000,4.243251953125,0.8726713061332703,-0.13911867141723633,0.3785562515258789
1683915373877292800,4.253292724609375,0.9279378652572632,-0.12130022048950195,0.2928752899169922
1683915373887333600,4.263333740234375,0.9816387891769409,-0.10018777847290039,0.20330047607421875
1683915373897374500,4.27337451171875,1.064887523651123,-0.08424091339111328,0.11483955383300781
1683915373907415300,4.283415283203125,1.2045491933822632,-0.055843353271484375,0.02645730972290039
1683915373917456100,4.2934560546875,1.41858971118927,-0.014503955841064453,-0.04732513427734375
1683915373927496700,4.30349658203125,1.676636815071106,0.04788398742675781,-0.1274104118347168
1683915373937537500,4.31353759765625,1.9117985963821411,0.11804866790771484,-0.21530485153198242
1683915373947578400,4.323578369140625,2.0640316009521484,0.17210674285888672,-0.2659120559692383
1683915373957619200,4.333619140625,2.075857162475586,0.19523239135742188,-0.3108701705932617
1683915373967660000,4.343659912109375,1.9390984773635864,0.20659732818603516,-0.36873531341552734
1683915373977700900,4.353700927734375,1.6939142942428589,0.2421860694885254,-0.38144683837890625
1683915373987741700,4.36374169921875,1.426186442375183,0.3011660575866699,-0.3045363426208496
1683915373997782500,4.373782470703125,1.205203652381897,0.38456249237060547,-0.17340326309204102
1683915374007823400,4.3838232421875,1.0592617988586426,0.469789981842041,-0.008696556091308594
1683915374017864200,4.3938642578125,0.9673078656196594,0.5269312858581543,0.18535089492797852
1683915374027905000,4.403905029296875,0.9028832912445068,0.5509614944458008,0.37953662872314453
1683915374037945900,4.41394580078125,0.8375875949859619,0.5422396659851074,0.5550355911254883
1683915374047986700,4.423986572265625,0.7448117733001709,0.5055618286132812,0.7187490463256836
1683915374058027500,4.434027587890625,0.604505717754364,0.45517635345458984,0.8630485534667969
1683915374068068000,4.444068115234375,0.41296136379241943,0.37691831588745117,1.004617691040039
1683915374078109000,4.45410888671875,0.15840160846710205,0.29488658905029297,1.1840558052062988
1683915374088149800,4.464149658203125,-0.1164109855890274,0.2545499801635742,1.3701906204223633
1683915374098190600,4.474190673828125,-0.3443116247653961,0.27263402938842773,1.5319857597351074
1683915374108231400,4.4842314453125,-0.48039233684539795,0.33426856994628906,1.6544933319091797
1683915374118272300,4.494272216796875,-0.5284980535507202,0.4202303886413574,1.733036994934082
1683915374128313000,4.50431298828125,-0.4836306869983673,0.5095329284667969,1.7424092292785645
1683915374138354000,4.51435400390625,-0.34809669852256775,0.5933833122253418,1.6673583984375
1683915374148394800,4.524394775390625,-0.12448400259017944,0.6629447937011719,1.535569190979004
1683915374158435600,4.534435546875,0.1580025851726532,0.704380989074707,1.395787239074707
1683915374168476400,4.544476318359375,0.4801436960697174,0.7299661636352539,1.2605037689208984
1683915374178517200,4.554517333984375,0.8213953375816345,0.7425503730773926,1.1638774871826172
1683915374188558000,4.56455810546875,1.1387109756469727,0.7544689178466797,1.0729994773864746
1683915374198598700,4.5745986328125,1.4118733406066895,0.7678451538085938,1.0137238502502441
1683915374208639500,4.584639404296875,1.6320836544036865,0.8039584159851074,0.9594306945800781
1683915374218680300,4.594680419921875,1.7752031087875366,0.8409981727600098,0.9383139610290527
1683915374228721200,4.60472119140625,1.839480996131897,0.885622501373291,0.939791202545166
1683915374238762000,4.614761962890625,1.831510305404663,0.9524030685424805,0.9282760620117188
1683915374248802800,4.624802734375,1.7708503007888794,1.019721508026123,0.9155921936035156
1683915374258843600,4.63484375,1.6790279150009155,1.0704617500305176,0.9202079772949219
1683915374268884500,4.644884521484375,1.5748178958892822,1.1114177703857422,0.9533815383911133
1683915374278925300,4.65492529296875,1.4673504829406738,1.1304402351379395,0.9979643821716309
1683915374288966100,4.664966064453125,1.3643946647644043,1.1533818244934082,1.0387439727783203
1683915374299007000,4.675007080078125,1.2821612358093262,1.1583976745605469,1.0677452087402344
1683915374309047800,4.6850478515625,1.2134610414505005,1.1218018531799316,1.0729598999023438
1683915374319088600,4.695088623046875,1.1711362600326538,1.0513677597045898,1.045560359954834
1683915374329129500,4.70512939453125,1.1568589210510254,0.9735908508300781,0.9954724311828613
1683915374339170000,4.715170166015625,1.1595402956008911,0.9079041481018066,0.928220272064209
1683915374349211000,4.7252109375,1.1779446601867676,0.8618974685668945,0.8543210029602051
1683915374359251700,4.735251708984375,1.2047079801559448,0.8378129005432129,0.7999567985534668
1683915374369292500,4.74529248046875,1.2516498565673828,0.8451700210571289,0.7365117073059082
1683915374379333400,4.75533349609375,1.313255786895752,0.8676376342773438,0.6696910858154297
1683915374389374200,4.765374267578125,1.3767268657684326,0.9004993438720703,0.6427927017211914
1683915374399415000,4.7754150390625,1.4146137237548828,0.9388847351074219,0.6342692375183105
1683915374409455900,4.785455810546875,1.4036320447921753,0.9728679656982422,0.6555976867675781
1683915374419496700,4.79549658203125,1.342329978942871,1.0093364715576172,0.6822605133056641
1683915374429537500,4.80553759765625,1.2534770965576172,1.038435935974121,0.7349567413330078
1683915374439578400,4.815578369140625,1.1861158609390259,1.035290241241455,0.8737454414367676
1683915374449619200,4.825619140625,1.2027240991592407,0.9907407760620117,1.1569499969482422
1683915374459660000,4.835659912109375,1.3520482778549194,0.9230079650878906,1.5372881889343262
1683915374469700900,4.845700927734375,1.590216040611267,0.8266153335571289,1.9942479133605957
1683915374479741700,4.85574169921875,1.8178315162658691,0.7103147506713867,2.497684955596924
1683915374489782500,4.865782470703125,1.9712525606155396,0.5912752151489258,2.998349666595459
1683915374499823400,4.8758232421875,2.001505136489868,0.5113658905029297,3.448479175567627
1683915374509864200,4.8858642578125,1.8242461681365967,0.47145748138427734,3.8211450576782227
1683915374519905000,4.895905029296875,1.3483203649520874,0.46358394622802734,4.040447235107422
1683915374529945600,4.905945556640625,0.5402507781982422,0.4716815948486328,4.070021152496338
1683915374539986400,4.915986328125,-0.479050874710083,0.4386587142944336,3.997344493865967
1683915374550027300,4.92602734375,-1.3805921077728271,0.39971160888671875,3.830923080444336
1683915374560068000,4.936068115234375,-1.9206757545471191,0.40839290618896484,3.552914619445801
1683915374570109000,4.94610888671875,-2.02763032913208,0.46007633209228516,3.1859989166259766
1683915374580149800,4.956149658203125,-1.8288743495941162,0.5083756446838379,2.759885311126709
1683915374590190600,4.966190673828125,-1.468599796295166,0.4672360420227051,2.3055481910705566
1683915374600231400,4.9762314453125,-1.1000525951385498,0.2672696113586426,1.8661127090454102
1683915374610272300,4.986272216796875,-0.7443166971206665,-0.10259723663330078,1.439133644104004
1683915374620313000,4.99631298828125,-0.436265230178833,-0.6237401962280273,1.1183443069458008
1683915374630354000,5.00635400390625,-0.13828909397125244,-1.2090091705322266,0.8535366058349609
1683915374640394800,5.016394775390625,0.2664616107940674,-1.7348380088806152,0.5683393478393555
1683915374650435600,5.026435546875,0.8048628568649292,-2.0891246795654297,0.23542022705078125
1683915374660476400,5.036476318359375,1.4690855741500854,-2.255457878112793,-0.09674501419067383
1683915374670517200,5.046517333984375,2.172093391418457,-2.3051981925964355,-0.3528127670288086
1683915374680558000,5.05655810546875,2.7663135528564453,-2.3404664993286133,-0.5530295372009277
1683915374690599000,5.066598876953125,3.2395784854888916,-2.4439644813537598,-0.7781405448913574
1683915374700639700,5.0766396484375,3.6086478233337402,-2.5703611373901367,-1.0304889678955078
1683915374710680600,5.0866806640625,3.9006175994873047,-2.682122230529785,-1.2584619522094727
1683915374720721200,5.09672119140625,3.994309425354004,-2.774815559387207,-1.4468584060668945
1683915374730762000,5.106761962890625,3.822897434234619,-2.8212509155273438,-1.5347166061401367
1683915374740802800,5.116802734375,3.3667030334472656,-2.787313461303711,-1.569467544555664
1683915374750843600,5.12684375,2.591742992401123,-2.63301420211792,-1.5197510719299316
1683915374760884500,5.136884521484375,1.7696787118911743,-2.398548126220703,-1.487536907196045
1683915374770925300,5.14692529296875,1.2636117935180664,-2.1424174308776855,-1.6003241539001465
1683915374780966100,5.156966064453125,1.0820778608322144,-1.9206833839416504,-1.8088407516479492
1683915374791007000,5.167007080078125,1.0233900547027588,-1.7475967407226562,-1.9791326522827148
1683915374801047800,5.1770478515625,0.959168553352356,-1.6189360618591309,-2.0787196159362793
1683915374811088600,5.187088623046875,0.8805569410324097,-1.4938015937805176,-2.1153573989868164
1683915374821129500,5.19712939453125,0.814024806022644,-1.3885459899902344,-2.158510684967041
1683915374831170300,5.20717041015625,0.7465922832489014,-1.2786331176757812,-2.212754249572754
1683915374841211100,5.217211181640625,0.7005549669265747,-1.14365816116333,-2.3040075302124023
1683915374851252000,5.227251953125,0.7160844802856445,-0.9689364433288574,-2.441920757293701
1683915374861292800,5.237292724609375,0.7928539514541626,-0.7679762840270996,-2.578014850616455
1683915374871333600,5.247333740234375,0.9513447284698486,-0.5686535835266113,-2.640206813812256
1683915374881374500,5.25737451171875,1.1528476476669312,-0.3826885223388672,-2.6570043563842773
1683915374891415300,5.267415283203125,1.2865796089172363,-0.2142786979675293,-2.719939708709717
1683915374901456100,5.2774560546875,1.3632038831710815,-0.07498550415039062,-2.870389461517334
1683915374911497000,5.2874970703125,1.404153823852539,0.05201911926269531,-3.1129255294799805
1683915374921537800,5.297537841796875,1.3994810581207275,0.17530345916748047,-3.4290313720703125
1683915374931578600,5.30757861328125,1.3484244346618652,0.28627634048461914,-3.7648069858551025
1683915374941619500,5.317619384765625,1.2482202053070068,0.3842887878417969,-4.09442138671875
1683915374951660300,5.327660400390625,1.09066641330719,0.47497081756591797,-4.388698577880859
1683915374961701000,5.337701171875,0.8411040306091309,0.5561914443969727,-4.5919599533081055
1683915374971742000,5.347741943359375,0.41168808937072754,0.620903491973877,-4.66227912902832
1683915374981782800,5.35778271484375,-0.16518616676330566,0.6519584655761719,-4.529846668243408
1683915374991823600,5.36782373046875,-0.7220542430877686,0.6558008193969727,-4.127971649169922
1683915375001864200,5.3778642578125,-1.1012015342712402,0.588991641998291,-3.497203826904297
1683915375011905000,5.387905029296875,-1.2505533695220947,0.4138655662536621,-2.668356418609619
1683915375021945900,5.39794580078125,-1.309394359588623,0.14637327194213867,-1.6607999801635742
1683915375031986700,5.407986572265625,-1.3969039916992188,-0.053173065185546875,-0.5065383911132812
1683915375042027500,5.418027587890625,-1.593184232711792,-0.03876781463623047,0.7128186225891113
1683915375052068400,5.428068359375,-1.94425368309021,0.17170286178588867,1.9304332733154297
1683915375062109200,5.438109130859375,-2.1314895153045654,0.48462724685668945,3.0738348960876465
1683915375072150000,5.44814990234375,-1.9261062145233154,0.8192052841186523,3.9464759826660156
1683915375082190800,5.45819091796875,-1.395423412322998,1.1231613159179688,4.4810471534729
1683915375092231700,5.468231689453125,-0.7365431785583496,1.2660021781921387,4.634828567504883
1683915375102272500,5.4782724609375,-0.23664498329162598,1.174123764038086,4.422606945037842
1683915375112313300,5.488313232421875,0.0212860107421875,0.954927921295166,3.723475933074951
1683915375122354200,5.498354248046875,0.15446734428405762,0.8283767700195312,2.619345188140869
1683915375132395000,5.50839501953125,0.23846936225891113,0.867835521697998,1.3895888328552246
1683915375142435800,5.518435791015625,0.2876979112625122,1.0331854820251465,0.23962831497192383
1683915375152476700,5.5284765625,0.3168044090270996,1.2118878364562988,-0.6486730575561523
1683915375162517500,5.538517578125,0.3050673007965088,1.4009146690368652,-1.1899490356445312
1683915375172558300,5.548558349609375,0.22367918491363525,1.5991334915161133,-1.419419765472412
1683915375182599200,5.55859912109375,0.10498857498168945,1.8016510009765625,-1.4350762367248535
1683915375192640000,5.568639892578125,-0.0003247261047363281,2.001124858856201,-1.308835506439209
1683915375202680800,5.578680908203125,-0.048609256744384766,2.162415027618408,-1.0504231452941895
1683915375212721700,5.5887216796875,0.022171735763549805,2.212620735168457,-0.703190803527832
1683915375222762500,5.598762451171875,0.28012144565582275,2.091205596923828,-0.3007030487060547
1683915375232803300,5.60880322265625,0.7631412744522095,1.6294889450073242,0.1741170883178711
1683915375242844200,5.61884423828125,1.3092488050460815,0.7194247245788574,0.7562885284423828
1683915375252885000,5.628885009765625,1.7341506481170654,-0.42076683044433594,1.334862232208252
1683915375262925800,5.63892578125,1.9441609382629395,-1.5653018951416016,1.8733086585998535
1683915375272966700,5.648966552734375,1.9818553924560547,-2.6593823432922363,2.409626007080078
1683915375283007500,5.659007568359375,1.0202600955963135,-3.9485983848571777,2.938276767730713
1683915375293048300,5.66904833984375,-1.3086128234863281,-5.64389181137085,3.631455898284912
1683915375303089200,5.679089111328125,-2.227325677871704,-6.475932598114014,3.953380584716797
1683915375313130000,5.6891298828125,-2.0768418312072754,-6.095104694366455,3.5390114784240723
1683915375323170800,5.6991708984375,-1.422317624092102,-5.167943954467773,2.725278377532959
1683915375333211600,5.709211669921875,-0.7321626543998718,-4.168388366699219,1.8166818618774414
1683915375343252500,5.71925244140625,-0.28911715745925903,-3.0871100425720215,0.8560490608215332
1683915375353293300,5.729293212890625,-0.08608800172805786,-1.9407062530517578,-0.1126089096069336
1683915375363334100,5.739334228515625,-0.054637610912323,-0.8412914276123047,-1.0335488319396973
1683915375373375000,5.749375,-0.7160310745239258,0.22496747970581055,-2.132779121398926
1683915375383415800,5.759415771484375,-2.5156407356262207,1.1648216247558594,-3.75156307220459
1683915375393456600,5.76945654296875,-3.00105357170105,1.769737720489502,-4.672573089599609
1683915375403497500,5.77949755859375,-2.4071035385131836,2.114680767059326,-4.787679195404053
1683915375413538300,5.789538330078125,-1.3950800895690918,2.259079933166504,-4.372113227844238
1683915375423579100,5.7995791015625,-0.42842167615890503,2.156959056854248,-3.7448859214782715
1683915375433620000,5.809619873046875,0.45915859937667847,1.8433375358581543,-3.019113540649414
1683915375443660800,5.819660888671875,1.2805612087249756,1.3159451484680176,-2.279003620147705
1683915375453701400,5.829701416015625,2.0529797077178955,0.6574640274047852,-1.477829933166504
1683915375463742200,5.8397421875,2.7805213928222656,-0.06911277770996094,-0.6313729286193848
1683915375473783000,5.849782958984375,3.3700368404388428,-0.8058090209960938,0.18090295791625977
1683915375483823900,5.859823974609375,3.69112491607666,-1.3684964179992676,0.7318005561828613
1683915375493864700,5.86986474609375,3.7872047424316406,-1.5601415634155273,0.9660196304321289
1683915375503905500,5.879905517578125,3.7103111743927,-1.43281888961792,0.9752869606018066
1683915375513946400,5.8899462890625,3.5023300647735596,-1.1414270401000977,0.831141471862793
1683915375523987200,5.8999873046875,3.1945221424102783,-0.7930755615234375,0.6497659683227539
1683915375534028000,5.910028076171875,2.8237192630767822,-0.4403409957885742,0.48049163818359375
1683915375544068900,5.92006884765625,2.396702766418457,-0.1159505844116211,0.32750892639160156
1683915375554109700,5.930109619140625,1.9485774040222168,0.18421506881713867,0.18465900421142578
1683915375564150500,5.940150634765625,1.4945118427276611,0.46994829177856445,0.04141092300415039
1683915375574191400,5.95019140625,1.0511887073516846,0.6962747573852539,-0.07434749603271484
1683915375584232200,5.960232177734375,0.6291607618331909,0.8475284576416016,-0.14337158203125
1683915375594273000,5.97027294921875,0.22530251741409302,0.9436235427856445,-0.16076183319091797
1683915375604313900,5.98031396484375,-0.42395302653312683,0.9927058219909668,-0.14456892013549805
1683915375614354700,5.990354736328125,-1.9262597560882568,0.9576206207275391,-0.01375579833984375
1683915375624395500,6.0003955078125,-3.293609619140625,0.8927793502807617,0.21007442474365234
1683915375634436400,6.010436279296875,-3.60402250289917,0.8534693717956543,0.4478888511657715
1683915375644477200,6.020477294921875,-2.959913730621338,0.8645548820495605,0.6674518585205078
1683915375654518000,6.03051806640625,-1.9701638221740723,0.9316229820251465,0.8236932754516602
1683915375664558800,6.040558837890625,-1.1102393865585327,1.0019121170043945,0.9789543151855469
1683915375674599700,6.050599609375,-0.5146620273590088,1.0658392906188965,1.1915698051452637
1683915375684640500,6.060640625,-0.11233788728713989,1.1349740028381348,1.449084758758545
1683915375694681300,6.070681396484375,0.17892122268676758,1.2257537841796875,1.6792573928833008
1683915375704722200,6.08072216796875,0.4102253317832947,1.3092689514160156,1.8541922569274902
1683915375714763000,6.090762939453125,0.559860348701477,1.3817129135131836,1.962663173675537
1683915375724803800,6.100803955078125,0.6143712401390076,1.4246139526367188,2.012216567993164
1683915375734844700,6.1108447265625,0.5534173846244812,1.4155263900756836,2.019221782684326
1683915375744885500,6.120885498046875,0.40807044506073,1.43715238571167,1.8853487968444824
1683915375754926300,6.13092626953125,0.21900004148483276,1.4895148277282715,1.6106009483337402
1683915375764967200,6.14096728515625,0.014235734939575195,1.499089241027832,1.3042230606079102
1683915375775008000,6.151008056640625,-0.17631053924560547,1.4201812744140625,1.0323266983032227
1683915375785048800,6.161048828125,-0.3215547204017639,1.2607812881469727,0.8186373710632324
1683915375795089700,6.171089599609375,-0.3957223892211914,1.0535659790039062,0.6564879417419434
1683915375805130500,6.181130615234375,-0.4010932445526123,0.8229179382324219,0.5713868141174316
1683915375815171300,6.19117138671875,-0.36428511142730713,0.5759725570678711,0.5510439872741699
1683915375825212200,6.201212158203125,-0.3165602684020996,0.33477210998535156,0.5613365173339844
1683915375835253000,6.2112529296875,-0.25521159172058105,0.0871429443359375,0.6392064094543457
1683915375845293800,6.2212939453125,-0.17123353481292725,-0.15598392486572266,0.8103513717651367
1683915375855334700,6.231334716796875,-0.07915866374969482,-0.3643531799316406,1.0738635063171387
1683915375865375500,6.24137548828125,-0.006975054740905762,-0.4879188537597656,1.4126310348510742
1683915375875416300,6.251416259765625,0.027909517288208008,-0.5136728286743164,1.8005352020263672
1683915375885457200,6.26145703125,-0.0013443231582641602,-0.46288108825683594,2.201117515563965
1683915375895498000,6.271498046875,-0.19912469387054443,-0.3449058532714844,2.589406967163086
1683915375905538800,6.281538818359375,-0.8220969438552856,-0.17604827880859375,3.006267547607422
1683915375915579600,6.29157958984375,-2.3676228523254395,0.06924915313720703,3.516298770904541
1683915375925620500,6.301620361328125,-5.650016784667969,0.3765397071838379,4.387170314788818
1683915375935661300,6.311661376953125,-6.00832462310791,0.6733989715576172,4.838313579559326
1683915375945702100,6.3217021484375,-4.514853000640869,0.9304180145263672,4.575955867767334
1683915375955743000,6.331742919921875,-3.133164644241333,1.1951494216918945,4.287796497344971
1683915375965783800,6.34178369140625,-1.8143492937088013,1.204740047454834,4.03486442565918
1683915375975824600,6.35182470703125,-0.5553315877914429,0.8520894050598145,3.516057014465332
1683915375985865500,6.361865478515625,0.7065759301185608,0.4284024238586426,2.9365992546081543
1683915375995906300,6.37190625,1.8726317882537842,0.1058812141418457,2.3665690422058105
1683915376005947100,6.381947021484375,3.0021605491638184,-0.05051708221435547,1.7855825424194336
1683915376015988000,6.391988037109375,4.041680812835693,-0.04313850402832031,1.1607565879821777
1683915376026028800,6.40202880859375,4.854387283325195,-0.0005006790161132812,0.6507163047790527
1683915376036069600,6.412069580078125,5.356932640075684,-0.2081146240234375,0.4613494873046875
1683915376046110700,6.42211083984375,5.480014801025391,-0.7427511215209961,0.5388078689575195
1683915376056151300,6.4321513671875,5.310834884643555,-1.5901427268981934,0.7842879295349121
1683915376066192400,6.4421923828125,5.097882270812988,-2.5899038314819336,1.141183853149414
1683915376076233200,6.452233154296875,4.901081562042236,-3.45320987701416,1.4064884185791016
1683915376086274000,6.462274169921875,4.5208234786987305,-4.038671970367432,1.4910979270935059
1683915376096315000,6.47231494140625,3.8063182830810547,-4.379933834075928,1.3550224304199219
1683915376106355700,6.482355712890625,2.650038003921509,-4.380677700042725,1.0937752723693848
1683915376116396500,6.492396484375,1.04335355758667,-3.8455348014831543,0.5205140113830566
1683915376126437400,6.502437255859375,-0.5691409111022949,-3.0422472953796387,-0.27197265625
1683915376136478200,6.512478271484375,-1.1933352947235107,-2.3713927268981934,-1.0546307563781738
1683915376146519000,6.52251904296875,-1.1464591026306152,-1.9383254051208496,-1.8290982246398926
1683915376156560000,6.532559814453125,-0.7769831418991089,-1.7353558540344238,-2.5408411026000977
1683915376166600700,6.5426005859375,-0.32013487815856934,-1.6080265045166016,-3.1775312423706055
1683915376176641500,6.5526416015625,0.13081717491149902,-1.5100369453430176,-3.702263832092285
1683915376186682400,6.562682373046875,0.5384773015975952,-1.4229850769042969,-4.107474327087402
1683915376196723200,6.57272314453125,0.9064388871192932,-1.3809447288513184,-4.3011250495910645
1683915376206764000,6.582763916015625,1.2321553230285645,-1.4146170616149902,-4.27522087097168
1683915376216804900,6.592804931640625,1.3185443878173828,-1.5632529258728027,-4.088451385498047
1683915376226845700,6.602845703125,1.2910165786743164,-1.7872204780578613,-3.7974305152893066
1683915376236886500,6.612886474609375,1.2225496768951416,-1.989950180053711,-3.4351134300231934
1683915376246927400,6.62292724609375,1.096522331237793,-2.123040199279785,-3.0602612495422363
1683915376256968200,6.63296826171875,1.0988807678222656,-2.1445016860961914,-2.689497947692871
1683915376267009000,6.643009033203125,1.2801952362060547,-2.0564751625061035,-2.3903374671936035
1683915376277049900,6.6530498046875,1.5669264793395996,-1.8699350357055664,-2.144256114959717
1683915376287090700,6.663090576171875,1.8181980848312378,-1.5752553939819336,-1.8844590187072754
1683915376297131500,6.673131591796875,1.8543448448181152,-1.2016520500183105,-1.62337064743042
1683915376307172400,6.68317236328125,1.6952418088912964,-0.7843818664550781,-1.3636722564697266
1683915376317213200,6.693213134765625,1.4841116666793823,-0.34734439849853516,-1.1375646591186523
1683915376327254000,6.70325390625,1.2813645601272583,0.1153421401977539,-0.9337701797485352
1683915376337294800,6.713294921875,1.1127772331237793,0.5927181243896484,-0.7533249855041504
1683915376347335700,6.723335693359375,0.9997915625572205,1.0324983596801758,-0.6349611282348633
1683915376357376500,6.73337646484375,0.8978362679481506,1.3395276069641113,-0.686708927154541
1683915376367417300,6.743417236328125,0.7755993604660034,1.408975601196289,-0.9869589805603027
1683915376377458200,6.753458251953125,0.6280667781829834,1.3313302993774414,-1.4045281410217285
1683915376387499000,6.7634990234375,0.5242713689804077,1.2196898460388184,-1.881601333618164
1683915376397539800,6.773539794921875,0.4203399419784546,1.0921239852905273,-2.371058940887451
1683915376407580700,6.78358056640625,0.21059846878051758,0.9020018577575684,-2.763399600982666
1683915376417621500,6.79362158203125,0.02242410182952881,0.7118115425109863,-2.9585633277893066
1683915376427662300,6.803662353515625,-0.07220840454101562,0.5641789436340332,-2.9957547187805176
1683915376437703200,6.813703125,-0.04792654514312744,0.44511938095092773,-2.9158434867858887
1683915376447744000,6.823743896484375,-0.027857661247253418,0.29518938064575195,-2.716376304626465
1683915376457784800,6.833784912109375,-0.06094527244567871,0.17793893814086914,-2.3404197692871094
1683915376467825700,6.84382568359375,-0.27020514011383057,0.1619572639465332,-1.7357678413391113
1683915376477866500,6.853866455078125,-0.7315517663955688,0.33362674713134766,-0.9167084693908691
1683915376487907300,6.8639072265625,-1.1922649145126343,0.6541633605957031,0.22046518325805664
1683915376497948400,6.873948486328125,-1.4789073467254639,0.9825630187988281,1.6079859733581543
1683915376507989200,6.8839892578125,-1.528065800666809,1.1643614768981934,2.913797378540039
1683915376518030000,6.894030029296875,-1.3031243085861206,1.1391973495483398,3.7325754165649414
1683915376528071000,6.90407080078125,-0.9713922739028931,0.9404149055480957,3.72259521484375
1683915376538111700,6.91411181640625,-0.7704323530197144,0.6761212348937988,3.087271213531494
1683915376548152600,6.924152587890625,-0.6724584102630615,0.42200708389282227,2.1288704872131348
1683915376558193400,6.934193359375,-0.6212012767791748,0.2348484992980957,1.057218074798584
1683915376568234200,6.944234130859375,-0.5723292827606201,0.1265254020690918,0.03530311584472656
1683915376578275000,6.954275146484375,-0.48753511905670166,0.10014820098876953,-0.7989201545715332
1683915376588316000,6.96431591796875,-0.42083656787872314,0.1528773307800293,-1.3890533447265625
1683915376598356700,6.974356689453125,-0.3892812728881836,0.27439069747924805,-1.752882480621338
1683915376608397600,6.9843974609375,-0.37633073329925537,0.43147850036621094,-1.915855884552002
1683915376618438400,6.9944384765625,-0.3870898485183716,0.6158761978149414,-1.9437212944030762
1683915376628479200,7.004479248046875,-0.41851186752319336,0.8089194297790527,-1.8663644790649414
1683915376638520000,7.01452001953125,-0.4825674295425415,0.9884114265441895,-1.7035751342773438
1683915376648561000,7.024560791015625,-0.512391209602356,1.127469539642334,-1.4427080154418945
1683915376658601700,7.034601806640625,-0.44797420501708984,1.2054204940795898,-1.0982112884521484
1683915376668642600,7.044642578125,-0.28488755226135254,1.242659568786621,-0.6655173301696777
1683915376678683400,7.054683349609375,-0.06524372100830078,1.27778959274292,-0.19420242309570312
1683915376688724200,7.06472412109375,0.13686645030975342,1.3527240753173828,0.22171401977539062
1683915376698765000,7.07476513671875,0.24080270528793335,1.4590091705322266,0.5366582870483398
1683915376708806000,7.084805908203125,0.24845576286315918,1.561863899230957,0.7818179130554199
1683915376718846700,7.0948466796875,0.38758328557014465,1.4573917388916016,1.0751142501831055
1683915376728887600,7.104887451171875,0.5558747053146362,0.9325742721557617,1.4546337127685547
1683915376738928400,7.114928466796875,0.469201922416687,0.07408666610717773,1.96380615234375
1683915376748969200,7.12496923828125,0.34310996532440186,-0.9267096519470215,2.708735466003418
1683915376759010300,7.13501025390625,0.6310844421386719,-1.9931254386901855,3.679354190826416
1683915376769051100,7.145051025390625,0.30273476243019104,-3.289371967315674,4.820558547973633
1683915376779092000,7.155092041015625,-1.1540172100067139,-4.475700378417969,5.953900337219238
1683915376789132800,7.1651328125,-1.688406229019165,-4.840334892272949,6.0818867683410645
1683915376799173600,7.175173583984375,-1.7281686067581177,-4.422444820404053,5.350017070770264
1683915376809214500,7.18521435546875,-1.4614734649658203,-3.645862579345703,4.120903491973877
1683915376819255300,7.19525537109375,-1.055799961090088,-2.866765022277832,2.6838321685791016
1683915376829296000,7.205296142578125,-0.7374024987220764,-2.122283458709717,1.3366951942443848
1683915376839337000,7.2153369140625,-0.6870208978652954,-1.3289012908935547,0.1211690902709961
1683915376849377800,7.225377685546875,-1.1880524158477783,-0.49579572677612305,-1.15830659866333
1683915376859418600,7.235418701171875,-2.325796604156494,0.3016047477722168,-2.717989921569824
1683915376869459500,7.24545947265625,-3.060410499572754,0.9646234512329102,-4.074217796325684
1683915376879500300,7.255500244140625,-2.779531955718994,1.4493393898010254,-4.679306983947754
1683915376889541000,7.265541015625,-1.803124189376831,1.8153128623962402,-4.620940208435059
1683915376899582000,7.27558203125,-0.710730791091919,1.8809237480163574,-4.228325843811035
1683915376909622800,7.285622802734375,0.2198297083377838,1.6165642738342285,-3.567570924758911
1683915376919663600,7.29566357421875,1.0741677284240723,1.0341849327087402,-2.720635414123535
1683915376929704400,7.305704345703125,1.8519737720489502,0.21386146545410156,-1.8160881996154785
1683915376939745300,7.315745361328125,2.594883441925049,-0.6886701583862305,-0.9948105812072754
1683915376949786000,7.3257861328125,3.222928762435913,-1.3994946479797363,-0.49158239364624023
1683915376959827200,7.3358271484375,3.620529890060425,-1.7858190536499023,-0.3916435241699219
1683915376969868000,7.345867919921875,3.7286345958709717,-1.8636727333068848,-0.5880622863769531
1683915376979908900,7.355908935546875,3.564249038696289,-1.7896080017089844,-0.9402856826782227
1683915376989949700,7.36594970703125,3.2091524600982666,-1.6659331321716309,-1.2750301361083984
1683915376999990500,7.375990478515625,2.7644503116607666,-1.472550392150879,-1.5391883850097656
1683915377010031400,7.38603125,2.278380870819092,-1.2240471839904785,-1.7813506126403809
1683915377020072200,7.396072265625,1.782957673072815,-0.9730844497680664,-1.9447174072265625
1683915377030113000,7.406113037109375,1.3134562969207764,-0.7416605949401855,-1.9833874702453613
1683915377040153900,7.41615380859375,0.8951353430747986,-0.5627851486206055,-1.8694238662719727
1683915377050194700,7.426194580078125,0.553037703037262,-0.42046499252319336,-1.6526436805725098
1683915377060235500,7.436235595703125,0.2872808575630188,-0.3001689910888672,-1.3493738174438477
1683915377070276400,7.4462763671875,0.06529378890991211,-0.1893172264099121,-0.9783825874328613
1683915377080317200,7.456317138671875,-0.16279149055480957,-0.06289958953857422,-0.5654816627502441
1683915377090358000,7.46635791015625,-0.7354161739349365,0.11736011505126953,-0.12494277954101562
1683915377100398800,7.47639892578125,-1.424714207649231,0.3805880546569824,0.3988771438598633
1683915377110439700,7.486439697265625,-1.7919621467590332,0.6699962615966797,0.9425129890441895
1683915377120480500,7.49648046875,-1.8089747428894043,0.9448776245117188,1.372851848602295
1683915377130521300,7.506521240234375,-1.6043782234191895,1.2392492294311523,1.662339210510254
1683915377140562200,7.516562255859375,-1.2779510021209717,1.5568327903747559,1.829909324645996
1683915377150603000,7.52660302734375,-0.9253666400909424,1.8403387069702148,1.955540657043457
1683915377160644000,7.53664404296875,-0.6457107663154602,2.0706939697265625,2.108654499053955
1683915377170685000,7.546684814453125,-0.4368305206298828,2.2231664657592773,2.245676040649414
1683915377180725800,7.556725830078125,-0.26329004764556885,2.3140363693237305,2.3374924659729004
1683915377190766600,7.5667666015625,-0.13498413562774658,2.3398451805114746,2.3483128547668457
1683915377200807400,7.576807373046875,-0.07133841514587402,2.2704739570617676,2.300534725189209
1683915377210848300,7.58684814453125,-0.0842585563659668,2.131500720977783,2.192047119140625
1683915377220889000,7.59688916015625,-0.16221046447753906,1.9392433166503906,2.034101963043213
1683915377230930000,7.606929931640625,-0.288019061088562,1.7145061492919922,1.845149040222168
1683915377240970800,7.616970703125,-0.4403599500656128,1.478431224822998,1.639575481414795
1683915377251011600,7.627011474609375,-0.5879278182983398,1.2525253295898438,1.4298405647277832
1683915377261052400,7.637052490234375,-0.6879335641860962,1.0744247436523438,1.2396125793457031
1683915377271093200,7.64709326171875,-0.705125093460083,0.9179525375366211,1.1139655113220215
1683915377281134000,7.657134033203125,-0.6210693120956421,0.7464599609375,1.0653133392333984
1683915377291175000,7.6671748046875,-0.46911942958831787,0.5752449035644531,1.0863895416259766
1683915377301215700,7.6772158203125,-0.27416908740997314,0.39631128311157227,1.1983428001403809
1683915377311256800,7.6872568359375,-0.07132101058959961,0.21830177307128906,1.3936443328857422
1683915377321297700,7.697297607421875,0.10016965866088867,0.03821086883544922,1.6411399841308594
1683915377331338500,7.70733837890625,0.2203369140625,-0.1320972442626953,1.912916660308838
1683915377341379300,7.71737939453125,0.2777519226074219,-0.2957725524902344,2.2058558464050293
1683915377351420200,7.727420166015625,0.2896919250488281,-0.4537639617919922,2.4990367889404297
1683915377361461000,7.7374609375,0.2735692262649536,-0.6013345718383789,2.812934398651123
1683915377371501800,7.747501708984375,0.24400901794433594,-0.6932859420776367,3.1272921562194824
1683915377381542700,7.757542724609375,0.19247865676879883,-0.6565847396850586,3.3806004524230957
1683915377391583500,7.76758349609375,0.10745906829833984,-0.47589874267578125,3.561495304107666
1683915377401624300,7.777624267578125,0.0017805099487304688,-0.19372844696044922,3.710268020629883
1683915377411665200,7.7876650390625,-0.1383228302001953,0.11777496337890625,3.9012436866760254
1683915377421706000,7.7977060546875,-0.5049906969070435,0.4516873359680176,4.136363506317139
1683915377431746800,7.807746826171875,-1.5035027265548706,0.8709630966186523,4.395981788635254
1683915377441787600,7.81778759765625,-3.330888509750366,1.3423538208007812,4.75253438949585
1683915377451828500,7.827828369140625,-3.990147590637207,1.6985077857971191,4.850167274475098
1683915377461869300,7.837869384765625,-3.3417601585388184,1.9190683364868164,4.511843204498291
1683915377471910100,7.84791015625,-2.484987497329712,1.9288878440856934,3.8724727630615234
1683915377481951200,7.857951171875,-1.6711941957473755,1.6611032485961914,3.0849809646606445
1683915377491992000,7.867991943359375,-1.078842282295227,1.1512603759765625,2.247208595275879
1683915377502033000,7.878032958984375,-0.6324531435966492,0.44370269775390625,1.4476070404052734
1683915377512073700,7.88807373046875,-0.17563587427139282,-0.38686275482177734,0.8719511032104492
1683915377522114600,7.898114501953125,0.3951965868473053,-1.1485233306884766,0.42686033248901367
1683915377532155400,7.9081552734375,1.052155613899231,-1.7845730781555176,0.1084585189819336
1683915377542196200,7.9181962890625,1.6796579360961914,-2.3854331970214844,-0.061179161071777344
1683915377552237000,7.928237060546875,2.1380395889282227,-2.993180274963379,-0.14911651611328125
1683915377562278000,7.93827783203125,2.480517864227295,-3.5778021812438965,-0.22719669342041016
1683915377572318700,7.948318603515625,2.8059654235839844,-4.003077030181885,-0.3411879539489746
1683915377582359600,7.958359619140625,2.987272262573242,-4.117003917694092,-0.44097900390625
1683915377592400600,7.968400634765625,3.039656162261963,-3.815652847290039,-0.5596504211425781
1683915377602441500,7.97844140625,3.0328526496887207,-3.240772247314453,-0.6226167678833008
1683915377612482300,7.988482421875,3.006681203842163,-2.5437402725219727,-0.6096735000610352
1683915377622523100,7.998523193359375,2.939579963684082,-1.8122596740722656,-0.5888643264770508
1683915377632564000,8.00856396484375,2.8291337490081787,-1.144561767578125,-0.5194110870361328
1683915377642604800,8.018604736328125,2.6996026039123535,-0.606715202331543,-0.44109201431274414
1683915377652645600,8.028645751953125,2.606489658355713,-0.21567487716674805,-0.38082361221313477
1683915377662686500,8.0386865234375,2.583634614944458,0.048078060150146484,-0.3687906265258789
1683915377672727300,8.048727294921875,2.660921096801758,0.21125125885009766,-0.42908239364624023
1683915377682768100,8.05876806640625,2.820523500442505,0.326261043548584,-0.5416584014892578
1683915377692809000,8.06880908203125,3.0931434631347656,0.4008045196533203,-0.6966385841369629
1683915377702849800,8.078849853515624,3.403913974761963,0.4247732162475586,-0.8862886428833008
1683915377712890600,8.088890625,3.6938633918762207,0.40323305130004883,-1.108870029449463
1683915377722931500,8.098931396484375,3.8803038597106934,0.32660436630249023,-1.4054279327392578
1683915377732972300,8.10897216796875,3.9391093254089355,0.20029783248901367,-1.8002924919128418
1683915377743013400,8.119013427734375,3.884441375732422,0.030117511749267578,-2.3149967193603516
1683915377753054200,8.12905419921875,3.7270522117614746,-0.1665182113647461,-2.9054341316223145
1683915377763095000,8.139094970703125,3.4793269634246826,-0.36927127838134766,-3.4917516708374023
1683915377773136000,8.149135986328124,3.1551804542541504,-0.555872917175293,-4.0456156730651855
1683915377783176700,8.1591767578125,2.8077192306518555,-0.7072334289550781,-4.532963752746582
1683915377793217500,8.169217529296875,2.463463068008423,-0.7982139587402344,-4.929982662200928
1683915377803258400,8.17925830078125,2.1363980770111084,-0.8436136245727539,-5.195026397705078
1683915377813299200,8.18929931640625,1.7687675952911377,-0.8590340614318848,-5.308467864990234
1683915377823340000,8.199340087890626,1.3448539972305298,-0.8645272254943848,-5.275540351867676
1683915377833380900,8.209380859375,0.8499308228492737,-0.8681402206420898,-5.131383895874023
1683915377843421700,8.219421630859374,0.19852352142333984,-0.9257221221923828,-4.913241386413574
1683915377853462800,8.229462890625,-0.8089423179626465,-1.1258764266967773,-4.595247268676758
1683915377863503600,8.239503662109374,-2.143965244293213,-1.4625873565673828,-3.9032387733459473
1683915377873544400,8.24954443359375,-3.2144765853881836,-1.773993968963623,-2.85921573638916
1683915377883585300,8.259585205078125,-3.793933391571045,-1.9180426597595215,-1.7215023040771484
1683915377893626000,8.269626220703126,-3.9105958938598633,-1.88254976272583,-0.6472406387329102
1683915377903667000,8.2796669921875,-3.5885682106018066,-1.609255313873291,0.27637720108032227
1683915377913707800,8.289707763671874,-3.015244483947754,-1.1216702461242676,1.1285881996154785
1683915377923748600,8.29974853515625,-2.370894432067871,-0.4994959831237793,1.7355260848999023
1683915377933789400,8.30978955078125,-1.7219866514205933,0.1528787612915039,2.079599380493164
1683915377943830300,8.319830322265625,-1.1513631343841553,0.769261360168457,2.204751491546631
1683915377953871000,8.32987109375,-0.6058629751205444,1.3205924034118652,2.16485595703125
1683915377963912000,8.339911865234376,-0.08083796501159668,1.7657098770141602,2.084014415740967
1683915377973953000,8.349953125,0.4981191158294678,2.039853096008301,2.0254769325256348
1683915377983993900,8.359993896484376,1.0599932670593262,1.9939155578613281,2.0652570724487305
1683915377994034700,8.37003466796875,1.4902546405792236,1.6409344673156738,2.2160120010375977
1683915378004075500,8.380075439453124,1.7259770631790161,1.0818591117858887,2.465178966522217
1683915378014116400,8.390116455078125,1.710728645324707,0.34603261947631836,2.8299455642700195
1683915378024157200,8.4001572265625,1.1835118532180786,-0.6158347129821777,3.3225064277648926
1683915378034198000,8.410197998046876,-0.714136004447937,-2.0019474029541016,3.9942283630371094
1683915378044238800,8.42023876953125,-1.801626205444336,-3.2222800254821777,4.672263145446777
1683915378054279700,8.43027978515625,-1.5356844663619995,-3.703927516937256,4.865273475646973
1683915378064320500,8.440320556640625,-0.6696414351463318,-3.4920239448547363,4.4365363121032715
1683915378074361300,8.450361328125,0.32650959491729736,-2.9043750762939453,3.5703911781311035
1683915378084402200,8.460402099609375,1.182153582572937,-2.2266478538513184,2.5208072662353516
1683915378094443300,8.470443359375,1.7391765117645264,-1.5014152526855469,1.3842902183532715
1683915378104484000,8.480484130859375,1.989261269569397,-0.7355332374572754,0.22968339920043945
1683915378114525000,8.49052490234375,1.9941473007202148,0.011759757995605469,-0.8578948974609375
1683915378124565800,8.500565673828126,1.8850903511047363,0.725226879119873,-1.8806343078613281
1683915378134606600,8.510606689453125,1.7508752346038818,1.401327133178711,-2.8523638248443604
1683915378144647400,8.5206474609375,1.6111427545547485,1.9582552909851074,-3.7453043460845947
1683915378154688300,8.530688232421875,1.5857152938842773,2.133185863494873,-4.175408840179443
1683915378164729000,8.54072900390625,1.613624095916748,1.8364834785461426,-4.183721542358398
1683915378174770000,8.55077001953125,1.6630147695541382,1.193730354309082,-3.903467893600464
1683915378184810800,8.560810791015625,1.7534267902374268,0.3521299362182617,-3.465223550796509
1683915378194851800,8.570851806640626,1.8767322301864624,-0.570159912109375,-2.9524641036987305
1683915378204892700,8.580892578125,1.9610682725906372,-1.507253646850586,-2.452695846557617
1683915378214933500,8.59093359375,1.9888501167297363,-2.325601100921631,-2.035283088684082
1683915378224974300,8.600974365234375,1.9869805574417114,-2.822002410888672,-1.8285865783691406
1683915378235015200,8.61101513671875,1.93430495262146,-2.940793514251709,-1.7881975173950195
1683915378245056000,8.621055908203125,1.8080147504806519,-2.821261405944824,-1.8751120567321777
1683915378255096800,8.631096923828125,1.219226360321045,-1.651339054107666,-2.612799882888794
1683915378265137700,8.6411376953125,0.827972412109375,-1.0166687965393066,-2.811558961868286
1683915378275178500,8.651178466796875,0.4683486521244049,-0.5876340866088867,-2.728940486907959
1683915378285219300,8.66121923828125,-0.6507201194763184,-0.10772323608398438,-2.399445056915283
1683915378295260200,8.67126025390625,-2.896707534790039,0.6767845153808594,-1.2297248840332031
1683915378305301200,8.68130126953125,-3.2867848873138428,0.8501853942871094,-0.1794147491455078
1683915378315342000,8.691342041015625,-2.619932174682617,0.8328671455383301,0.2879462242126465
1683915378325383000,8.7013828125,-1.233751893043518,0.7126612663269043,0.16650009155273438
1683915378335423700,8.711423828125,0.14505791664123535,0.5690827369689941,0.004496574401855469
1683915378345464600,8.721464599609375,0.8655639290809631,0.6088128089904785,0.1402268409729004
1683915378355505400,8.73150537109375,1.1077601909637451,0.7581171989440918,0.3529038429260254
1683915378365546200,8.741546142578125,1.2418553829193115,1.035189151763916,0.44286680221557617
1683915378375587000,8.751587158203124,1.4248237609863281,1.318082332611084,0.4421730041503906
1683915378385628000,8.7616279296875,1.5660796165466309,1.5397710800170898,0.5084209442138672
1683915378395668700,8.771668701171874,1.6042087078094482,1.6253986358642578,0.8406071662902832
1683915378405709600,8.78170947265625,1.5177323818206787,1.5601348876953125,1.2814316749572754
1683915378415750700,8.791750732421875,1.3045525550842285,1.3707032203674316,1.6392560005187988
1683915378425791500,8.80179150390625,1.0466601848602295,1.181182861328125,2.063962936401367
1683915378435832300,8.811832275390625,0.7515245079994202,1.0162439346313477,2.4601855278015137
1683915378445873200,8.821873046875,0.3821720480918884,0.9221887588500977,2.7144999504089355
1683915378455914000,8.8319140625,-0.12029701471328735,0.8764567375183105,2.8349127769470215
1683915378465954800,8.841954833984374,-0.674467921257019,0.937781810760498,2.7633204460144043
1683915378475995600,8.85199560546875,-1.193535566329956,0.9686446189880371,2.4018383026123047
1683915378486036500,8.862036376953125,-1.5627825260162354,0.7747573852539062,1.926985740661621
1683915378496077600,8.87207763671875,-1.9714882373809814,0.587378978729248,1.4058747291564941
1683915378506118400,8.882118408203125,-2.5833446979522705,0.540219783782959,0.7815699577331543
1683915378516159200,8.8921591796875,-3.610250473022461,0.5466642379760742,0.1375107765197754
1683915378526200000,8.902199951171875,-3.263075828552246,0.6204514503479004,0.004053592681884766
1683915378536241000,8.912240966796874,-1.4793709516525269,0.7481174468994141,0.4504356384277344
1683915378546281700,8.92228173828125,-0.3157719373703003,1.0060553550720215,0.5913662910461426
1683915378556322600,8.932322509765624,0.4242992401123047,1.0439872741699219,0.8000240325927734
1683915378566363400,8.94236328125,1.0211172103881836,0.8933777809143066,1.147737979888916
1683915378576404200,8.952404296875,1.4719429016113281,0.4338226318359375,1.735567569732666
1683915378586445000,8.962445068359376,1.7902852296829224,-0.3501415252685547,2.462368965148926
1683915378596486100,8.972486083984375,1.861396074295044,-1.0910558700561523,3.1039156913757324
1683915378606527000,8.98252685546875,1.783262848854065,-1.5028076171875,3.4256906509399414
1683915378616567800,8.99256787109375,1.6015479564666748,-1.3925342559814453,3.409536361694336
1683915378626608600,9.002608642578124,1.371421217918396,-1.0506057739257812,3.4255714416503906
1683915378636649500,9.0126494140625,1.1636595726013184,-0.925048828125,3.769660472869873
1683915378646690300,9.022690185546875,0.8971214294433594,-0.671839714050293,3.937653064727783
1683915378656731100,9.032731201171876,0.37375408411026,-0.17119979858398438,3.6729226112365723
1683915378666772000,9.04277197265625,-1.4555959701538086,0.48485469818115234,3.031921863555908
1683915378676812800,9.052812744140626,-4.807522773742676,0.831171989440918,2.56392765045166
1683915378686853600,9.062853515625,-9.73281192779541,0.5913300514221191,2.288796901702881
1683915378696894700,9.072894775390624,-8.183850288391113,0.2580738067626953,1.5060172080993652
1683915378706935600,9.082935546875,-3.5566303730010986,0.1479167938232422,0.25092220306396484
1683915378716976400,9.092976318359375,-1.3439769744873047,0.15175485610961914,-0.9202165603637695
1683915378727017200,9.103017333984376,0.33754730224609375,-0.07568216323852539,-1.8876471519470215
1683915378737058000,9.11305810546875,1.1512377262115479,-0.41377878189086914,-2.4273993968963623
1683915378747099000,9.123098876953126,1.2415250539779663,-0.7585611343383789,-2.6201820373535156
1683915378757139700,9.1331396484375,1.2545015811920166,-0.9968833923339844,-2.6160569190979004
1683915378767180800,9.143180908203124,1.3724620342254639,-1.324136734008789,-2.2521209716796875
1683915378777221600,9.1532216796875,1.79945707321167,-1.6515164375305176,-1.777754783630371
1683915378787262500,9.163262451171875,2.412497043609619,-1.731447696685791,-1.3049473762512207
1683915378797303300,9.17330322265625,2.8559508323669434,-1.7158746719360352,-1.0127010345458984
1683915378807344000,9.18334423828125,3.257021427154541,-2.0027904510498047,-0.7600507736206055
1683915378817385000,9.193385009765626,3.579542398452759,-2.126636505126953,-0.45543861389160156
1683915378827425800,9.20342578125,3.239922046661377,-2.314319610595703,-0.060747623443603516
1683915378837466600,9.213466552734374,2.6547718048095703,-2.538412570953369,0.3105745315551758
1683915378847507500,9.223507568359375,2.4427664279937744,-2.3203506469726562,0.3740239143371582
1683915378857548300,9.23354833984375,2.249741554260254,-1.8345017433166504,0.23858404159545898
1683915378867589400,9.24358935546875,1.8842036724090576,-1.1293344497680664,0.14386701583862305
1683915378877630200,9.253630126953125,1.2614703178405762,-0.5513019561767578,0.06088399887084961
1683915378887671000,9.263671142578126,0.823589026927948,-0.09447765350341797,-0.03140735626220703
1683915378897711900,9.2737119140625,1.0226843357086182,0.3067493438720703,-0.25382184982299805
1683915378907752700,9.283752685546874,1.384182095527649,0.5964746475219727,-0.6566605567932129
1683915378917793500,9.29379345703125,1.6104421615600586,0.7235684394836426,-1.1337237358093262
1683915378927834400,9.30383447265625,1.6142271757125854,0.7945008277893066,-1.5873465538024902
1683915378937875200,9.313875244140625,1.6586389541625977,0.8503317832946777,-1.9806571006774902
1683915378947916000,9.323916015625,1.7312114238739014,0.8560953140258789,-2.3323941230773926
1683915378957957000,9.33395703125,1.8599913120269775,0.7818078994750977,-2.6149826049804688
1683915378967998000,9.343998046875,2.011928081512451,0.5974283218383789,-2.8316612243652344
1683915378978038800,9.354038818359374,2.0724143981933594,0.34509944915771484,-2.9184188842773438
1683915378988079600,9.36407958984375,2.1223342418670654,0.04135894775390625,-2.9015655517578125
1683915378998120400,9.374120361328124,2.0295677185058594,-0.23174238204956055,-2.7466750144958496
1683915379008161300,9.384161376953125,1.9194726943969727,-0.4809074401855469,-2.6372294425964355
1683915379018202000,9.3942021484375,1.7715332508087158,-0.6321454048156738,-2.3889546394348145
1683915379028243200,9.4042431640625,1.6510627269744873,-0.8736906051635742,-1.955888271331787
1683915379038284000,9.414283935546875,1.4844672679901123,-0.9391751289367676,-1.6817212104797363
1683915379048324900,9.424324951171876,1.235676646232605,-0.9639878273010254,-1.5755376815795898
1683915379058365700,9.43436572265625,0.6181946396827698,-0.9756250381469727,-1.410611629486084
1683915379068406500,9.444406494140624,-0.29253947734832764,-1.0302762985229492,-1.1984248161315918
1683915379078447400,9.454447265625,-1.4086792469024658,-1.1005792617797852,-1.0636043548583984
1683915379088488200,9.46448828125,-3.254288673400879,-1.1643648147583008,-0.7445011138916016
1683915379098529000,9.474529052734376,-4.04457950592041,-1.0163516998291016,0.37379026412963867
1683915379108570000,9.484570068359375,-3.4648728370666504,-0.7216458320617676,1.5395803451538086
1683915379118611000,9.49461083984375,-2.3820319175720215,-0.5669374465942383,2.138652801513672
1683915379128651800,9.50465185546875,-1.5081312656402588,-0.4276890754699707,1.9897832870483398
1683915379138692600,9.514692626953124,-1.0481464862823486,-0.12862443923950195,1.361435890197754
1683915379148733400,9.5247333984375,-0.6516534686088562,-0.09626960754394531,0.6593694686889648
1683915379158774300,9.534774169921874,-0.431276798248291,-0.02846384048461914,-0.012262821197509766
1683915379168815000,9.544815185546875,-0.17338049411773682,-0.36258506774902344,-0.5466794967651367
1683915379178856000,9.55485595703125,0.3565751910209656,-1.368457317352295,-1.2589807510375977
1683915379188896800,9.564896728515626,0.7986463308334351,-2.4732303619384766,-2.441521167755127
1683915379198937900,9.574937744140625,0.976207971572876,-3.0535902976989746,-3.107375144958496
1683915379208978700,9.584978759765624,0.9856423139572144,-3.503267288208008,-3.366915225982666
1683915379219019500,9.59501953125,1.030664324760437,-3.801389694213867,-3.165462017059326
1683915379229060400,9.605060302734374,1.0446034669876099,-3.92281436920166,-3.019824981689453
1683915379239101200,9.61510107421875,1.0801175832748413,-3.8751072883605957,-3.171095848083496
1683915379249142000,9.62514208984375,1.331809639930725,-3.728682041168213,-3.2782528400421143
1683915379259183000,9.63518310546875,1.539792776107788,-3.5377793312072754,-3.4119982719421387
1683915379269224000,9.645223876953125,1.5842654705047607,-3.4049720764160156,-3.551231622695923
1683915379279264800,9.6552646484375,1.5710963010787964,-3.045042037963867,-3.1492724418640137
1683915379289305600,9.6653056640625,1.804710030555725,-2.3479976654052734,-2.427964687347412
1683915379299346400,9.675346435546874,2.1667959690093994,-1.6739263534545898,-1.9167771339416504
1683915379309387300,9.68538720703125,2.406162738800049,-1.1376404762268066,-1.2244701385498047
1683915379319428000,9.695427978515625,2.3513031005859375,-0.6105542182922363,-0.5371475219726562
1683915379329469000,9.705468994140626,1.7853436470031738,-0.1457357406616211,-0.0639348030090332
1683915379339510000,9.715510009765625,0.7565646171569824,0.4991765022277832,0.6141371726989746
1683915379349550800,9.72555078125,0.25913944840431213,0.9909024238586426,1.018883228302002
1683915379359591700,9.735591796875,0.2233179807662964,1.3241081237792969,1.065201759338379
1683915379369632500,9.745632568359374,0.5021510720252991,1.595686912536621,1.0461301803588867
1683915379379673300,9.75567333984375,0.7997274398803711,1.9356889724731445,1.2909140586853027
1683915379389714200,9.765714111328125,1.0814871788024902,2.232520580291748,1.5020647048950195
1683915379399755000,9.775755126953126,1.274596929550171,2.5331826210021973,1.816359043121338
1683915379409795800,9.7857958984375,1.3369158506393433,2.6762514114379883,2.1484785079956055
1683915379419837000,9.7958369140625,1.1007003784179688,2.7165913581848145,2.610841751098633
1683915379429877800,9.805877685546875,0.5223537087440491,2.61691951751709,3.2810559272766113
1683915379439918600,9.815918701171874,-0.31822142004966736,2.142040252685547,4.016628742218018
1683915379449959400,9.82595947265625,-1.2226852178573608,1.6200923919677734,4.214681148529053
1683915379460000300,9.836000244140624,-1.9848251342773438,1.3395347595214844,4.028235912322998
1683915379470041000,9.846041015625,-2.2876055240631104,1.3317174911499023,3.701521873474121
1683915379480082000,9.85608203125,-1.4271299839019775,1.3099164962768555,3.1751208305358887
1683915379490122800,9.866122802734376,-0.19904106855392456,1.155320644378662,2.567457675933838
1683915379500163800,9.876163818359375,0.6844499111175537,1.0064406394958496,1.9099726676940918
1683915379510204700,9.88620458984375,1.1241496801376343,0.7911629676818848,1.483259677886963
1683915379520245500,9.89624560546875,1.2660107612609863,0.6013016700744629,1.20228910446167
1683915379530286300,9.906286376953124,1.3201488256454468,0.4606285095214844,0.9761018753051758
1683915379540327200,9.9163271484375,1.34266197681427,0.34033870697021484,0.768857479095459
1683915379550368000,9.926367919921875,1.4881742000579834,0.2703666687011719,0.5105643272399902
1683915379560409000,9.9364091796875,1.700333595275879,0.14499282836914062,0.1701202392578125
1683915379570450000,9.946449951171875,1.8971667289733887,0.10706806182861328,-0.15465450286865234
1683915379580490800,9.95649072265625,1.9891066551208496,0.11208724975585938,-0.5102953910827637
1683915379590531600,9.966531494140625,2.0709123611450195,0.13143587112426758,-0.8511519432067871
1683915379600572400,9.976572509765624,2.1409809589385986,0.11959600448608398,-1.0818109512329102
1683915379610613200,9.98661328125,2.082178831100464,0.0189361572265625,-1.1814689636230469
1683915379620654000,9.996654052734375,1.728320598602295,-0.17286396026611328,-1.2604475021362305
1683915379630695000,10.00669482421875,1.211372971534729,-0.35561418533325195,-1.1330828666687012
1683915379640736000,10.016736083984375,0.5536323189735413,-0.5207118988037109,-0.791834831237793
1683915379650776800,10.02677685546875,-0.13207244873046875,-0.5425477027893066,-0.3654756546020508
1683915379660817700,10.036817626953125,-0.6911544799804688,-0.4913930892944336,0.14675426483154297
1683915379670858500,10.0468583984375,-0.9405370950698853,-0.3588581085205078,0.6235876083374023
1683915379680899300,10.0568994140625,-0.9257208704948425,-0.13407039642333984,0.9255428314208984
1683915379690940200,10.066940185546875,-0.6943870782852173,0.07691383361816406,1.1289048194885254
1683915379700981000,10.07698095703125,-0.3608250916004181,0.29059267044067383,1.219688892364502
1683915379711022000,10.08702197265625,-0.014927327632904053,0.3783693313598633,1.2417569160461426
1683915379721063000,10.09706298828125,0.24603533744812012,0.5200095176696777,1.1812944412231445
1683915379731103700,10.107103759765625,0.4071348309516907,0.5768342018127441,1.0955696105957031
1683915379741144600,10.11714453125,0.46491771936416626,0.5896511077880859,0.9438996315002441
1683915379751185400,10.127185302734375,0.5261335372924805,0.6451725959777832,0.7799234390258789
1683915379761226200,10.137226318359374,0.5312732458114624,0.7071208953857422,0.6584196090698242
1683915379771267000,10.14726708984375,0.5861624479293823,0.7152247428894043,0.5931081771850586
1683915379781308200,10.15730810546875,0.7146573066711426,0.6899981498718262,0.5544404983520508
1683915379791349000,10.167348876953126,0.8817929029464722,0.6714754104614258,0.5468826293945312
1683915379801389800,10.177389892578125,1.0197107791900635,0.700345516204834,0.5801711082458496
1683915379811430700,10.1874306640625,1.0880851745605469,0.7715988159179688,0.6662664413452148
1683915379821471500,10.197471435546875,1.1607475280761719,0.8994102478027344,0.7787694931030273
1683915379831512300,10.20751220703125,1.2946792840957642,1.0427875518798828,0.8979611396789551
1683915379841553400,10.217553466796875,1.4228785037994385,1.1967434883117676,0.9660239219665527
1683915379851594200,10.22759423828125,1.5245068073272705,1.3111295700073242,1.0236740112304688
1683915379861635000,10.237635009765626,1.6223818063735962,1.4267492294311523,1.0951242446899414
1683915379871676000,10.247676025390625,1.650152325630188,1.5149130821228027,1.118466854095459
1683915379881716700,10.257716796875,1.6618189811706543,1.6210880279541016,1.1250677108764648
1683915379891757600,10.267757568359375,1.6888082027435303,1.666060447692871,1.121645450592041
1683915379901798400,10.27779833984375,1.722638726234436,1.6876482963562012,1.0834980010986328
1683915379911839500,10.287839599609375,1.732835292816162,1.666604995727539,1.0605406761169434
1683915379921880300,10.29788037109375,1.736370325088501,1.6123948097229004,1.0524559020996094
1683915379931921200,10.307921142578126,1.7162511348724365,1.5561270713806152,1.0926589965820312
1683915379941962000,10.3179619140625,1.7011666297912598,1.4665331840515137,1.17594575881958
1683915379952002800,10.3280029296875,1.7009470462799072,1.3788599967956543,1.3442192077636719
1683915379962043600,10.338043701171875,1.6351075172424316,1.3231863975524902,1.4644179344177246
1683915379972084500,10.34808447265625,1.5016549825668335,1.2459945678710938,1.513789176940918
1683915379982125600,10.35812548828125,1.3114491701126099,1.1627721786499023,1.5623621940612793
1683915379992166400,10.36816650390625,1.1158833503723145,1.052896499633789,1.5363235473632812
1683915380002207200,10.378207275390626,0.908334493637085,0.8581504821777344,1.5919208526611328
1683915380012248000,10.388248046875,0.7006239295005798,0.6598224639892578,1.530287742614746
1683915380022289000,10.398288818359376,0.4545721411705017,0.49894142150878906,1.4022712707519531
1683915380032329700,10.408329833984375,0.14058876037597656,0.2800312042236328,1.1747994422912598
1683915380042370600,10.41837060546875,-0.2792893946170807,0.10129070281982422,0.9703369140625
1683915380052411600,10.42841162109375,-0.7795462608337402,-0.1894512176513672,0.6467800140380859
1683915380062452500,10.438452392578125,-1.4640313386917114,-0.6092329025268555,0.28338003158569336
1683915380072493300,10.448493408203126,-2.1447536945343018,-1.1214079856872559,0.17937135696411133
1683915380082534100,10.4585341796875,-2.497466802597046,-1.513075351715088,0.18677520751953125
1683915380092575000,10.468574951171876,-2.469015121459961,-1.9098353385925293,0.07880449295043945
1683915380102616000,10.478615966796875,-2.2088799476623535,-2.125115394592285,0.2342839241027832
1683915380112657000,10.488656982421874,-2.100627899169922,-2.408222198486328,0.3564314842224121
1683915380122697700,10.49869775390625,-2.1261391639709473,-2.6572184562683105,0.447206974029541
1683915380132738600,10.508738525390624,-2.180807590484619,-3.084291458129883,0.3553004264831543
1683915380142779400,10.518779296875,-1.7977560758590698,-3.382091522216797,0.22226905822753906
1683915380152820200,10.5288203125,-1.5072057247161865,-3.5554590225219727,0.0016922950744628906
1683915380162861000,10.538861083984376,-1.4981852769851685,-3.5628910064697266,-0.37418317794799805
1683915380172902100,10.548902099609375,-1.3164842128753662,-3.0682482719421387,-0.9080219268798828
1683915380182943000,10.55894287109375,-0.8295094966888428,-2.0502147674560547,-0.9881343841552734
1683915380192983800,10.56898388671875,-0.1758723258972168,-0.855921745300293,-0.7909121513366699
1683915380203024600,10.579024658203124,0.4754220247268677,-0.1255650520324707,-0.40154123306274414
1683915380213065500,10.5890654296875,0.8747435212135315,0.20878314971923828,-0.010509490966796875
1683915380223106300,10.599106201171875,1.1870479583740234,0.37860870361328125,0.060224056243896484
1683915380233147100,10.609147216796876,1.4117531776428223,0.4218459129333496,-0.04912281036376953
1683915380243188200,10.619188232421875,1.4789669513702393,0.3005552291870117,-0.0932307243347168
1683915380253229000,10.62922900390625,1.4153169393539429,0.07806682586669922,-0.11223506927490234
1683915380263270000,10.639269775390625,1.438270092010498,-0.06430244445800781,-0.21558666229248047
1683915380273310700,10.649310791015624,1.642637014389038,-0.1283879280090332,-0.4544525146484375
1683915380283351600,10.6593515625,2.037421941757202,-0.14725160598754883,-0.6282854080200195
1683915380293392400,10.669392333984375,2.413233757019043,-0.030503273010253906,-0.6983051300048828
1683915380303433500,10.67943359375,2.6214759349823,0.13500022888183594,-0.7779922485351562
1683915380313474300,10.689474365234375,2.6029467582702637,0.32172679901123047,-0.8367934226989746
1683915380323515100,10.69951513671875,2.4796197414398193,0.4785127639770508,-1.0112419128417969
1683915380333556000,10.709555908203125,2.3174617290496826,0.5548114776611328,-1.145843505859375
1683915380343596800,10.7195966796875,2.0372934341430664,0.5099740028381348,-1.3333749771118164
1683915380353638000,10.729637939453125,1.5044771432876587,0.46895885467529297,-1.3952717781066895
1683915380363678700,10.7396787109375,0.7478926181793213,0.4063253402709961,-1.5039491653442383
1683915380373719600,10.749719482421876,0.08963847160339355,0.3103504180908203,-1.511591911315918
1683915380383760400,10.759760498046875,-0.3292732238769531,0.04713916778564453,-1.475264549255371
1683915380393801200,10.76980126953125,-0.31575679779052734,-0.2728700637817383,-1.4877605438232422
1683915380403842000,10.779842041015625,-0.1309058666229248,-0.6415743827819824,-1.6137595176696777
1683915380413883000,10.7898828125,0.11881482601165771,-0.9358668327331543,-1.7395925521850586
1683915380423924000,10.799924072265625,0.24948763847351074,-1.0641412734985352,-1.8736653327941895
1683915380433964800,10.80996484375,0.22678792476654053,-1.171837329864502,-2.0325794219970703
1683915380444005600,10.820005615234376,0.08264195919036865,-1.2055530548095703,-2.074702739715576
1683915380454046500,10.83004638671875,-0.09885549545288086,-1.215083122253418,-2.1179685592651367
1683915380464087300,10.84008740234375,-0.21688854694366455,-1.198110580444336,-2.117053985595703
1683915380474128100,10.850128173828125,-0.22675466537475586,-1.1576104164123535,-2.0352096557617188
1683915380484169200,10.860169189453124,-0.263338565826416,-1.1348419189453125,-1.9361538887023926
1683915380494210000,10.8702099609375,-0.29036808013916016,-1.049056053161621,-1.7921867370605469
1683915380504251000,10.8802509765625,-0.3279852867126465,-0.9534082412719727,-1.6010537147521973
1683915380514291700,10.890291748046875,-0.37965095043182373,-0.7766714096069336,-1.37904691696167
1683915380524332500,10.90033251953125,-0.40430521965026855,-0.6049513816833496,-1.1733217239379883
1683915380534373400,10.910373291015626,-0.33792757987976074,-0.38118457794189453,-0.9889965057373047
1683915380544414500,10.92041455078125,-0.21584510803222656,-0.14917898178100586,-0.8012838363647461
1683915380554455300,10.930455322265624,-0.07754814624786377,0.11419153213500977,-0.6497726440429688
1683915380564496100,10.94049609375,0.009631037712097168,0.34170961380004883,-0.5059423446655273
1683915380574537000,10.950536865234374,-0.05538809299468994,0.5477962493896484,-0.3808560371398926
1683915380584577800,10.960577880859375,-0.20012986660003662,0.7948365211486816,-0.4141578674316406
1683915380594619000,10.970618896484375,-0.36677634716033936,0.9277453422546387,-0.3970623016357422
1683915380604659700,10.98065966796875,-0.3728904724121094,0.8796515464782715,-0.3303365707397461
1683915380614700500,10.990700439453125,-0.5018178224563599,0.7190728187561035,-0.05587482452392578
1683915380624741400,11.000741455078124,-0.7528666257858276,0.6576104164123535,0.304898738861084
1683915380634782200,11.0107822265625,-0.9869300127029419,0.6443486213684082,0.6462469100952148
1683915380644823000,11.020822998046874,-0.9520875215530396,0.7418808937072754,0.7564358711242676
1683915380654864100,11.030864013671875,-0.6614811420440674,0.8673110008239746,0.675072193145752
1683915380664905000,11.040905029296875,-0.17394006252288818,0.954063892364502,0.4646115303039551
1683915380674945800,11.05094580078125,0.2934815287590027,0.9684724807739258,0.2634162902832031
1683915380684986600,11.060986572265625,0.4382157027721405,1.0458922386169434,0.14985418319702148
1683915380695027500,11.07102734375,0.1762751340866089,1.154564380645752,0.08780908584594727
1683915380705068300,11.081068359375,-0.44340842962265015,1.4401874542236328,0.103759765625
1683915380715109400,11.091109375,-1.400282859802246,1.778970718383789,0.0027008056640625
1683915380725150200,11.101150146484375,-2.104598045349121,1.66583251953125,-0.32363414764404297
1683915380735191000,11.11119091796875,-2.2190182209014893,0.3820157051086426,-0.054875850677490234
1683915380745232000,11.12123193359375,-2.0089166164398193,-1.6357741355895996,0.8390154838562012
1683915380755272700,11.131272705078125,-1.810136079788208,-3.58132266998291,1.7608871459960938
1683915380765313500,11.1413134765625,-1.4767261743545532,-4.870048522949219,2.474461555480957
1683915380775354400,11.151354248046875,-1.3951433897018433,-5.848788261413574,2.8985671997070312
1683915380785395500,11.1613955078125,-1.6260154247283936,-6.584628582000732,2.954166889190674
1683915380795436300,11.171436279296875,-1.350163221359253,-5.841469764709473,2.1557064056396484
1683915380805477000,11.18147705078125,-0.20709002017974854,-2.887345314025879,0.665565013885498
1683915380815518000,11.19151806640625,1.331210970878601,-0.5741581916809082,-0.4215254783630371
1683915380825559000,11.20155908203125,2.5726964473724365,0.6825556755065918,-0.932619571685791
1683915380835600000,11.211599853515626,3.237330913543701,1.3949432373046875,-1.3299212455749512
1683915380845640700,11.221640625,3.33127760887146,2.006145477294922,-1.8337817192077637
1683915380855681500,11.231681640625,3.082526445388794,2.537977695465088,-2.511237621307373
1683915380865722400,11.241722412109375,2.8712961673736572,2.801388740539551,-2.9042887687683105
1683915380875763200,11.25176318359375,2.795300245285034,2.6839442253112793,-2.9853551387786865
1683915380885804300,11.26180419921875,2.719191551208496,1.885847568511963,-2.629695415496826
1683915380895845000,11.27184521484375,2.501483678817749,0.6847734451293945,-1.9889764785766602
1683915380905886000,11.281885986328126,2.2458910942077637,-0.3593888282775879,-1.2809624671936035
1683915380915926800,11.2919267578125,2.006324529647827,-1.1422147750854492,-0.721257209777832
1683915380925967600,11.301967529296874,1.8242406845092773,-1.6804986000061035,-0.5122337341308594
1683915380936008400,11.312008544921875,1.6429028511047363,-2.0481338500976562,-0.4589996337890625
1683915380946049500,11.322049560546875,1.3476719856262207,-2.1928882598876953,-0.603851318359375
1683915380956090400,11.33209033203125,0.9478887915611267,-2.1992664337158203,-0.9054961204528809
1683915380966131200,11.342131103515625,0.293142706155777,-2.1534576416015625,-1.3936848640441895
1683915380976172000,11.352172119140626,-0.68743896484375,-2.1626639366149902,-1.8235020637512207
1683915380986212900,11.362212890625,-1.7195827960968018,-2.2957239151000977,-2.0881094932556152
1683915380996253700,11.372253662109374,-2.384171724319458,-2.4786434173583984,-2.016094207763672
1683915381006294800,11.382294677734375,-2.2767739295959473,-2.496901035308838,-1.6320786476135254
1683915381016335600,11.392335693359374,-1.4498586654663086,-2.080716609954834,-1.0028619766235352
1683915381026376400,11.40237646484375,-0.3778690695762634,-1.5013184547424316,-0.3022780418395996
1683915381036417300,11.412417236328125,0.6360067129135132,-0.8728160858154297,0.12478876113891602
1683915381046458000,11.4224580078125,1.3899394273757935,-0.3550877571105957,0.22920656204223633
1683915381056499200,11.432499267578125,1.8631892204284668,0.10108709335327148,0.13466787338256836
1683915381066540000,11.4425400390625,2.0992002487182617,0.48189735412597656,0.07834577560424805
1683915381076580900,11.452580810546875,2.124861717224121,0.7585463523864746,0.045461177825927734
1683915381086621700,11.46262158203125,2.0756494998931885,0.9192194938659668,0.05260419845581055
1683915381096662500,11.47266259765625,2.0267481803894043,1.0072550773620605,0.17148303985595703
1683915381106703600,11.48270361328125,1.95542311668396,0.9634466171264648,0.3449273109436035
1683915381116744400,11.492744384765626,1.8881239891052246,0.8716354370117188,0.6206569671630859
1683915381126785300,11.502785400390625,1.7185163497924805,0.7364320755004883,0.8455729484558105
1683915381136826000,11.512826171875,1.4323451519012451,0.5026016235351562,1.0363688468933105
1683915381146867000,11.522866943359375,1.062157154083252,0.21745777130126953,0.8843960762023926
1683915381156907800,11.53290771484375,0.5710285902023315,-0.05165243148803711,0.5577149391174316
1683915381166948900,11.542948974609375,0.055449843406677246,-0.3013606071472168,0.13596820831298828
1683915381176989700,11.55298974609375,-0.263802170753479,-0.4663567543029785,-0.28507328033447266
1683915381187030500,11.563030517578126,-0.20000922679901123,-0.5656523704528809,-0.5984005928039551
1683915381197071400,11.5730712890625,0.009054183959960938,-0.6877484321594238,-0.8640341758728027
1683915381207112200,11.5831123046875,0.1944100260734558,-0.7149143218994141,-1.0544743537902832
1683915381217153300,11.5931533203125,0.43005698919296265,-0.6993036270141602,-1.1899542808532715
1683915381227194000,11.603194091796874,0.6437013149261475,-0.7150421142578125,-1.2031779289245605
1683915381237235000,11.61323486328125,0.7969021797180176,-0.7356820106506348,-1.189608097076416
1683915381247275800,11.62327587890625,0.8558791279792786,-0.7899127006530762,-1.003633975982666
1683915381257316600,11.633316650390626,0.8026885390281677,-0.6895589828491211,-0.6535377502441406
1683915381267357400,11.643357421875,0.6538358926773071,-0.46909141540527344,-0.30298852920532227
1683915381277398500,11.6533984375,0.4431442618370056,-0.22247886657714844,-0.10564899444580078
1683915381287439400,11.663439453125,0.34353506565093994,-0.010432243347167969,0.13333559036254883
1683915381297480200,11.673480224609374,0.35227030515670776,0.14033889770507812,0.3103499412536621
1683915381307521000,11.68352099609375,0.45736169815063477,0.21535778045654297,0.3989229202270508
1683915381317562000,11.69356201171875,0.5960657000541687,0.26740503311157227,0.3805255889892578
1683915381327603000,11.70360302734375,0.7026612162590027,0.26310253143310547,0.36325502395629883
1683915381337643800,11.713643798828125,0.7916880249977112,0.16926288604736328,0.27579689025878906
1683915381347684600,11.7236845703125,0.7604305148124695,0.019927024841308594,0.1903858184814453
1683915381357725400,11.733725341796875,0.627150297164917,-0.11770486831665039,0.18590402603149414
1683915381367766300,11.743766357421874,0.4390820860862732,-0.1887516975402832,0.16166973114013672
1683915381377807400,11.753807373046875,0.3152790665626526,-0.17905902862548828,0.11275672912597656
1683915381387848200,11.76384814453125,0.2906789183616638,-0.16529607772827148,0.0533442497253418
1683915381397889000,11.773888916015625,0.34818971157073975,-0.13084745407104492,-0.035723209381103516
1683915381407929900,11.783929931640625,0.4527963399887085,-0.11388206481933594,-0.1374068260192871
1683915381417970700,11.793970703125,0.52925044298172,-0.16894817352294922,-0.2249302864074707
1683915381428011800,11.80401171875,0.5918468832969666,-0.2501382827758789,-0.36002254486083984
1683915381438052600,11.814052490234374,0.6352582573890686,-0.3379659652709961,-0.48007822036743164
1683915381448093400,11.824093505859375,0.6520416140556335,-0.4105954170227051,-0.5704236030578613
1683915381458134300,11.83413427734375,0.6139422655105591,-0.5061841011047363,-0.566591739654541
1683915381468175000,11.844175048828125,0.5477179884910583,-0.5553627014160156,-0.5189337730407715
1683915381478216200,11.85421630859375,0.45858728885650635,-0.5177755355834961,-0.5113096237182617
1683915381488257000,11.864257080078126,0.4572017192840576,-0.47031593322753906,-0.4579763412475586
1683915381498297900,11.8742978515625,0.5104090571403503,-0.3701167106628418,-0.33290672302246094
1683915381508338700,11.884338623046874,0.6493639349937439,-0.2201690673828125,-0.20843791961669922
1683915381518379500,11.894379638671875,0.7900540828704834,-0.0950169563293457,-0.07539892196655273
1683915381528420400,11.90442041015625,0.932457685470581,0.0481257438659668,0.046820640563964844
1683915381538461400,11.91446142578125,1.0499603748321533,0.13258838653564453,0.1437397003173828
1683915381548502300,11.924502197265625,1.1087905168533325,0.15364408493041992,0.25118446350097656
1683915381558543000,11.934543212890626,1.1158899068832397,0.15412569046020508,0.30674028396606445
1683915381568584000,11.944583984375,1.0850043296813965,0.13865184783935547,0.35813236236572266
1683915381578625000,11.954625,1.0160620212554932,0.04014301300048828,0.34780454635620117
1683915381588665900,11.964665771484375,0.9337349534034729,-0.057599544525146484,0.2950143814086914
1683915381598706700,11.974706787109374,0.8342407941818237,-0.1523451805114746,0.2426762580871582
1683915381608747500,11.98474755859375,0.759043276309967,-0.2486433982849121,0.08359193801879883
1683915381618788400,11.994788330078125,0.7230013012886047,-0.32973289489746094,-0.03143596649169922
1683915381628829400,12.004829345703126,0.6712473630905151,-0.45370006561279297,-0.1999821662902832
1683915381638870300,12.014870361328125,0.6566673517227173,-0.560666561126709,-0.364804744720459
1683915381648911000,12.0249111328125,0.6573362350463867,-0.6838221549987793,-0.5046615600585938
1683915381658952000,12.034951904296875,0.6775475144386292,-0.7261652946472168,-0.6738348007202148
1683915381668992800,12.04499267578125,0.71238112449646,-0.7265048027038574,-0.8362507820129395
1683915381679033900,12.055033935546875,0.7520343661308289,-0.7444415092468262,-0.9472775459289551
1683915381689074700,12.06507470703125,0.7626963257789612,-0.7727079391479492,-1.0854992866516113
1683915381699115500,12.075115478515626,0.6943457722663879,-0.8322386741638184,-1.2244486808776855
1683915381709156400,12.08515625,0.5874241590499878,-0.8844265937805176,-1.314234733581543
1683915381719197200,12.095197265625,0.4211229085922241,-0.9806041717529297,-1.4845514297485352
1683915381729238000,12.105238037109375,0.17780479788780212,-1.109276294708252,-1.610323429107666
1683915381739279000,12.115279052734374,-0.05661270022392273,-1.2465238571166992,-1.736752986907959
1683915381749320000,12.12531982421875,-0.22111031413078308,-1.4063706398010254,-1.8419647216796875
1683915381759360800,12.13536083984375,-0.3809618055820465,-1.5600833892822266,-1.8947772979736328
1683915381769401600,12.145401611328126,-0.5540704131126404,-1.6554431915283203,-1.9575133323669434
1683915381779442700,12.155442626953125,-0.6591980457305908,-1.7193241119384766,-1.9946184158325195
1683915381789483500,12.1654833984375,-0.6450453400611877,-1.6760149002075195,-1.9517827033996582
1683915381799524400,12.1755244140625,-0.4901372194290161,-1.5935606956481934,-1.8397445678710938
1683915381809565200,12.185565185546874,-0.24705398082733154,-1.5206804275512695,-1.669243335723877
1683915381819606000,12.19560595703125,-0.007523298263549805,-1.5891132354736328,-1.4316954612731934
1683915381829647000,12.205647216796875,0.07096320390701294,-1.7787079811096191,-1.156026840209961
1683915381839688000,12.21568798828125,-0.08413112163543701,-1.9748435020446777,-0.9036083221435547
1683915381849728800,12.225728759765625,-0.35614287853240967,-2.088235378265381,-0.6510295867919922
1683915381859769600,12.23576953125,-0.6510931253433228,-1.9866366386413574,-0.32401514053344727
1683915381869810400,12.245810546875,-0.8291316032409668,-1.6019248962402344,0.08208942413330078
1683915381879851500,12.2558515625,-0.7133710384368896,-1.0753350257873535,0.5312223434448242
1683915381889892400,12.265892333984375,-0.4154653549194336,-0.38471221923828125,0.9330635070800781
1683915381899933200,12.27593310546875,-0.11963999271392822,0.28098344802856445,1.1551456451416016
1683915381909974000,12.28597412109375,-0.019087553024291992,0.8646316528320312,1.3269047737121582
1683915381920014800,12.296014892578125,-0.036112308502197266,1.2208471298217773,1.459587574005127
1683915381930056000,12.306055908203126,0.0026720762252807617,1.3824067115783691,1.5653600692749023
1683915381940096800,12.3160966796875,-0.022963523864746094,1.512077808380127,1.7151813507080078
1683915381950137600,12.3261376953125,-0.0938180685043335,1.6126275062561035,1.7510414123535156
1683915381960178400,12.336178466796875,-0.20018219947814941,1.8349518775939941,1.5655479431152344
1683915381970219300,12.34621923828125,-0.41170573234558105,1.9918365478515625,1.3953661918640137
1683915381980260400,12.35626025390625,-0.7630025148391724,2.039588451385498,1.2694110870361328
1683915381990301200,12.36630126953125,-0.9101507663726807,1.999448299407959,1.1975293159484863
1683915382000342000,12.376342041015626,-0.8286510705947876,1.926985740661621,1.0703973770141602
1683915382010382800,12.3863828125,-0.5684480667114258,1.794166088104248,0.8931388854980469
1683915382020424000,12.396423828125,-0.32800769805908203,1.6729207038879395,0.7562918663024902
1683915382030464800,12.40646484375,-0.26455163955688477,1.4841327667236328,0.5831308364868164
1683915382040505600,12.416505615234374,-0.3824799060821533,1.3424453735351562,0.4672513008117676
1683915382050546400,12.42654638671875,-0.6272305250167847,1.1761674880981445,0.2208542823791504
1683915382060587300,12.436587158203125,-0.7318029403686523,0.9698119163513184,-0.37085866928100586
1683915382070628400,12.44662841796875,-0.5514076948165894,0.6980056762695312,-0.995704174041748
1683915382080669200,12.456669189453125,-0.29507529735565186,0.47559070587158203,-1.4176287651062012
1683915382090710000,12.4667099609375,-0.03543853759765625,0.22889089584350586,-1.6880717277526855
1683915382100750800,12.476750732421875,0.22104394435882568,0.031057357788085938,-1.8775334358215332
1683915382110791700,12.486791748046874,0.3248201608657837,-0.057689666748046875,-2.2118635177612305
1683915382120832800,12.496832763671875,0.7858506441116333,-0.1671438217163086,-2.3287572860717773
1683915382130873600,12.50687353515625,1.2956228256225586,-0.3102078437805176,-1.9915366172790527
1683915382140914400,12.51691455078125,1.4823644161224365,-0.2973027229309082,-1.4850735664367676
1683915382150955300,12.526955322265625,1.7642974853515625,-0.25090980529785156,-1.0331640243530273
1683915382160996400,12.536996337890624,2.0280871391296387,-0.1402292251586914,-0.559758186340332
1683915382171037200,12.547037109375,2.1591246128082275,0.002818584442138672,-0.23366403579711914
1683915382181078000,12.557078125,2.1117796897888184,0.14535045623779297,0.09708547592163086
1683915382191118800,12.567118896484375,1.8212157487869263,0.2441258430480957,0.3673381805419922
1683915382201159700,12.57715966796875,1.468497633934021,0.32318735122680664,0.5337424278259277
1683915382211200800,12.58720068359375,1.1121821403503418,0.3595695495605469,0.546661376953125
1683915382221241600,12.59724169921875,0.8829935193061829,0.39586925506591797,0.4361610412597656
1683915382231282400,12.607282470703124,0.7932285666465759,0.3778715133666992,0.22159814834594727
1683915382241323300,12.6173232421875,0.5835015177726746,0.26830625534057617,-0.06337118148803711
1683915382251364400,12.6273642578125,0.17378342151641846,-0.021000385284423828,-0.19233417510986328
1683915382261405200,12.6374052734375,0.08204442262649536,-0.35053539276123047,-0.4405679702758789
1683915382271446000,12.647446044921875,0.3418082594871521,-0.5640664100646973,-0.5983843803405762
1683915382281486800,12.65748681640625,0.4279961884021759,-0.6602277755737305,-0.7931962013244629
1683915382291527700,12.667527587890625,0.39606696367263794,-0.6410179138183594,-1.1975774765014648
