time,seconds_elapsed,z,y,x
1683935645277514000,0.034513916015625,0,0,0
1683935645287555000,0.04455517578125,-0.0610051155090332,0.10747671127319336,0.1898484230041504
1683935645297596000,0.054595947265625,0.13597631454467773,0.3799910545349121,-0.08846044540405273
1683935645307637000,0.064636962890625,0.11893939971923828,0.3920907974243164,-0.22197246551513672
1683935645317678000,0.074677978515625,0.36832284927368164,0.36699771881103516,0.01641392707824707
1683935645327719000,0.084718994140625,0.5347142219543457,0.28696727752685547,-0.2190721035003662
1683935645337760000,0.094760009765625,0.29929208755493164,-0.08108711242675781,-0.7251801490783691
1683935645347801000,0.104801025390625,0.5661029815673828,-0.225372314453125,-0.6402409076690674
1683935645357842200,0.11484228515625,0.5309443473815918,-0.35605573654174805,-0.8842525482177734
1683935645367883000,0.124883056640625,0.7049770355224609,-0.4067111015319824,-0.6127517223358154
1683935645377924000,0.134924072265625,1.0364933013916016,-0.5166130065917969,-0.2911651134490967
1683935645387965200,0.144965087890625,0.9479379653930664,0.11387968063354492,-0.24474430084228516
1683935645398006300,0.15500634765625,0.31095027923583984,0.2632112503051758,-0.30378198623657227
1683935645408047000,0.165047119140625,-0.3057889938354492,-0.4293370246887207,0.34433650970458984
1683935645418088200,0.175088134765625,0.27390336990356445,0.5504746437072754,0.7612206935882568
1683935645428129300,0.18512939453125,0.38657426834106445,0.7410149574279785,0.8760836124420166
1683935645438170000,0.195170166015625,0.5893974304199219,0.3507561683654785,0.7032530307769775
1683935645448211200,0.205211181640625,0.10856771469116211,0.24205970764160156,0.4924144744873047
1683935645458252300,0.215252197265625,0.21699285507202148,0.3155665397644043,-0.12029218673706055
1683935645468293400,0.22529345703125,0.4308662414550781,-0.7701630592346191,0.6631698608398438
1683935645478334200,0.235334228515625,0.573002815246582,-0.24912261962890625,0.2833576202392578
1683935645488375300,0.245375244140625,-0.08112525939941406,0.2487187385559082,-0.1676778793334961
1683935645498416400,0.25541650390625,-0.43311309814453125,0.038098812103271484,-0.09024858474731445
1683935645508457500,0.26545751953125,-0.6533370018005371,0.7676634788513184,-0.6690349578857422
1683935645518498300,0.275498291015625,-1.2566499710083008,-0.22008228302001953,0.21642255783081055
1683935645528539400,0.285539306640625,-0.8781614303588867,-0.04150962829589844,0.45038604736328125
1683935645538580500,0.29558056640625,-0.06395244598388672,0.43386268615722656,0.27016639709472656
1683935645548621300,0.305621337890625,0.7652711868286133,0.6460027694702148,0.20395326614379883
1683935645558662400,0.315662353515625,0.5280671119689941,0.3379807472229004,0.5209131240844727
1683935645568703500,0.325703369140625,0.7415614128112793,0.45946788787841797,0.6287202835083008
1683935645578744300,0.335744384765625,0.0402979850769043,0.7204618453979492,0.527580738067627
1683935645588785400,0.345785400390625,-0.9820256233215332,0.6914749145507812,0.015454292297363281
1683935645598826500,0.355826416015625,-1.7830042839050293,0.24938297271728516,0.21426630020141602
1683935645608867600,0.36586767578125,-1.4502594470977783,0.19134187698364258,0.5314903259277344
1683935645618908700,0.37590869140625,-1.113133192062378,0.26207685470581055,1.0733356475830078
1683935645628949500,0.385949462890625,-1.0426952838897705,0.30761194229125977,1.2910199165344238
1683935645638990600,0.395990478515625,-0.9416050910949707,0.11784505844116211,1.1555147171020508
1683935645649031700,0.40603173828125,-1.3384392261505127,-0.8585624694824219,0.06188392639160156
1683935645659072500,0.416072509765625,0.48772621154785156,-1.182457447052002,0.5860528945922852
1683935645669113600,0.426113525390625,1.1348180770874023,-1.2901849746704102,0.12258434295654297
1683935645679154700,0.43615478515625,0.681602954864502,-1.3725600242614746,-0.3579530715942383
1683935645689195500,0.446195556640625,-1.4292620420455933,-1.3360133171081543,-2.109086513519287
1683935645699236600,0.456236572265625,-1.2616441249847412,-1.284557819366455,-0.41706418991088867
1683935645709277700,0.466277587890625,0.9020755290985107,-1.402125358581543,0.6752309799194336
1683935645719318800,0.47631884765625,0.6932830810546875,-1.7534666061401367,0.45535802841186523
1683935645729359600,0.486359619140625,0.896359920501709,-1.7314977645874023,0.23495817184448242
1683935645739400700,0.496400634765625,1.0783469676971436,-2.0815534591674805,-0.1928868293762207
1683935645749441800,0.50644189453125,1.0540831089019775,-2.0092711448669434,-0.36425352096557617
1683935645759483000,0.51648291015625,0.8515335321426392,-1.161667823791504,-1.1245379447937012
1683935645769523700,0.526523681640625,-0.5529001951217651,-0.3348388671875,-1.1313905715942383
1683935645779564800,0.536564697265625,0.21248102188110352,-1.2575230598449707,0.24142074584960938
1683935645789606000,0.54660595703125,1.7384412288665771,-0.5787358283996582,0.7873640060424805
1683935645799646700,0.556646728515625,1.2974016666412354,-0.6576657295227051,0.04857921600341797
1683935645809687800,0.566687744140625,0.9098896980285645,-0.12946271896362305,-0.5628657341003418
1683935645819729000,0.57672900390625,0.021996736526489258,0.6576457023620605,-0.6415843963623047
1683935645829770000,0.58677001953125,-0.27322864532470703,1.1542620658874512,-0.05539417266845703
1683935645839810800,0.596810791015625,1.8234570026397705,0.7539334297180176,1.588831901550293
1683935645849852000,0.606851806640625,4.314011573791504,1.9895625114440918,3.991854190826416
1683935645859893000,0.61689306640625,0.256669282913208,1.0891523361206055,0.30308008193969727
1683935645869934000,0.62693408203125,-4.4273247718811035,2.407266139984131,-3.37575101852417
1683935645879975000,0.636974853515625,-6.771905422210693,2.2880966663360596,-2.5954737663269043
1683935645890016000,0.64701611328125,-1.6184675693511963,2.0955638885498047,1.1135334968566895
1683935645900057000,0.65705712890625,0.849041223526001,1.79364013671875,1.4309735298156738
1683935645910098000,0.667097900390625,-0.5341606140136719,1.0314388275146484,0.4052000045776367
1683935645920139000,0.677138916015625,-0.5837750434875488,0.8666195869445801,0.16525602340698242
1683935645930180000,0.68718017578125,-0.42792558670043945,0.5639276504516602,0.3022446632385254
1683935645940221200,0.69722119140625,-0.5343296527862549,0.20645856857299805,0.10955238342285156
1683935645950262000,0.707261962890625,-0.25795769691467285,-0.19079923629760742,0.015089988708496094
1683935645960303000,0.71730322265625,0.056977272033691406,0.05694293975830078,-0.14699649810791016
1683935645970344200,0.72734423828125,-0.1307682991027832,-0.038272857666015625,-0.5222148895263672
1683935645980385300,0.73738525390625,0.14589834213256836,-0.029512405395507812,-0.44429540634155273
1683935645990426000,0.747426025390625,0.32223987579345703,-0.08041763305664062,-0.2009878158569336
1683935646000467200,0.75746728515625,0.18597030639648438,0.10278844833374023,-0.09222984313964844
1683935646010508300,0.76750830078125,0.32987546920776367,0.14358758926391602,0.05038881301879883
1683935646020549000,0.777549072265625,0.44652795791625977,-0.04571104049682617,-0.23502016067504883
1683935646030590200,0.787590087890625,0.7836785316467285,-0.050554752349853516,-0.2839789390563965
1683935646040631300,0.79763134765625,1.0820226669311523,-0.2996854782104492,-0.3313932418823242
1683935646050672400,0.80767236328125,1.1024470329284668,-0.4027996063232422,-0.546259880065918
1683935646060713200,0.817713134765625,1.4234299659729004,-0.4444131851196289,-0.6609296798706055
1683935646070754300,0.82775439453125,1.2923822402954102,-0.39842700958251953,-0.45813417434692383
1683935646080795400,0.83779541015625,0.8029294013977051,-0.020247936248779297,-0.580784797668457
1683935646090836500,0.84783642578125,0.2132415771484375,0.10667610168457031,-0.5748786926269531
1683935646100877300,0.857877197265625,0.3100438117980957,0.1061701774597168,-0.5779910087585449
1683935646110918400,0.86791845703125,0.25337696075439453,0.15776681900024414,-0.5390691757202148
1683935646120959500,0.87795947265625,0.1593623161315918,0.19002151489257812,-0.47997093200683594
1683935646131000300,0.888000244140625,0.3744516372680664,0.07268905639648438,-0.23229169845581055
1683935646141041400,0.89804150390625,0.424527645111084,0.061205387115478516,-0.07504129409790039
1683935646151082500,0.90808251953125,0.4101276397705078,0.04241466522216797,-0.03435707092285156
1683935646161123600,0.91812353515625,0.49239206314086914,-0.04011344909667969,-0.1179513931274414
1683935646171164400,0.928164306640625,0.23445367813110352,0.11029720306396484,-0.07708024978637695
1683935646181205500,0.93820556640625,-0.010416507720947266,0.12123346328735352,-0.19121646881103516
1683935646191246600,0.94824658203125,-0.01482248306274414,0.20354938507080078,-0.3860354423522949
1683935646201287700,0.95828759765625,-0.09995818138122559,0.11975812911987305,-0.420806884765625
1683935646211328500,0.96832861328125,-0.11188793182373047,0.13274288177490234,-0.33086347579956055
1683935646221369600,0.97836962890625,-0.06758594512939453,0.03757143020629883,-0.24346113204956055
1683935646231410700,0.98841064453125,-0.0038194656372070312,-0.1416158676147461,-0.1432323455810547
1683935646241451500,0.998451416015625,0.1980915069580078,-0.33048534393310547,-0.062390804290771484
1683935646251492600,1.00849267578125,0.33992433547973633,-0.2997403144836426,0.10102462768554688
1683935646261533700,1.01853369140625,0.11182212829589844,-0.4093761444091797,0.44835329055786133
1683935646271574800,1.02857470703125,-0.07711267471313477,-0.4098639488220215,0.5106158256530762
1683935646281615600,1.03861572265625,-0.20504212379455566,-0.36353445053100586,0.6303601264953613
1683935646291656700,1.04865673828125,-0.4799227714538574,-0.23824453353881836,0.4326667785644531
1683935646301697800,1.05869775390625,-0.432664155960083,-0.25426340103149414,0.3141970634460449
1683935646311739000,1.06873876953125,-0.27945685386657715,-0.29670143127441406,0.19780206680297852
1683935646321779700,1.07877978515625,-0.039586544036865234,-0.3911314010620117,0.021531105041503906
1683935646331820800,1.08882080078125,0.01697254180908203,-0.49475526809692383,0.006893634796142578
1683935646341862000,1.09886181640625,-0.015320777893066406,-0.35179901123046875,-0.23329591751098633
1683935646351902700,1.10890283203125,-0.08103179931640625,-0.3051595687866211,-0.11887788772583008
1683935646361943800,1.11894384765625,-0.21151113510131836,-0.24074363708496094,0.17398738861083984
1683935646371985000,1.12898486328125,-0.06781148910522461,-0.1875929832458496,0.27750396728515625
1683935646382026000,1.13902587890625,0.16210460662841797,-0.22981691360473633,0.4147477149963379
1683935646392066800,1.14906689453125,0.22789478302001953,-0.18072938919067383,0.2325739860534668
1683935646402108000,1.15910791015625,0.11516809463500977,-0.07348489761352539,0.1471385955810547
1683935646412149000,1.16914892578125,0.04179811477661133,0.032652854919433594,0.029385089874267578
1683935646422189800,1.17918994140625,0.04819822311401367,0.09769344329833984,-0.09952068328857422
1683935646432231000,1.18923095703125,0.062252044677734375,0.1829538345336914,-0.14310312271118164
1683935646442272000,1.19927197265625,0.13520574569702148,0.22292804718017578,-0.21406316757202148
1683935646452313000,1.20931298828125,0.14715194702148438,0.39576005935668945,-0.2345743179321289
1683935646462354000,1.21935400390625,0.2164912223815918,0.5526309013366699,-0.29285430908203125
1683935646472395000,1.22939501953125,0.1420421600341797,1.186159372329712,-1.0528063774108887
1683935646482436000,1.23943603515625,-0.2972900867462158,1.234696865081787,-0.9032807350158691
1683935646492477200,1.249477294921875,0.1230466365814209,1.2726726531982422,-0.5178160667419434
1683935646502518000,1.25951806640625,0.4115777015686035,1.5713551044464111,-0.5771522521972656
1683935646512559000,1.26955908203125,0.41777610778808594,1.750854730606079,-0.8483052253723145
1683935646522600200,1.27960009765625,0.4582326412200928,1.7835233211517334,-1.0918264389038086
1683935646532641000,1.28964111328125,0.738985538482666,1.9042487144470215,-1.1750283241271973
1683935646542682000,1.29968212890625,1.0297377109527588,2.0586624145507812,-0.9918432235717773
1683935646552723200,1.30972314453125,1.074247121810913,2.153306007385254,-0.888399600982666
1683935646562764300,1.319764404296875,0.44277334213256836,2.194550037384033,-0.908473014831543
1683935646572805400,1.329805419921875,-0.34175562858581543,2.125797986984253,-0.898106575012207
1683935646582846200,1.33984619140625,-0.5341367721557617,1.9194846153259277,-0.8613348007202148
1683935646592887300,1.34988720703125,0.4644174575805664,1.8934245109558105,-1.191279411315918
1683935646602928400,1.359928466796875,0.3517191410064697,0.9537696838378906,-2.603282928466797
1683935646612969200,1.36996923828125,-0.6064733266830444,0.16127681732177734,-1.7929210662841797
1683935646623010300,1.38001025390625,-0.5903571844100952,0.1735215187072754,-1.1589241027832031
1683935646633051400,1.390051513671875,0.15586137771606445,-0.12828397750854492,-0.597015380859375
1683935646643092200,1.40009228515625,0.7308700084686279,-0.7967853546142578,0.3871488571166992
1683935646653133300,1.41013330078125,1.7907124757766724,-1.069270133972168,1.515641212463379
1683935646663174400,1.42017431640625,2.3786544799804688,-0.8754415512084961,2.6177597045898438
1683935646673215500,1.430215576171875,2.1500558853149414,-0.6062531471252441,3.229114532470703
1683935646683256600,1.440256591796875,1.1728466749191284,-0.7013444900512695,3.353109359741211
1683935646693297400,1.45029736328125,0.3086443543434143,-1.1477651596069336,3.277279853820801
1683935646703338500,1.46033837890625,-0.6777443885803223,-2.318016529083252,2.7142333984375
1683935646713379600,1.470379638671875,-1.418853998184204,-1.4527177810668945,1.0184049606323242
1683935646723420400,1.48042041015625,-1.1944003105163574,-2.029768943786621,1.922135353088379
1683935646733461500,1.49046142578125,0.3226079046726227,-3.327381134033203,1.1582984924316406
1683935646743502600,1.500502685546875,0.32056117057800293,-2.9257922172546387,1.3762664794921875
1683935646753543700,1.510543701171875,0.08998128771781921,-1.935211181640625,0.19435501098632812
1683935646763584500,1.52058447265625,-0.7957847118377686,-1.3588266372680664,-0.8551630973815918
1683935646773625600,1.53062548828125,-1.3084156513214111,-1.361083984375,-1.4047222137451172
1683935646783666700,1.540666748046875,-0.8871254920959473,-1.272073745727539,-0.7705273628234863
1683935646793707800,1.550707763671875,0.023115940392017365,-1.1389713287353516,0.5915765762329102
1683935646803748600,1.56074853515625,0.030988849699497223,-1.9815125465393066,1.4021711349487305
1683935646813789700,1.570789794921875,-1.033515214920044,-2.214315891265869,0.9630489349365234
1683935646823830800,1.580830810546875,-1.2920030355453491,-1.7651705741882324,0.9734077453613281
1683935646833871600,1.59087158203125,-0.746022641658783,-0.8825082778930664,1.0313072204589844
1683935646843912700,1.60091259765625,-0.3567575216293335,-0.5292849540710449,1.455911636352539
1683935646853953800,1.610953857421875,-0.27740004658699036,-0.42974853515625,1.3243093490600586
1683935646863995000,1.620994873046875,0.22985056042671204,-0.5971250534057617,1.327042579650879
1683935646874035700,1.63103564453125,0.3896060883998871,-0.8903851509094238,1.5125007629394531
1683935646884076800,1.641076904296875,0.5925636887550354,-1.2387290000915527,1.4020957946777344
1683935646894118000,1.651117919921875,0.5960121154785156,-1.4186296463012695,1.1856679916381836
1683935646904159000,1.661158935546875,0.6014482378959656,-1.0759210586547852,1.1444978713989258
1683935646914199800,1.67119970703125,0.2895369231700897,-0.49496936798095703,0.744044303894043
1683935646924241000,1.681240966796875,0.30773982405662537,0.09935331344604492,0.8448505401611328
1683935646934282000,1.691281982421875,0.017589300870895386,0.5035333633422852,0.810521125793457
1683935646944322800,1.70132275390625,-0.10641004145145416,1.1131305694580078,0.3408355712890625
1683935646954364000,1.711364013671875,-0.19918610155582428,1.2725622653961182,-0.41582393646240234
1683935646964405000,1.721405029296875,-0.8500757217407227,1.6826987266540527,-2.4638266563415527
1683935646974446000,1.731446044921875,-0.8975270390510559,2.0439348220825195,-3.7263684272766113
1683935646984487000,1.74148681640625,-0.5052894353866577,2.1466994285583496,-4.16724967956543
1683935646994528000,1.751528076171875,-0.11823543161153793,2.491211414337158,-4.031099796295166
1683935647004569000,1.761569091796875,0.12361415475606918,2.7663137912750244,-3.6981382369995117
1683935647014610200,1.771610107421875,0.36750638484954834,2.5391972064971924,-1.5959138870239258
1683935647024651000,1.781651123046875,0.4887833893299103,2.582887649536133,-0.40338134765625
1683935647034692000,1.791692138671875,0.1667025089263916,2.5965030193328857,-0.4291706085205078
1683935647044733200,1.801733154296875,0.11383096873760223,2.347119092941284,-0.4950084686279297
1683935647054774300,1.811774169921875,0.09523873776197433,1.8835034370422363,-0.5783801078796387
1683935647064815000,1.821815185546875,0.3869713246822357,1.497077465057373,-0.9881963729858398
1683935647074856200,1.831856201171875,0.4218273460865021,0.9978857040405273,-1.4924039840698242
1683935647084897300,1.841897216796875,-0.2526911199092865,0.31353044509887695,-2.4003190994262695
1683935647094938000,1.851938232421875,-0.024982929229736328,0.980597972869873,-3.126081943511963
1683935647104979200,1.861979248046875,-0.5255571603775024,1.43558669090271,-2.6881046295166016
1683935647115020300,1.872020263671875,-0.8440601825714111,0.9827609062194824,-1.814788818359375
1683935647125061400,1.882061279296875,-0.3695929944515228,0.18172073364257812,-0.6594209671020508
1683935647135102200,1.892102294921875,0.2507595717906952,-0.6973452568054199,1.0336904525756836
1683935647145143300,1.902143310546875,0.288739949464798,-1.3109021186828613,3.4461469650268555
1683935647155184400,1.912184326171875,-0.05075281858444214,-1.061594009399414,3.5496463775634766
1683935647165225500,1.9222255859375,-0.6347010135650635,-0.7744350433349609,3.3737568855285645
1683935647175266300,1.932266357421875,-0.35404396057128906,-0.8631496429443359,2.5513248443603516
1683935647185307400,1.942307373046875,-0.26999378204345703,-1.091935634613037,1.8066353797912598
1683935647195348500,1.952348388671875,0.08061641454696655,-1.0871453285217285,0.8610687255859375
1683935647205389300,1.962389404296875,0.22021159529685974,-1.0010013580322266,0.46225690841674805
1683935647215430400,1.972430419921875,-0.24260663986206055,-0.7292227745056152,0.5095176696777344
1683935647225471500,1.982471435546875,-0.14380967617034912,-0.3599686622619629,0.1450638771057129
1683935647235512600,1.9925126953125,0.6120015382766724,0.14517641067504883,-0.42307329177856445
1683935647245553400,2.002553466796875,0.9293047785758972,0.3017711639404297,-0.7938671112060547
1683935647255594500,2.012594482421875,0.5933741331100464,-0.5348334312438965,0.3370656967163086
1683935647265635600,2.022635498046875,0.5024152398109436,-1.0104317665100098,1.0929622650146484
1683935647275676700,2.0326767578125,0.4208263158798218,-0.7383618354797363,0.22196006774902344
1683935647285717500,2.042717529296875,-0.1868894100189209,-1.1430883407592773,-0.4642477035522461
1683935647295758600,2.052758544921875,-0.7154097557067871,-1.0012617111206055,-0.703094482421875
1683935647305799700,2.062799560546875,-0.8234286308288574,-0.9410319328308105,-0.8634772300720215
1683935647315840800,2.0728408203125,-0.535223126411438,-0.7059650421142578,-1.0107612609863281
1683935647325881600,2.082881591796875,-0.5146569013595581,-0.5513834953308105,-0.6562409400939941
1683935647335922700,2.092922607421875,-0.5393329858779907,-0.38535261154174805,-0.1737985610961914
1683935647345963800,2.1029638671875,-0.4309229850769043,0.09592008590698242,0.41861915588378906
1683935647356004900,2.1130048828125,-0.03890872001647949,0.6441593170166016,0.9947314262390137
1683935647366045700,2.123045654296875,0.8743096590042114,1.0330171585083008,1.3550620079040527
1683935647376086800,2.133086669921875,1.7544012069702148,1.1975822448730469,1.824735164642334
1683935647386128000,2.1431279296875,1.9381983280181885,1.15936279296875,2.271108627319336
1683935647396168700,2.153168701171875,1.6687043905258179,0.997441291809082,2.2070212364196777
1683935647406209800,2.163209716796875,1.3578276634216309,1.017531394958496,2.006960391998291
1683935647416251000,2.1732509765625,0.9862127304077148,1.2723431587219238,1.5550146102905273
1683935647426292000,2.1832919921875,0.3567192554473877,1.5209064483642578,0.7239012718200684
1683935647436332800,2.193332763671875,-0.6207172870635986,0.9629430770874023,0.10253381729125977
1683935647446374000,2.203373779296875,-1.2639713287353516,0.22096586227416992,-0.043100833892822266
1683935647456415000,2.2134150390625,-1.2063809633255005,0.24328851699829102,-0.04474306106567383
1683935647466456000,2.2234560546875,-1.1376721858978271,-0.055072784423828125,0.21052265167236328
1683935647476497000,2.233496826171875,-0.8032442331314087,-0.7360410690307617,0.8961625099182129
1683935647486538000,2.2435380859375,-0.4251309633255005,-1.0293145179748535,1.869248867034912
1683935647496579000,2.2535791015625,0.44299548864364624,-1.4204373359680176,3.775796890258789
1683935647506620200,2.2636201171875,0.8489974737167358,-0.42136335372924805,3.026397228240967
1683935647516661000,2.273660888671875,0.41593801975250244,-0.5477566719055176,1.5386996269226074
1683935647526702000,2.2837021484375,0.2753734588623047,-0.3774433135986328,-0.06174659729003906
1683935647536743200,2.2937431640625,-0.29259192943573,-1.6734800338745117,-1.2254605293273926
1683935647546784000,2.303783935546875,-0.4717090129852295,-3.074690341949463,-1.364408016204834
1683935647556825000,2.3138251953125,0.13932037353515625,-3.4850597381591797,-1.0869355201721191
1683935647566866200,2.3238662109375,0.9650608897209167,-1.83540678024292,-1.4651203155517578
1683935647576907300,2.3339072265625,0.8886904716491699,-1.0561046600341797,-1.974494457244873
1683935647586948000,2.343947998046875,0.3356301784515381,-1.1721034049987793,-2.398787498474121
1683935647596989200,2.3539892578125,-0.13425564765930176,-0.9747371673583984,-2.4261298179626465
1683935647607030300,2.3640302734375,-0.48875856399536133,-0.5835700035095215,-2.186265468597412
1683935647617071400,2.3740712890625,-0.8418508768081665,-0.34063100814819336,-2.207277774810791
1683935647627112200,2.3841123046875,-1.161628007888794,-0.31438589096069336,-1.929938793182373
1683935647637153300,2.3941533203125,-1.2347999811172485,-0.43808937072753906,-1.492563247680664
1683935647647194400,2.4041943359375,-1.0491894483566284,-0.5746846199035645,-1.3358945846557617
1683935647657235200,2.414235107421875,-0.6287071704864502,-0.6710991859436035,-1.000624656677246
1683935647667276300,2.4242763671875,-0.07501077651977539,-0.8064608573913574,-0.4717564582824707
1683935647677317400,2.4343173828125,0.35301291942596436,-0.8814334869384766,-0.02072000503540039
1683935647687358500,2.4443583984375,0.5728679895401001,-0.7949919700622559,0.3032855987548828
1683935647697399600,2.454399658203125,0.5694500207901001,-0.8530211448669434,0.40967369079589844
1683935647707440400,2.4644404296875,0.36041557788848877,-0.7154350280761719,0.5727667808532715
1683935647717481500,2.4744814453125,0.02595674991607666,-0.5661730766296387,0.5862269401550293
1683935647727522600,2.4845224609375,-0.30040431022644043,-0.5225229263305664,0.13368892669677734
1683935647737563400,2.4945634765625,-0.4399672746658325,0.5905966758728027,0.1576404571533203
1683935647747604500,2.5046044921875,-0.6165592670440674,0.18727684020996094,0.20531749725341797
1683935647757645600,2.5146455078125,-0.6106510162353516,-0.20394039154052734,0.14568281173706055
1683935647767686700,2.524686767578125,-0.2488551139831543,-0.017231464385986328,0.17486572265625
1683935647777727500,2.5347275390625,0.303142786026001,0.3371577262878418,0.03684520721435547
1683935647787768600,2.5447685546875,0.4302119016647339,0.44123077392578125,-0.2927255630493164
1683935647797809700,2.5548095703125,0.5906053781509399,0.6888480186462402,0.2062702178955078
1683935647807850800,2.564850830078125,0.6451293230056763,0.8631753921508789,0.26073217391967773
1683935647817891600,2.5748916015625,0.7396726608276367,0.8703522682189941,0.3012819290161133
1683935647827932700,2.5849326171875,0.7544488906860352,0.7389087677001953,0.39867544174194336
1683935647837973800,2.594973876953125,0.6059180498123169,0.7743105888366699,0.5794129371643066
1683935647848014800,2.605014892578125,0.5125325918197632,0.8720569610595703,0.550541877746582
1683935647858055700,2.6150556640625,0.4111166000366211,0.9525003433227539,0.31814002990722656
1683935647868096800,2.6250966796875,0.22372543811798096,0.6817970275878906,0.2374415397644043
1683935647878137900,2.635137939453125,0.06908488273620605,0.39035940170288086,0.11258840560913086
1683935647888178700,2.6451787109375,-0.08752012252807617,-0.015423297882080078,-0.01374197006225586
1683935647898219800,2.6552197265625,-0.14808225631713867,-0.4045448303222656,-0.13195466995239258
1683935647908260900,2.6652607421875,0.013494372367858887,-0.48651742935180664,-0.23058509826660156
1683935647918302000,2.675302001953125,0.15425264835357666,-0.4511284828186035,-0.3585987091064453
1683935647928342800,2.6853427734375,0.39781296253204346,-0.6635713577270508,-0.5462875366210938
1683935647938384000,2.6953837890625,0.6227380037307739,-1.146085262298584,-0.6660494804382324
1683935647948425000,2.705425048828125,1.0376949310302734,-1.4398093223571777,-0.7013125419616699
1683935647958466000,2.715466064453125,1.5554165840148926,-0.9722070693969727,-1.0378413200378418
1683935647968507000,2.7255068359375,1.3936728239059448,-0.9275245666503906,-1.3615727424621582
1683935647978548000,2.7355478515625,0.7315330505371094,-0.8424339294433594,-1.6392922401428223
1683935647988589000,2.745589111328125,-0.03855907917022705,-0.686337947845459,-1.988907814025879
1683935647998630100,2.755630126953125,-1.1352732181549072,-0.7860527038574219,-2.2000584602355957
1683935648008671000,2.7656708984375,-2.1936697959899902,-0.8963456153869629,-2.2485618591308594
1683935648018712000,2.775712158203125,-2.8553614616394043,-0.8184723854064941,-1.8378386497497559
1683935648028753200,2.785753173828125,-2.8591232299804688,-0.48683691024780273,-1.1787352561950684
1683935648038794200,2.795794189453125,-2.384160280227661,-0.16884660720825195,-0.5597848892211914
1683935648048835000,2.8058349609375,-1.5550272464752197,-0.25677013397216797,-0.3128209114074707
1683935648058876200,2.815876220703125,-0.7583835124969482,-0.23134565353393555,-0.12385129928588867
1683935648068917200,2.825917236328125,-0.15611982345581055,0.1019296646118164,0.09713506698608398
1683935648078958000,2.8359580078125,0.14158284664154053,-0.19282150268554688,0.7503738403320312
1683935648088999200,2.845999267578125,0.17780184745788574,0.1905193328857422,0.9243021011352539
1683935648099040300,2.856040283203125,0.084663987159729,0.5186600685119629,0.9967617988586426
1683935648109081300,2.866081298828125,-0.14123845100402832,0.6462888717651367,0.8795309066772461
1683935648119122200,2.8761220703125,-0.3349609375,0.6644706726074219,0.6818819046020508
1683935648129163300,2.886163330078125,-0.22765517234802246,0.6883969306945801,0.6658730506896973
1683935648139204400,2.896204345703125,0.25556719303131104,0.8527684211730957,0.8856487274169922
1683935648149245400,2.906245361328125,0.7563833594322205,0.757622241973877,0.7298932075500488
1683935648159286300,2.916286376953125,0.9348832368850708,0.5889606475830078,0.6130342483520508
1683935648169327400,2.926327392578125,0.48764753341674805,0.4311971664428711,0.15633344650268555
1683935648179368400,2.936368408203125,-0.07658553123474121,0.34003639221191406,-0.5948100090026855
1683935648189409500,2.946409423828125,-0.48518383502960205,0.5145411491394043,-1.1753802299499512
1683935648199450400,2.956450439453125,-0.9246619939804077,0.44322633743286133,-1.5422439575195312
1683935648209491500,2.966491455078125,-1.1235352754592896,0.6443290710449219,-1.0178403854370117
1683935648219532500,2.976532470703125,-1.0382846593856812,0.6559724807739258,-0.492093563079834
1683935648229573400,2.986573486328125,-0.8996096849441528,0.6149821281433105,-0.4936552047729492
1683935648239614500,2.996614501953125,-0.9422059059143066,0.2599215507507324,-0.5737600326538086
1683935648249655600,3.006655517578125,-0.7921438217163086,-0.6571822166442871,-0.2929549217224121
1683935648259696600,3.016696533203125,-0.32222259044647217,-0.8987307548522949,0.38062572479248047
1683935648269737700,3.02673779296875,0.5060691833496094,-0.7524099349975586,1.0586681365966797
1683935648279778600,3.036778564453125,1.1444108486175537,-0.48773956298828125,0.9275140762329102
1683935648289819600,3.046819580078125,0.8581164479255676,0.1681361198425293,0.1512908935546875
1683935648299860700,3.05686083984375,0.03684377670288086,0.25785160064697266,-0.18556880950927734
1683935648309901600,3.066901611328125,-0.6847784519195557,0.027318477630615234,-0.498410701751709
1683935648319942700,3.076942626953125,-1.0055558681488037,0.0717926025390625,-0.538905143737793
1683935648329983700,3.086983642578125,-1.092323899269104,0.025211334228515625,-0.33448219299316406
1683935648340024800,3.09702490234375,-1.0205968618392944,0.009025096893310547,-0.2929048538208008
1683935648350065700,3.107065673828125,-0.7136380672454834,-0.28525447845458984,-0.06070709228515625
1683935648360106800,3.117106689453125,-0.25164008140563965,-0.009280681610107422,0.07648372650146484
1683935648370147800,3.12714794921875,0.39328646659851074,0.6034855842590332,0.05821943283081055
1683935648380189000,3.13718896484375,0.2747434377670288,0.6211438179016113,-0.14394712448120117
1683935648390229800,3.147229736328125,-0.08420097827911377,0.5218286514282227,-0.17926597595214844
1683935648400270800,3.157270751953125,-0.05124831199645996,0.6773848533630371,-0.3636503219604492
1683935648410312000,3.16731201171875,0.005734086036682129,1.2716422080993652,-0.681765079498291
1683935648420353000,3.17735302734375,-0.10851728916168213,0.7340402603149414,-0.5923256874084473
1683935648430393900,3.187393798828125,0.02521955966949463,0.025509357452392578,-0.40409231185913086
1683935648440435000,3.19743505859375,-0.0725245475769043,-0.034637451171875,-0.07092618942260742
1683935648450476000,3.20747607421875,-0.17062044143676758,-0.10567617416381836,0.10719966888427734
1683935648460516900,3.217516845703125,-0.18957507610321045,0.025455951690673828,-0.028599262237548828
1683935648470558000,3.227557861328125,-0.24355745315551758,0.034427642822265625,-0.32558679580688477
1683935648480599000,3.23759912109375,-0.5869097709655762,-0.5912337303161621,-0.6872153282165527
1683935648490640100,3.24764013671875,-0.9021801948547363,-1.1369476318359375,-0.9859519004821777
1683935648500681200,3.25768115234375,-1.169780969619751,-1.541236400604248,-1.13560152053833
1683935648510722000,3.26772216796875,-1.5246012210845947,-0.7230429649353027,-1.3367958068847656
1683935648520763100,3.27776318359375,-1.099577784538269,-0.008006095886230469,-0.6888871192932129
1683935648530804200,3.28780419921875,-0.49734294414520264,0.08220624923706055,-0.1225738525390625
1683935648540845000,3.297844970703125,-0.17745983600616455,0.10416412353515625,-0.008000373840332031
1683935648550886100,3.30788623046875,-0.19543039798736572,0.0806889533996582,0.05148506164550781
1683935648560927200,3.31792724609375,-0.4302176237106323,0.17690563201904297,0.03173017501831055
1683935648570968300,3.32796826171875,0.1865987777709961,0.7611041069030762,0.9290528297424316
1683935648581009200,3.338009033203125,0.012700080871582031,0.16513824462890625,0.8841695785522461
1683935648591050200,3.34805029296875,-0.9874521493911743,-0.1083974838256836,0.13141918182373047
1683935648601091300,3.35809130859375,-2.0361998081207275,-0.7167763710021973,-0.0764322280883789
1683935648611132400,3.36813232421875,-2.5912423133850098,-1.9987974166870117,0.0796656608581543
1683935648621173200,3.37817333984375,-1.6704432964324951,-1.183621883392334,-0.12507963180541992
1683935648631214300,3.38821435546875,-0.29070520401000977,0.12241554260253906,-0.18835735321044922
1683935648641255400,3.39825537109375,0.2543785572052002,0.468050479888916,0.10500621795654297
1683935648651296500,3.408296630859375,0.6144523620605469,0.7209076881408691,0.32164430618286133
1683935648661337300,3.41833740234375,0.175057053565979,-0.0377655029296875,0.4323849678039551
1683935648671378400,3.42837841796875,0.44116318225860596,-0.5918216705322266,0.6310391426086426
1683935648681419500,3.43841943359375,0.8151509761810303,-0.7313284873962402,0.6340665817260742
1683935648691460400,3.44846044921875,1.0855238437652588,-0.8439579010009766,0.7490220069885254
1683935648701501400,3.45850146484375,0.9758024215698242,-0.7441525459289551,0.8535199165344238
1683935648711542500,3.46854248046875,0.36736440658569336,-0.0037932395935058594,1.6397981643676758
1683935648721583600,3.47858349609375,-0.17951369285583496,0.030100345611572266,0.6550540924072266
1683935648731624700,3.488624755859375,-0.18723905086517334,0.3275008201599121,-0.06513357162475586
1683935648741665500,3.49866552734375,-0.12255454063415527,0.308840274810791,-0.42527341842651367
1683935648751706600,3.50870654296875,0.04126250743865967,0.2789473533630371,-0.7500834465026855
1683935648761747700,3.518747802734375,0.4732401371002197,0.1272716522216797,-0.9211201667785645
1683935648771788500,3.52878857421875,0.7259461879730225,-0.15407466888427734,-1.1149115562438965
1683935648781829600,3.53882958984375,0.7919158935546875,-0.542236328125,-1.07957124710083
1683935648791870700,3.54887060546875,0.9196670651435852,-0.6357436180114746,-0.7574810981750488
1683935648801911800,3.558911865234375,0.883945882320404,-0.5787291526794434,-0.5711255073547363
1683935648811952600,3.56895263671875,0.6167482137680054,-0.6508932113647461,-0.7018346786499023
1683935648821993700,3.57899365234375,0.706383466720581,-0.6720318794250488,-0.31316709518432617
1683935648832034800,3.589034912109375,0.6856411695480347,-0.676793098449707,0.42519712448120117
1683935648842076000,3.599075927734375,0.5662961006164551,-0.49591064453125,0.6630420684814453
1683935648852116700,3.60911669921875,0.2937040328979492,-0.43810415267944336,0.49956274032592773
1683935648862157800,3.61915771484375,0.014615297317504883,-0.1459822654724121,0.1747303009033203
1683935648872199000,3.629198974609375,0.01871788501739502,0.07579231262207031,-0.10351943969726562
1683935648882240000,3.639239990234375,0.25616806745529175,0.05630016326904297,-0.05466270446777344
1683935648892280800,3.64928076171875,0.4222434163093567,-0.020152568817138672,-0.028232574462890625
1683935648902322000,3.659322021484375,0.43486738204956055,-0.043279170989990234,0.04508352279663086
1683935648912363000,3.669363037109375,0.3468506932258606,-0.09008598327636719,0.37396860122680664
1683935648922403800,3.67940380859375,0.4690309762954712,-0.15463542938232422,0.6187982559204102
1683935648932445000,3.68944482421875,0.5895261764526367,-0.14098644256591797,0.6912245750427246
1683935648942486000,3.699486083984375,0.6105688810348511,-0.058379173278808594,0.4329795837402344
1683935648952527000,3.709527099609375,0.6010346412658691,0.02719402313232422,-0.03355693817138672
1683935648962568000,3.71956787109375,0.47915035486221313,-0.09773731231689453,-0.15401554107666016
1683935648972609000,3.729609130859375,0.4460894465446472,0.09161710739135742,-0.5384941101074219
1683935648982650000,3.739650146484375,0.47940772771835327,0.0044879913330078125,-1.0149431228637695
1683935648992691200,3.749691162109375,0.6629523038864136,-0.24941015243530273,-1.028439998626709
1683935649002732000,3.75973193359375,0.9874459505081177,-0.355837345123291,-0.45768213272094727
1683935649012773000,3.769773193359375,1.242761254310608,-0.3407888412475586,-0.2611703872680664
1683935649022814200,3.779814208984375,1.3955965042114258,-0.4751014709472656,-0.5035610198974609
1683935649032855300,3.789855224609375,1.3145036697387695,-0.4590597152709961,-0.4137587547302246
1683935649042896100,3.799896240234375,1.1208653450012207,-0.3043403625488281,-0.4641733169555664
1683935649052937200,3.809937255859375,0.9716622829437256,-0.20880651473999023,-0.5917339324951172
1683935649062978300,3.819978271484375,0.9198329448699951,-0.31011056900024414,-0.5928974151611328
1683935649073019400,3.830019287109375,1.0592656135559082,-0.37736988067626953,-0.44057798385620117
1683935649083060200,3.840060302734375,1.2090001106262207,-0.4023566246032715,-0.3753395080566406
1683935649093101300,3.850101318359375,1.402604103088379,-0.3961777687072754,-0.5326886177062988
1683935649103142400,3.860142333984375,1.1884207725524902,-0.5576896667480469,-0.11713981628417969
1683935649113183500,3.87018359375,1.068095088005066,-0.4752364158630371,-0.14638710021972656
1683935649123224300,3.880224365234375,1.0925170183181763,-0.2743401527404785,-0.4456939697265625
1683935649133265400,3.890265380859375,0.9888890385627747,-0.3022613525390625,-0.5089302062988281
1683935649143306500,3.900306396484375,1.1238110065460205,0.21482563018798828,-0.5616750717163086
1683935649153347300,3.910347412109375,1.0101954936981201,-0.015555381774902344,0.38350963592529297
1683935649163388400,3.920388427734375,0.8620656728744507,0.025856971740722656,0.6076564788818359
1683935649173429500,3.930429443359375,0.7876238822937012,0.05728721618652344,0.7530608177185059
1683935649183470600,3.940470703125,0.6663141250610352,0.08736085891723633,0.5315804481506348
1683935649193511700,3.95051171875,0.7084373235702515,0.12284517288208008,0.14832639694213867
1683935649203552500,3.960552490234375,0.7522710561752319,0.006970405578613281,-0.20676708221435547
1683935649213593600,3.970593505859375,0.8358626365661621,-0.055240631103515625,-0.369448184967041
1683935649223634700,3.980634765625,0.9788714051246643,-0.10136699676513672,-0.42989349365234375
1683935649233675500,3.990675537109375,0.8887577056884766,-0.15518856048583984,-0.6626467704772949
1683935649243716600,4.000716552734375,0.7679630517959595,-0.3835000991821289,-0.7233343124389648
1683935649253757700,4.0107578125,0.5236245393753052,-0.3801693916320801,-0.9495248794555664
1683935649263798800,4.020798828125,0.2610388398170471,-0.31998538970947266,-0.855804443359375
1683935649273839600,4.030839599609375,-0.1828984022140503,-0.5761566162109375,-0.4676551818847656
1683935649283880700,4.040880615234375,0.42350655794143677,0.24923086166381836,-0.15103673934936523
1683935649293921800,4.050921875,0.6656567454338074,0.42562103271484375,0.21934032440185547
1683935649303963000,4.060962890625,0.7299826741218567,0.3968849182128906,0.3143329620361328
1683935649314003700,4.071003662109375,0.47332847118377686,0.2966728210449219,0.16832399368286133
1683935649324044800,4.081044921875,0.35769450664520264,0.09708118438720703,0.40369367599487305
1683935649334086000,4.0910859375,0.23678851127624512,-0.14322185516357422,0.21996116638183594
1683935649344127000,4.101126953125,0.2511836290359497,-0.218841552734375,-0.06207418441772461
1683935649354167800,4.111167724609375,0.34846675395965576,-0.01627206802368164,0.1306447982788086
1683935649364209000,4.121208984375,0.10950073599815369,-0.23090696334838867,0.34580278396606445
1683935649374250000,4.13125,0.12811756134033203,-0.05366325378417969,0.36179113388061523
1683935649384290800,4.141290771484375,-0.0750654935836792,-0.1578989028930664,0.34732818603515625
1683935649394332000,4.151331787109375,-0.13176238536834717,-0.13804244995117188,0.20844364166259766
1683935649404373000,4.161373046875,0.06727412343025208,-0.013041496276855469,0.17517805099487305
1683935649414414000,4.1714140625,0.20997583866119385,-0.1390824317932129,0.11568069458007812
1683935649424455200,4.181455078125,0.19711223244667053,-0.1783127784729004,-0.08639955520629883
1683935649434496000,4.19149609375,0.12304791808128357,-0.01717519760131836,-0.3051295280456543
1683935649444537000,4.201537109375,0.03478384017944336,-0.013705253601074219,-0.34265756607055664
1683935649454578200,4.211578125,0.0125388503074646,-0.10024738311767578,-0.3490471839904785
1683935649464619000,4.221618896484375,0.009770840406417847,0.04644632339477539,-0.4928927421569824
1683935649474660000,4.23166015625,-0.05974847078323364,-0.054822444915771484,-0.4536557197570801
1683935649484701200,4.241701171875,0.07747092843055725,0.13823270797729492,-0.3602328300476074
1683935649494742300,4.2517421875,0.2722587287425995,0.14096784591674805,-0.13059139251708984
1683935649504783400,4.261783447265625,0.29333218932151794,0.1444687843322754,0.0939321517944336
1683935649514824200,4.27182421875,0.24495163559913635,0.035674095153808594,0.31807518005371094
1683935649524865300,4.281865234375,-0.09144967794418335,-0.5479617118835449,0.27829408645629883
1683935649534906400,4.29190625,0.3272954225540161,0.14955759048461914,-0.11849737167358398
1683935649544947200,4.301947265625,0.3285866677761078,0.430328369140625,-0.1715536117553711
1683935649554988300,4.31198828125,0.29422444105148315,0.6275396347045898,-0.504584789276123
1683935649565029400,4.322029296875,0.40603992342948914,1.030111312866211,-0.7987079620361328
1683935649575070500,4.332070556640625,0.2796037197113037,0.36080503463745117,-0.5532054901123047
1683935649585111300,4.342111328125,0.35764583945274353,0.2475299835205078,-0.4633827209472656
1683935649595152400,4.35215234375,0.7079006433486938,0.038620948791503906,0.05177116394042969
1683935649605193500,4.362193359375,0.7514863014221191,0.033711910247802734,0.327547550201416
1683935649615234300,4.372234375,0.3963891863822937,0.03148651123046875,0.3305215835571289
1683935649625275400,4.382275390625,0.015839263796806335,0.13702726364135742,0.08589363098144531
1683935649635316500,4.39231640625,0.5877114534378052,0.6863040924072266,-0.20216608047485352
1683935649645357600,4.402357666015625,0.009945981204509735,-0.3445768356323242,0.07520103454589844
1683935649655398700,4.412398681640625,0.6259292960166931,0.46221160888671875,-0.6266775131225586
1683935649665439500,4.422439453125,0.67535400390625,0.3438730239868164,-0.41353654861450195
1683935649675480600,4.43248046875,0.10458456724882126,-0.02801036834716797,-0.5921502113342285
1683935649685521700,4.442521728515625,-0.07947389781475067,1.27972412109375,-0.8588113784790039
1683935649695562800,4.452562744140625,-0.404523640871048,0.746159553527832,-0.4174199104309082
1683935649705603600,4.462603515625,-0.13777022063732147,-0.16556167602539062,-0.5578022003173828
1683935649715644700,4.472644775390625,0.5466405153274536,-0.23777103424072266,-0.5023064613342285
1683935649725685800,4.482685791015625,1.059902310371399,-0.488677978515625,0.19276857376098633
1683935649735726800,4.492726806640625,1.268933653831482,-0.5075874328613281,1.0233778953552246
1683935649745767700,4.502767578125,1.397518277168274,-1.2645454406738281,2.440519332885742
1683935649755808800,4.512808837890625,1.6858733892440796,-1.745438575744629,3.489717483520508
1683935649765849900,4.522849853515625,1.7867292165756226,-1.393218994140625,4.466322422027588
1683935649775891000,4.532890869140625,0.9231862425804138,-0.9003124237060547,4.091838359832764
1683935649785931800,4.542931884765625,-0.1900082379579544,-0.4864645004272461,1.7051339149475098
1683935649795972900,4.552972900390625,-1.1173758506774902,-0.18572044372558594,-0.035056114196777344
1683935649806014000,4.563013916015625,-1.4564540386199951,0.2873830795288086,-1.1168692111968994
1683935649816054800,4.5730546875,-0.795415997505188,0.1347675323486328,-1.6502370834350586
1683935649826095900,4.583095947265625,-0.11937595903873444,-0.5100393295288086,-1.1887426376342773
1683935649836137000,4.593136962890625,0.9693010449409485,-0.5074586868286133,-0.34927940368652344
1683935649846178000,4.603177978515625,0.8031375408172607,-0.4851036071777344,0.602729320526123
1683935649856219000,4.613218994140625,0.290330171585083,-0.07248306274414062,1.0451765060424805
1683935649866260000,4.623260009765625,-0.05694645643234253,0.1246957778930664,1.0664019584655762
1683935649876301000,4.633301025390625,-0.3024425804615021,0.17910099029541016,0.7684712409973145
1683935649886342100,4.643342041015625,-0.13058193027973175,1.0951519012451172,0.4647178649902344
1683935649896383000,4.653383056640625,0.24478468298912048,0.16121482849121094,0.7652430534362793
1683935649906424000,4.663424072265625,0.6379439830780029,-0.7200689315795898,1.1390113830566406
1683935649916465200,4.673465087890625,0.5086462497711182,-0.4765892028808594,1.0362963676452637
1683935649926506200,4.68350634765625,-0.04332771897315979,-0.4596242904663086,0.47420549392700195
1683935649936547000,4.693547119140625,-0.43174052238464355,-0.2896556854248047,-0.053284645080566406
1683935649946588200,4.703588134765625,-0.526923418045044,-0.3434333801269531,-0.556086540222168
1683935649956629200,4.713629150390625,-0.3135242462158203,-1.0967235565185547,-1.347710371017456
1683935649966670300,4.72367041015625,-0.18083834648132324,-0.6893129348754883,-1.5061421394348145
1683935649976711200,4.733711181640625,-0.32327526807785034,-0.042145729064941406,-1.031033992767334
1683935649986752300,4.743752197265625,-0.5432472229003906,0.17540359497070312,-0.6162505149841309
1683935649996793300,4.75379345703125,-0.47100603580474854,0.3619699478149414,-0.3936481475830078
1683935650006834400,4.76383447265625,-0.2043420672416687,0.3886880874633789,-0.19149065017700195
1683935650016875300,4.773875244140625,0.15073660016059875,0.2245349884033203,-0.23296546936035156
1683935650026916400,4.783916259765625,0.324252188205719,0.21514129638671875,-0.2114567756652832
1683935650036957400,4.79395751953125,0.4675222635269165,0.1963663101196289,-0.05054140090942383
1683935650046998300,4.803998291015625,0.1806831657886505,0.3899660110473633,0.022018909454345703
1683935650057039400,4.814039306640625,0.18741190433502197,0.33414649963378906,-0.2356109619140625
1683935650067080400,4.82408056640625,0.5059991478919983,0.08918094635009766,-0.3332982063293457
1683935650077121500,4.83412158203125,0.9157098531723022,0.3822755813598633,-0.2747645378112793
1683935650087162600,4.84416259765625,0.48301711678504944,0.5507049560546875,0.28342723846435547
1683935650097203500,4.854203369140625,0.1387885957956314,0.6984953880310059,0.735133171081543
1683935650107244500,4.86424462890625,0.0957554280757904,0.9215965270996094,0.8693580627441406
1683935650117285600,4.87428564453125,-0.17418313026428223,-0.1596527099609375,0.6581225395202637
1683935650127326500,4.884326416015625,-0.045983459800481796,-0.08017635345458984,0.19007349014282227
1683935650137367600,4.894367431640625,0.4435931146144867,0.5927977561950684,-0.11566638946533203
1683935650147408600,4.90440869140625,1.4283671379089355,2.650317668914795,-0.5673799514770508
1683935650157449700,4.91444970703125,0.13732755184173584,0.5830268859863281,-1.0681018829345703
1683935650167490600,4.924490478515625,-0.7952134609222412,-0.4552631378173828,-1.0433592796325684
1683935650177531600,4.93453173828125,-0.6623157858848572,0.08565235137939453,-0.8639450073242188
1683935650187572700,4.94457275390625,-0.5627731084823608,-0.4644355773925781,-1.0933873653411865
1683935650197613800,4.95461376953125,-0.2743489742279053,-0.5399436950683594,-0.8987021446228027
1683935650207654700,4.964654541015625,-0.1425691545009613,0.32082271575927734,-0.7567000389099121
1683935650217695700,4.97469580078125,-0.37690919637680054,-0.5474109649658203,-0.11650800704956055
1683935650227736800,4.98473681640625,-0.28698381781578064,-0.4839925765991211,0.4616241455078125
1683935650237778000,4.99477783203125,-0.12413889169692993,-0.3953514099121094,1.06003999710083
1683935650247818800,5.00481884765625,0.17661552131175995,-0.18207454681396484,0.9940624237060547
1683935650257859800,5.01485986328125,0.31207650899887085,-0.29369354248046875,0.9015316963195801
1683935650267901000,5.02490087890625,0.3652437627315521,-0.2271862030029297,0.6182036399841309
1683935650277942000,5.03494189453125,0.558416485786438,0.0631570816040039,0.597261905670166
1683935650287982800,5.04498291015625,0.49542519450187683,-0.03443622589111328,0.4872760772705078
1683935650298024000,5.05502392578125,0.45480456948280334,0.027820587158203125,0.374392032623291
1683935650308065000,5.06506494140625,0.3062598705291748,-0.06879329681396484,0.46285057067871094
1683935650318106000,5.075106201171875,0.18635693192481995,-0.10770225524902344,0.4295988082885742
1683935650328147000,5.08514697265625,0.11271709203720093,-0.26664257049560547,0.6457920074462891
1683935650338188000,5.09518798828125,0.017473995685577393,-0.1408519744873047,0.6450166702270508
1683935650348229000,5.10522900390625,0.05497157573699951,0.25777435302734375,0.5609645843505859
1683935650358270200,5.115270263671875,-0.24283039569854736,0.016633033752441406,-0.051455020904541016
1683935650368311000,5.12531103515625,-0.5286340117454529,-0.35148143768310547,0.0400543212890625
1683935650378352000,5.13535205078125,-0.2315359115600586,-0.40504932403564453,0.3207368850708008
1683935650388393200,5.145393310546875,0.025269687175750732,-0.5537519454956055,0.31563854217529297
1683935650398434000,5.15543408203125,0.15516149997711182,-0.4155092239379883,0.40973472595214844
1683935650408475100,5.16547509765625,-0.11371034383773804,-0.4615936279296875,0.09578847885131836
1683935650418516200,5.17551611328125,-0.14470452070236206,-0.30922889709472656,-0.2975473403930664
1683935650428557300,5.185557373046875,-0.09756237268447876,-0.07203197479248047,-0.5237236022949219
1683935650438598400,5.195598388671875,-0.06609845161437988,-0.30710315704345703,-0.5727286338806152
1683935650448639200,5.20563916015625,-0.031040072441101074,-0.4246816635131836,-0.6986384391784668
1683935650458680300,5.215680419921875,0.21326380968093872,-0.20209598541259766,-0.33922290802001953
1683935650468721400,5.225721435546875,0.2146396040916443,-0.26648998260498047,-0.3138418197631836
1683935650478762200,5.23576220703125,0.07231205701828003,-0.09956645965576172,-0.1228327751159668
1683935650488803300,5.24580322265625,-0.13597482442855835,0.1890106201171875,-0.3000297546386719
1683935650498844400,5.255844482421875,-0.18632251024246216,0.6295285224914551,-0.6624660491943359
1683935650508885500,5.265885498046875,-0.05089437961578369,0.41448402404785156,-0.4554767608642578
1683935650518926300,5.27592626953125,0.011171102523803711,0.22041893005371094,-0.04468822479248047
1683935650528967400,5.285967529296875,-0.1384074091911316,0.15573692321777344,0.1095890998840332
1683935650539008500,5.296008544921875,-0.4556121826171875,-0.01713275909423828,0.34931039810180664
1683935650549049600,5.306049560546875,-0.47561484575271606,-0.30017566680908203,0.966529369354248
1683935650559090400,5.31609033203125,-0.1680234670639038,-0.07837104797363281,0.6612138748168945
1683935650569131500,5.326131591796875,0.03525286912918091,0.08388042449951172,0.049757957458496094
1683935650579172600,5.336172607421875,0.3073120713233948,0.1435680389404297,0.5998568534851074
1683935650589213700,5.346213623046875,0.21402686834335327,0.04578399658203125,-0.2657895088195801
1683935650599254500,5.356254638671875,0.5419908761978149,0.32517433166503906,0.3551301956176758
1683935650609295600,5.366295654296875,0.7043813467025757,0.3690776824951172,-0.06131553649902344
1683935650619336700,5.376336669921875,0.5384266376495361,0.5275764465332031,0.0749049186706543
1683935650629377800,5.386377685546875,-0.01373434066772461,-0.5507440567016602,-0.1829359531402588
1683935650639418600,5.396418701171875,0.29312437772750854,-1.236069679260254,0.25880908966064453
1683935650649459700,5.406459716796875,0.5173544883728027,-2.0951013565063477,-0.40909266471862793
1683935650659500800,5.416500732421875,0.5473740696907043,-1.4699888229370117,-0.016493558883666992
1683935650669542000,5.4265419921875,0.12834620475769043,-0.9601478576660156,0.08160614967346191
1683935650679582700,5.436582763671875,-0.7014459371566772,-0.6388044357299805,-0.40308237075805664
1683935650689623800,5.446623779296875,-1.2544723749160767,-0.3029155731201172,-0.7739620208740234
1683935650699665000,5.456664794921875,-1.288032054901123,-0.28469181060791016,-1.3127942085266113
1683935650709706000,5.4667060546875,-0.8897531032562256,-1.0119714736938477,-0.8993818759918213
1683935650719746800,5.476746826171875,-0.41597235202789307,0.009860992431640625,-0.7043213844299316
1683935650729788000,5.486787841796875,-0.022344231605529785,0.29853153228759766,-0.7797918319702148
1683935650739829000,5.4968291015625,0.24881374835968018,0.15297412872314453,-1.0134289264678955
1683935650749869800,5.506869873046875,0.21106421947479248,0.38315486907958984,-0.7721333503723145
1683935650759911000,5.516910888671875,0.15262460708618164,0.4135169982910156,-0.1009516716003418
1683935650769952000,5.526951904296875,0.09971129894256592,-0.1728191375732422,0.2900524139404297
1683935650779993000,5.5369931640625,0.17732834815979004,-0.4806098937988281,0.9597527980804443
1683935650790034200,5.5470341796875,0.02529740333557129,-0.48571205139160156,1.621830701828003
1683935650800075000,5.557074951171875,-0.27652907371520996,-0.8955068588256836,1.6433138847351074
1683935650810116000,5.5671162109375,-0.19054853916168213,-0.6009550094604492,0.9147782325744629
1683935650820157200,5.5771572265625,-0.053209781646728516,-0.4424772262573242,-0.03653311729431152
1683935650830198000,5.587197998046875,0.09467339515686035,-0.41269969940185547,-0.2979452610015869
1683935650840239000,5.597239013671875,0.7690385580062866,-0.29082489013671875,-0.3916943073272705
1683935650850280200,5.6072802734375,1.3612600564956665,-0.3116340637207031,-0.29013538360595703
1683935650860321300,5.6173212890625,1.6343268156051636,0.044983863830566406,-0.2173161506652832
1683935650870362400,5.6273623046875,1.648119568824768,0.3353261947631836,-0.4617440700531006
1683935650880403200,5.6374033203125,1.495162010192871,0.3940153121948242,-0.498105525970459
1683935650890444300,5.6474443359375,1.235974907875061,0.4460573196411133,-0.1060788631439209
1683935650900485400,5.6574853515625,0.4515610933303833,0.6770391464233398,-1.2209734916687012
1683935650910526200,5.667526123046875,-0.30766451358795166,0.4882059097290039,-1.9005358219146729
1683935650920567300,5.6775673828125,-0.9343987703323364,-0.2848234176635742,-2.242952823638916
1683935650930608400,5.6876083984375,-1.2794208526611328,-0.12102890014648438,-0.7199463844299316
1683935650940649500,5.6976494140625,-1.1469488143920898,-1.0601530075073242,4.497007369995117
1683935650950690300,5.707690185546875,0.7281637191772461,-1.0944404602050781,4.754024505615234
1683935650960731400,5.7177314453125,1.639575481414795,-1.2953567504882812,2.6125059127807617
1683935650970772500,5.7277724609375,1.9089672565460205,0.3352689743041992,-0.5435872077941895
1683935650980813600,5.7378134765625,0.9034448862075806,1.8142056465148926,-2.610764503479004
1683935650990854400,5.7478544921875,-0.5376546382904053,2.7776589393615723,-3.0208280086517334
1683935651000895500,5.7578955078125,-1.4054813385009766,2.2437548637390137,-2.0287632942199707
1683935651010936600,5.7679365234375,-1.6082780361175537,1.5477418899536133,-0.9287710189819336
1683935651020977700,5.777977783203125,-1.47572660446167,1.5001859664916992,-0.4364790916442871
1683935651031018500,5.7880185546875,-1.264657974243164,1.7040529251098633,-0.30873799324035645
1683935651041059600,5.7980595703125,-1.3406567573547363,1.8059730529785156,-0.5394539833068848
1683935651051100700,5.8081005859375,-1.392996072769165,1.502366065979004,-0.5455431938171387
1683935651061141800,5.818141845703125,-1.3025438785552979,1.1224279403686523,-0.29845094680786133
1683935651071182600,5.8281826171875,-1.3603882789611816,1.4417047500610352,-0.6743471622467041
1683935651081223700,5.8382236328125,-1.3580889701843262,1.4220190048217773,-0.6275019645690918
1683935651091264800,5.8482646484375,-1.2445709705352783,0.9799966812133789,-0.575169563293457
1683935651101305900,5.858305908203125,-0.9101111888885498,0.8457083702087402,-0.4847583770751953
1683935651111346700,5.8683466796875,-0.5691165924072266,0.5079135894775391,-0.5835480690002441
1683935651121387800,5.8783876953125,-0.30825328826904297,0.19539928436279297,-0.65622878074646
1683935651131428900,5.888428955078125,-0.5145125389099121,-0.5295562744140625,-1.043522834777832
1683935651141470000,5.898469970703125,-0.2838611602783203,-0.0676279067993164,-1.4484574794769287
1683935651151510800,5.9085107421875,-0.1040799617767334,-0.15202617645263672,-1.108119249343872
1683935651161552000,5.9185517578125,-0.14571285247802734,0.080047607421875,-1.2494785785675049
1683935651171593000,5.928593017578125,0.3149731159210205,0.7214145660400391,-1.0073513984680176
1683935651181633800,5.9386337890625,0.7279691696166992,1.2796449661254883,-1.014379858970642
1683935651191675000,5.9486748046875,0.6613321304321289,1.6099495887756348,-1.4139108657836914
1683935651201716000,5.958716064453125,0.6300258636474609,2.3067331314086914,-2.0530290603637695
1683935651211757000,5.968757080078125,0.1811199188232422,2.8207478523254395,-2.235713481903076
1683935651221798100,5.978798095703125,-0.19013094902038574,1.3078441619873047,-1.8305481672286987
1683935651231839000,5.9888388671875,-0.00936436653137207,0.8118677139282227,-1.9701566696166992
1683935651241880000,5.998880126953125,0.12406659126281738,1.125870704650879,-1.584657907485962
1683935651251921200,6.008921142578125,0.29175853729248047,0.5571632385253906,-1.1380995512008667
1683935651261962000,6.0189619140625,0.8402104377746582,-1.3079900741577148,-0.6479403972625732
1683935651272003000,6.029003173828125,0.37713003158569336,-0.8758249282836914,-0.31175994873046875
1683935651282044200,6.039044189453125,0.3054835796356201,-1.027658462524414,-0.009939193725585938
1683935651292085200,6.049085205078125,1.0944700241088867,-1.6328964233398438,0.3896242380142212
1683935651302126000,6.0591259765625,1.1695106029510498,-2.060612678527832,1.7659125328063965
1683935651312167200,6.069167236328125,0.19839000701904297,-3.750659942626953,2.339503288269043
1683935651322208300,6.079208251953125,-0.4135739803314209,-4.910285949707031,2.9033544063568115
1683935651332249300,6.089249267578125,0.012330293655395508,-7.030825614929199,3.038837194442749
1683935651342290200,6.099290283203125,0.5428197383880615,-6.569526672363281,3.2219605445861816
1683935651352331300,6.109331298828125,1.9512687921524048,-3.730231285095215,4.105015754699707
1683935651362372400,6.119372314453125,2.714841365814209,-0.8773927688598633,3.570612668991089
1683935651372413400,6.129413330078125,2.2095518112182617,0.04151630401611328,2.15575909614563
1683935651382454300,6.139454345703125,1.0084400177001953,-0.49765872955322266,0.2883759140968323
1683935651392495400,6.149495361328125,-0.6869654655456543,-0.9422645568847656,-1.7140913009643555
1683935651402536400,6.159536376953125,-2.3366682529449463,-0.6342267990112305,-3.1717183589935303
1683935651412577500,6.16957763671875,-3.290405035018921,0.062188148498535156,-3.778940200805664
1683935651422618400,6.179618408203125,-3.245891809463501,0.6665153503417969,-3.32797908782959
1683935651432659500,6.189659423828125,-3.014028549194336,0.7327175140380859,-2.568972587585449
1683935651442700500,6.199700439453125,-2.113718032836914,0.5989265441894531,-1.730482578277588
1683935651452741600,6.20974169921875,-1.449906587600708,0.41130733489990234,-1.1108776330947876
1683935651462782500,6.219782470703125,-0.8544778823852539,0.12562084197998047,-0.46875280141830444
1683935651472823600,6.229823486328125,-0.3278493881225586,0.07951641082763672,0.18324851989746094
1683935651482864600,6.23986474609375,0.03113245964050293,0.1795368194580078,0.4927726686000824
1683935651492905700,6.24990576171875,0.22596192359924316,0.17687606811523438,0.475452184677124
1683935651502946600,6.259946533203125,0.2748713493347168,0.12906455993652344,0.2851236164569855
1683935651512987600,6.269987548828125,0.1937243938446045,0.13161659240722656,0.02693849802017212
1683935651523028700,6.28002880859375,-0.0001881122589111328,0.028466224670410156,-0.02009892463684082
1683935651533069800,6.29006982421875,-0.10148787498474121,0.08671951293945312,0.0842936635017395
1683935651543110700,6.300110595703125,-0.15741372108459473,0.08840084075927734,0.1749476194381714
1683935651553151700,6.31015185546875,-0.17217350006103516,0.11939144134521484,0.30938029289245605
1683935651563192800,6.32019287109375,-0.2622184753417969,0.11246299743652344,0.48694729804992676
1683935651573234000,6.33023388671875,-0.264589786529541,-0.0057621002197265625,0.4923257827758789
1683935651583274800,6.340274658203125,-0.24205350875854492,-0.21026325225830078,0.4214906096458435
1683935651593315800,6.35031591796875,-0.2810051441192627,-0.07316780090332031,0.41221940517425537
1683935651603357000,6.36035693359375,-0.538987398147583,0.02174854278564453,0.38235002756118774
1683935651613398000,6.37039794921875,-0.6963996887207031,-0.059658050537109375,0.26057934761047363
1683935651623438800,6.38043896484375,-0.8714351654052734,-0.1670513153076172,0.22171086072921753
1683935651633480000,6.39047998046875,-0.75901198387146,-0.3001432418823242,0.22880828380584717
1683935651643521000,6.40052099609375,-0.3473796844482422,-0.12321281433105469,0.4096301198005676
1683935651653561900,6.410561767578125,-0.2546725273132324,-0.24808311462402344,0.2917312979698181
1683935651663603000,6.42060302734375,0.031053543090820312,-0.3147544860839844,0.10518467426300049
1683935651673644000,6.43064404296875,0.3720865249633789,0.030333518981933594,0.09854453802108765
1683935651683685000,6.44068505859375,0.4738168716430664,0.23145389556884766,-0.0949099063873291
1683935651693726200,6.450726318359375,0.6278622150421143,0.49210166931152344,-0.06616902351379395
1683935651703767000,6.46076708984375,0.6400952339172363,0.09830856323242188,0.04102712869644165
1683935651713808100,6.47080810546875,0.43974900245666504,-0.047303199768066406,-0.04413759708404541
1683935651723849200,6.48084912109375,0.24103641510009766,0.21813488006591797,-0.5996751189231873
1683935651733890000,6.49089013671875,0.0357210636138916,-0.31799983978271484,-0.7307446599006653
1683935651743931100,6.50093115234375,-0.06727051734924316,-0.36014842987060547,-0.5798447132110596
1683935651753972200,6.51097216796875,-0.09284520149230957,0.15385913848876953,-0.36438900232315063
1683935651764013300,6.521013427734375,-0.20226573944091797,0.09445953369140625,-0.35922735929489136
1683935651774054400,6.531054443359375,-0.015097379684448242,0.027138710021972656,-0.11501455307006836
1683935651784095200,6.54109521484375,-0.10768961906433105,0.041068077087402344,0.08875405788421631
1683935651794136300,6.55113623046875,-0.20165610313415527,-0.028745651245117188,0.26644647121429443
1683935651804177400,6.561177490234375,-0.2886850833892822,-0.36090850830078125,0.3253666162490845
1683935651814218500,6.571218505859375,-0.22522640228271484,-0.3414134979248047,0.23719358444213867
1683935651824259300,6.58125927734375,-0.11458683013916016,-0.3722038269042969,0.1769317388534546
1683935651834300400,6.591300537109375,0.09513401985168457,-0.2856101989746094,0.011969208717346191
1683935651844341500,6.601341552734375,0.2781860828399658,-0.45316410064697266,-0.37832367420196533
1683935651854382300,6.61138232421875,0.5311996936798096,-0.5310525894165039,-0.40609145164489746
1683935651864423400,6.62142333984375,0.6674389839172363,-0.39778995513916016,-0.2701929211616516
1683935651874464500,6.631464599609375,0.766648530960083,-0.36579132080078125,-0.20633387565612793
1683935651884505600,6.641505615234375,0.918602466583252,-0.4287843704223633,-0.023349523544311523
1683935651894546700,6.651546630859375,0.850447416305542,-0.5196990966796875,0.013982057571411133
1683935651904587500,6.66158740234375,0.7183775901794434,-0.611297607421875,0.012080907821655273
1683935651914628600,6.671628662109375,0.5753836631774902,-0.5997648239135742,0.01638209819793701
1683935651924669700,6.681669677734375,0.38033032417297363,-0.7244653701782227,0.004978775978088379
1683935651934710500,6.69171044921875,0.18024063110351562,-0.7604608535766602,0.12242639064788818
1683935651944751600,6.701751708984375,0.4423377513885498,-0.12483406066894531,0.24407613277435303
1683935651954792700,6.711792724609375,0.5542621612548828,0.4633064270019531,0.3317530155181885
1683935651964833800,6.721833740234375,0.47492074966430664,0.7627725601196289,0.4515306353569031
1683935651974874600,6.73187451171875,0.43073606491088867,0.7990818023681641,0.7240511775016785
1683935651984915700,6.741915771484375,0.37998318672180176,0.5646963119506836,1.1361660957336426
1683935651994956800,6.751956787109375,0.22263407707214355,0.3549680709838867,1.4241969585418701
1683935652004998000,6.761997802734375,0.20967841148376465,0.4421272277832031,1.64351487159729
1683935652015038700,6.772038818359375,0.04402279853820801,0.591557502746582,1.7552711963653564
1683935652025079800,6.782079833984375,-0.33181309700012207,0.7464590072631836,1.7479137182235718
1683935652035121000,6.792120849609375,-0.6297154426574707,0.8988800048828125,1.498943567276001
1683935652045162000,6.802161865234375,-0.8367841243743896,0.8360910415649414,1.0992392301559448
1683935652055202800,6.812202880859375,-0.9148190021514893,0.6355419158935547,0.5372226238250732
1683935652065244000,6.822243896484375,-1.003138780593872,0.2618675231933594,0.041300415992736816
1683935652075285000,6.832284912109375,-0.9852735996246338,-0.07657718658447266,-0.3079017102718353
1683935652085326000,6.842326171875,-0.8625054359436035,-0.3048982620239258,-0.5527622103691101
1683935652095367000,6.852366943359375,-0.621668815612793,-0.37179088592529297,-0.5887246131896973
1683935652105408000,6.862407958984375,-0.36449694633483887,-0.39106273651123047,-0.5506532192230225
1683935652115449000,6.872448974609375,-0.13903188705444336,-0.30715179443359375,-0.42387881875038147
1683935652125490200,6.882490234375,0.005675315856933594,-0.2035846710205078,-0.2892293334007263
1683935652135531000,6.892531005859375,0.03884434700012207,-0.14984416961669922,-0.11735361814498901
1683935652145572000,6.902572021484375,0.0072019100189208984,-0.08665657043457031,-0.027364790439605713
1683935652155613200,6.91261328125,-0.05699443817138672,-0.08132171630859375,0.04960989952087402
1683935652165654300,6.922654296875,-0.09569478034973145,-0.06219482421875,0.09044378995895386
1683935652175695000,6.932695068359375,-0.14908814430236816,-0.09385490417480469,0.11274486780166626
1683935652185736200,6.942736083984375,-0.15992140769958496,-0.03994464874267578,0.06949847936630249
1683935652195777300,6.95277734375,-0.16704058647155762,-0.017482757568359375,-0.0006517767906188965
1683935652205818400,6.962818359375,-0.1780078411102295,-0.04538536071777344,-0.03337836265563965
1683935652215859200,6.972859130859375,-0.1670207977294922,-0.03505420684814453,-0.11757475137710571
1683935652225900300,6.982900390625,-0.1343550682067871,-0.058152198791503906,-0.17430853843688965
1683935652235941400,6.99294140625,-0.13250136375427246,-0.07878303527832031,-0.24879515171051025
1683935652245982500,7.002982421875,-0.09920763969421387,-0.07307624816894531,-0.2667815685272217
1683935652256023300,7.013023193359375,-0.06576395034790039,-0.036342620849609375,-0.25058531761169434
1683935652266064400,7.023064453125,-0.020650863647460938,-0.028329849243164062,-0.24905437231063843
1683935652276105500,7.03310546875,0.042830705642700195,-0.02501678466796875,-0.22941869497299194
1683935652286146600,7.043146484375,0.06730413436889648,-0.026350975036621094,-0.2391389012336731
1683935652296187400,7.0531875,0.07420659065246582,-0.06802177429199219,-0.26074379682540894
1683935652306228500,7.063228515625,0.09206676483154297,-0.030531883239746094,-0.22789865732192993
1683935652316269600,7.07326953125,0.13672733306884766,0.04532623291015625,-0.15281778573989868
1683935652326310700,7.083310546875,0.19734668731689453,0.1046142578125,-0.1027916669845581
1683935652336351500,7.0933515625,0.2633664608001709,0.16422176361083984,-0.09577620029449463
1683935652346392600,7.103392578125,0.2892005443572998,0.13338184356689453,-0.08163285255432129
1683935652356433700,7.11343359375,0.2678642272949219,0.08867454528808594,-0.15552473068237305
1683935652366474800,7.123474853515625,0.16684961318969727,-0.08697795867919922,-0.305509090423584
1683935652376515600,7.133515625,0.007157087326049805,-0.28359222412109375,-0.375305712223053
1683935652386556700,7.143556640625,-0.0903019905090332,-0.26007652282714844,-0.4321855306625366
1683935652396597800,7.15359765625,-0.17702269554138184,-0.25839710235595703,-0.44409531354904175
1683935652406638800,7.163638916015625,-0.22161507606506348,-0.19003677368164062,-0.5435699820518494
1683935652416679700,7.1736796875,-0.2994699478149414,-0.21758651733398438,-0.6210794448852539
1683935652426720800,7.183720703125,-0.3828885555267334,-0.21665096282958984,-0.7031728625297546
1683935652436761900,7.193761962890625,-0.5174286365509033,-0.25682640075683594,-0.6826902627944946
1683935652446802700,7.203802734375,-0.5343348979949951,-0.15948963165283203,-0.4945535659790039
1683935652456843800,7.21384375,-0.46818971633911133,-0.0685882568359375,-0.324796199798584
1683935652466884900,7.223884765625,-0.35045552253723145,-0.055451393127441406,-0.286468505859375
1683935652476926000,7.233926025390625,-0.20113396644592285,-0.06657791137695312,-0.27998805046081543
1683935652486967000,7.243967041015625,-0.060773611068725586,-0.1059865951538086,-0.34325116872787476
1683935652497007900,7.2540078125,0.007695198059082031,-0.1447315216064453,-0.3211146593093872
1683935652507049000,7.264049072265625,0.019046783447265625,-0.10649967193603516,-0.27369797229766846
1683935652517090000,7.274090087890625,0.0028412342071533203,-0.14015960693359375,-0.29005658626556396
1683935652527131100,7.284131103515625,-0.05129218101501465,-0.15669536590576172,-0.2689859867095947
1683935652537172000,7.294171875,-0.07440924644470215,-0.19635963439941406,-0.2530043125152588
1683935652547213000,7.304213134765625,-0.12150359153747559,-0.2210407257080078,-0.23522710800170898
1683935652557254100,7.314254150390625,-0.11768651008605957,-0.2355632781982422,-0.2023465633392334
1683935652567295200,7.324295166015625,-0.13302278518676758,-0.2044353485107422,-0.269429087638855
1683935652577336000,7.334336181640625,-0.17997002601623535,-0.2818336486816406,-0.208793044090271
1683935652587377200,7.344377197265625,-0.20276165008544922,-0.2097797393798828,-0.20226562023162842
1683935652597418200,7.354418212890625,-0.18968844413757324,-0.17915821075439453,-0.20156657695770264
1683935652607459300,7.364459228515625,-0.17171645164489746,-0.2081451416015625,-0.19692623615264893
1683935652617500200,7.374500244140625,-0.12882328033447266,-0.3000612258911133,-0.12665247917175293
1683935652627541200,7.384541259765625,-0.012661457061767578,-0.20351886749267578,-0.060558199882507324
1683935652637582300,7.394582275390625,0.06601071357727051,-0.13084983825683594,-0.1280512809753418
1683935652647623200,7.404623046875,0.03264951705932617,-0.21668434143066406,-0.02619302272796631
1683935652657664300,7.414664306640625,0.1400766372680664,-0.07069110870361328,-0.03780829906463623
1683935652667705300,7.424705322265625,0.22556400299072266,-0.09722042083740234,-0.3142913579940796
1683935652677746400,7.434746337890625,0.19405364990234375,-0.22321319580078125,-0.5655180215835571
1683935652687787500,7.44478759765625,0.14150166511535645,-0.15984725952148438,-0.7203981280326843
1683935652697828400,7.454828369140625,0.08954381942749023,0.0004253387451171875,-0.7489180564880371
1683935652707869400,7.464869384765625,-0.07273554801940918,0.06335926055908203,-0.6716474294662476
1683935652717910500,7.47491064453125,-0.30269861221313477,0.16546154022216797,-0.546867311000824
1683935652727951600,7.48495166015625,-0.5358724594116211,0.26187705993652344,-0.28233492374420166
1683935652737992400,7.494992431640625,-0.6978123188018799,0.1501140594482422,-0.014775991439819336
1683935652748033500,7.505033447265625,-0.873347282409668,-0.08663082122802734,-0.1116173267364502
1683935652758074600,7.51507470703125,-1.0062370300292969,-0.418365478515625,-0.35890817642211914
1683935652768115500,7.525115478515625,-1.0717203617095947,-0.6438655853271484,-0.5821097493171692
1683935652778156500,7.535156494140625,-1.062302827835083,-1.1357402801513672,-0.4619234800338745
1683935652788197600,7.54519775390625,-0.9405434131622314,-1.2592220306396484,-0.48791277408599854
1683935652798238700,7.55523876953125,-0.7719118595123291,-1.1634445190429688,-0.6616816520690918
1683935652808279800,7.56527978515625,-0.5720231533050537,-1.1197872161865234,-0.8422051668167114
1683935652818320600,7.575320556640625,-0.3925342559814453,-1.0024805068969727,-1.0238690376281738
1683935652828361700,7.58536181640625,-0.25202107429504395,-0.7800970077514648,-1.092756748199463
1683935652838402800,7.59540283203125,-0.06627273559570312,-0.4660348892211914,-1.070592999458313
1683935652848444000,7.60544384765625,0.1777639389038086,-0.10838699340820312,-0.9140551090240479
1683935652858484700,7.615484619140625,0.3475320339202881,0.052603721618652344,-0.7297402620315552
1683935652868525800,7.62552587890625,0.5609662532806396,0.13597488403320312,-0.46148979663848877
1683935652878567000,7.63556689453125,0.7528438568115234,0.3058004379272461,-0.15829002857208252
1683935652888607700,7.645607666015625,1.0186808109283447,0.3191184997558594,0.19351094961166382
1683935652898648800,7.65564892578125,1.36934232711792,0.24649620056152344,0.6022961139678955
1683935652908690000,7.66568994140625,1.4931191205978394,0.2872028350830078,0.7422540187835693
1683935652918731000,7.67573095703125,1.3122401237487793,0.2663240432739258,0.6751039028167725
1683935652928772000,7.685772216796875,0.8402035236358643,0.20546245574951172,0.8002740144729614
1683935652938813000,7.69581298828125,0.3406562805175781,0.27492332458496094,1.0274829864501953
1683935652948854000,7.70585400390625,-0.1243276596069336,0.17438983917236328,1.1921334266662598
1683935652958895000,7.71589501953125,-0.4839189052581787,0.1275310516357422,1.364827036857605
1683935652968936200,7.725936279296875,-0.5183200836181641,0.20105743408203125,1.5115680694580078
1683935652978977000,7.73597705078125,-0.26741647720336914,0.32176971435546875,1.5364089012145996
1683935652989018000,7.74601806640625,0.09250283241271973,0.42947959899902344,1.5169826745986938
1683935652999059200,7.75605908203125,0.36005115509033203,0.4948863983154297,1.438030481338501
1683935653009100000,7.76610009765625,0.43317675590515137,0.5233888626098633,1.4141554832458496
1683935653019141000,7.77614111328125,0.34203362464904785,0.5026178359985352,1.3638124465942383
1683935653029182200,7.78618212890625,0.17273235321044922,0.4485750198364258,1.2331405878067017
1683935653039223300,7.796223388671875,-0.0009307861328125,0.3654346466064453,1.0584958791732788
1683935653049264400,7.806264404296875,-0.015911579132080078,0.3629884719848633,0.889339804649353
1683935653059305200,7.81630517578125,0.11508750915527344,0.4484882354736328,0.6395535469055176
1683935653069346300,7.82634619140625,0.36394524574279785,0.4624509811401367,0.4192464351654053
1683935653079387400,7.836387451171875,0.6354732513427734,0.46071910858154297,0.2627432942390442
1683935653089428200,7.84642822265625,0.8440618515014648,0.4297609329223633,0.14854246377944946
1683935653099469300,7.85646923828125,0.902651309967041,0.37245750427246094,0.04970604181289673
1683935653109510400,7.866510498046875,0.8379037380218506,0.26729488372802734,0.027342140674591064
1683935653119551500,7.876551513671875,0.6677379608154297,0.22626781463623047,0.12158232927322388
1683935653129592600,7.886592529296875,0.4040405750274658,0.2915458679199219,0.20888292789459229
1683935653139633400,7.89663330078125,0.1737070083618164,0.40720272064208984,0.307407021522522
1683935653149674500,7.906674560546875,0.004831075668334961,0.4483652114868164,0.38934624195098877
1683935653159715600,7.916715576171875,-0.1305527687072754,0.39342594146728516,0.4402306079864502
1683935653169756700,7.926756591796875,-0.2941551208496094,0.3236265182495117,0.39521729946136475
1683935653179797500,7.936797607421875,-0.4256596565246582,0.13858985900878906,0.24792039394378662
1683935653189838600,7.946838623046875,-0.564387321472168,0.0006618499755859375,0.028331637382507324
1683935653199879700,7.956879638671875,-0.6448614597320557,-0.014124870300292969,-0.04069507122039795
1683935653209920500,7.96692041015625,-0.5384178161621094,0.08194828033447266,0.027877211570739746
1683935653219961600,7.976961669921875,-0.21580004692077637,0.2005605697631836,0.15378785133361816
1683935653230002700,7.987002685546875,0.16738080978393555,0.2539682388305664,0.295385479927063
1683935653240043800,7.997043701171875,0.5275053977966309,0.2621879577636719,0.41627037525177
1683935653250084900,8.0070849609375,0.7480721473693848,0.2666187286376953,0.5019855499267578
1683935653260125700,8.017125732421874,0.8158652782440186,0.3060722351074219,0.5381741523742676
1683935653270166800,8.027166748046875,0.7593090534210205,0.3137779235839844,0.5293028354644775
1683935653280208000,8.037207763671875,0.6811661720275879,0.3280143737792969,0.5032471418380737
1683935653290249000,8.0472490234375,0.5604658126831055,0.3604745864868164,0.454797625541687
1683935653300289800,8.057289794921875,0.4364340305328369,0.31282806396484375,0.39806294441223145
1683935653310331000,8.067330810546874,0.34139418601989746,0.18721294403076172,0.3523085117340088
1683935653320372000,8.0773720703125,0.24520492553710938,0.1005086898803711,0.25092291831970215
1683935653330413000,8.0874130859375,0.12017989158630371,-0.036108970642089844,0.14882338047027588
1683935653340454000,8.097453857421876,0.014378547668457031,-0.09605026245117188,0.13180935382843018
1683935653350495000,8.107494873046875,-0.012513875961303711,-0.06998062133789062,0.08490025997161865
1683935653360536000,8.1175361328125,0.029451370239257812,0.07313919067382812,0.0114210844039917
1683935653370577200,8.1275771484375,0.09777235984802246,0.1637277603149414,-0.013257265090942383
1683935653380618000,8.137617919921874,0.2013554573059082,0.2745819091796875,-0.07141578197479248
1683935653390659000,8.1476591796875,0.2590146064758301,0.36792469024658203,-0.04915761947631836
1683935653400700200,8.1577001953125,0.24277615547180176,0.35471248626708984,-0.09638327360153198
1683935653410741200,8.1677412109375,0.1774752140045166,0.3684978485107422,-0.08731192350387573
1683935653420782000,8.177781982421875,0.03389263153076172,0.34508514404296875,-0.08854877948760986
1683935653430823200,8.1878232421875,-0.12406325340270996,0.2752189636230469,-0.09263122081756592
1683935653440864300,8.1978642578125,-0.2707662582397461,0.18488407135009766,-0.041208624839782715
1683935653450905300,8.2079052734375,-0.35131120681762695,0.08108043670654297,0.033289432525634766
1683935653460946200,8.2179462890625,-0.31962013244628906,0.022798538208007812,0.13451755046844482
1683935653470987300,8.2279873046875,-0.18775296211242676,-0.04696464538574219,0.1913161277770996
1683935653481028400,8.2380283203125,-0.021682262420654297,-0.1537322998046875,0.3356086015701294
1683935653491069400,8.2480693359375,0.12775135040283203,-0.19303321838378906,0.3940013647079468
1683935653501110300,8.2581103515625,0.20351529121398926,-0.15153121948242188,0.37094569206237793
1683935653511151400,8.2681513671875,0.18993353843688965,-0.1151275634765625,0.3790212869644165
1683935653521192400,8.2781923828125,0.12370753288269043,-0.04138755798339844,0.3795754909515381
1683935653531233500,8.288233642578126,0.011357307434082031,-0.0042476654052734375,0.4030369520187378
1683935653541274400,8.2982744140625,-0.09126639366149902,0.03661155700683594,0.40410780906677246
1683935653551315500,8.3083154296875,-0.18130803108215332,0.010281562805175781,0.4300856590270996
1683935653561356500,8.3183564453125,-0.258497953414917,-0.016363143920898438,0.4144374132156372
1683935653571397600,8.328397705078125,-0.3248319625854492,0.017731666564941406,0.35798871517181396
1683935653581438500,8.3384384765625,-0.3425464630126953,0.06682109832763672,0.35157716274261475
1683935653591479600,8.3484794921875,-0.30307698249816895,0.0577392578125,0.3147381544113159
1683935653601520600,8.358520751953124,-0.2531161308288574,0.09302806854248047,0.2811722755432129
1683935653611561700,8.368561767578125,-0.20580124855041504,0.10643196105957031,0.26050758361816406
1683935653621602600,8.3786025390625,-0.19915771484375,0.13140583038330078,0.250166654586792
1683935653631643600,8.3886435546875,-0.25319910049438477,0.0945892333984375,0.2874014377593994
1683935653641684700,8.398684814453125,-0.29285502433776855,0.07901573181152344,0.30973029136657715
1683935653651725800,8.408725830078126,-0.33867454528808594,0.03928089141845703,0.354708194732666
1683935653661766700,8.4187666015625,-0.3103923797607422,-0.024259567260742188,0.35839974880218506
1683935653671807700,8.428807861328124,-0.22621655464172363,-0.056906700134277344,0.333290696144104
1683935653681848800,8.438848876953125,-0.15657782554626465,-0.05638694763183594,0.29206371307373047
1683935653691890000,8.448889892578125,-0.0996694564819336,-0.09360599517822266,0.21162700653076172
1683935653701931000,8.458930908203126,-0.06745576858520508,-0.09719562530517578,0.13248693943023682
1683935653711971800,8.468971923828125,-0.06624770164489746,-0.12436389923095703,0.05666947364807129
1683935653722013000,8.479012939453124,-0.05748295783996582,-0.12070941925048828,-0.04427504539489746
1683935653732054000,8.489053955078125,-0.0462493896484375,-0.09136104583740234,-0.11333256959915161
1683935653742094800,8.4990947265625,-0.030503511428833008,-0.06491565704345703,-0.15576869249343872
1683935653752136000,8.509135986328126,0.03159976005554199,-0.005850791931152344,-0.17900359630584717
1683935653762177000,8.519177001953125,0.056371212005615234,0.0007228851318359375,-0.173872172832489
1683935653772218000,8.529218017578126,0.04211878776550293,0.03574180603027344,-0.16882002353668213
1683935653782259000,8.539259033203125,0.00877833366394043,0.020898818969726562,-0.11676472425460815
1683935653792300000,8.549300048828124,-0.035454750061035156,0.055657386779785156,-0.05585837364196777
1683935653802341000,8.559341064453125,-0.07088470458984375,0.07304573059082031,-0.023952007293701172
1683935653812382200,8.56938232421875,-0.024385452270507812,0.07325267791748047,-0.011105179786682129
1683935653822423300,8.57942333984375,0.022220849990844727,0.08494853973388672,-0.031121253967285156
1683935653832464100,8.589464111328125,0.08961248397827148,0.0516204833984375,-0.06926798820495605
1683935653842505200,8.599505126953124,0.11110639572143555,0.014191627502441406,-0.15340209007263184
1683935653852546300,8.60954638671875,0.12263083457946777,0.0033779144287109375,-0.13685882091522217
1683935653862587100,8.619587158203124,0.13626718521118164,0.00923919677734375,-0.14168685674667358
1683935653872628200,8.629628173828126,0.15675878524780273,0.022045135498046875,-0.11346447467803955
1683935653882669300,8.63966943359375,0.15561699867248535,0.029908180236816406,-0.12144792079925537
1683935653892710400,8.64971044921875,0.15668439865112305,0.009378433227539062,-0.08036082983016968
1683935653902751200,8.659751220703125,0.16212940216064453,0.041027069091796875,-0.09696030616760254
1683935653912792300,8.669792236328124,0.15535664558410645,0.07926082611083984,-0.10679686069488525
1683935653922833400,8.67983349609375,0.1362895965576172,0.15233898162841797,-0.13335895538330078
1683935653932874500,8.68987451171875,0.13082408905029297,0.1561717987060547,-0.1574774980545044
1683935653942915600,8.69991552734375,0.14551353454589844,0.11318016052246094,-0.130007803440094
1683935653952956400,8.709956298828125,0.1566317081451416,0.07354545593261719,-0.08695894479751587
1683935653962997500,8.71999755859375,0.19250822067260742,0.07016849517822266,-0.045076847076416016
1683935653973038600,8.73003857421875,0.23863554000854492,0.07180976867675781,0.004893898963928223
1683935653983079400,8.740079345703125,0.2736086845397949,0.08074283599853516,0.08387959003448486
1683935653993120500,8.75012060546875,0.28316164016723633,0.09697818756103516,0.12093329429626465
1683935654003161600,8.76016162109375,0.2934439182281494,0.04986000061035156,0.11705386638641357
1683935654013202700,8.77020263671875,0.24145030975341797,0.041510581970214844,0.153303861618042
1683935654023243800,8.780243896484375,0.2180943489074707,0.04056835174560547,0.17046868801116943
1683935654033284600,8.79028466796875,0.20188093185424805,0.03271198272705078,0.1828782558441162
1683935654043325700,8.80032568359375,0.19742774963378906,0.058089256286621094,0.2049245834350586
1683935654053366800,8.81036669921875,0.19754719734191895,0.04082202911376953,0.16849172115325928
1683935654063407900,8.820407958984376,0.19491124153137207,0.026421546936035156,0.05575203895568848
1683935654073448700,8.83044873046875,0.16582512855529785,-0.006276130676269531,-0.009599447250366211
1683935654083489800,8.84048974609375,0.12703299522399902,-0.005118370056152344,-0.08017963171005249
1683935654093531000,8.85053076171875,0.0998995304107666,-0.0012998580932617188,-0.10664182901382446
1683935654103572000,8.860572021484375,0.07019758224487305,-0.011397361755371094,-0.06635355949401855
1683935654113612800,8.87061279296875,0.045217275619506836,0.03533744812011719,-0.024382948875427246
1683935654123654000,8.88065380859375,0.0343475341796875,0.14496994018554688,0.05191028118133545
1683935654133695000,8.890695068359374,0.03249049186706543,0.22934246063232422,0.06026196479797363
1683935654143736000,8.900736083984375,0.032247066497802734,0.14301013946533203,0.06559586524963379
1683935654153777000,8.91077685546875,0.03835654258728027,0.06072521209716797,0.0592266321182251
1683935654163818000,8.92081787109375,0.032129764556884766,0.036518096923828125,0.08403348922729492
1683935654173859000,8.930859130859375,-0.037403106689453125,0.01742839813232422,0.11371707916259766
1683935654183900200,8.940900146484376,-0.10973572731018066,0.031434059143066406,0.10357534885406494
1683935654193941000,8.95094091796875,-0.17975473403930664,0.07075119018554688,0.11975324153900146
1683935654203982000,8.960982177734374,-0.19811296463012695,0.1443004608154297,0.06446123123168945
1683935654214023200,8.971023193359375,-0.18686175346374512,0.16672420501708984,0.006821870803833008
1683935654224064300,8.981064208984375,-0.09258604049682617,0.1224832534790039,-0.03186690807342529
1683935654234105000,8.99110498046875,-0.011348485946655273,0.05287647247314453,-0.05435168743133545
1683935654244146200,9.001146240234375,0.04467439651489258,-0.003814697265625,-0.09870189428329468
1683935654254187300,9.011187255859374,0.052072763442993164,-0.06180286407470703,-0.147813081741333
1683935654264228400,9.021228271484375,0.023692607879638672,-0.10230731964111328,-0.1520351767539978
1683935654274269400,9.03126953125,-0.04651165008544922,-0.1681346893310547,-0.14974254369735718
1683935654284310300,9.041310302734376,-0.08447575569152832,-0.18364524841308594,-0.10563445091247559
1683935654294351400,9.051351318359375,-0.12787342071533203,-0.20865249633789062,-0.07167720794677734
1683935654304392400,9.061392333984376,-0.13170242309570312,-0.20296192169189453,-0.04471266269683838
1683935654314433300,9.071433349609375,-0.12936925888061523,-0.20006847381591797,0.0040177106857299805
1683935654324474400,9.081474365234374,-0.1047508716583252,-0.17160987854003906,0.04575026035308838
1683935654334515500,9.091515380859375,-0.08227944374084473,-0.10610103607177734,0.12030434608459473
1683935654344556500,9.101556640625,-0.05054330825805664,-0.05115222930908203,0.1491079330444336
1683935654354597400,9.111597412109376,-0.01692056655883789,0.02168750762939453,0.1679762601852417
1683935654364638500,9.121638427734375,0.016255617141723633,0.043834686279296875,0.17240631580352783
1683935654374679600,9.131679443359374,0.04410815238952637,0.03503704071044922,0.20744597911834717
1683935654384720600,9.141720703125,0.024171113967895508,0.04766559600830078,0.17608225345611572
1683935654394761700,9.15176171875,0.018451452255249023,0.04133319854736328,0.16176295280456543
1683935654404802600,9.161802490234376,0.007900714874267578,0.061110496520996094,0.19503414630889893
1683935654414843600,9.17184375,0.004372119903564453,0.04535675048828125,0.20924127101898193
1683935654424884700,9.181884765625,0.007958650588989258,0.0652456283569336,0.2331782579421997
1683935654434925800,9.19192578125,0.0191495418548584,0.016394615173339844,0.2643343210220337
1683935654444966700,9.201966552734374,0.031043291091918945,0.024658203125,0.2369546890258789
1683935654455007700,9.2120078125,0.0505523681640625,0.039658546447753906,0.2223440408706665
1683935654465048800,9.222048828125,0.08400797843933105,0.08500862121582031,0.17538857460021973
1683935654475090000,9.23208984375,0.12788176536560059,0.1369333267211914,0.12214279174804688
1683935654485130800,9.242130859375,0.1416025161743164,0.13419151306152344,0.050521135330200195
1683935654495171800,9.252171875,0.12352800369262695,0.058793067932128906,-0.0061800479888916016
1683935654505213000,9.262212890625,0.08647465705871582,0.010722160339355469,-0.07823443412780762
1683935654515254000,9.27225390625,0.06423830986022949,-0.020038604736328125,-0.08507800102233887
1683935654525294800,9.282294921875,0.019035816192626953,-0.0008840560913085938,-0.10329818725585938
1683935654535336000,9.2923359375,-0.02081155776977539,0.008557319641113281,-0.14722758531570435
1683935654545377000,9.302376953125,-0.04162788391113281,0.043854713439941406,-0.1813371181488037
1683935654555418000,9.312418212890625,-0.0484004020690918,0.062164306640625,-0.21541601419448853
1683935654565459000,9.322458984375,-0.052899837493896484,0.08722400665283203,-0.20244288444519043
1683935654575500000,9.3325,-0.05989646911621094,0.10715007781982422,-0.1903620958328247
1683935654585541000,9.342541015625,-0.029148340225219727,0.06314659118652344,-0.12708091735839844
1683935654595582200,9.352582275390626,-0.03438711166381836,0.02464580535888672,-0.07422494888305664
1683935654605623300,9.362623291015625,-0.030321121215820312,-0.02960205078125,0.006200313568115234
1683935654615664000,9.3726640625,-0.04526042938232422,-0.054656028747558594,0.0688408613204956
1683935654625705200,9.382705322265625,-0.05513906478881836,-0.055792808532714844,0.142134428024292
1683935654635746300,9.392746337890625,-0.050077199935913086,-0.06888484954833984,0.1743391752243042
1683935654645787400,9.402787353515626,-0.05354619026184082,-0.06322956085205078,0.19444811344146729
1683935654655828200,9.412828125,-0.018528223037719727,-0.06259918212890625,0.2121729850769043
1683935654665869300,9.422869384765624,0.025744915008544922,-0.05269908905029297,0.23672854900360107
1683935654675910400,9.432910400390625,0.0927281379699707,-0.04295063018798828,0.25367069244384766
1683935654685951200,9.442951171875,0.12968039512634277,-0.06142425537109375,0.21589338779449463
1683935654695992300,9.452992431640626,0.1321086883544922,-0.0722513198852539,0.16190063953399658
1683935654706033400,9.463033447265625,0.12662410736083984,-0.07088470458984375,0.08263707160949707
1683935654716074500,9.473074462890626,0.09701275825500488,-0.02459430694580078,0.04462456703186035
1683935654726115600,9.483115478515625,0.015886306762695312,0.023336410522460938,-0.02111375331878662
1683935654736156400,9.493156494140624,-0.021288633346557617,0.04918861389160156,-0.0482172966003418
1683935654746197500,9.503197509765625,-0.038507938385009766,0.11680126190185547,-0.15737783908843994
1683935654756238600,9.513238525390625,-0.022104740142822266,0.12194061279296875,-0.17769074440002441
1683935654766279700,9.52327978515625,-0.03155803680419922,0.1033315658569336,-0.19073843955993652
1683935654776320500,9.533320556640625,-0.0195615291595459,0.028478622436523438,-0.2649153470993042
1683935654786361600,9.543361572265624,-0.014820575714111328,-0.02866840362548828,-0.2909119129180908
1683935654796402700,9.553402587890625,-0.00041985511779785156,-0.03788471221923828,-0.285860538482666
1683935654806443800,9.56344384765625,-0.004575014114379883,-0.007058143615722656,-0.24287748336791992
1683935654816484900,9.57348486328125,0.025163650512695312,0.03479766845703125,-0.16006821393966675
1683935654826525700,9.583525634765625,0.041089534759521484,0.04984474182128906,-0.09462893009185791
1683935654836566800,9.59356689453125,0.0643618106842041,0.02213287353515625,-0.05338752269744873
1683935654846608000,9.60360791015625,0.07341885566711426,-0.07108783721923828,0.0275876522064209
1683935654856649000,9.61364892578125,0.05401730537414551,-0.16508197784423828,0.05783963203430176
1683935654866689800,9.623689697265625,0.03487586975097656,-0.18919086456298828,0.05719637870788574
1683935654876731000,9.63373095703125,0.018462419509887695,-0.19167232513427734,0.0664370059967041
1683935654886772000,9.64377197265625,0.011976480484008789,-0.17063045501708984,0.10159504413604736
1683935654896812800,9.653812744140625,-0.0037059783935546875,-0.11940383911132812,0.08649230003356934
1683935654906854000,9.66385400390625,-0.007508993148803711,-0.06432533264160156,0.09002697467803955
1683935654916895000,9.67389501953125,0.023709774017333984,-0.026571273803710938,0.08841884136199951
1683935654926936000,9.68393603515625,0.051427364349365234,-0.008104324340820312,0.07947337627410889
1683935654936977200,9.69397705078125,0.09686112403869629,-0.00148773193359375,0.10602855682373047
1683935654947018000,9.70401806640625,0.10779118537902832,-0.022939682006835938,0.13467013835906982
1683935654957059000,9.71405908203125,0.08718252182006836,0.0033349990844726562,0.10183835029602051
1683935654967100200,9.72410009765625,0.047331809997558594,0.03651618957519531,0.08153760433197021
1683935654977141200,9.734141357421874,-0.025370121002197266,0.026955604553222656,0.05448150634765625
1683935654987182000,9.74418212890625,-0.066680908203125,0.07187080383300781,0.03985607624053955
1683935654997223200,9.75422314453125,-0.09365105628967285,0.0903463363647461,0.009334564208984375
1683935655007264300,9.76426416015625,-0.09691643714904785,0.08748054504394531,-0.017871618270874023
1683935655017305300,9.774305419921875,-0.09555912017822266,0.0730142593383789,-0.025188088417053223
1683935655027346400,9.784346435546874,-0.06353974342346191,0.05412864685058594,-0.03413426876068115
1683935655037387300,9.79438720703125,-0.02720332145690918,0.05439186096191406,-0.011913895606994629
1683935655047428400,9.804428466796875,0.010884523391723633,0.057025909423828125,0.005411505699157715
1683935655057469400,9.814469482421876,0.022222042083740234,0.13500118255615234,0.008146047592163086
1683935655067510500,9.824510498046875,0.06091618537902832,0.2141866683959961,-0.02278923988342285
1683935655077551400,9.83455126953125,0.09343504905700684,0.2710714340209961,-0.04671943187713623
1683935655087592400,9.844592529296875,0.10577225685119629,0.228363037109375,-0.0846872329711914
1683935655097633500,9.854633544921874,0.0911870002746582,0.12073993682861328,-0.05361282825469971
1683935655107674600,9.864674560546876,0.06184864044189453,0.05055046081542969,-0.05570673942565918
1683935655117715500,9.874715576171875,-0.007526874542236328,0.02175617218017578,-0.00799703598022461
1683935655127756500,9.884756591796876,-0.07584047317504883,0.009951591491699219,0.03190755844116211
1683935655137797600,9.894797607421875,-0.1519479751586914,0.021724700927734375,0.07120072841644287
1683935655147838700,9.904838623046874,-0.20927953720092773,0.0211639404296875,0.1402747631072998
1683935655157879600,9.914879638671875,-0.23132562637329102,-0.022284507751464844,0.13002479076385498
1683935655167920600,9.924920654296875,-0.25386643409729004,-0.04910087585449219,0.14758241176605225
1683935655177961700,9.934961669921876,-0.1995089054107666,-0.08771324157714844,0.1289212703704834
1683935655188002800,9.9450029296875,-0.12435007095336914,-0.16123390197753906,0.08648943901062012
1683935655198043600,9.955043701171874,-0.04363703727722168,-0.24052906036376953,0.08930718898773193
1683935655208084700,9.965084716796875,0.006782054901123047,-0.1934795379638672,0.09222543239593506
1683935655218125800,9.975125732421875,0.024749755859375,-0.1445322036743164,0.10209953784942627
1683935655228167000,9.9851669921875,0.0037353038787841797,-0.0019235610961914062,0.07393372058868408
1683935655238207700,9.995207763671875,-0.0459287166595459,0.08914566040039062,0.07470762729644775
1683935655248248800,10.005248779296876,-0.11346888542175293,0.2046346664428711,0.13031864166259766
1683935655258290000,10.0152900390625,-0.19065594673156738,0.18377017974853516,0.25403332710266113
1683935655268331000,10.0253310546875,-0.19713640213012695,0.16293907165527344,0.31266069412231445
1683935655278372000,10.0353720703125,-0.15067815780639648,0.09745979309082031,0.3285505771636963
1683935655288413000,10.045412841796875,-0.09031939506530762,0.0683298110961914,0.33343076705932617
1683935655298454000,10.0554541015625,0.011271953582763672,0.05395221710205078,0.41903626918792725
1683935655308495000,10.0654951171875,0.08903694152832031,0.061362266540527344,0.4164772033691406
1683935655318536200,10.0755361328125,0.14061355590820312,0.0856332778930664,0.38380885124206543
1683935655328577000,10.085576904296875,0.1683638095855713,0.11725711822509766,0.34313905239105225
1683935655338618000,10.0956181640625,0.1914372444152832,0.17965984344482422,0.313291072845459
1683935655348659200,10.1056591796875,0.20548558235168457,0.2156991958618164,0.2891571521759033
1683935655358700300,10.1157001953125,0.19215035438537598,0.22802448272705078,0.2727600336074829
1683935655368741400,10.125741455078124,0.1660938262939453,0.26168346405029297,0.22592699527740479
1683935655378782200,10.1357822265625,0.15085864067077637,0.283355712890625,0.22627758979797363
1683935655388823300,10.1458232421875,0.10872077941894531,0.27431297302246094,0.2020103931427002
1683935655398864400,10.155864501953126,0.08994579315185547,0.2208385467529297,0.1584305763244629
1683935655408905500,10.165905517578125,0.09246492385864258,0.16351985931396484,0.14565646648406982
1683935655418946300,10.1759462890625,0.11881232261657715,0.13290786743164062,0.07884800434112549
1683935655428987400,10.1859873046875,0.18724775314331055,0.13575172424316406,0.03249657154083252
1683935655439028500,10.196028564453124,0.30364537239074707,0.0869741439819336,-0.07311153411865234
1683935655449069600,10.206069580078125,0.3768784999847412,0.046581268310546875,-0.13313895463943481
1683935655459110400,10.2161103515625,0.42313218116760254,-0.011157989501953125,-0.254217267036438
1683935655469151500,10.2261513671875,0.42790865898132324,0.02729320526123047,-0.4092215895652771
1683935655479192600,10.236192626953125,0.3563401699066162,0.11332988739013672,-0.6207317113876343
1683935655489233700,10.246233642578124,0.25226426124572754,0.18953990936279297,-0.8596630096435547
1683935655499274500,10.2562744140625,0.13133716583251953,0.18745899200439453,-1.0339628458023071
1683935655509315600,10.266315673828124,-0.0003330707550048828,0.16452980041503906,-1.1141002178192139
1683935655519356700,10.276356689453126,-0.13256502151489258,0.17979907989501953,-1.1742974519729614
1683935655529397800,10.286397705078125,-0.22067689895629883,0.18089675903320312,-1.1930118799209595
1683935655539438600,10.2964384765625,-0.3053138256072998,0.09965801239013672,-1.023327112197876
1683935655549479700,10.306479736328125,-0.30416274070739746,0.12338829040527344,-0.8289030194282532
1683935655559520800,10.316520751953124,-0.21613097190856934,-0.013494491577148438,-0.5148850679397583
1683935655569561900,10.326561767578125,-0.11278319358825684,-0.1154928207397461,-0.25151360034942627
1683935655579602700,10.336602783203125,-0.059613943099975586,-0.1716928482055664,0.0005682706832885742
1683935655589643800,10.346643798828126,-0.02213144302368164,-0.21593856811523438,0.15475428104400635
1683935655599684900,10.356684814453125,-0.016971111297607422,-0.16347599029541016,0.19000458717346191
1683935655609726000,10.366725830078124,-0.022642850875854492,-0.2158946990966797,0.25961244106292725
1683935655619767000,10.37676708984375,-0.044317007064819336,-0.17117881774902344,0.2639310359954834
1683935655629807900,10.386807861328125,-0.08888459205627441,-0.14631080627441406,0.2434210181236267
1683935655639849000,10.396848876953126,-0.15331554412841797,-0.06094646453857422,0.17314434051513672
1683935655649890000,10.40689013671875,-0.208465576171875,-0.05980491638183594,0.07777750492095947
1683935655659931100,10.41693115234375,-0.23061227798461914,-0.04262065887451172,-0.04369640350341797
1683935655669972000,10.426971923828125,-0.27094554901123047,-0.10886001586914062,-0.0010649561882019043
1683935655680013000,10.437012939453124,-0.25106167793273926,-0.10656070709228516,-0.013992547988891602
1683935655690054100,10.44705419921875,-0.19586420059204102,-0.12618446350097656,-0.08557087182998657
1683935655700095200,10.45709521484375,-0.17723417282104492,-0.15542984008789062,-0.12070569396018982
1683935655710136300,10.46713623046875,-0.152968168258667,-0.21986007690429688,-0.20029538869857788
1683935655720177200,10.47717724609375,-0.18494606018066406,-0.2928647994995117,-0.2979441285133362
1683935655730218200,10.48721826171875,-0.27628636360168457,-0.37010765075683594,-0.3954222798347473
1683935655740259300,10.49725927734375,-0.39043712615966797,-0.3996572494506836,-0.509979784488678
1683935655750300400,10.507300537109375,-0.5055034160614014,-0.36258411407470703,-0.6005340814590454
1683935655760341200,10.51734130859375,-0.5803117752075195,-0.3761882781982422,-0.6406480073928833
1683935655770382300,10.52738232421875,-0.6333339214324951,-0.35692882537841797,-0.6710989475250244
1683935655780423400,10.53742333984375,-0.6304409503936768,-0.3408823013305664,-0.646772027015686
1683935655790464500,10.547464599609375,-0.5909802913665771,-0.3280210494995117,-0.5845694541931152
1683935655800505300,10.55750537109375,-0.5369694232940674,-0.2704629898071289,-0.5129307508468628
1683935655810546400,10.56754638671875,-0.482959508895874,-0.25185108184814453,-0.48393088579177856
1683935655820587500,10.57758740234375,-0.42882680892944336,-0.22679805755615234,-0.34376010298728943
1683935655830628600,10.587628662109376,-0.3536107540130615,-0.13072776794433594,-0.28877490758895874
1683935655840669700,10.597669677734375,-0.28948450088500977,-0.07484912872314453,-0.2591530680656433
1683935655850710500,10.60771044921875,-0.2300713062286377,-0.03902149200439453,-0.24588537216186523
1683935655860751600,10.617751708984375,-0.18488526344299316,-0.20650863647460938,-0.08636371791362762
1683935655870792700,10.627792724609375,-0.2025308609008789,-0.2233295440673828,0.0032183676958084106
1683935655880833800,10.637833740234376,-0.19468116760253906,-0.16972637176513672,0.026506349444389343
1683935655890874600,10.64787451171875,-0.1944124698638916,-0.14111804962158203,0.031894490122795105
1683935655900915700,10.657915771484374,-0.22283625602722168,-0.06881046295166016,-0.01287512481212616
1683935655910956800,10.667956787109375,-0.16479778289794922,-0.028700828552246094,-0.0664505586028099
1683935655920998000,10.677997802734374,-0.13345861434936523,0.04123115539550781,-0.1490064263343811
1683935655931038700,10.688038818359376,-0.07066559791564941,0.08193492889404297,-0.20773708820343018
1683935655941079800,10.698079833984375,-0.038977861404418945,0.11295032501220703,-0.3393107056617737
1683935655951121000,10.708120849609376,-0.01443171501159668,0.1015157699584961,-0.4499388337135315
1683935655961162000,10.718161865234375,0.015286922454833984,0.017614364624023438,-0.43713220953941345
1683935655971202800,10.728202880859374,0.053348541259765625,-0.07187843322753906,-0.4054183065891266
1683935655981244000,10.738243896484375,0.12815189361572266,-0.07512474060058594,-0.43327534198760986
1683935655991285000,10.748284912109375,0.23639392852783203,-0.08057498931884766,-0.36238905787467957
1683935656001326000,10.758326171875,0.3460044860839844,0.0839223861694336,-0.427240252494812
1683935656011367000,10.768366943359375,0.4345278739929199,0.1592702865600586,-0.48129427433013916
1683935656021408000,10.778407958984374,0.49420690536499023,0.29791831970214844,-0.4993799924850464
1683935656031449000,10.788448974609375,0.5321745872497559,0.37652015686035156,-0.4078185558319092
1683935656041490200,10.798490234375,0.5724812746047974,0.4078340530395508,-0.310586541891098
1683935656051531300,10.80853125,0.6225414276123047,0.4372825622558594,-0.15646842122077942
1683935656061572000,10.818572021484375,0.6306596994400024,0.48131465911865234,-0.08320575952529907
1683935656071613200,10.82861328125,0.6163041591644287,0.5020246505737305,-0.03495258092880249
1683935656081654300,10.838654296875,0.5513166189193726,0.47867298126220703,0.02886715531349182
1683935656091695400,10.8486953125,0.4683845043182373,0.5323076248168945,0.06662378460168839
1683935656101736200,10.858736083984375,0.27320361137390137,0.5440044403076172,0.08399972319602966
1683935656111777300,10.86877734375,0.010722875595092773,0.4153614044189453,0.11445987224578857
1683935656121818400,10.878818359375,-0.26387834548950195,0.21168804168701172,0.23041796684265137
1683935656131859500,10.888859375,-0.3313932418823242,-0.00046062469482421875,0.44475090503692627
1683935656141900500,10.898900634765624,-0.17745232582092285,-0.1247549057006836,0.7208436131477356
1683935656151941400,10.90894140625,-0.03839516639709473,-0.15804290771484375,0.8970129489898682
1683935656161982500,10.918982421875,0.014582395553588867,0.0655059814453125,0.7839428186416626
1683935656172023600,10.9290234375,0.1224064826965332,0.2783498764038086,0.5735065340995789
1683935656182064600,10.939064697265625,0.27138686180114746,0.3090353012084961,0.5468811988830566
1683935656192105500,10.94910546875,0.45323169231414795,0.30901050567626953,0.5346208214759827
1683935656202146600,10.959146484375,0.5916025638580322,0.3471097946166992,0.47736892104148865
1683935656212187600,10.969187744140624,0.6858989000320435,0.3405284881591797,0.35056647658348083
1683935656222228700,10.979228759765626,0.709222674369812,0.4080085754394531,0.12529274821281433
1683935656232269600,10.98926953125,0.6020491123199463,0.4544219970703125,-0.2526318430900574
1683935656242310700,10.999310546875,0.4909086227416992,0.3670768737792969,-0.4970410466194153
1683935656252351700,11.009351806640625,0.3634488582611084,0.2324848175048828,-0.688907265663147
1683935656262392800,11.019392822265624,0.2082153558731079,0.053244590759277344,-0.8958263993263245
1683935656272434000,11.029433837890625,-0.0036401748657226562,-0.03364086151123047,-1.0482534170150757
1683935656282474800,11.039474853515625,-0.22721314430236816,-0.15006732940673828,-1.0833642482757568
1683935656292515800,11.049515869140626,-0.40611720085144043,-0.1828603744506836,-1.0382816791534424
1683935656302557000,11.059556884765625,-0.5869278907775879,-0.21687889099121094,-1.0308051109313965
1683935656312598000,11.069597900390624,-0.7255741357803345,-0.35964393615722656,-0.8969646692276001
1683935656322638800,11.079638916015625,-0.8107185363769531,-0.3722057342529297,-0.8848225474357605
1683935656332680000,11.089679931640624,-0.8016432523727417,-0.4291114807128906,-0.9491479992866516
1683935656342721000,11.099720947265626,-0.6836742162704468,-0.42482471466064453,-1.0437266826629639
1683935656352762000,11.10976220703125,-0.498868465423584,-0.47360897064208984,-1.1816109418869019
1683935656362803200,11.11980322265625,-0.35872888565063477,-0.5485897064208984,-1.1999924182891846
1683935656372844000,11.129843994140625,-0.21645069122314453,-0.6421756744384766,-1.249979019165039
1683935656382885000,11.139885009765624,-0.16336417198181152,-0.6444835662841797,-1.1689749956130981
1683935656392926200,11.14992626953125,-0.18093079328536987,-0.6013650894165039,-1.0321229696273804
1683935656402967300,11.15996728515625,-0.263688862323761,-0.49416351318359375,-0.9406527280807495
1683935656413008100,11.170008056640626,-0.35340988636016846,-0.4379425048828125,-0.7835587859153748
1683935656423049200,11.18004931640625,-0.39737468957901,-0.41123104095458984,-0.6075409650802612
1683935656433090300,11.19009033203125,-0.3612503409385681,-0.3423032760620117,-0.5417845249176025
1683935656443131400,11.20013134765625,-0.29090118408203125,-0.3648834228515625,-0.3334878981113434
1683935656453172200,11.210172119140625,-0.17647111415863037,-0.34717464447021484,-0.20287075638771057
1683935656463213300,11.22021337890625,-0.06630492210388184,-0.26277828216552734,-0.0944553017616272
1683935656473254400,11.23025439453125,0.056481003761291504,-0.22156429290771484,0.042018115520477295
1683935656483295500,11.24029541015625,0.10736805200576782,-0.1827859878540039,0.17978879809379578
1683935656493336600,11.250336669921875,0.12768229842185974,-0.15844345092773438,0.2832900881767273
1683935656503377400,11.26037744140625,0.13277623057365417,-0.15813446044921875,0.3456858694553375
1683935656513418500,11.27041845703125,0.13057366013526917,-0.15797710418701172,0.4173583984375
1683935656523459600,11.28045947265625,0.12380293011665344,-0.16994380950927734,0.42300310730934143
1683935656533500700,11.290500732421876,0.10702851414680481,-0.13428783416748047,0.3923226594924927
1683935656543541500,11.30054150390625,-0.01190212368965149,-0.1633291244506836,0.31862401962280273
1683935656553582600,11.31058251953125,-0.13957899808883667,-0.2902946472167969,0.2171843945980072
1683935656563623700,11.320623779296875,-0.3691033720970154,-0.9233007431030273,0.29536351561546326
1683935656573664800,11.330664794921875,-0.5924614667892456,-1.428299903869629,0.1574985682964325
1683935656583705900,11.340705810546876,-0.8816174864768982,-2.0565414428710938,0.11552167683839798
1683935656593746700,11.35074658203125,-1.0895371437072754,-2.036510467529297,-0.1098904237151146
1683935656603787800,11.360787841796874,-1.315808653831482,-1.5393695831298828,-0.46152135729789734
1683935656613828900,11.370828857421875,-1.5020991563796997,-0.7906131744384766,-0.7526145577430725
1683935656623870000,11.380869873046874,-1.5165743827819824,-0.1249856948852539,-0.9729282259941101
1683935656633910800,11.390910888671876,-1.3257160186767578,0.1211557388305664,-1.0603396892547607
1683935656643951900,11.400951904296875,-0.8091399669647217,0.2139911651611328,-1.0779352188110352
1683935656653993000,11.410992919921876,-0.204825758934021,0.28043556213378906,-1.0289095640182495
1683935656664034000,11.421033935546875,0.35022762417793274,0.4374809265136719,-0.9064339995384216
1683935656674075000,11.431074951171874,0.7146471738815308,0.5988616943359375,-0.7753726840019226
1683935656684116000,11.441115966796875,0.9622195363044739,0.6546859741210938,-0.595617413520813
1683935656694157000,11.451156982421875,1.0902979373931885,0.5956697463989258,-0.32394635677337646
1683935656704198100,11.4611982421875,1.1005654335021973,0.40060901641845703,0.0035206004977226257
1683935656714239200,11.4712392578125,1.0056878328323364,0.1629619598388672,0.2859306335449219
1683935656724280000,11.481280029296874,0.8336136341094971,0.06428241729736328,0.5333886742591858
1683935656734321200,11.491321044921875,0.5967733860015869,-0.07012653350830078,0.7652440667152405
1683935656744362200,11.5013623046875,0.3942514657974243,-0.1303081512451172,1.0385982990264893
1683935656754403300,11.5114033203125,0.2149636596441269,-0.20478153228759766,1.3669859170913696
1683935656764444200,11.521444091796875,0.07836484909057617,-0.22183799743652344,1.6467872858047485
1683935656774485200,11.5314853515625,-0.06434600055217743,-0.3892984390258789,2.0075366497039795
1683935656784526300,11.5415263671875,-0.10814495384693146,-0.38185882568359375,2.205286741256714
1683935656794567400,11.5515673828125,-0.06343168020248413,-0.2500343322753906,2.2480883598327637
1683935656804608500,11.5616083984375,0.05210846662521362,-0.08013248443603516,2.2692906856536865
1683935656814649300,11.5716494140625,0.21867510676383972,0.12768077850341797,2.2956323623657227
1683935656824690400,11.5816904296875,0.3546588718891144,0.3087730407714844,2.295999526977539
1683935656834731500,11.5917314453125,0.45830291509628296,0.4058685302734375,2.3224754333496094
1683935656844772600,11.601772705078124,0.5522799491882324,0.4287090301513672,2.3173415660858154
1683935656854813400,11.6118134765625,0.5925171375274658,0.3965435028076172,2.3194289207458496
1683935656864854500,11.6218544921875,0.6450920701026917,0.28319263458251953,2.296064615249634
1683935656874895600,11.6318955078125,0.6501293182373047,0.20346832275390625,2.239980459213257
1683935656884936700,11.641936767578125,0.6849666833877563,0.09042739868164062,2.1940062046051025
1683935656894977800,11.651977783203124,0.6522442102432251,0.013402938842773438,2.1149606704711914
1683935656905018600,11.6620185546875,0.5977248549461365,-0.05637073516845703,1.9766896963119507
1683935656915059700,11.672059814453124,0.5049028396606445,-0.1141519546508789,1.788172721862793
1683935656925100800,11.682100830078125,0.39141878485679626,-0.13130760192871094,1.4511263370513916
1683935656935142000,11.692141845703125,0.2782652676105499,-0.12940311431884766,1.0554969310760498
1683935656945183000,11.702182861328126,0.20454558730125427,-0.07504081726074219,0.6941385269165039
1683935656955223800,11.712223876953125,0.11350452899932861,-0.1999664306640625,0.35380199551582336
1683935656965265000,11.722264892578124,0.07975044846534729,-0.32457637786865234,0.10609127581119537
1683935656975306000,11.732305908203125,0.02939814329147339,-0.4345073699951172,-0.07315751910209656
1683935656985347000,11.74234716796875,0.01436382532119751,-0.39368629455566406,-0.25738540291786194
1683935656995388000,11.752387939453126,0.00535053014755249,-0.30758094787597656,-0.3336639106273651
1683935657005429000,11.762428955078125,-0.007043421268463135,-0.21926498413085938,-0.32147136330604553
1683935657015470000,11.772469970703124,-0.007893145084381104,-0.16690826416015625,-0.25262323021888733
1683935657025511200,11.78251123046875,0.0007967352867126465,-0.11934089660644531,-0.14894577860832214
1683935657035552300,11.79255224609375,0.023418426513671875,-0.09805488586425781,0.029566340148448944
1683935657045593000,11.802593017578126,0.06131166219711304,-0.0648345947265625,0.21256373822689056
1683935657055634200,11.81263427734375,0.08739608526229858,-0.05557441711425781,0.34706446528434753
1683935657065675300,11.82267529296875,0.11567652225494385,-0.05352210998535156,0.48751819133758545
1683935657075716400,11.83271630859375,0.10077673196792603,-0.06344413757324219,0.5427497625350952
1683935657085757200,11.842757080078124,0.12136834859848022,-0.0614471435546875,0.5609610676765442
1683935657095798300,11.85279833984375,0.08199959993362427,-0.10008430480957031,0.4571497142314911
1683935657105839400,11.86283935546875,0.09315085411071777,-0.08607959747314453,0.4424379765987396
1683935657115880400,11.87288037109375,0.1050952672958374,-0.09117889404296875,0.40143871307373047
1683935657125921500,11.882921630859375,0.13019680976867676,-0.1320171356201172,0.2699168622493744
1683935657135962400,11.89296240234375,0.13033521175384521,-0.1869983673095703,0.21328340470790863
1683935657146003500,11.90300341796875,0.1532750129699707,-0.29190635681152344,0.15022799372673035
1683935657156044500,11.91304443359375,0.21526777744293213,-0.23170852661132812,0.13333913683891296
1683935657166085600,11.923085693359376,0.2684963345527649,-0.18593311309814453,0.12620078027248383
1683935657176126500,11.93312646484375,0.3070974349975586,-0.2141895294189453,0.20319026708602905
1683935657186167600,11.94316748046875,0.32900017499923706,-0.13001632690429688,0.1271921545267105
1683935657196208600,11.953208740234375,0.430728018283844,-0.12005901336669922,0.01392318308353424
1683935657206249700,11.963249755859374,0.5385435819625854,-0.2296314239501953,-0.10281901061534882
1683935657216290600,11.97329052734375,0.6464341878890991,-0.3844881057739258,-0.19908472895622253
1683935657226331600,11.98333154296875,0.7072659730911255,-0.31237316131591797,-0.38409334421157837
1683935657236372700,11.993372802734376,0.668061375617981,-0.028230667114257812,-0.4356713593006134
1683935657246413800,12.003413818359375,0.5470512509346008,0.14034271240234375,-0.5654217600822449
1683935657256455000,12.013454833984374,0.38912689685821533,0.19141674041748047,-0.6707358956336975
1683935657266495700,12.023495849609375,0.20573735237121582,0.08723831176757812,-0.6528252363204956
1683935657276536800,12.033536865234375,0.03238511085510254,-0.028356552124023438,-0.5308004021644592
1683935657286578000,12.043577880859376,-0.06504923105239868,-0.14809417724609375,-0.3777294158935547
1683935657296619000,12.053618896484375,-0.038876473903656006,-0.1621265411376953,-0.27123451232910156
1683935657306659800,12.063659912109374,0.07694858312606812,-0.22136211395263672,-0.24241332709789276
1683935657316701000,12.073700927734375,0.2258390188217163,-0.3404121398925781,-0.30145302414894104
1683935657326742000,12.083741943359374,0.23926442861557007,-0.4117565155029297,-0.16596826910972595
1683935657336783000,12.093783203125,0.225086510181427,0.0017366409301757812,0.2360699474811554
1683935657346824200,12.10382421875,0.22078031301498413,0.6171655654907227,0.5883892774581909
1683935657356865000,12.113864990234376,0.2630183696746826,0.7462673187255859,1.06326162815094
1683935657366906000,12.123906005859375,0.21839940547943115,0.6384048461914062,1.7299100160598755
1683935657376947200,12.133947265625,0.0375332236289978,0.42537784576416016,2.323528528213501
1683935657386988300,12.14398828125,-0.24694550037384033,0.38704967498779297,2.448850154876709
1683935657397029400,12.154029296875,-0.5657871961593628,-0.10947608947753906,2.370697498321533
1683935657407070200,12.1640703125,-0.7912599444389343,-0.6566791534423828,2.021740436553955
1683935657417111300,12.174111328125,-0.8589290976524353,-0.9749927520751953,1.711682677268982
1683935657427152400,12.18415234375,-0.7748557925224304,-0.9889211654663086,1.3385967016220093
1683935657437193500,12.194193359375,-0.5984380841255188,-0.6518306732177734,0.819317638874054
1683935657447234300,12.204234375,-0.4443776309490204,-0.3991556167602539,0.30005910992622375
1683935657457275400,12.214275390625,-0.309254914522171,-0.34026050567626953,-0.0749397873878479
1683935657467316500,12.22431640625,-0.1132364273071289,-0.22865581512451172,-0.33242079615592957
1683935657477357600,12.234357666015624,0.09975087642669678,-0.12917041778564453,-0.5168803334236145
1683935657487398700,12.244398681640625,0.3322645425796509,-0.018144607543945312,-0.6510315537452698
1683935657497439500,12.254439453125,0.495263934135437,-0.046172142028808594,-0.6577274799346924
1683935657507480600,12.26448046875,0.6057746410369873,-0.14354610443115234,-0.5961816906929016
1683935657517521700,12.274521728515625,0.7161183953285217,-0.18813228607177734,-0.471323698759079
1683935657527562800,12.284562744140626,0.8274818658828735,-0.16330814361572266,-0.29390621185302734
1683935657537603600,12.294603515625,0.9668402671813965,-0.06465435028076172,-0.12076887488365173
1683935657547644700,12.304644775390624,1.038299322128296,0.0262451171875,0.030211567878723145
1683935657557685800,12.314685791015625,1.0003180503845215,0.11412715911865234,0.13503456115722656
1683935657567726800,12.324726806640625,0.856917142868042,0.13938426971435547,0.22506928443908691
1683935657577768000,12.334767822265626,0.6652763485908508,0.19784164428710938,0.2961544990539551
1683935657587808800,12.344808837890625,0.4934449791908264,0.18918514251708984,0.4035106897354126
1683935657597849900,12.354849853515624,0.3036680817604065,0.10878849029541016,0.45083415508270264
1683935657607891000,12.364890869140625,0.14198994636535645,0.07147026062011719,0.46898335218429565
1683935657617932000,12.37493212890625,0.004586994647979736,0.007930755615234375,0.4461284279823303
1683935657627972900,12.384972900390625,-0.11144411563873291,-0.029109954833984375,0.3560643196105957
1683935657638014000,12.395013916015625,-0.17378661036491394,-0.001369476318359375,0.1614973545074463
1683935657648055000,12.405054931640626,-0.19764041900634766,-0.13828754425048828,0.07077455520629883
1683935657658096000,12.41509619140625,-0.1755472719669342,-0.11957454681396484,0.02857685089111328
1683935657668137200,12.42513720703125,-0.1850430965423584,-0.15822410583496094,0.0515095591545105
