time,seconds_elapsed,z,y,x
1683928259201113600,0.038113525390625,0,0,0
1683928259211155700,0.04815576171875,0.08028793334960938,-0.2069554328918457,0.04102683067321777
1683928259221197800,0.05819775390625,0.3490457534790039,-0.45233917236328125,0.09612679481506348
1683928259231240000,0.068239990234375,0.36161231994628906,-0.45560169219970703,0.05733156204223633
1683928259241282000,0.078281982421875,0.29782772064208984,-0.5996251106262207,-0.015846967697143555
1683928259251324400,0.088324462890625,0.540313720703125,-0.8972158432006836,-0.32892298698425293
1683928259261366500,0.098366455078125,1.645059585571289,-0.4130587577819824,-0.37743544578552246
1683928259271408600,0.10840869140625,1.3222894668579102,-0.2810964584350586,0.6259660720825195
1683928259281450800,0.11845068359375,0.5638446807861328,-1.0000519752502441,1.5819149017333984
1683928259291492900,0.128492919921875,-0.3228731155395508,-0.7496371269226074,1.5690417289733887
1683928259301535000,0.138534912109375,-1.4841804504394531,-0.7094883918762207,1.3894238471984863
1683928259311577000,0.1485771484375,-1.8916802406311035,-0.5126218795776367,1.960547924041748
1683928259321619200,0.158619140625,-2.192078113555908,0.03905344009399414,1.6431918144226074
1683928259331661300,0.168661376953125,-2.0442676544189453,0.8831477165222168,1.6256318092346191
1683928259341703700,0.17870361328125,-1.994053840637207,1.0643601417541504,1.5331883430480957
1683928259351745800,0.188745849609375,-1.1996121406555176,0.9545731544494629,1.181166172027588
1683928259361788000,0.198787841796875,0.12510061264038086,1.0834603309631348,0.4407052993774414
1683928259371830000,0.208830078125,0.7204413414001465,2.0473830699920654,-0.9107241630554199
1683928259381872000,0.2188720703125,1.3511085510253906,0.908134937286377,-1.818070888519287
1683928259391914200,0.228914306640625,2.5446410179138184,0.1275022029876709,-2.1538643836975098
1683928259401956400,0.238956298828125,-0.2149496078491211,-1.5516822338104248,-1.415578842163086
1683928259411998500,0.24899853515625,-4.305498123168945,-2.5767672061920166,-2.3375844955444336
1683928259422040600,0.25904052734375,-0.5626535415649414,-0.7326781749725342,-3.0338969230651855
1683928259432083000,0.2690830078125,0.8909792900085449,0.37224268913269043,-1.1822805404663086
1683928259442125000,0.279125,0.0013976097106933594,0.21078848838806152,0.2494659423828125
1683928259452167200,0.289167236328125,-0.21605253219604492,0.9525668621063232,0.4540214538574219
1683928259462209300,0.299209228515625,-1.0852341651916504,2.0448460578918457,0.8842525482177734
1683928259472251400,0.30925146484375,-1.559776782989502,1.9236584901809692,0.7389698028564453
1683928259482293500,0.31929345703125,-1.1100187301635742,1.173804521560669,0.21035385131835938
1683928259492335600,0.329335693359375,-0.5606024265289307,0.6317746639251709,-0.08721542358398438
1683928259502377700,0.339377685546875,-0.30896472930908203,0.5522732734680176,0.10509395599365234
1683928259512420000,0.349420166015625,0.19040465354919434,0.567842960357666,0.5231533050537109
1683928259522462200,0.359462158203125,1.1647121906280518,0.6876764297485352,0.48606300354003906
1683928259532504300,0.36950439453125,2.3219070434570312,0.7417550086975098,0.47444915771484375
1683928259542546400,0.37954638671875,2.807257890701294,0.5715310573577881,0.30185794830322266
1683928259552588500,0.389588623046875,3.814387083053589,1.5986145734786987,-0.7120580673217773
1683928259562630700,0.399630615234375,8.467257499694824,1.6756263971328735,-2.3322196006774902
1683928259572672800,0.4096728515625,4.275336265563965,1.1872225999832153,0.08967113494873047
1683928259582715000,0.41971484375,-1.3705523014068604,-2.6756668090820312,0.44859790802001953
1683928259592757000,0.429757080078125,-2.8091845512390137,-1.5916662216186523,-1.2484827041625977
1683928259602799400,0.43979931640625,-2.471057176589966,1.2630863189697266,-2.5515146255493164
1683928259612841500,0.449841552734375,-2.719656467437744,1.4115331172943115,-1.3627729415893555
1683928259622883600,0.459883544921875,-4.137226581573486,1.0986204147338867,1.0953702926635742
1683928259632925700,0.46992578125,-6.2123260498046875,2.001039743423462,1.8939619064331055
1683928259642967800,0.4799677734375,-6.0218329429626465,2.3421313762664795,2.0305347442626953
1683928259653010000,0.490010009765625,-4.071945667266846,2.1932573318481445,1.1068439483642578
1683928259663052000,0.500052001953125,-2.3458304405212402,1.8485090732574463,-0.05545234680175781
1683928259673094100,0.51009423828125,-0.6953120231628418,0.977303147315979,-1.0539436340332031
1683928259683136300,0.52013623046875,0.6802477836608887,0.12812042236328125,-0.7724905014038086
1683928259693178600,0.5301787109375,1.662561297416687,-0.534339189529419,-0.15538787841796875
1683928259703220700,0.540220703125,2.118407726287842,-0.5608761310577393,-0.1091766357421875
1683928259713262800,0.550262939453125,1.6000757217407227,-1.1912755966186523,-0.8237342834472656
1683928259723305000,0.560304931640625,0.5970838665962219,-1.5601894855499268,-1.9735136032104492
1683928259733347000,0.57034716796875,-1.2756071090698242,-1.9573266506195068,-2.5774240493774414
1683928259743389200,0.58038916015625,-2.192531108856201,-1.9441211223602295,-2.5759410858154297
1683928259753431300,0.590431396484375,-1.603692889213562,-1.8600544929504395,-2.3712191581726074
1683928259763473400,0.600473388671875,-1.1104341745376587,-1.6169366836547852,-2.1578359603881836
1683928259773515800,0.610515869140625,-1.2932010889053345,-1.5880818367004395,1.4337310791015625
1683928259783558000,0.620557861328125,-0.9029169082641602,-2.5876119136810303,0.4640998840332031
1683928259793600000,0.63060009765625,-2.174515724182129,-3.4799680709838867,1.7156457901000977
1683928259803642000,0.64064208984375,-1.1536574363708496,-1.6403040885925293,0.6001882553100586
1683928259813684200,0.650684326171875,-0.014155149459838867,0.27563488483428955,0.5454072952270508
1683928259823726300,0.660726318359375,0.27960896492004395,0.36457276344299316,1.944671630859375
1683928259833768400,0.6707685546875,0.062239885330200195,-0.9880666732788086,2.117030143737793
1683928259843810600,0.680810546875,0.19304776191711426,-1.8981685638427734,1.9484844207763672
1683928259853853000,0.69085302734375,1.0060237646102905,-1.6316602230072021,1.1796350479125977
1683928259863895000,0.70089501953125,1.5279299020767212,-0.9540290832519531,1.2637968063354492
1683928259873937200,0.710937255859375,1.9436970949172974,-0.8763062953948975,0.9856929779052734
1683928259883979300,0.720979248046875,1.8807153701782227,-1.152442455291748,-0.35741710662841797
1683928259894021400,0.731021484375,1.3650239706039429,-1.0276358127593994,-0.9643135070800781
1683928259904063500,0.7410634765625,0.43764615058898926,-0.5588960647583008,-0.7581386566162109
1683928259914105600,0.751105712890625,-0.2299501895904541,-0.4057731628417969,-1.0358448028564453
1683928259924147700,0.761147705078125,0.09839200973510742,-0.04138660430908203,-0.7815589904785156
1683928259934190000,0.771190185546875,1.197446584701538,0.8982177972793579,-0.3622856140136719
1683928259944232200,0.781232177734375,1.6014478206634521,1.735701084136963,-0.7091798782348633
1683928259954274300,0.7912744140625,1.225639820098877,2.140348196029663,-1.035318374633789
1683928259964316400,0.80131640625,0.4631364345550537,2.7246711254119873,-1.3986482620239258
1683928259974358500,0.811358642578125,-0.18060386180877686,3.271623134613037,-1.4933528900146484
1683928259984400600,0.821400634765625,-0.03169608116149902,3.661254644393921,-1.0364398956298828
1683928259994442800,0.83144287109375,0.6704354286193848,3.5181398391723633,0.22552967071533203
1683928260004484900,0.84148486328125,1.867856502532959,3.1520893573760986,1.0216503143310547
1683928260014527200,0.85152734375,2.4747700691223145,2.785625457763672,1.3596086502075195
1683928260024569300,0.8615693359375,2.7659764289855957,2.0452356338500977,1.3139410018920898
1683928260034611500,0.871611572265625,2.930872917175293,1.3334044218063354,1.0515632629394531
1683928260044653600,0.881653564453125,3.0476417541503906,0.677768349647522,1.095163345336914
1683928260054695700,0.89169580078125,2.6889450550079346,0.8677903413772583,-0.0072536468505859375
1683928260064737800,0.90173779296875,1.8964223861694336,0.4667084217071533,-0.5356941223144531
1683928260074780000,0.91177978515625,0.30042970180511475,0.4376075267791748,-1.3282766342163086
1683928260084822000,0.921822021484375,-1.0483983755111694,0.8937497138977051,-2.7696456909179688
1683928260094864100,0.931864013671875,-0.11705005168914795,0.20818829536437988,-3.81770658493042
1683928260104906500,0.941906494140625,1.5772360563278198,0.5744876861572266,-4.467984199523926
1683928260114948600,0.951948486328125,0.7411414384841919,0.28238940238952637,-3.0364022254943848
1683928260124990700,0.96199072265625,-0.9313386082649231,-0.5760023593902588,-0.08540821075439453
1683928260135032800,0.97203271484375,-2.525419235229492,-0.736304759979248,1.9817895889282227
1683928260145075000,0.982074951171875,-4.08365535736084,-0.2665107250213623,2.8546743392944336
1683928260155117000,0.992116943359375,-3.3624091148376465,0.7680737972259521,1.7403993606567383
1683928260165159200,1.0021591796875,-2.025998830795288,0.8935227394104004,-0.6683721542358398
1683928260175201300,1.012201171875,-1.5171939134597778,-0.8501870632171631,-0.7790260314941406
1683928260185243400,1.022243408203125,2.144145965576172,0.7416396141052246,-4.699384689331055
1683928260195285800,1.03228564453125,0.35172364115715027,0.20493364334106445,-1.1058235168457031
1683928260205328000,1.042327880859375,2.3309571743011475,3.332601547241211,-3.928041934967041
1683928260215370000,1.052369873046875,2.01082444190979,4.552326202392578,-3.8926024436950684
1683928260225412000,1.062412109375,-1.0034985542297363,0.6335678100585938,0.7257547378540039
1683928260235454200,1.0724541015625,-1.557299017906189,-0.6924858093261719,1.8430109024047852
1683928260245496300,1.082496337890625,-0.03024423122406006,-0.6395533084869385,2.6205835342407227
1683928260255538400,1.092538330078125,0.6890317797660828,-0.5993609428405762,2.728404998779297
1683928260265580500,1.10258056640625,1.0030319690704346,-0.675661563873291,2.153487205505371
1683928260275623000,1.112622802734375,0.589350700378418,-0.5650167465209961,1.1995668411254883
1683928260285665000,1.1226650390625,-1.630149483680725,-2.037003517150879,1.968832015991211
1683928260295707100,1.13270703125,-2.1268246173858643,-1.445997714996338,2.519864082336426
1683928260305749200,1.142749267578125,-0.6400526762008667,2.5215725898742676,-3.583116054534912
1683928260315791400,1.152791259765625,-1.0356948375701904,2.9798026084899902,-4.854545593261719
1683928260325833500,1.16283349609375,-0.8956820964813232,-0.1753711700439453,-0.8607053756713867
1683928260335875600,1.17287548828125,1.0032706260681152,-1.2756457328796387,-0.9961299896240234
1683928260345918000,1.18291796875,1.484173059463501,-2.2366671562194824,1.8644866943359375
1683928260355960000,1.1929599609375,2.7369589805603027,-1.2076067924499512,2.779250144958496
1683928260366002200,1.203002197265625,3.843020439147949,-0.19867324829101562,3.598909378051758
1683928260376044300,1.213044189453125,3.2937211990356445,0.3536252975463867,2.6841697692871094
1683928260386086400,1.22308642578125,1.8513299226760864,0.14610958099365234,1.6622085571289062
1683928260396128500,1.23312841796875,0.5301745533943176,-0.059722900390625,1.9426913261413574
1683928260406170600,1.243170654296875,-0.502136766910553,0.3342709541320801,2.152768611907959
1683928260416212700,1.253212646484375,-0.8467381000518799,0.4887089729309082,2.492314338684082
1683928260426254800,1.2632548828125,-0.8112213611602783,1.1793217658996582,2.390514850616455
1683928260436297200,1.273297119140625,-0.9406949281692505,1.5754828453063965,1.771021842956543
1683928260446339300,1.28333935546875,-0.9237873554229736,1.6518235206604004,1.8330259323120117
1683928260456381400,1.29338134765625,-0.7629971504211426,1.7509326934814453,2.296341896057129
1683928260466423600,1.303423583984375,-1.0020771026611328,2.1766605377197266,1.8718814849853516
1683928260476465700,1.313465576171875,-1.646743655204773,1.7314887046813965,0.9715447425842285
1683928260486507800,1.3235078125,-2.228980302810669,0.18555068969726562,0.7262954711914062
1683928260496550000,1.3335498046875,-0.9988783001899719,-0.4555654525756836,0.9581642150878906
1683928260506592000,1.343592041015625,0.5799261331558228,-0.49753904342651367,1.4139018058776855
1683928260516634400,1.35363427734375,1.4890341758728027,-0.7653260231018066,1.2249913215637207
1683928260526676500,1.363676513671875,1.2080638408660889,-0.37793922424316406,0.16236543655395508
1683928260536718600,1.373718505859375,1.1245492696762085,-0.11043453216552734,0.047785282135009766
1683928260546760700,1.3837607421875,0.8963497281074524,0.30247974395751953,0.3646683692932129
1683928260556802800,1.393802734375,1.1081247329711914,0.7647314071655273,0.687079906463623
1683928260566845000,1.403844970703125,1.3460466861724854,1.1466612815856934,1.119030475616455
1683928260576887000,1.413886962890625,0.9093732237815857,1.210130214691162,1.4815673828125
1683928260586929400,1.423929443359375,0.8933577537536621,0.8801231384277344,1.5007586479187012
1683928260596971500,1.433971435546875,1.488755226135254,0.6481585502624512,1.5327491760253906
1683928260607013600,1.444013671875,2.016373634338379,0.2418375015258789,1.7741374969482422
1683928260617055700,1.4540556640625,2.2694053649902344,0.2724461555480957,2.624314785003662
1683928260627097900,1.464097900390625,2.152470350265503,0.29656314849853516,2.922671318054199
1683928260637140000,1.474139892578125,2.073380947113037,-0.029857635498046875,2.2359776496887207
1683928260647182000,1.48418212890625,1.8917267322540283,-0.44674253463745117,1.0528039932250977
1683928260657224200,1.49422412109375,1.0883593559265137,-0.9550328254699707,-0.2653007507324219
1683928260667266600,1.5042666015625,0.7682989239692688,-1.3873186111450195,-1.1017303466796875
1683928260677308700,1.51430859375,0.7869876027107239,-1.8111157417297363,-0.9826316833496094
1683928260687350800,1.524350830078125,0.7119492888450623,-1.6364436149597168,-0.8396444320678711
1683928260697393000,1.534392822265625,0.7844836115837097,-1.1393046379089355,-1.0247750282287598
1683928260707435000,1.54443505859375,-0.321381151676178,-1.7889471054077148,-0.9232997894287109
1683928260717477000,1.55447705078125,-0.7181304097175598,-1.7980833053588867,-1.3111896514892578
1683928260727519200,1.564519287109375,-0.8868578672409058,-1.6864871978759766,-1.3465852737426758
1683928260737561300,1.574561279296875,-1.1261125802993774,-1.221522331237793,-1.355039119720459
1683928260747603500,1.584603515625,-1.5893797874450684,-0.9150843620300293,-1.4469599723815918
1683928260757645800,1.594645751953125,-1.5800039768218994,-0.5527896881103516,-1.9408550262451172
1683928260767688000,1.60468798828125,-0.7163985371589661,-0.36247873306274414,-1.1469907760620117
1683928260777730000,1.61472998046875,-1.6913518905639648,-0.6309347152709961,-0.10880661010742188
1683928260787772200,1.624772216796875,-1.7425934076309204,-0.2713756561279297,-1.7520852088928223
1683928260797814300,1.634814208984375,-1.519300103187561,0.2477250099182129,-2.6905035972595215
1683928260807856400,1.6448564453125,-1.7909544706344604,0.1748828887939453,-1.874516487121582
1683928260817898500,1.6548984375,-1.682549238204956,0.1551833152770996,-1.506950855255127
1683928260827940900,1.66494091796875,-0.9910029172897339,0.24701929092407227,-1.5044684410095215
1683928260837983000,1.67498291015625,-0.13191115856170654,0.16016817092895508,-1.048192024230957
1683928260848025000,1.685025146484375,-0.27018213272094727,-0.35211658477783203,-0.27081775665283203
1683928260858067200,1.695067138671875,0.2109440565109253,-0.40917158126831055,-0.028809547424316406
1683928260868109300,1.705109375,0.4972091317176819,-0.27216148376464844,0.3914213180541992
1683928260878151400,1.7151513671875,-0.12613701820373535,-0.3132052421569824,0.7708539962768555
1683928260888193500,1.725193603515625,-0.43193531036376953,-0.2727828025817871,0.7462501525878906
1683928260898235600,1.735235595703125,-0.5427811145782471,-0.3308281898498535,0.4689369201660156
1683928260908278000,1.745278076171875,-0.8505418300628662,-0.6514840126037598,0.21665382385253906
1683928260918320000,1.755320068359375,-1.1043858528137207,-0.28914403915405273,0.16488265991210938
1683928260928362200,1.7653623046875,-1.2176885604858398,-0.47441625595092773,-0.32327795028686523
1683928260938404400,1.775404296875,-0.7205671072006226,-0.43668127059936523,-0.6992702484130859
1683928260948446500,1.785446533203125,-0.3446846008300781,-0.7885141372680664,-0.6373805999755859
1683928260958488600,1.795488525390625,0.02883446216583252,-0.762303352355957,-0.5601663589477539
1683928260968530700,1.80553076171875,0.7674488425254822,-1.107193946838379,-1.2951741218566895
1683928260978572800,1.81557275390625,0.45444953441619873,-1.2873172760009766,-1.6379847526550293
1683928260988615200,1.825615234375,0.5175518989562988,-0.38776540756225586,-1.6586971282958984
1683928260998657300,1.8356572265625,0.883749783039093,0.9244141578674316,-1.7331585884094238
1683928261008699400,1.845699462890625,0.5909308195114136,2.0173301696777344,-0.7590603828430176
1683928261018741500,1.855741455078125,-2.373802661895752,2.010511875152588,-0.6070480346679688
1683928261028783600,1.86578369140625,-4.115185260772705,1.1208524703979492,-1.7883081436157227
1683928261038825700,1.87582568359375,-5.3341217041015625,-0.26865673065185547,-2.2994165420532227
1683928261048867800,1.885867919921875,-3.9046967029571533,-1.1336231231689453,-0.834357738494873
1683928261058910000,1.895909912109375,-0.13570690155029297,-1.524662971496582,1.0145139694213867
1683928261068952300,1.905952392578125,1.7035421133041382,-0.6200885772705078,0.8637962341308594
1683928261078994400,1.915994384765625,1.7345478534698486,0.06975984573364258,1.230626106262207
1683928261089036500,1.92603662109375,2.3297290802001953,0.8981928825378418,0.22880125045776367
1683928261099078700,1.93607861328125,2.6220285892486572,0.6144919395446777,0.72674560546875
1683928261109120800,1.946120849609375,2.801301956176758,0.6598820686340332,0.6485190391540527
1683928261119163000,1.956162841796875,1.9009058475494385,0.7444825172424316,-0.14751815795898438
1683928261129205000,1.966205078125,0.7608752250671387,0.42037296295166016,-1.2303657531738281
1683928261139247000,1.9762470703125,0.22737550735473633,0.028875350952148438,-1.863487720489502
1683928261149289500,1.98628955078125,0.6286530494689941,-0.1864476203918457,-1.9493660926818848
1683928261159331600,1.99633154296875,1.2165929079055786,0.31386327743530273,-1.140852928161621
1683928261169373700,2.006373779296875,2.007977247238159,0.5104117393493652,-0.5655503273010254
1683928261179415800,2.016415771484375,2.663015604019165,0.40210771560668945,-0.3822355270385742
1683928261189458000,2.0264580078125,2.871892213821411,0.14519166946411133,-0.1751093864440918
1683928261199500000,2.0365,2.8395228385925293,-0.20193004608154297,-0.14693546295166016
1683928261209542100,2.046542236328125,2.3425588607788086,-0.24619436264038086,-0.7068781852722168
1683928261219584500,2.05658447265625,2.0500283241271973,0.24493837356567383,-2.034897804260254
1683928261229626600,2.066626708984375,1.5920026302337646,0.6889667510986328,-2.69248628616333
1683928261239668700,2.076668701171875,0.3034660816192627,0.5747199058532715,-2.6551883220672607
1683928261249710800,2.0867109375,-1.2399250268936157,0.2525968551635742,-2.9551641941070557
1683928261259753000,2.0967529296875,-6.285141468048096,0.21410274505615234,-1.3185381889343262
1683928261269795000,2.106795166015625,-9.238277435302734,1.3118329048156738,1.2023777961730957
1683928261279837200,2.116837158203125,-7.898286819458008,0.21786785125732422,0.8333873748779297
1683928261289879300,2.12687939453125,-4.0058979988098145,-0.831695556640625,0.11822223663330078
1683928261299921700,2.136921630859375,-1.9862785339355469,-0.8132753372192383,0.18019771575927734
1683928261309963800,2.1469638671875,-1.3415546417236328,-0.8111824989318848,0.4428696632385254
1683928261320006000,2.157005859375,-0.6290677785873413,-0.7292065620422363,0.42187070846557617
1683928261330048000,2.167048095703125,-0.05243086814880371,-1.2122712135314941,-0.197845458984375
1683928261340090000,2.177090087890625,1.858923077583313,-1.8072967529296875,-1.1732263565063477
1683928261350132200,2.18713232421875,3.075073480606079,0.018665790557861328,-1.4049243927001953
1683928261360174300,2.19717431640625,2.1152918338775635,1.7583889961242676,-0.6795310974121094
1683928261370216700,2.207216796875,0.5581720471382141,2.480458974838257,0.39455127716064453
1683928261380258800,2.2172587890625,-0.20811212062835693,2.512284755706787,1.0932955741882324
1683928261390301000,2.227301025390625,-0.8035186529159546,0.2024240493774414,1.278214931488037
1683928261400343000,2.237343017578125,-1.1868025064468384,-0.5116891860961914,0.31679248809814453
1683928261410385200,2.24738525390625,-1.394453525543213,0.8853139877319336,0.631260871887207
1683928261420427300,2.25742724609375,-1.333319902420044,1.0295453071594238,0.40006446838378906
1683928261430469400,2.267469482421875,-1.452393651008606,0.5797004699707031,-0.20273637771606445
1683928261440511500,2.277511474609375,-1.3777077198028564,0.5922436714172363,-0.09022235870361328
1683928261450553600,2.2875537109375,-1.0240483283996582,0.7885494232177734,0.06072568893432617
1683928261460596000,2.297595947265625,-0.8572667837142944,0.6234831809997559,-0.6917266845703125
1683928261470638000,2.30763818359375,-1.2323130369186401,0.6127395629882812,-1.2959747314453125
1683928261480680200,2.31768017578125,-1.3759557008743286,0.8856005668640137,-1.5035443305969238
1683928261490722300,2.327722412109375,-1.6311980485916138,1.342348575592041,-2.0192737579345703
1683928261500764400,2.337764404296875,-2.0181655883789062,2.1478400230407715,-2.6384947299957275
1683928261510806500,2.347806640625,-2.437431812286377,1.8761253356933594,-2.28886342048645
1683928261520849000,2.357848876953125,-2.7541699409484863,1.454153060913086,-1.8697137832641602
1683928261530891000,2.36789111328125,-3.208207845687866,1.7043828964233398,-1.1655025482177734
1683928261540933000,2.37793310546875,-2.8980588912963867,1.564040184020996,-0.5424513816833496
1683928261550975200,2.387975341796875,-2.482349157333374,0.3349738121032715,0.1148676872253418
1683928261561017300,2.398017333984375,-1.2404401302337646,-1.0913467407226562,-0.15350723266601562
1683928261571059500,2.4080595703125,0.10356330871582031,-2.398036003112793,0.32308006286621094
1683928261581101600,2.4181015625,0.8768061399459839,-1.8851079940795898,1.4223527908325195
1683928261591143700,2.428143798828125,2.22672963142395,-0.36193084716796875,2.3011908531188965
1683928261601186000,2.43818603515625,2.6643006801605225,-0.779449462890625,2.553081512451172
1683928261611228200,2.448228271484375,2.0597712993621826,-1.3767051696777344,1.5848617553710938
1683928261621270300,2.458270263671875,1.425926685333252,-1.8903436660766602,0.6581263542175293
1683928261631312400,2.4683125,0.5758539438247681,-1.9411420822143555,0.9330329895019531
1683928261641354500,2.4783544921875,-0.0968484878540039,-2.210848808288574,1.1123981475830078
1683928261651396600,2.488396728515625,-0.8015093803405762,-2.7051496505737305,1.6203384399414062
1683928261661438700,2.498438720703125,-1.565816879272461,-3.6059837341308594,2.651557445526123
1683928261671481000,2.508481201171875,-1.6073977947235107,-4.600703239440918,4.062009334564209
1683928261681523200,2.518523193359375,-0.7246785163879395,-5.63778018951416,4.671377182006836
1683928261691565300,2.5285654296875,0.48218536376953125,-3.563185691833496,2.5428338050842285
1683928261701607400,2.538607421875,1.3834748268127441,-0.7166213989257812,1.156686782836914
1683928261711649500,2.5486494140625,1.5134594440460205,-0.03615856170654297,0.6571073532104492
1683928261721691600,2.558691650390625,1.445591926574707,0.5225620269775391,-0.730689525604248
1683928261731733800,2.568733642578125,1.5176472663879395,1.750864028930664,-2.6512725353240967
1683928261741776000,2.57877587890625,1.1346113681793213,1.38541841506958,-4.158682823181152
1683928261751818200,2.588818359375,2.7156519889831543,1.1354784965515137,-5.898393154144287
1683928261761860400,2.5988603515625,0.9557325839996338,2.096557140350342,-5.540416717529297
1683928261771902500,2.60890234375,0.6705652475357056,1.4433026313781738,-4.454229831695557
1683928261781944600,2.618944580078125,-0.006613612174987793,0.22411632537841797,-2.7400739192962646
1683928261791986700,2.628986572265625,-0.4875298738479614,-0.3809967041015625,-0.7869758605957031
1683928261802028800,2.63902880859375,0.028200387954711914,0.9582304954528809,-0.1620035171508789
1683928261812071000,2.64907080078125,0.7161552906036377,1.3784613609313965,0.361602783203125
1683928261822113300,2.65911328125,1.314601182937622,1.249807357788086,0.6809015274047852
1683928261832155400,2.6691552734375,1.6911234855651855,1.040907859802246,0.6314387321472168
1683928261842197500,2.679197509765625,1.8385987281799316,0.4005260467529297,0.613461971282959
1683928261852239600,2.689239501953125,2.2486343383789062,1.0509295463562012,-0.1683368682861328
1683928261862281700,2.69928173828125,1.9379432201385498,-0.01622486114501953,-0.13501310348510742
1683928261872323800,2.70932373046875,0.9219976663589478,-2.190732955932617,-0.8372492790222168
1683928261882366000,2.719365966796875,0.7262455821037292,-2.463131904602051,-1.756016492843628
1683928261892408300,2.729408203125,1.2521039247512817,-1.7180118560791016,-1.535799264907837
1683928261902450400,2.739450439453125,1.7711637020111084,-1.0016841888427734,-1.1745738983154297
1683928261912492500,2.749492431640625,1.730893850326538,-0.6204872131347656,-0.5678186416625977
1683928261922534700,2.75953466796875,1.5189534425735474,-0.30608272552490234,-0.37134361267089844
1683928261932576800,2.76957666015625,1.3112213611602783,-0.6033945083618164,-0.2569613456726074
1683928261942619000,2.779618896484375,1.3032946586608887,-0.9379606246948242,-0.2478952407836914
1683928261952661000,2.789660888671875,1.325485110282898,-0.7917938232421875,-1.085130214691162
1683928261962703000,2.799703125,1.1834455728530884,-0.3377666473388672,-1.6629528999328613
1683928261972745200,2.8097451171875,0.7617625594139099,-0.03574180603027344,-1.6973652839660645
1683928261982787600,2.81978759765625,0.2618160843849182,0.1450967788696289,-1.9710578918457031
1683928261992829700,2.82982958984375,0.005582869052886963,0.05897235870361328,-1.6408979892730713
1683928262002871800,2.839871826171875,-0.08775556087493896,-0.17000770568847656,-1.1952476501464844
1683928262012914000,2.849913818359375,-0.5717382431030273,-0.0670328140258789,-0.48932981491088867
1683928262022956000,2.8599560546875,-1.033461093902588,0.0010623931884765625,0.12038660049438477
1683928262032998100,2.869998046875,-1.055121660232544,-1.1225757598876953,-1.614201545715332
1683928262043040500,2.88004052734375,0.06398418545722961,1.0600266456604004,-0.9443292617797852
1683928262053082600,2.89008251953125,0.2903727889060974,1.4118070602416992,0.7239136695861816
1683928262063124700,2.900124755859375,0.46635639667510986,0.5771355628967285,1.0661487579345703
1683928262073166800,2.910166748046875,0.5141848921775818,0.1098165512084961,1.1311860084533691
1683928262083209000,2.920208984375,0.574195921421051,0.4177131652832031,1.096282958984375
1683928262093251000,2.9302509765625,0.5343658924102783,0.2907896041870117,0.7796125411987305
1683928262103293200,2.940293212890625,0.4758188724517822,0.1884450912475586,0.7187914848327637
1683928262113335300,2.950335205078125,0.6186237335205078,0.1116800308227539,0.45897531509399414
1683928262123377700,2.960377685546875,0.683785080909729,0.2986316680908203,0.22564268112182617
1683928262133419800,2.970419677734375,0.5052504539489746,0.19120407104492188,0.02999591827392578
1683928262143462000,2.9804619140625,0.4567057490348816,0.02014636993408203,0.061815738677978516
1683928262153504000,2.99050390625,0.8925156593322754,-0.30239200592041016,0.1510777473449707
1683928262163546000,3.000546142578125,0.4169737696647644,-1.084498405456543,0.7618007659912109
1683928262173588200,3.010588134765625,-0.08330345153808594,-0.626739501953125,1.2712640762329102
1683928262183630300,3.02063037109375,-0.018703967332839966,-0.2281360626220703,1.3213419914245605
1683928262193672700,3.030672607421875,-0.1674654185771942,-0.08815860748291016,1.2179522514343262
1683928262203714800,3.04071484375,1.2064498662948608,2.130213737487793,0.6671957969665527
1683928262213757000,3.0507568359375,-0.3676197826862335,-0.5883378982543945,0.14394521713256836
1683928262223799000,3.060799072265625,0.3328133225440979,0.8864650726318359,-0.358889102935791
1683928262233841200,3.070841064453125,-0.4038657546043396,-0.43555355072021484,-0.4099240303039551
1683928262243883300,3.08088330078125,-0.07807448506355286,-0.41832923889160156,0.06355428695678711
1683928262253925400,3.09092529296875,0.12442082166671753,0.09355640411376953,0.6949911117553711
1683928262263967700,3.1009677734375,1.6431221961975098,1.9317231178283691,0.8342223167419434
1683928262274009900,3.111009765625,0.9351593255996704,-0.3923463821411133,-0.10063028335571289
1683928262284052000,3.121052001953125,0.21856233477592468,-1.1589765548706055,-0.26858043670654297
1683928262294094000,3.131093994140625,0.4099158048629761,0.28334903717041016,0.13288164138793945
1683928262304136200,3.14113623046875,0.49718177318573,0.5090913772583008,0.2114429473876953
1683928262314178300,3.15117822265625,-0.04509025812149048,0.12038326263427734,0.7261605262756348
1683928262324220400,3.161220458984375,-0.6181029081344604,-0.13263511657714844,1.2133722305297852
1683928262334262800,3.1712626953125,-0.13790994882583618,0.48828125,1.3153376579284668
1683928262344305000,3.181304931640625,1.4195679426193237,0.7046537399291992,1.053065299987793
1683928262354347000,3.191346923828125,3.162247657775879,0.797584056854248,0.10708045959472656
1683928262364389000,3.20138916015625,3.9336459636688232,0.8426995277404785,-0.554114818572998
1683928262374431200,3.21143115234375,3.783323287963867,0.4068288803100586,-0.864321231842041
1683928262384473300,3.221473388671875,2.739870309829712,0.04793834686279297,-0.9727540016174316
1683928262394515500,3.231515380859375,1.3071568012237549,-0.11621570587158203,-0.38604068756103516
1683928262404557600,3.2415576171875,0.18100038170814514,1.0386042594909668,1.1150226593017578
1683928262414600000,3.251599853515625,-1.0745899677276611,0.30897045135498047,2.266063690185547
1683928262424642000,3.26164208984375,-1.8188128471374512,-0.3179740905761719,2.840607166290283
1683928262434684200,3.27168408203125,-2.384755849838257,-0.40090179443359375,2.4978013038635254
1683928262444726300,3.281726318359375,-1.608428955078125,0.38858699798583984,2.38901424407959
1683928262454768400,3.291768310546875,0.5973740816116333,3.0421223640441895,2.3301358222961426
1683928262464810500,3.301810546875,-0.2608492970466614,1.5117406845092773,2.151951789855957
1683928262474852600,3.3118525390625,-0.16383874416351318,2.728358268737793,2.5895442962646484
1683928262484895000,3.32189501953125,-0.9859855771064758,1.8047561645507812,1.2227497100830078
1683928262494937000,3.33193701171875,-0.504780650138855,0.7637271881103516,0.4008636474609375
1683928262504979200,3.341979248046875,-0.16409224271774292,-1.070601463317871,0.23828649520874023
1683928262515021300,3.352021240234375,0.4112350344657898,-4.142075538635254,0.15362024307250977
1683928262525063400,3.3620634765625,1.109848976135254,-5.654648780822754,1.3808794021606445
1683928262535105500,3.37210546875,2.297696352005005,-3.3024778366088867,2.1949734687805176
1683928262545148000,3.38214794921875,1.2357745170593262,-1.257577896118164,2.3871941566467285
1683928262555190000,3.39218994140625,-0.6069405674934387,-0.07917499542236328,2.0618062019348145
1683928262565232000,3.402232177734375,-1.2987926006317139,0.942835807800293,1.4756107330322266
1683928262575274200,3.412274169921875,-0.9869674444198608,1.5076651573181152,0.9450931549072266
1683928262585316400,3.42231640625,-0.8616549372673035,1.3150639533996582,0.8481159210205078
1683928262595358500,3.4323583984375,-0.7268936634063721,1.229020118713379,0.8862991333007812
1683928262605400600,3.442400634765625,-0.8483837246894836,0.7203836441040039,0.6038789749145508
1683928262615443000,3.45244287109375,-0.7541734576225281,0.8279209136962891,0.4608025550842285
1683928262625485000,3.462485107421875,-0.6317527890205383,1.076725959777832,0.5269327163696289
1683928262635527200,3.472527099609375,-0.5843309164047241,1.3705592155456543,0.6238741874694824
1683928262645569300,3.4825693359375,-0.7850109338760376,1.1880226135253906,0.4014163017272949
1683928262655611400,3.492611328125,-0.8664824366569519,1.1234130859375,0.15386152267456055
1683928262665653500,3.502653564453125,-0.8264429569244385,0.9329347610473633,-0.15883231163024902
1683928262675695600,3.512695556640625,-0.568617582321167,1.1577644348144531,-1.0740056037902832
1683928262685737700,3.52273779296875,-0.014280080795288086,2.11240291595459,-1.3176538944244385
1683928262695780000,3.532780029296875,-0.009189069271087646,1.882066249847412,-1.4228885173797607
1683928262705822200,3.542822265625,-0.2926054000854492,2.2880234718322754,-1.0213000774383545
1683928262715864300,3.5528642578125,-0.8819622993469238,2.0236282348632812,-0.6645543575286865
1683928262725906400,3.562906494140625,-1.276848554611206,1.4303503036499023,-0.5801444053649902
1683928262735948500,3.572948486328125,-1.271382451057434,0.5909214019775391,-0.6435480117797852
1683928262745990700,3.58299072265625,-1.0411943197250366,-1.1750411987304688,-0.9297704696655273
1683928262756032800,3.59303271484375,-0.6449923515319824,-3.1451587677001953,-1.1993579864501953
1683928262766075100,3.6030751953125,0.0658419132232666,-4.649850845336914,-1.5242846012115479
1683928262776117200,3.6131171875,0.8574234247207642,-4.961669921875,-1.9498155117034912
1683928262786159400,3.623159423828125,1.4109607934951782,-4.1209516525268555,-2.2750983238220215
1683928262796201500,3.633201416015625,1.0845340490341187,-2.163334846496582,-1.845677137374878
1683928262806243600,3.64324365234375,-0.020313262939453125,-1.0809059143066406,-0.8225934505462646
1683928262816285700,3.65328564453125,-0.8984310626983643,-1.4159231185913086,-0.1302661895751953
1683928262826328000,3.663328125,-1.048046588897705,-1.9180984497070312,0.33220624923706055
1683928262836370200,3.6733701171875,-0.7356410026550293,-1.3818111419677734,1.012448787689209
1683928262846412300,3.683412353515625,-0.05349898338317871,-0.6648921966552734,1.2038397789001465
1683928262856454400,3.693454345703125,0.6695157289505005,-0.6371822357177734,0.6744489669799805
1683928262866496500,3.70349658203125,1.16635262966156,-0.37837982177734375,0.09627199172973633
1683928262876538600,3.71353857421875,1.0577589273452759,-0.4522056579589844,-0.22532129287719727
1683928262886580700,3.723580810546875,0.8393365144729614,-0.3244943618774414,-0.4188845157623291
1683928262896623000,3.733623046875,0.9739887714385986,0.39449214935302734,-0.8318567276000977
1683928262906665200,3.743665283203125,1.3027541637420654,0.7276463508605957,-0.8383686542510986
1683928262916707300,3.753707275390625,1.2400926351547241,0.00444793701171875,-0.585925817489624
1683928262926749400,3.76374951171875,1.1814072132110596,-0.527775764465332,-0.4277639389038086
1683928262936791600,3.77379150390625,1.2130681276321411,0.053775787353515625,-0.5199389457702637
1683928262946833700,3.783833740234375,1.2128393650054932,0.6435317993164062,-0.7951200008392334
1683928262956876000,3.7938759765625,0.8216960430145264,0.797633171081543,-1.1613562107086182
1683928262966918100,3.803918212890625,0.38467836380004883,0.8593831062316895,-1.3652663230895996
1683928262976960300,3.813960205078125,0.02957606315612793,0.5499181747436523,-1.663769006729126
1683928262987002400,3.82400244140625,-0.059044599533081055,0.28902149200439453,-1.8162143230438232
1683928262997044500,3.83404443359375,-0.16411662101745605,0.44233036041259766,-1.9109106063842773
1683928263007086600,3.844086669921875,-0.13687825202941895,0.5630426406860352,-1.8694963455200195
1683928263017128700,3.854128662109375,-0.19296503067016602,0.0998382568359375,-2.0032501220703125
1683928263027171000,3.864171142578125,-0.20430660247802734,0.20437335968017578,-1.964207649230957
1683928263037213200,3.874213134765625,-0.03871440887451172,0.2450551986694336,-1.5364069938659668
1683928263047255300,3.88425537109375,0.14774131774902344,-0.6389837265014648,-0.9902150630950928
1683928263057297400,3.89429736328125,0.3889307975769043,-0.6724510192871094,-0.3560147285461426
1683928263067339500,3.904339599609375,0.4675729274749756,-0.2582569122314453,0.008452177047729492
1683928263077381600,3.914381591796875,0.3124239444732666,-0.2416820526123047,0.09360909461975098
1683928263087423700,3.924423828125,-0.058759212493896484,0.36976051330566406,-0.09935832023620605
1683928263097466000,3.934466064453125,-0.2845432758331299,-0.5926923751831055,-0.2545144557952881
1683928263107508200,3.94450830078125,-0.06710147857666016,-0.3779306411743164,-0.05460190773010254
1683928263117550300,3.95455029296875,-0.02515697479248047,-0.13367938995361328,-0.10592126846313477
1683928263127592400,3.964592529296875,0.015199661254882812,-0.06837654113769531,-0.16672420501708984
1683928263137634600,3.974634521484375,0.09300374984741211,0.18172073364257812,-0.302473783493042
1683928263147676700,3.9846767578125,0.11762785911560059,0.3712596893310547,-0.464996337890625
1683928263157718800,3.99471875,0.14841794967651367,0.5471854209899902,-0.7111539840698242
1683928263167761200,4.00476123046875,0.1746687889099121,0.679168701171875,-0.813277006149292
1683928263177803300,4.01480322265625,0.23884177207946777,0.8008384704589844,-0.9558324813842773
1683928263187845400,4.024845458984375,0.33629631996154785,0.8288164138793945,-1.0855307579040527
1683928263197887500,4.034887451171875,0.4051206111907959,0.7657556533813477,-1.099351406097412
1683928263207929600,4.0449296875,0.4717707633972168,0.7306900024414062,-0.9796605110168457
1683928263217971700,4.0549716796875,0.5183591842651367,0.6799559593200684,-0.8870925903320312
1683928263228013800,4.065013916015625,0.5396685600280762,0.5632743835449219,-0.7510929107666016
1683928263238056200,4.07505615234375,0.43666696548461914,0.4263181686401367,-0.6201558113098145
1683928263248098300,4.085098388671875,0.22417020797729492,0.3000211715698242,-0.5083634853363037
1683928263258140400,4.095140380859375,-0.06870412826538086,0.12381267547607422,-0.3147709369659424
1683928263268182500,4.1051826171875,-0.45919346809387207,0.014181137084960938,-0.10143589973449707
1683928263278224600,4.115224609375,-0.8165874481201172,-0.07749748229980469,0.04322552680969238
1683928263288266800,4.125266845703125,-1.0205333232879639,-0.19243907928466797,0.12122488021850586
1683928263298308900,4.135308837890625,-1.049407958984375,-0.19204235076904297,0.17623162269592285
1683928263308351200,4.145351318359375,-0.9480738639831543,-0.11423015594482422,0.12930035591125488
1683928263318393300,4.155393310546875,-0.7944338321685791,-0.14729881286621094,0.0833272933959961
1683928263328435500,4.165435546875,-0.6163077354431152,-0.17064285278320312,-0.14260458946228027
1683928263338477600,4.1754775390625,-0.373187780380249,-0.18497753143310547,-0.4956221580505371
1683928263348519700,4.185519775390625,-0.34487318992614746,-0.1891469955444336,-0.48244261741638184
1683928263358561800,4.195561767578125,-0.4380509853363037,-0.22862529754638672,-0.2737863063812256
1683928263368604200,4.205604248046875,-0.595984697341919,-0.2373952865600586,-0.08605694770812988
1683928263378646300,4.215646240234375,-0.8253576755523682,-0.23272037506103516,-0.03459572792053223
1683928263388688400,4.2256884765625,-1.2112653255462646,-0.10253238677978516,0.019754648208618164
1683928263398730500,4.23573046875,-1.574434518814087,0.06817436218261719,-0.017316102981567383
1683928263408772600,4.245772705078125,-1.7886054515838623,0.24038314819335938,-0.04085707664489746
1683928263418814700,4.255814697265625,-1.7740726470947266,0.34694957733154297,0.032724857330322266
1683928263428856800,4.26585693359375,-1.5005009174346924,0.1732044219970703,0.19449090957641602
1683928263438899200,4.275899169921875,-1.0280883312225342,-0.09845924377441406,0.3143002986907959
1683928263448941300,4.28594140625,-0.6435284614562988,-0.1664724349975586,0.22885704040527344
1683928263458983400,4.2959833984375,-0.3787074089050293,-0.10431289672851562,-0.31649327278137207
1683928263469025500,4.306025634765625,-0.156965970993042,-0.3400545120239258,-0.6104693412780762
1683928263479067600,4.316067626953125,0.09370458126068115,-0.1755666732788086,-0.8955428600311279
1683928263489109800,4.32610986328125,-0.3116292953491211,-0.4097747802734375,-0.8915715217590332
1683928263499152100,4.336152099609375,-1.0437309741973877,-0.49956417083740234,-0.6737511157989502
1683928263509194200,4.3461943359375,-1.787980318069458,-1.4927711486816406,-0.04008793830871582
1683928263519236400,4.356236328125,-1.8889412879943848,-1.1196212768554688,0.6504676342010498
1683928263529278500,4.366278564453125,-1.0598926544189453,-1.447230339050293,1.101621150970459
1683928263539320600,4.376320556640625,0.3409256935119629,-1.6274547576904297,1.1970736980438232
1683928263549362700,4.38636279296875,1.3602447509765625,-0.2891378402709961,0.9389684200286865
1683928263559405000,4.396405029296875,1.2779076099395752,-1.249953269958496,0.10469365119934082
1683928263569447200,4.406447265625,1.3053436279296875,-1.0565872192382812,-0.41089582443237305
1683928263579489300,4.4164892578125,1.1321086883544922,-0.2849893569946289,-0.357759952545166
1683928263589531400,4.426531494140625,0.6638763546943665,0.3513832092285156,-0.14139223098754883
1683928263599573500,4.436573486328125,0.08695197105407715,0.8426666259765625,0.0886542797088623
1683928263609615600,4.44661572265625,-0.29269087314605713,1.2731857299804688,-0.10294342041015625
1683928263619657700,4.45665771484375,-0.38448333740234375,1.3407859802246094,-0.38724350929260254
1683928263629700000,4.4667001953125,-0.32465124130249023,1.1590242385864258,-0.4459890127182007
1683928263639742200,4.4767421875,-0.14455151557922363,0.9097404479980469,-0.3701721429824829
1683928263649784300,4.486784423828125,0.2148350477218628,0.7525806427001953,-0.25680768489837646
1683928263659826400,4.496826416015625,0.6185283064842224,0.5918922424316406,-0.3866540193557739
1683928263669868500,4.50686865234375,1.027438998222351,0.3142547607421875,-0.5359739065170288
1683928263679911000,4.516910888671875,1.5730197429656982,0.24153804779052734,-0.6766386032104492
1683928263689953000,4.526953125,1.674890398979187,-0.04283905029296875,-0.470711350440979
1683928263699995100,4.5369951171875,1.396683692932129,-0.08256721496582031,-0.05570244789123535
1683928263710037200,4.547037353515625,1.1613306999206543,-0.0021686553955078125,0.21781492233276367
1683928263720079400,4.557079345703125,0.6799416542053223,1.7105860710144043,0.7225255966186523
1683928263730121500,4.56712158203125,0.9317930936813354,1.0205621719360352,0.6832435131072998
1683928263740163800,4.577163818359375,1.3826093673706055,3.0127878189086914,1.0809940099716187
1683928263750206000,4.5872060546875,1.1598262786865234,3.6446585655212402,1.2469948530197144
1683928263760248000,4.597248046875,0.9557695388793945,3.4328231811523438,1.0441398620605469
1683928263770290200,4.607290283203125,0.861835777759552,2.6827096939086914,0.7467153072357178
1683928263780332300,4.617332275390625,0.876817524433136,0.9601459503173828,0.4300727844238281
1683928263790374400,4.62737451171875,1.1067965030670166,-0.9019222259521484,0.01758432388305664
1683928263800416800,4.637416748046875,1.2745707035064697,-3.833693504333496,-0.6199190616607666
1683928263810459000,4.647458984375,1.5598466396331787,-6.327402114868164,-1.2609750032424927
1683928263820501000,4.6575009765625,2.0399909019470215,-7.713011741638184,-2.1702001094818115
1683928263830543000,4.667543212890625,3.290975570678711,-5.756256103515625,-3.6228556632995605
1683928263840585200,4.677585205078125,4.748882293701172,-1.0228796005249023,-4.380794525146484
1683928263850627300,4.68762744140625,4.601593017578125,1.0768165588378906,-3.9689879417419434
1683928263860669400,4.69766943359375,3.2344729900360107,0.5141458511352539,-2.892348527908325
1683928263870711800,4.7077119140625,1.9250023365020752,-0.1044769287109375,-2.2280824184417725
1683928263880754000,4.71775390625,1.1664581298828125,-0.10078620910644531,-1.8298230171203613
1683928263890796000,4.727796142578125,0.6655436158180237,0.02915668487548828,-1.3416529893875122
1683928263900838100,4.737838134765625,0.23929458856582642,-0.011343955993652344,-0.8214764595031738
1683928263910880300,4.74788037109375,-0.19582706689834595,-0.14572620391845703,-0.45697617530822754
1683928263920922400,4.75792236328125,-0.537379801273346,-0.1568145751953125,-0.0936119556427002
1683928263930964700,4.76796484375,-0.7474414110183716,-0.12152957916259766,0.16304707527160645
1683928263941006800,4.7780068359375,-0.8219270706176758,-0.14017677307128906,0.30898499488830566
1683928263951049000,4.788049072265625,-0.7700213193893433,-0.1358795166015625,0.4409019947052002
1683928263961091000,4.798091064453125,-0.6783761978149414,-0.07256889343261719,0.539553165435791
1683928263971133200,4.80813330078125,-0.5894455909729004,-0.17260169982910156,0.5503287315368652
1683928263981175300,4.81817529296875,-0.5615449547767639,-0.2736043930053711,0.463836669921875
1683928263991217400,4.828217529296875,-0.5537907481193542,-0.5071983337402344,0.33916378021240234
1683928264001259800,4.838259765625,-0.5762985944747925,-0.610264778137207,0.2414708137512207
1683928264011302000,4.848302001953125,-0.5463353395462036,-0.7738304138183594,0.03618788719177246
1683928264021344000,4.858343994140625,-0.3921815752983093,-0.7078533172607422,-0.20306158065795898
1683928264031386000,4.86838623046875,-0.1827041506767273,-0.584223747253418,-0.2349693775177002
1683928264041428200,4.87842822265625,0.030551284551620483,-0.5890693664550781,-0.303088903427124
1683928264051470600,4.888470703125,0.32253769040107727,-0.6620073318481445,-0.28021299839019775
1683928264061512700,4.8985126953125,0.5497363805770874,-0.4419231414794922,-0.26584112644195557
1683928264071554800,4.908554931640625,0.6483069658279419,-0.19223690032958984,-0.15413212776184082
1683928264081597000,4.918596923828125,0.4615092873573303,-0.011574745178222656,0.03634488582611084
1683928264091639000,4.92863916015625,0.19110241532325745,0.17318344116210938,0.22934091091156006
1683928264101681200,4.93868115234375,0.27768242359161377,1.0822639465332031,0.5609245300292969
1683928264111723500,4.9487236328125,0.039605945348739624,1.1372804641723633,0.5198160409927368
1683928264121765600,4.958765625,-0.09329316020011902,0.7993631362915039,0.27617406845092773
1683928264131807700,4.968807861328125,-0.07457339763641357,0.3806591033935547,-0.044335126876831055
1683928264141849900,4.978849853515625,0.10538438707590103,0.2375631332397461,-0.32992613315582275
1683928264151892000,4.98889208984375,0.290144681930542,0.11163902282714844,-0.6110048294067383
1683928264161934000,4.99893408203125,0.5420302152633667,0.2845344543457031,-0.6712479591369629
1683928264171976400,5.0089765625,0.6923650503158569,0.4666299819946289,-0.6690987348556519
1683928264182018600,5.0190185546875,0.6893584728240967,0.5554323196411133,-0.6160111427307129
1683928264192060700,5.029060791015625,0.6564440727233887,0.5727558135986328,-0.4997115135192871
1683928264202102800,5.039102783203125,0.5682622790336609,0.5594015121459961,-0.3747290372848511
1683928264212145000,5.049144775390625,0.5103349685668945,0.5034351348876953,-0.1978365182876587
1683928264222187000,5.05918701171875,0.4704829454421997,0.4049339294433594,-0.11429762840270996
1683928264232229000,5.06922900390625,0.39243084192276,0.1588420867919922,-0.04725658893585205
1683928264242271500,5.079271484375,0.29926472902297974,-0.04356956481933594,-0.06401622295379639
1683928264252313600,5.089313720703125,0.24536433815956116,-0.276519775390625,-0.09558987617492676
1683928264262355700,5.099355712890625,0.12503443658351898,-0.5376462936401367,-0.16205811500549316
1683928264272397800,5.109397705078125,0.09775304049253464,-0.550084114074707,-0.05992436408996582
1683928264282440000,5.11943994140625,0.21743738651275635,-0.4628763198852539,0.13110792636871338
1683928264292482300,5.129482421875,0.3494219481945038,-0.30048370361328125,0.37948906421661377
1683928264302524400,5.1395244140625,0.34569457173347473,-0.11101436614990234,0.6836752891540527
1683928264312566500,5.14956640625,0.22324305772781372,0.017469406127929688,0.6975092887878418
1683928264322608600,5.159608642578125,0.05891576409339905,0.0763101577758789,0.5683379173278809
1683928264332650800,5.169650634765625,-0.06716558337211609,0.08998680114746094,0.5722496509552002
1683928264342693000,5.179693115234375,-0.15120258927345276,0.1518726348876953,0.6098849773406982
1683928264352735200,5.1897353515625,-0.18252398073673248,0.15184879302978516,0.723320484161377
1683928264362777300,5.19977734375,-0.2502468526363373,0.10891914367675781,0.7790802717208862
1683928264372819500,5.2098193359375,-0.3732817471027374,0.025508880615234375,0.7859205007553101
1683928264382861600,5.219861572265625,-0.43508750200271606,-0.00037670135498046875,0.7576797008514404
1683928264392903700,5.229903564453125,-0.43039023876190186,-0.02378082275390625,0.7349028587341309
1683928264402945800,5.23994580078125,-0.4376237392425537,0.017423629760742188,0.7318999767303467
1683928264412988200,5.24998828125,-0.40892234444618225,0.0036935806274414062,0.7008188962936401
1683928264423030300,5.2600302734375,-0.3933001160621643,0.002056121826171875,0.7234034538269043
1683928264433072400,5.270072265625,-0.38736841082572937,0.002887725830078125,0.7829380631446838
1683928264443114500,5.280114501953125,-0.36140766739845276,-0.027311325073242188,0.8410212397575378
1683928264453156600,5.290156494140625,-0.34008562564849854,0.021314620971679688,0.9020802974700928
1683928264463198700,5.30019873046875,-0.2633674442768097,0.007584571838378906,1.015238642692566
1683928264473241000,5.310240966796875,-0.19774466753005981,0.048587799072265625,1.1743007898330688
1683928264483283200,5.320283203125,-0.13619771599769592,0.11614131927490234,1.2920410633087158
1683928264493325300,5.3303251953125,-0.06454771757125854,0.19168376922607422,1.380190372467041
1683928264503367400,5.340367431640625,0.040738850831985474,0.31045055389404297,1.4395463466644287
1683928264513409500,5.350409423828125,0.13909077644348145,0.49533939361572266,1.483120083808899
1683928264523452000,5.360451904296875,0.16792726516723633,0.6253471374511719,1.533848524093628
1683928264533494000,5.370493896484375,0.20537272095680237,0.5979557037353516,1.5889688730239868
1683928264543536000,5.3805361328125,0.17690202593803406,0.5004386901855469,1.6997332572937012
1683928264553578200,5.390578125,0.16245850920677185,0.45156097412109375,1.711381435394287
1683928264563620400,5.400620361328125,0.13795194029808044,0.3563203811645508,1.7196061611175537
1683928264573662500,5.410662353515625,0.16479259729385376,0.23667430877685547,1.7079288959503174
1683928264583704800,5.420704833984375,0.15293225646018982,-0.019980430603027344,1.742375373840332
1683928264593747000,5.430746826171875,0.1159597635269165,-0.36414051055908203,1.7431557178497314
1683928264603789000,5.4407890625,0.12341970205307007,-0.6836776733398438,1.755420446395874
1683928264613831200,5.4508310546875,0.16491487622261047,-0.8637771606445312,1.751840591430664
1683928264623873300,5.460873291015625,0.18749010562896729,-0.9869594573974609,1.7007390260696411
1683928264633915400,5.470915283203125,0.22214841842651367,-1.007354736328125,1.5729715824127197
1683928264643957500,5.48095751953125,0.25852900743484497,-0.9898443222045898,1.4708399772644043
1683928264653999900,5.490999755859375,0.2812192738056183,-0.9416666030883789,1.3279924392700195
1683928264664042000,5.5010419921875,0.29893237352371216,-0.8270530700683594,1.2406196594238281
1683928264674084000,5.511083984375,0.31365156173706055,-0.6724433898925781,1.1251351833343506
1683928264684126200,5.521126220703125,0.3232765197753906,-0.4827260971069336,1.0411019325256348
1683928264694168600,5.53116845703125,0.2899414300918579,-0.3057212829589844,0.8215429782867432
1683928264704210700,5.541210693359375,0.21078333258628845,-0.06614112854003906,0.43695950508117676
1683928264714252800,5.551252685546875,0.07975995540618896,0.14393997192382812,0.10100245475769043
1683928264724295000,5.561294921875,-0.0782577395439148,0.3445301055908203,-0.2643752098083496
1683928264734337000,5.5713369140625,-0.2770282030105591,0.517333984375,-0.5823266506195068
1683928264744379100,5.581379150390625,-0.4748246669769287,0.7008543014526367,-0.7857827544212341
1683928264754421500,5.59142138671875,-0.7203464508056641,0.8424835205078125,-0.87419593334198
1683928264764463600,5.601463623046875,-1.163506269454956,0.9346857070922852,-0.7644777894020081
1683928264774505700,5.611505615234375,-2.096019744873047,0.7903909683227539,-0.41721805930137634
1683928264784547800,5.6215478515625,-2.4758617877960205,0.6553153991699219,0.2161877155303955
1683928264794590000,5.63158984375,-2.2183451652526855,0.6221332550048828,0.7927723526954651
1683928264804632000,5.641632080078125,-1.7514288425445557,0.5660438537597656,1.1025795936584473
1683928264814674400,5.65167431640625,-1.421318531036377,0.45801639556884766,1.1020137071609497
1683928264824716500,5.661716552734375,-1.4457218647003174,0.4147653579711914,0.8254104256629944
1683928264834758700,5.671758544921875,-1.8322598934173584,0.47916316986083984,0.25521403551101685
1683928264844800800,5.68180078125,-2.4061996936798096,0.4054727554321289,-0.2871614694595337
1683928264854843000,5.6918427734375,-2.7494473457336426,0.11305427551269531,-0.5111875534057617
1683928264864885200,5.70188525390625,-2.549814224243164,-0.21402549743652344,-0.6125408411026001
1683928264874927400,5.71192724609375,-1.8652877807617188,-0.4567909240722656,-0.6223888397216797
1683928264884969500,5.721969482421875,-0.9423570036888123,-0.4841327667236328,-0.7959804534912109
1683928264895011600,5.732011474609375,-0.029473602771759033,-0.49675846099853516,-0.7933528423309326
1683928264905053700,5.7420537109375,0.5274648666381836,-0.6420698165893555,-0.8429083228111267
1683928264915095800,5.752095703125,0.8418110609054565,-0.9882240295410156,-0.910620927810669
1683928264925138000,5.762137939453125,1.0063945055007935,-1.2833070755004883,-0.9854301810264587
1683928264935180300,5.77218017578125,1.1765769720077515,-1.6008005142211914,-1.06113862991333
1683928264945222400,5.782222412109375,1.3716174364089966,-1.9208984375,-1.1054998636245728
1683928264955264500,5.792264404296875,1.5683457851409912,-2.185776710510254,-1.1344488859176636
1683928264965306600,5.802306640625,1.6776511669158936,-2.435877799987793,-1.1545805931091309
1683928264975348700,5.8123486328125,1.6490185260772705,-2.377775192260742,-0.9486382603645325
1683928264985391000,5.82239111328125,1.4785902500152588,-2.077651023864746,-0.6364896297454834
1683928264995433200,5.83243310546875,1.198207139968872,-1.4752750396728516,-0.3599048852920532
1683928265005475300,5.842475341796875,0.8025920987129211,-0.4766349792480469,-0.34529125690460205
1683928265015517400,5.852517333984375,0.4636552333831787,0.3275575637817383,-0.571347713470459
1683928265025559600,5.8625595703125,0.26753711700439453,0.7283115386962891,-0.7802828550338745
1683928265035602000,5.872601806640625,0.31679248809814453,0.7249937057495117,-0.9184579849243164
1683928265045644000,5.88264404296875,0.4314831495285034,0.5938396453857422,-0.9313715696334839
1683928265055686100,5.89268603515625,0.47592341899871826,0.5695333480834961,-0.9631150960922241
1683928265065728300,5.902728271484375,0.550600528717041,0.6353311538696289,-1.0220273733139038
1683928265075770400,5.912770263671875,0.5680971145629883,0.7646303176879883,-1.024084448814392
1683928265085812500,5.9228125,0.6548823118209839,0.8900899887084961,-1.1385915279388428
1683928265095854600,5.9328544921875,0.7800809144973755,1.0661725997924805,-1.1334195137023926
1683928265105897000,5.94289697265625,0.9314504265785217,1.189436912536621,-1.0409976243972778
1683928265115939000,5.95293896484375,0.9488438963890076,1.1711359024047852,-0.9288245439529419
1683928265125981200,5.962981201171875,0.8498353362083435,1.1761255264282227,-0.8934670686721802
1683928265136023300,5.973023193359375,0.7258803844451904,1.1208267211914062,-0.8623365759849548
1683928265146065400,5.9830654296875,0.5958915948867798,0.9839401245117188,-0.7852387428283691
1683928265156107800,5.993107666015625,0.5493310689926147,0.6320428848266602,-0.6557514667510986
1683928265166150000,6.00314990234375,0.5150468349456787,0.33104515075683594,-0.615003228187561
1683928265176192000,6.01319189453125,0.4725615978240967,-0.11482620239257812,-0.6034811735153198
1683928265186234000,6.023234130859375,0.35191118717193604,-0.36853694915771484,-0.5887023210525513
1683928265196276200,6.033276123046875,0.241723895072937,-0.5139188766479492,-0.7270386219024658
1683928265206318600,6.043318603515625,0.18342816829681396,-0.4626350402832031,-0.7820037603378296
1683928265216360700,6.053360595703125,0.08024072647094727,-0.12461280822753906,-0.7583081722259521
1683928265226402800,6.06340283203125,-0.03297770023345947,0.25750160217285156,-0.629880428314209
1683928265236445000,6.07344482421875,-0.10788273811340332,0.5567913055419922,-0.7462083101272583
1683928265246487000,6.083487060546875,-0.11407041549682617,0.7524709701538086,-0.9088137149810791
1683928265256529200,6.093529052734375,-0.045317888259887695,0.8500194549560547,-0.9776111841201782
1683928265266571500,6.103571533203125,0.019037961959838867,0.9238662719726562,-0.9620093107223511
1683928265276613600,6.113613525390625,0.0478971004486084,0.9239034652709961,-0.8910167217254639
1683928265286655700,6.12365576171875,0.020072579383850098,0.8458423614501953,-0.9351586103439331
1683928265296697900,6.13369775390625,0.11596238613128662,0.5517797470092773,-0.9981695413589478
1683928265306740000,6.143739990234375,0.3629319667816162,0.2814826965332031,-1.0435682535171509
1683928265316782300,6.1537822265625,0.4202190637588501,0.2834148406982422,-1.014868140220642
1683928265326824400,6.163824462890625,0.42517149448394775,0.3176259994506836,-0.8301122188568115
1683928265336866600,6.173866455078125,0.6047111749649048,0.35213375091552734,-0.6512320041656494
1683928265346908700,6.18390869140625,0.6197420358657837,0.4131307601928711,-0.6282495260238647
1683928265356950800,6.19395068359375,0.5568300485610962,0.38427734375,-0.644587516784668
1683928265366993000,6.203992919921875,0.5054464340209961,0.2759380340576172,-0.5051506757736206
1683928265377035000,6.214034912109375,0.5033074617385864,0.10251998901367188,-0.2923356294631958
1683928265387077400,6.224077392578125,0.48714685440063477,-0.08652400970458984,-0.06877148151397705
1683928265397119500,6.234119384765625,0.4484546184539795,-0.1794881820678711,0.06098473072052002
1683928265407161600,6.24416162109375,0.45874953269958496,-0.24851512908935547,0.10763955116271973
1683928265417203700,6.25420361328125,0.5349467992782593,-0.1311798095703125,0.16297316551208496
1683928265427246000,6.26424609375,0.608927845954895,-0.09268379211425781,0.16086268424987793
1683928265437288200,6.2742880859375,0.6530942916870117,-0.04919910430908203,0.1673741340637207
1683928265447330300,6.284330322265625,0.5376871824264526,-0.11321640014648438,0.12795138359069824
1683928265457372400,6.294372314453125,0.47339630126953125,-0.1582164764404297,0.1367706060409546
1683928265467414500,6.30441455078125,0.47237443923950195,-0.11540412902832031,0.2562822103500366
1683928265477456600,6.31445654296875,0.5933606624603271,0.05288219451904297,0.31396639347076416
1683928265487499000,6.3244990234375,0.8097829222679138,0.16497802734375,0.258247971534729
1683928265497541000,6.334541015625,0.9068436622619629,0.11921405792236328,0.11625528335571289
1683928265507583200,6.344583251953125,0.7208266854286194,-0.02074718475341797,-0.14926910400390625
1683928265517625300,6.354625244140625,0.16274583339691162,-0.17096805572509766,-0.8550366759300232
1683928265527667500,6.36466748046875,-0.5471563339233398,-0.4184751510620117,-1.6594332456588745
1683928265537709600,6.37470947265625,-1.3363535404205322,-0.7920618057250977,-2.4626660346984863
1683928265547752000,6.384751953125,-1.9048391580581665,-1.4009780883789062,-3.014141082763672
1683928265557794000,6.3947939453125,-2.218813896179199,-2.170517921447754,-3.2042860984802246
1683928265567836200,6.404836181640625,-2.4344680309295654,-2.8213462829589844,-3.077874183654785
1683928265577878300,6.414878173828125,-2.059235095977783,-3.054065704345703,-2.4055871963500977
1683928265587920400,6.42492041015625,-1.0848478078842163,-2.4408864974975586,-1.5427714586257935
1683928265597962800,6.434962646484375,-0.0937490463256836,-1.4897489547729492,-1.1546337604522705
1683928265608004900,6.4450048828125,0.6306946277618408,-0.5844240188598633,-1.0884439945220947
1683928265618047000,6.455046875,1.0239152908325195,0.19569969177246094,-1.2424606084823608
1683928265628089000,6.465089111328125,1.1743416786193848,0.7061214447021484,-1.3444175720214844
1683928265638131200,6.475131103515625,1.3439617156982422,0.8610191345214844,-1.0483717918395996
1683928265648173300,6.48517333984375,1.5470073223114014,0.5883579254150391,-0.57193523645401
1683928265658215700,6.495215576171875,1.7007074356079102,0.3133678436279297,-0.24616563320159912
1683928265668257800,6.5052578125,1.824080228805542,0.16730403900146484,-0.11031663417816162
1683928265678300000,6.5152998046875,1.915546178817749,0.1215972900390625,-0.12961256504058838
1683928265688342000,6.525342041015625,1.9253003597259521,0.15273189544677734,-0.20352625846862793
1683928265698384100,6.535384033203125,1.9359641075134277,0.17012882232666016,-0.251486599445343
1683928265708426500,6.545426513671875,1.8909639120101929,0.14756202697753906,-0.3106236457824707
1683928265718468600,6.555468505859375,1.8497257232666016,0.044281005859375,-0.31117522716522217
1683928265728510700,6.5655107421875,1.8256545066833496,0.09427928924560547,-0.2844475507736206
1683928265738552800,6.575552734375,1.7811846733093262,0.3137350082397461,-0.3455374836921692
1683928265748595000,6.585594970703125,1.7070242166519165,0.4537544250488281,-0.2942339777946472
1683928265758637000,6.595636962890625,1.6219638586044312,0.6719999313354492,-0.2783677577972412
1683928265768679400,6.605679443359375,1.5544860363006592,0.6266336441040039,-0.18029552698135376
1683928265778721500,6.615721435546875,1.511901617050171,0.5046167373657227,-0.21003025770187378
1683928265788763600,6.625763671875,1.5043549537658691,0.2966270446777344,-0.27783745527267456
1683928265798805800,6.6358056640625,1.4968550205230713,-0.009111404418945312,-0.3115212321281433
1683928265808848000,6.645847900390625,1.5426048040390015,-0.20220947265625,-0.3441202640533447
1683928265818890200,6.65589013671875,1.6252968311309814,-0.11812019348144531,-0.369803786277771
1683928265828932400,6.665932373046875,1.7165889739990234,-0.020172119140625,-0.3446509838104248
1683928265838974500,6.675974365234375,1.7885432243347168,-0.02301025390625,-0.2844945788383484
1683928265849016600,6.6860166015625,1.8795967102050781,-0.07145500183105469,-0.18700307607650757
1683928265859058700,6.69605859375,1.952749490737915,-0.15097427368164062,-0.09542328119277954
1683928265869100800,6.706100830078125,2.0181801319122314,-0.1825122833251953,-0.06911742687225342
1683928265879143200,6.71614306640625,2.047828197479248,-0.2305469512939453,-0.055384695529937744
1683928265889185300,6.726185302734375,2.115112543106079,-0.15416431427001953,0.04538917541503906
1683928265899227400,6.736227294921875,2.15584397315979,-0.05413532257080078,0.16937392950057983
1683928265909269500,6.74626953125,2.171039342880249,0.07411003112792969,0.23421096801757812
1683928265919312000,6.756311767578125,2.2165300846099854,0.22804641723632812,0.25894755125045776
1683928265929354000,6.76635400390625,2.2588915824890137,0.40283966064453125,0.21991974115371704
1683928265939396000,6.77639599609375,2.3242218494415283,0.5267925262451172,0.22196906805038452
1683928265949438200,6.786438232421875,2.347116470336914,0.5283775329589844,0.23746898770332336
1683928265959480300,6.796480224609375,2.364847421646118,0.5130281448364258,0.11831051111221313
1683928265969522400,6.8065224609375,2.3426120281219482,0.5119428634643555,-0.06663176417350769
1683928265979564500,6.816564453125,2.2154529094696045,0.39371490478515625,-0.1403287649154663
1683928265989607000,6.82660693359375,1.9034016132354736,0.2588062286376953,-0.2066725343465805
1683928265999649000,6.83664892578125,1.4086458683013916,0.009234428405761719,-0.34980514645576477
1683928266009691100,6.846691162109375,0.7357956171035767,-0.35242271423339844,-0.5395937561988831
1683928266019733200,6.856733154296875,-0.11444304883480072,-0.759063720703125,-0.6165231466293335
1683928266029775600,6.866775634765625,-0.9291625618934631,-0.89044189453125,-0.7306563854217529
1683928266039817700,6.876817626953125,-1.5263206958770752,-0.8927078247070312,-0.6824508905410767
1683928266049859800,6.88685986328125,-1.811245083808899,-0.8663444519042969,-0.49728941917419434
1683928266059902000,6.89690185546875,-1.687730073928833,-0.7540769577026367,-0.3215797245502472
1683928266069944000,6.906944091796875,-1.1219699382781982,-0.4678030014038086,-0.20367377996444702
1683928266079986200,6.916986083984375,-0.313420832157135,-0.0843954086303711,-0.057671576738357544
1683928266090028500,6.927028564453125,0.393582820892334,0.2287740707397461,0.09754383563995361
1683928266100070700,6.937070556640625,0.8685228824615479,0.2713441848754883,0.3025672435760498
1683928266110112800,6.94711279296875,1.1963738203048706,0.11090373992919922,0.44986680150032043
1683928266120155000,6.95715478515625,1.4034959077835083,-0.11828327178955078,0.5634368658065796
1683928266130197000,6.967197021484375,1.5399281978607178,-0.32530879974365234,0.6615356206893921
1683928266140239400,6.9772392578125,1.5693162679672241,-0.27620601654052734,0.7166584134101868
1683928266150281500,6.987281494140625,1.5473992824554443,-0.2032947540283203,0.7661775350570679
1683928266160323600,6.997323486328125,1.4876562356948853,-0.14011001586914062,0.8096452355384827
1683928266170365700,7.00736572265625,1.3779431581497192,-0.09144115447998047,0.8447548151016235
1683928266180407800,7.01740771484375,1.2513467073440552,-0.06683540344238281,0.8454381227493286
1683928266190450200,7.0274501953125,1.173972725868225,-0.030432701110839844,0.8545311689376831
1683928266200492300,7.0374921875,1.1780047416687012,-0.006154060363769531,0.8955292105674744
1683928266210534400,7.047534423828125,1.2255792617797852,0.017974853515625,0.9561843872070312
1683928266220576500,7.057576416015625,1.2820616960525513,-0.0010061264038085938,0.9572643041610718
1683928266230618600,7.06761865234375,1.2907357215881348,-0.015192985534667969,0.7801907062530518
1683928266240660700,7.07766064453125,1.2382389307022095,-0.022182464599609375,0.595930278301239
1683928266250703000,7.087703125,1.1103640794754028,-0.029150009155273438,0.4027267098426819
1683928266260745200,7.0977451171875,0.9919428825378418,0.00209808349609375,0.2323489785194397
1683928266270787300,7.107787353515625,0.8609104752540588,0.026082992553710938,0.1260589063167572
1683928266280829400,7.117829345703125,0.781032919883728,0.014149665832519531,0.06251037120819092
1683928266290871600,7.12787158203125,0.772428035736084,0.06667041778564453,0.08244926482439041
1683928266300914000,7.137913818359375,0.8326781988143921,0.12138080596923828,0.15440113842487335
1683928266310956000,7.1479560546875,0.9518780708312988,0.16393089294433594,0.21347784996032715
1683928266320998100,7.157998046875,1.092961072921753,0.13702392578125,0.304969847202301
1683928266331040300,7.168040283203125,1.245112419128418,0.06709766387939453,0.4168868958950043
1683928266341082400,7.178082275390625,1.383538007736206,0.0044002532958984375,0.48482224345207214
1683928266351124700,7.188124755859375,1.5125975608825684,0.0014448165893554688,0.6043979525566101
1683928266361166800,7.198166748046875,1.6606603860855103,0.010313987731933594,0.7034569978713989
1683928266371209000,7.208208984375,1.789036512374878,0.08352375030517578,0.8292564153671265
1683928266381251000,7.2182509765625,1.935210108757019,0.2328805923461914,0.9237837195396423
1683928266391293200,7.228293212890625,2.0843987464904785,0.3101530075073242,1.031975507736206
1683928266401335600,7.23833544921875,2.188389778137207,0.3489875793457031,1.1009056568145752
1683928266411377700,7.248377685546875,2.2807319164276123,0.3471059799194336,1.1257705688476562
1683928266421419800,7.258419677734375,2.3118507862091064,0.29505348205566406,1.1307445764541626
1683928266431462000,7.2684619140625,2.315563440322876,0.24310779571533203,1.1325788497924805
1683928266441504000,7.27850390625,2.2704875469207764,0.17217063903808594,1.066826343536377
1683928266451546000,7.288546142578125,2.210073471069336,0.16588211059570312,1.0841001272201538
1683928266461588500,7.29858837890625,2.0889081954956055,0.20497989654541016,0.9764816164970398
1683928266471630600,7.308630615234375,1.88392972946167,0.2511129379272461,0.9118894338607788
1683928266481672700,7.318672607421875,1.6009082794189453,0.25168800354003906,0.8333455324172974
1683928266491714800,7.32871484375,1.2915409803390503,0.22349929809570312,0.7648111581802368
1683928266501757000,7.3387568359375,1.005138874053955,0.14507484436035156,0.7279185056686401
1683928266511799300,7.34879931640625,0.7450636625289917,0.11205577850341797,0.7507647275924683
1683928266521841400,7.35884130859375,0.540225625038147,-0.002227783203125,0.7894565463066101
1683928266531883500,7.368883544921875,0.3621877431869507,-0.12113761901855469,0.8263736963272095
1683928266541925600,7.378925537109375,0.2400183379650116,-0.1921062469482422,0.8964306712150574
1683928266551967700,7.3889677734375,0.1832907348871231,-0.20571422576904297,0.9775919318199158
1683928266562009900,7.399009765625,0.18432289361953735,-0.24572086334228516,0.9528647661209106
1683928266572052200,7.40905224609375,0.18563728034496307,-0.2810811996459961,1.0234012603759766
1683928266582094300,7.41909423828125,0.21327000856399536,-0.3213920593261719,1.167212724685669
1683928266592136400,7.429136474609375,0.2618381083011627,-0.40488338470458984,1.2000659704208374
1683928266602178600,7.439178466796875,0.28520533442497253,-0.3786773681640625,1.2138276100158691
1683928266612221000,7.449220947265625,0.31403985619544983,-0.34822845458984375,1.188126564025879
1683928266622263000,7.459262939453125,0.31445685029029846,-0.2944622039794922,1.2137036323547363
1683928266632305200,7.46930517578125,0.26949042081832886,-0.20544815063476562,1.1984788179397583
1683928266642347300,7.47934716796875,0.21973592042922974,-0.11705875396728516,1.1364079713821411
1683928266652389400,7.489389404296875,0.04108428955078125,0.0041370391845703125,1.0552942752838135
1683928266662431500,7.499431396484375,-0.2346564531326294,0.04814720153808594,0.9635986685752869
1683928266672473900,7.509473876953125,-0.4989476203918457,-0.054245948791503906,0.8606764078140259
1683928266682516000,7.519515869140625,-0.6765836477279663,-0.4271430969238281,0.7680585384368896
1683928266692558000,7.52955810546875,-0.751725435256958,-0.9103727340698242,0.5037975907325745
1683928266702600200,7.53960009765625,-0.7804336547851562,-1.360926628112793,0.3289527893066406
1683928266712642300,7.549642333984375,-0.7200157642364502,-1.6240110397338867,0.057367175817489624
1683928266722684700,7.5596845703125,-0.6943835020065308,-1.786107063293457,-0.255436509847641
1683928266732726800,7.569726806640625,-0.6965361833572388,-1.873544692993164,-0.5423043966293335
1683928266742769000,7.579768798828125,-0.6385438442230225,-1.9004240036010742,-0.7421404123306274
1683928266752811000,7.58981103515625,-0.6258184909820557,-1.8210315704345703,-0.8970024585723877
1683928266762853000,7.59985302734375,-0.5975861549377441,-1.5803251266479492,-1.1117000579833984
1683928266772895500,7.6098955078125,-0.4765799045562744,-1.228384017944336,-1.1458017826080322
1683928266782937600,7.6199375,-0.055597543716430664,-0.9126672744750977,-0.9315733313560486
1683928266792979700,7.629979736328125,0.4473235607147217,-0.6440544128417969,-0.5941696166992188
1683928266803021800,7.640021728515625,0.7649157047271729,-0.558197021484375,-0.2818179726600647
1683928266813064000,7.65006396484375,0.9975279569625854,-0.5210380554199219,-0.014526903629302979
1683928266823106000,7.66010595703125,1.4402772188186646,-0.3749418258666992,0.161355122923851
1683928266833148400,7.6701484375,2.2083487510681152,-0.019514083862304688,0.2938852608203888
1683928266843190500,7.6801904296875,3.269099712371826,0.34972095489501953,0.25878778100013733
1683928266853232600,7.690232666015625,4.350108623504639,0.3726387023925781,-0.15169858932495117
1683928266863274800,7.700274658203125,4.930781364440918,0.22376537322998047,-0.7838090658187866
1683928266873317000,7.710317138671875,5.041895866394043,0.43753719329833984,-1.2910324335098267
1683928266883359200,7.720359130859375,5.498821258544922,1.0208625793457031,-1.146194338798523
1683928266893401300,7.7304013671875,5.471029281616211,1.6466073989868164,-0.7180320024490356
1683928266903443500,7.740443359375,4.748645305633545,2.082058906555176,-0.515180766582489
1683928266913485600,7.750485595703125,4.063457489013672,2.3791065216064453,-0.7389402389526367
1683928266923528000,7.76052783203125,3.491312026977539,2.4706454277038574,-0.8812535405158997
1683928266933570000,7.770570068359375,2.2011301517486572,2.3077993392944336,-0.8798150420188904
1683928266943612200,7.780612060546875,0.2616002559661865,1.6733903884887695,-0.34488624334335327
1683928266953654300,7.790654296875,-0.9833905696868896,0.4663248062133789,0.2614150643348694
1683928266963696400,7.8006962890625,-1.9547741413116455,-0.40171051025390625,0.43932369351387024
1683928266973738500,7.810738525390625,-2.932852029800415,-0.5315589904785156,-0.11310812830924988
1683928266983780900,7.82078076171875,-3.330099582672119,-0.47490978240966797,-0.8558473587036133
1683928266993823000,7.830822998046875,-3.1124305725097656,-0.3743581771850586,-1.4850354194641113
1683928267003865000,7.840864990234375,-2.2714710235595703,-0.30814361572265625,-1.9641704559326172
1683928267013907200,7.8509072265625,-1.1671035289764404,-0.32652950286865234,-2.136794090270996
1683928267023949600,7.860949462890625,-0.3514072895050049,-0.4079618453979492,-1.9746849536895752
1683928267033991700,7.87099169921875,0.09351658821105957,-0.5055379867553711,-1.7749096155166626
1683928267044033800,7.88103369140625,0.32368528842926025,-0.46114063262939453,-1.4936879873275757
1683928267054076000,7.891075927734375,0.4684278964996338,-0.4017353057861328,-1.114884853363037
1683928267064118000,7.901117919921875,0.5136505365371704,-0.4210929870605469,-0.750891387462616
1683928267074160000,7.91116015625,0.5347659587860107,-0.3360004425048828,-0.21770504117012024
1683928267084202500,7.921202392578125,0.6021437644958496,-0.180450439453125,0.23449406027793884
1683928267094244600,7.93124462890625,0.7487863302230835,-0.13312435150146484,0.5304991602897644
1683928267104286700,7.94128662109375,0.8434106111526489,-0.19263935089111328,0.574215292930603
1683928267114328800,7.951328857421875,0.8037145137786865,-0.25030040740966797,0.5948596596717834
1683928267124371000,7.961370849609375,0.6702271699905396,-0.2438516616821289,0.5589908361434937
1683928267134413300,7.971413330078125,0.4861384630203247,-0.2384805679321289,0.489226758480072
1683928267144455400,7.981455322265625,0.3174138069152832,-0.17778301239013672,0.3116943836212158
1683928267154497500,7.99149755859375,0.2151474952697754,-0.12960052490234375,0.15759724378585815
1683928267164539600,8.00153955078125,0.18158435821533203,-0.07300376892089844,-0.03798198699951172
1683928267174581800,8.011581787109375,0.15359020233154297,-0.029886245727539062,-0.14150653779506683
1683928267184624000,8.0216240234375,0.199845552444458,-0.04068946838378906,-0.19176805019378662
1683928267194666200,8.031666259765625,0.2865595817565918,0.03625679016113281,-0.18628652393817902
1683928267204708400,8.041708251953125,0.27541494369506836,0.12723445892333984,-0.06058454513549805
1683928267214750500,8.05175048828125,0.18581008911132812,0.05785369873046875,-0.013428986072540283
1683928267224792600,8.06179248046875,0.14371418952941895,-0.030986785888671875,-0.03740760684013367
1683928267234835000,8.0718349609375,0.15658068656921387,-0.15128517150878906,-0.07014983892440796
1683928267244877000,8.081876953125,0.30243539810180664,-0.15952587127685547,-0.11657658219337463
1683928267254919200,8.091919189453124,0.4366745948791504,-0.12497138977050781,-0.14280769228935242
1683928267264961300,8.101961181640625,0.5679714679718018,-0.07611560821533203,-0.18189311027526855
1683928267275003400,8.11200341796875,0.7315001487731934,-0.0510101318359375,-0.14769771695137024
1683928267285045800,8.122045654296874,0.8551983833312988,0.014964103698730469,-0.1816895604133606
1683928267295087900,8.132087890625,0.9436917304992676,0.15038394927978516,-0.17473730444908142
1683928267305130000,8.1421298828125,1.0471584796905518,0.22844982147216797,-0.18065029382705688
1683928267315172000,8.152172119140625,1.1673556566238403,0.3401765823364258,-0.2334344983100891
1683928267325214200,8.162214111328124,1.3055506944656372,0.39025306701660156,-0.31626904010772705
1683928267335256600,8.172256591796875,1.329419732093811,0.43169116973876953,-0.48074406385421753
1683928267345298700,8.182298583984375,1.2414766550064087,0.5124130249023438,-0.6895931363105774
1683928267355340800,8.1923408203125,0.9974814653396606,0.572474479675293,-0.8532617092132568
1683928267365383000,8.2023828125,0.6996878385543823,0.6115636825561523,-0.9400671124458313
1683928267375425000,8.212425048828125,0.4117271900177002,0.6270160675048828,-0.9687294960021973
1683928267385467400,8.22246728515625,0.18660593032836914,0.6498708724975586,-0.9577704668045044
1683928267395509500,8.232509521484374,0.15084242820739746,0.6777372360229492,-0.8925178050994873
1683928267405551600,8.242551513671875,0.26741719245910645,0.6702327728271484,-0.8348250389099121
1683928267415593700,8.25259375,0.4013040065765381,0.639592170715332,-0.7111066579818726
1683928267425635800,8.2626357421875,0.46083736419677734,0.6098966598510742,-0.5894366502761841
1683928267435678200,8.27267822265625,0.4506800174713135,0.6241588592529297,-0.5013197660446167
1683928267445720300,8.28272021484375,0.44564318656921387,0.6152048110961914,-0.4587993025779724
1683928267455762400,8.292762451171875,0.47512102127075195,0.6330270767211914,-0.44983309507369995
1683928267465804500,8.302804443359374,0.4345662593841553,0.6152553558349609,-0.45085838437080383
1683928267475846700,8.3128466796875,0.3554072380065918,0.6001062393188477,-0.4692300260066986
1683928267485889000,8.322888916015625,0.19469141960144043,0.4729595184326172,-0.5452958345413208
1683928267495931100,8.33293115234375,-0.028248310089111328,0.28422069549560547,-0.6073281764984131
1683928267505973200,8.34297314453125,-0.24425005912780762,0.13678264617919922,-0.6576791405677795
1683928267516015400,8.353015380859375,-0.25126171112060547,0.1000213623046875,-0.6411991119384766
1683928267526057500,8.363057373046875,0.0013418197631835938,0.23132610321044922,-0.44526419043540955
1683928267536099800,8.373099853515624,0.31883835792541504,0.3816404342651367,-0.2505609393119812
1683928267546142000,8.383141845703125,0.5095220804214478,0.4643592834472656,-0.08258891105651855
1683928267556184000,8.39318408203125,0.5360256433486938,0.46860408782958984,0.011153995990753174
1683928267566226200,8.40322607421875,0.4484138488769531,0.3719806671142578,0.05660155415534973
1683928267576268300,8.413268310546876,0.27870893478393555,0.2185688018798828,-0.010261178016662598
1683928267586310700,8.423310546875,0.02771902084350586,0.023530006408691406,-0.13120879232883453
1683928267596352800,8.433352783203125,-0.24729585647583008,-0.1252431869506836,-0.3449845612049103
1683928267606395000,8.443394775390624,-0.49888062477111816,-0.1814556121826172,-0.4817195534706116
1683928267616437000,8.45343701171875,-0.7588896751403809,-0.2694206237792969,-0.576733410358429
1683928267626479400,8.463479248046875,-0.7823019027709961,-0.5845279693603516,-0.6317583918571472
1683928267636521500,8.473521484375,-0.39520370960235596,-1.3022165298461914,-0.6273927688598633
1683928267646563600,8.4835634765625,-0.20367693901062012,-1.972926139831543,-0.5746075510978699
1683928267656605700,8.493605712890625,-0.5410943031311035,-2.2197628021240234,-0.4704803228378296
1683928267666647800,8.503647705078125,-1.1203573942184448,-2.1085920333862305,-0.3897247910499573
1683928267676690000,8.51368994140625,-1.7296767234802246,-2.256953239440918,-0.4031476378440857
1683928267686732300,8.523732177734376,-2.7903740406036377,-2.94443416595459,-0.18409165740013123
1683928267696774400,8.5337744140625,-4.724930763244629,-3.4520273208618164,0.42285066843032837
1683928267706816500,8.54381640625,-5.313196659088135,-3.0518712997436523,1.5735843181610107
1683928267716858600,8.553858642578126,-3.2103753089904785,-1.5677223205566406,2.309152126312256
1683928267726900700,8.563900634765625,-0.48588669300079346,-0.12806987762451172,2.5055737495422363
1683928267736943000,8.573943115234375,1.7166070938110352,0.7423515319824219,2.4765396118164062
1683928267746985200,8.583985107421874,2.85087251663208,1.069070816040039,1.772718906402588
1683928267757027300,8.59402734375,3.111936092376709,0.8559799194335938,1.0710372924804688
1683928267767069400,8.6040693359375,2.967142105102539,0.9239025115966797,0.5768771171569824
1683928267777111800,8.61411181640625,2.460981845855713,1.1557941436767578,0.4432641267776489
1683928267787154000,8.62415380859375,1.6165010929107666,1.3227119445800781,0.5242893099784851
1683928267797196000,8.634196044921875,0.6306235790252686,1.1811714172363281,0.35648033022880554
1683928267807238100,8.644238037109375,-0.0725851058959961,0.7208938598632812,0.015856444835662842
1683928267817280300,8.6542802734375,-0.3396635055541992,0.1557302474975586,-0.3284929096698761
1683928267827322400,8.664322265625,-0.3192908763885498,-0.22626495361328125,-0.4371936321258545
1683928267837364700,8.67436474609375,-0.04148125648498535,-0.2776966094970703,-0.4598812460899353
1683928267847406800,8.68440673828125,0.4054409861564636,-0.20412349700927734,-0.31769585609436035
1683928267857449000,8.694448974609376,0.9540507793426514,-0.13135528564453125,-0.16355833411216736
1683928267867491000,8.704490966796875,1.3888274431228638,-0.08254623413085938,-0.04476091265678406
1683928267877533200,8.714533203125,1.615863561630249,-0.07177352905273438,0.10524225234985352
1683928267887575600,8.724575439453124,1.7342305183410645,-0.015337944030761719,0.2467208206653595
1683928267897617700,8.73461767578125,1.74747633934021,0.06511592864990234,0.2893400192260742
1683928267907659800,8.74465966796875,1.6993768215179443,0.14070987701416016,0.1328721046447754
1683928267917702000,8.754701904296875,1.630487084388733,0.1254739761352539,0.11514982581138611
1683928267927744300,8.764744140625,1.5906494855880737,0.07945919036865234,0.07398378849029541
1683928267937786400,8.774786376953125,1.5720728635787964,0.11034202575683594,-0.011036157608032227
1683928267947828500,8.784828369140625,1.5569641590118408,0.19184589385986328,-0.08626115322113037
1683928267957870600,8.79487060546875,1.5159175395965576,0.3072834014892578,-0.17961901426315308
1683928267967912700,8.80491259765625,1.3865373134613037,0.3324756622314453,-0.24962490797042847
1683928267977955000,8.814955078125,1.2432057857513428,0.3701486587524414,-0.45909178256988525
1683928267987997200,8.8249970703125,1.0958672761917114,0.38170433044433594,-0.7147513628005981
1683928267998039300,8.835039306640626,0.9093808531761169,0.4123115539550781,-0.8204525113105774
1683928268008081400,8.845081298828125,0.7533509135246277,0.3830118179321289,-0.8477961421012878
1683928268018123500,8.85512353515625,0.5802335739135742,0.30344104766845703,-0.9357919692993164
1683928268028166000,8.865165771484374,0.4081275761127472,0.13530635833740234,-0.9996982216835022
1683928268038208000,8.8752080078125,0.19042009115219116,0.026518821716308594,-1.0134849548339844
1683928268048250000,8.88525,-0.04188603162765503,-0.016214370727539062,-0.8542333245277405
1683928268058292200,8.895292236328125,-0.16946053504943848,0.014040946960449219,-0.5406956672668457
1683928268068334300,8.905334228515626,-0.19187459349632263,0.05514812469482422,-0.12123286724090576
1683928268078376700,8.915376708984375,-0.05175182223320007,0.023698806762695312,0.18020781874656677
1683928268088418800,8.925418701171875,0.20947930216789246,-0.032131195068359375,0.42076200246810913
1683928268098461000,8.9354609375,0.5252265334129333,-0.071441650390625,0.5692856907844543
1683928268108503000,8.9455029296875,0.8222032785415649,-0.0916738510131836,0.7211258411407471
1683928268118545400,8.95554541015625,1.078360915184021,-0.07840156555175781,0.7807989716529846
1683928268128587500,8.96558740234375,1.2795385122299194,-0.11517333984375,0.8082892894744873
1683928268138629600,8.975629638671874,1.4054172039031982,-0.23522472381591797,0.8108031749725342
1683928268148671700,8.985671630859375,1.5025873184204102,-0.33556461334228516,0.7880958318710327
1683928268158713900,8.9957138671875,1.5842746496200562,-0.30864906311035156,0.8299188613891602
1683928268168756200,9.005756103515624,1.5998228788375854,-0.2908163070678711,0.8488894701004028
1683928268178798300,9.01579833984375,1.5523103475570679,-0.25104618072509766,0.7757514119148254
1683928268188840400,9.02584033203125,1.461963415145874,-0.23723983764648438,0.7206525802612305
1683928268198882600,9.035882568359375,1.3379029035568237,-0.17310619354248047,0.6488939523696899
1683928268208924700,9.045924560546876,1.2008144855499268,-0.06844615936279297,0.532463550567627
1683928268218967000,9.055967041015625,1.1014906167984009,-0.035576820373535156,0.4445585310459137
1683928268229009200,9.066009033203125,1.013861894607544,0.03546428680419922,0.24255692958831787
1683928268239051300,9.07605126953125,0.9161366820335388,0.12058258056640625,0.05503189563751221
1683928268249093400,9.08609326171875,0.8056027293205261,0.17432403564453125,-0.10305923223495483
1683928268259135500,9.096135498046875,0.674807608127594,0.18002605438232422,-0.24331414699554443
1683928268269177900,9.106177734375,0.5282459259033203,0.14014244079589844,-0.4009034037590027
1683928268279220000,9.116219970703124,0.3041372299194336,0.08815479278564453,-0.5080733895301819
1683928268289262000,9.126261962890625,0.0851360410451889,0.10285186767578125,-0.5715579986572266
1683928268299304200,9.13630419921875,-0.12150835990905762,0.11717700958251953,-0.562477707862854
1683928268309346600,9.1463466796875,-0.27178671956062317,0.11920452117919922,-0.480768620967865
1683928268319388700,9.156388671875,-0.3227701187133789,0.09470939636230469,-0.3077945113182068
1683928268329430800,9.1664306640625,-0.21544183790683746,0.05102729797363281,-0.08775663375854492
1683928268339473000,9.176472900390625,-0.00235908105969429,0.024086952209472656,0.13795432448387146
1683928268349515000,9.186514892578124,0.18963676691055298,0.049689292907714844,0.35462310910224915
1683928268359557400,9.196557373046875,0.3849274814128876,0.05370616912841797,0.5377201437950134
1683928268369599500,9.206599609375,0.5439081788063049,0.033829689025878906,0.6796767711639404
1683928268379641600,9.2166416015625,0.6157028079032898,0.013998031616210938,0.7733654975891113
1683928268389683700,9.22668359375,0.6765132546424866,-0.03205299377441406,0.8593787550926208
1683928268399725800,9.236725830078125,0.7045708298683167,-0.056476593017578125,0.9063824415206909
1683928268409768200,9.246768310546875,0.7238097190856934,-0.11186695098876953,0.900139570236206
1683928268419810300,9.256810302734374,0.7246060371398926,-0.09546375274658203,0.9267553687095642
1683928268429852400,9.266852294921875,0.7380892634391785,-0.07668495178222656,0.9262085556983948
1683928268439894500,9.27689453125,0.7095764875411987,-0.11046314239501953,0.9271219968795776
1683928268449936600,9.2869365234375,0.6608794927597046,-0.16320419311523438,0.8598436117172241
1683928268459979000,9.29697900390625,0.5970226526260376,-0.17277050018310547,0.7937736511230469
1683928268470021000,9.307021240234375,0.5183539390563965,-0.18466758728027344,0.6672075390815735
1683928268480063200,9.317063232421875,0.43029582500457764,-0.06757831573486328,0.5764413475990295
1683928268490105300,9.327105224609374,0.33125725388526917,0.03487586975097656,0.521744966506958
1683928268500147500,9.3371474609375,0.23820778727531433,0.12273502349853516,0.4768703281879425
1683928268510189800,9.34718994140625,0.11557871103286743,0.14587783813476562,0.39431044459342957
1683928268520232000,9.35723193359375,0.03807412087917328,0.13550186157226562,0.3557383716106415
1683928268530274000,9.367274169921876,-0.013003230094909668,0.0869283676147461,0.27753058075904846
1683928268540316200,9.377316162109375,-0.013705745339393616,0.07426261901855469,0.2867944836616516
1683928268550358500,9.387358642578125,0.020806103944778442,0.039508819580078125,0.2956290543079376
1683928268560400600,9.397400634765624,0.07947009801864624,0.021735191345214844,0.30347156524658203
1683928268570442800,9.40744287109375,0.12605655193328857,-0.012320518493652344,0.3503653109073639
1683928268580484900,9.41748486328125,0.19345229864120483,-0.008234977722167969,0.39788174629211426
1683928268590527200,9.42752734375,0.24102747440338135,-0.02550983428955078,0.4271651804447174
1683928268600569300,9.4375693359375,0.31387045979499817,-0.0049343109130859375,0.5067774653434753
1683928268610611500,9.447611572265625,0.3927227258682251,0.0411224365234375,0.5812539458274841
1683928268620653600,9.457653564453125,0.47503596544265747,0.025177001953125,0.6500314474105835
1683928268630695700,9.46769580078125,0.5416220426559448,-0.009351730346679688,0.6753169894218445
1683928268640738000,9.477738037109376,0.5876189470291138,-0.008034706115722656,0.6579938530921936
1683928268650780200,9.4877802734375,0.6105221509933472,0.021462440490722656,0.6527776122093201
1683928268660822300,9.497822265625,0.6127579212188721,-0.031973838806152344,0.6497949957847595
1683928268670864400,9.507864501953126,0.5828976631164551,-0.053955078125,0.604189395904541
1683928268680906500,9.517906494140625,0.5168241858482361,-0.049736976623535156,0.5474867820739746
1683928268690948900,9.527948974609375,0.4177486002445221,-0.03151893615722656,0.47750625014305115
1683928268700991000,9.537990966796874,0.3197667598724365,0.056969642639160156,0.39933666586875916
1683928268711033000,9.548033203125,0.24984580278396606,0.07097530364990234,0.3063123822212219
1683928268721075200,9.5580751953125,0.1587737798690796,0.04703807830810547,0.2133386731147766
1683928268731117300,9.568117431640625,0.11797401309013367,-0.056613922119140625,0.17749518156051636
1683928268741159700,9.57815966796875,0.10295140743255615,-0.07860851287841797,0.18173432350158691
1683928268751201800,9.588201904296875,0.09885144233703613,-0.1074380874633789,0.19718658924102783
1683928268761244000,9.598243896484375,0.10558265447616577,-0.08649063110351562,0.2824995517730713
1683928268771286000,9.6082861328125,0.09953892230987549,-0.06366539001464844,0.4104294776916504
1683928268781328400,9.618328369140626,0.13954150676727295,-0.010730743408203125,0.523493766784668
1683928268791370500,9.62837060546875,0.18199396133422852,0.03649330139160156,0.6711225509643555
1683928268801412600,9.63841259765625,0.23133867979049683,0.028684616088867188,0.798275887966156
1683928268811454700,9.648454833984376,0.25212153792381287,-0.014404296875,0.9311828017234802
1683928268821496800,9.658496826171875,0.2965909540653229,-0.009792327880859375,1.0698018074035645
1683928268831539200,9.668539306640625,0.32889604568481445,0.004052162170410156,1.166943907737732
1683928268841581300,9.678581298828124,0.33736714720726013,0.010522842407226562,1.2653902769088745
1683928268851623400,9.68862353515625,0.35740238428115845,0.023868560791015625,1.3508689403533936
1683928268861665500,9.69866552734375,0.3628130257129669,0.003989219665527344,1.418515682220459
1683928268871708000,9.7087080078125,0.37978634238243103,0.02919769287109375,1.482133388519287
1683928268881750000,9.71875,0.3774918019771576,-0.03307342529296875,1.5063416957855225
1683928268891792100,9.728792236328125,0.37511709332466125,-0.03538227081298828,1.5598831176757812
1683928268901834200,9.738834228515625,0.3748892843723297,-0.06346511840820312,1.5220794677734375
1683928268911876400,9.74887646484375,0.38626956939697266,-0.048580169677734375,1.4741846323013306
1683928268921918700,9.758918701171876,0.38812750577926636,-0.047896385192871094,1.4160490036010742
1683928268931960800,9.7689609375,0.3946182429790497,-0.04002094268798828,1.3527790307998657
1683928268942003000,9.7790029296875,0.38685253262519836,0.005499839782714844,1.3012670278549194
1683928268952045000,9.789045166015624,0.3931874930858612,0.04799365997314453,1.2732502222061157
1683928268962087200,9.799087158203125,0.3590582013130188,0.10164928436279297,1.2399245500564575
1683928268972129500,9.809129638671875,0.3300458788871765,0.12162017822265625,1.2690269947052002
1683928268982171600,9.819171630859374,0.32747572660446167,0.15334701538085938,1.2782576084136963
1683928268992213800,9.8292138671875,0.3157937526702881,0.09317684173583984,1.2409385442733765
1683928269002256000,9.839255859375,0.27227842807769775,-0.10207080841064453,1.101445198059082
1683928269012298000,9.849298095703125,0.2691163122653961,-0.41838932037353516,0.9515602588653564
1683928269022340400,9.85934033203125,0.3399670124053955,-0.6913318634033203,0.8297661542892456
1683928269032382500,9.869382568359375,0.46819236874580383,-0.9781360626220703,0.8067893385887146
1683928269042424600,9.879424560546875,0.6085305213928223,-1.3021411895751953,0.7706554532051086
1683928269052466700,9.889466796875,0.7153639793395996,-1.6816644668579102,0.7338509559631348
1683928269062509000,9.899509033203126,0.8551532626152039,-1.948822021484375,0.6664701700210571
1683928269072551200,9.90955126953125,0.9813451766967773,-1.9950056076049805,0.5337097644805908
1683928269082593300,9.91959326171875,1.056464672088623,-1.8620719909667969,0.45424601435661316
1683928269092635400,9.929635498046874,0.9018235206604004,-1.2684698104858398,0.3891075849533081
1683928269102677500,9.939677490234375,0.5465534925460815,-0.4352235794067383,-0.015718400478363037
1683928269112720000,9.949719970703125,0.07605612277984619,0.2498645782470703,-0.4827178120613098
1683928269122762000,9.959761962890624,-0.5707348585128784,0.6129083633422852,-0.8295121192932129
1683928269132804000,9.96980419921875,-1.2622177600860596,0.7625160217285156,-1.1845687627792358
1683928269142846200,9.97984619140625,-1.9592480659484863,0.8332586288452148,-1.6177456378936768
1683928269152888600,9.989888671875,-2.461817741394043,0.8016862869262695,-1.913564920425415
1683928269162930700,9.9999306640625,-2.702409505844116,0.7947044372558594,-2.155172824859619
1683928269172972800,10.009972900390625,-2.60626220703125,0.8001527786254883,-2.089111328125
1683928269183015000,10.020014892578125,-2.180084228515625,0.7769842147827148,-1.809844970703125
1683928269193057000,10.03005712890625,-1.4293162822723389,0.767664909362793,-1.3662537336349487
1683928269203099400,10.040099365234376,-0.5720919966697693,0.7907304763793945,-0.8985008597373962
1683928269213141500,10.0501416015625,0.15668001770973206,0.8841629028320312,-0.5299980640411377
1683928269223183600,10.06018359375,0.6611306071281433,0.9167537689208984,-0.13070440292358398
1683928269233225700,10.070225830078124,0.9576771259307861,0.8030796051025391,0.03790700435638428
1683928269243268000,10.08026806640625,0.9996882677078247,0.5653314590454102,0.009718060493469238
1683928269253310200,10.090310302734375,0.8472732901573181,0.3188810348510742,-0.009109914302825928
1683928269263352300,10.100352294921874,0.5540255308151245,0.06870269775390625,-0.12732326984405518
1683928269273394400,10.11039453125,0.12875163555145264,-0.1686868667602539,-0.2868672013282776
1683928269283436500,10.1204365234375,-0.27615028619766235,-0.3720865249633789,-0.5096001625061035
1683928269293479000,10.13047900390625,-0.629919171333313,-0.5131444931030273,-0.7059403657913208
1683928269303521000,10.14052099609375,-0.9373875260353088,-0.6161632537841797,-1.0271050930023193
1683928269313563100,10.150563232421876,-1.126159429550171,-0.6314506530761719,-1.3928927183151245
1683928269323605200,10.160605224609375,-1.1666014194488525,-0.6287899017333984,-1.650916576385498
1683928269333647400,10.1706474609375,-1.0855348110198975,-0.6608467102050781,-1.7768207788467407
1683928269343689700,10.180689697265626,-0.9393559694290161,-0.6462135314941406,-1.813654899597168
1683928269353731800,10.19073193359375,-0.7031338214874268,-0.5560674667358398,-1.6519410610198975
1683928269363774000,10.20077392578125,-0.37760865688323975,-0.40462493896484375,-1.3825047016143799
1683928269373816000,10.210816162109374,-0.003624558448791504,-0.3254222869873047,-1.0671640634536743
1683928269383858400,10.2208583984375,0.36437398195266724,-0.24151992797851562,-0.7555810213088989
1683928269393900500,10.230900634765625,0.7110666036605835,-0.05241203308105469,-0.7054324150085449
1683928269403942700,10.240942626953125,1.0886682271957397,0.0010709762573242188,-0.6233028173446655
1683928269413984800,10.25098486328125,1.6216716766357422,-0.0033864974975585938,-0.5621592998504639
1683928269424027000,10.26102685546875,1.5238158702850342,0.0062694549560546875,-0.45162683725357056
1683928269434069200,10.2710693359375,1.0462831258773804,0.03390693664550781,-0.6299281120300293
1683928269444111400,10.281111328125,0.9185495972633362,0.15981578826904297,-0.9645944237709045
1683928269454153500,10.291153564453126,0.8057546615600586,0.3522224426269531,-1.2199817895889282
1683928269464195600,10.301195556640625,0.6846957206726074,0.4771242141723633,-1.3842644691467285
1683928269474238000,10.311238037109375,0.6209608912467957,0.6447849273681641,-1.3975355625152588
1683928269484280000,10.321280029296876,0.7004272937774658,0.7384719848632812,-1.3399913311004639
1683928269494322200,10.331322265625,0.6298710107803345,0.8421764373779297,-1.3038619756698608
1683928269504364300,10.3413642578125,0.3971973657608032,0.8293190002441406,-1.1979271173477173
1683928269514406700,10.35140673828125,0.13193953037261963,0.8051519393920898,-1.228469967842102
1683928269524448800,10.36144873046875,-0.13615500926971436,0.7241134643554688,-1.3038290739059448
1683928269534491000,10.371490966796875,-0.4577171802520752,0.6744327545166016,-1.3981297016143799
1683928269544533000,10.381532958984375,-0.7720868587493896,0.6556224822998047,-1.4692909717559814
1683928269554575000,10.3915751953125,-1.1115506887435913,0.7005996704101562,-1.462073564529419
1683928269564617500,10.401617431640625,-1.2283257246017456,0.6012477874755859,-1.3292596340179443
1683928269574659600,10.41165966796875,-1.192267894744873,0.5034599304199219,-1.1196372509002686
1683928269584701700,10.42170166015625,-1.2519563436508179,0.3020181655883789,-0.7625023126602173
1683928269594743800,10.431743896484376,-1.2664988040924072,0.18810081481933594,-0.49141186475753784
1683928269604786200,10.4417861328125,-1.0325199365615845,0.1161041259765625,-0.19392424821853638
1683928269614828300,10.451828369140625,-0.8816225528717041,0.016651153564453125,0.14638751745224
1683928269624870400,10.461870361328126,-0.8881685733795166,-0.021795272827148438,0.27248620986938477
1683928269634912500,10.47191259765625,-0.806174635887146,-0.04670238494873047,0.14689862728118896
1683928269644954600,10.48195458984375,-0.49605870246887207,-0.004740715026855469,-0.2390233874320984
1683928269654997000,10.4919970703125,-0.2335740327835083,0.07836627960205078,-0.7361980080604553
1683928269665039000,10.5020390625,-0.123016357421875,0.19091224670410156,-1.1352370977401733
1683928269675081200,10.512081298828125,-0.09754443168640137,0.27539730072021484,-1.2896610498428345
1683928269685123300,10.522123291015625,-0.10952508449554443,0.36983680725097656,-1.4032235145568848
1683928269695165700,10.532165771484374,-0.08854234218597412,0.4764986038208008,-1.4877269268035889
1683928269705207800,10.542207763671875,0.0007911920547485352,0.5978422164916992,-1.4691271781921387
1683928269715250000,10.55225,0.07960641384124756,0.623988151550293,-1.409765362739563
1683928269725292000,10.5622919921875,0.1415245532989502,0.6291084289550781,-1.3574953079223633
1683928269735334100,10.572334228515626,0.1778550148010254,0.6537742614746094,-1.2378939390182495
1683928269745376500,10.58237646484375,0.310244083404541,0.745701789855957,-1.1779298782348633
1683928269755418600,10.592418701171875,0.4460337162017822,0.8309078216552734,-1.0871944427490234
1683928269765460700,10.602460693359374,0.5885308980941772,0.8881311416625977,-1.0471436977386475
1683928269775502800,10.6125029296875,0.6888435482978821,1.0274162292480469,-0.9625703692436218
1683928269785545000,10.622544921875,0.7800652384757996,1.0957231521606445,-0.8771337270736694
1683928269795587300,10.63258740234375,0.7501781582832336,1.116929054260254,-0.7992277145385742
1683928269805629400,10.64262939453125,0.6861964464187622,1.0933103561401367,-0.6270293593406677
1683928269815671600,10.652671630859375,0.5793657302856445,1.0127897262573242,-0.4694334864616394
1683928269825713700,10.662713623046875,0.4562493562698364,0.9565420150756836,-0.20112287998199463
1683928269835756000,10.672756103515624,0.2952415943145752,0.8933982849121094,0.023800015449523926
1683928269845798100,10.682798095703125,0.06297099590301514,0.8901824951171875,0.25482869148254395
1683928269855840300,10.69284033203125,-0.20656144618988037,0.6075067520141602,0.4124451279640198
1683928269865882400,10.70288232421875,-0.47444581985473633,0.4208965301513672,0.5443335771560669
1683928269875924700,10.7129248046875,-0.6566272974014282,0.1987142562866211,0.6460180878639221
1683928269885966800,10.722966796875,-0.8263891935348511,0.02215290069580078,0.6274411678314209
1683928269896009000,10.733009033203125,-1.0300238132476807,-0.16162586212158203,0.5848328471183777
1683928269906051000,10.743051025390624,-1.2204385995864868,-0.07585430145263672,0.5274620652198792
1683928269916093200,10.75309326171875,-1.4151395559310913,-0.3853569030761719,0.3022676706314087
1683928269926135600,10.763135498046875,-1.4833191633224487,-0.5802984237670898,0.10412460565567017
1683928269936177700,10.773177734375,-1.2563925981521606,-0.5313301086425781,-0.026413798332214355
1683928269946219800,10.7832197265625,-0.8141112327575684,-0.3336324691772461,-0.06340497732162476
1683928269956262000,10.793261962890625,-0.4898189306259155,-0.0012884140014648438,-0.12736189365386963
1683928269966304300,10.80330419921875,-0.3894824981689453,0.15941715240478516,-0.05412966012954712
1683928269976346400,10.813346435546874,-0.3961390256881714,0.17925548553466797,-0.019171535968780518
1683928269986388500,10.823388427734375,-0.37565886974334717,0.2755603790283203,-0.06741505861282349
1683928269996430600,10.8334306640625,-0.33504414558410645,0.3837547302246094,-0.1327628493309021
1683928270006473000,10.843472900390625,-0.3354133367538452,0.4468050003051758,-0.15165585279464722
1683928270016515000,10.85351513671875,-0.3807870149612427,0.4865427017211914,-0.10718220472335815
1683928270026557200,10.86355712890625,-0.4886528253555298,0.5245494842529297,0.028768956661224365
1683928270036599300,10.873599365234375,-0.5753132104873657,0.5058650970458984,0.1536184549331665
1683928270046641700,10.8836416015625,-0.5296008586883545,0.2823610305786133,0.24899309873580933
1683928270056683800,10.893683837890626,-0.3568781614303589,-0.3105907440185547,0.2719627022743225
1683928270066726000,10.903725830078125,-0.1682373285293579,-1.0289106369018555,0.21310144662857056
1683928270076768000,10.91376806640625,-0.2091299295425415,-1.5956239700317383,0.1761203408241272
1683928270086810000,10.92381005859375,-0.2999182939529419,-1.8034868240356445,0.1055341362953186
1683928270096852500,10.9338525390625,-0.16486632823944092,-1.973252296447754,0.007272124290466309
1683928270106894600,10.94389453125,-0.05772876739501953,-2.3745832443237305,-0.1099424660205841
1683928270116936700,10.953936767578124,-0.39014577865600586,-2.813319206237793,-0.3083917498588562
1683928270126978800,10.963978759765626,-1.535248875617981,-2.9529457092285156,-0.3517754077911377
1683928270137021200,10.974021240234375,-2.832240343093872,-2.4412174224853516,0.13065305352210999
1683928270147063300,10.984063232421875,-2.4898171424865723,-1.3128290176391602,0.6963680982589722
1683928270157105400,10.99410546875,-1.0064152479171753,-0.1416006088256836,0.8247767686843872
1683928270167147500,11.0041474609375,0.32615917921066284,0.5615177154541016,0.48755067586898804
1683928270177190000,11.01418994140625,1.0587643384933472,0.5679664611816406,-0.03028315305709839
1683928270187232000,11.02423193359375,1.1360273361206055,0.3328084945678711,-0.7256965637207031
1683928270197274000,11.034274169921876,0.7891122698783875,0.33892059326171875,-1.31826913356781
1683928270207316200,11.044316162109375,0.28918421268463135,0.6717996597290039,-1.8874926567077637
1683928270217358300,11.0543583984375,-0.18116676807403564,1.032322883605957,-2.48252534866333
1683928270227400700,11.064400634765626,-0.5820243954658508,1.2844114303588867,-2.7403008937835693
1683928270237442800,11.07444287109375,-0.7681761980056763,1.2229728698730469,-2.69952392578125
1683928270247485000,11.08448486328125,-0.7083840370178223,0.9419527053833008,-2.4148075580596924
1683928270257527000,11.094527099609374,-0.5330977439880371,0.8502321243286133,-2.399661064147949
1683928270267569400,11.1045693359375,-0.24955326318740845,0.83734130859375,-2.343778610229492
1683928270277611500,11.114611572265625,0.22140341997146606,0.7739810943603516,-1.7938536405563354
1683928270287653600,11.124653564453125,0.719291090965271,0.5980930328369141,-1.1070774793624878
1683928270297695700,11.13469580078125,1.1605932712554932,0.3982963562011719,-0.6051934957504272
1683928270307737900,11.14473779296875,1.536017656326294,0.25826358795166016,-0.18706269562244415
1683928270317780200,11.1547802734375,1.8494166135787964,0.14216899871826172,0.06036406755447388
1683928270327822300,11.164822265625,2.0269503593444824,0.1122884750366211,0.23241682350635529
1683928270337864400,11.174864501953126,2.1633524894714355,0.15440845489501953,0.3409312069416046
1683928270347906600,11.184906494140625,2.1890578269958496,0.19217872619628906,0.3188551962375641
1683928270357949000,11.194948974609375,2.188870429992676,0.26397228240966797,0.33478301763534546
1683928270367991000,11.204990966796874,2.1034088134765625,0.3649263381958008,0.3230873644351959
1683928270378033200,11.215033203125,1.955878734588623,0.5091657638549805,0.23324817419052124
1683928270388075300,11.2250751953125,1.7532113790512085,0.5960655212402344,0.12603124976158142
1683928270398117600,11.23511767578125,1.5237598419189453,0.4989910125732422,-0.04044923186302185
1683928270408159700,11.24515966796875,1.2739089727401733,0.3185253143310547,-0.21690639853477478
1683928270418201900,11.255201904296875,1.0380876064300537,0.035671234130859375,-0.4191877841949463
1683928270428244000,11.265243896484375,0.819595456123352,-0.08435535430908203,-0.5954623222351074
1683928270438286300,11.275286376953124,0.6170925498008728,-0.09712028503417969,-0.8539972305297852
1683928270448328400,11.285328369140625,0.4386495351791382,-0.15824604034423828,-1.0178885459899902
1683928270458370600,11.29537060546875,0.29829901456832886,-0.12178802490234375,-1.066160798072815
1683928270468412700,11.30541259765625,0.18725083768367767,-0.01166534423828125,-1.1453537940979004
1683928270478454800,11.315454833984376,0.05919664725661278,0.03366661071777344,-1.3115501403808594
1683928270488497200,11.3254970703125,-0.11657699942588806,0.04567432403564453,-1.4475200176239014
1683928270498539300,11.335539306640625,-0.37949150800704956,0.08652877807617188,-1.647510051727295
1683928270508581400,11.345581298828124,-0.5606950521469116,0.2584562301635742,-1.9877856969833374
1683928270518623500,11.35562353515625,-0.6533570289611816,0.3173866271972656,-2.0355470180511475
1683928270528665900,11.365665771484375,-0.6222299933433533,0.2972726821899414,-1.807234525680542
1683928270538708000,11.3757080078125,-0.44630321860313416,0.1937398910522461,-1.6898071765899658
1683928270548750000,11.38575,-0.20712898671627045,0.06426715850830078,-1.6028947830200195
1683928270558792200,11.395792236328125,0.04183577001094818,0.102264404296875,-1.461702585220337
1683928270568834300,11.405834228515625,0.24983155727386475,0.2165060043334961,-1.2566320896148682
1683928270578876700,11.415876708984374,0.41548001766204834,0.31604862213134766,-1.0693413019180298
1683928270588918800,11.425918701171875,0.5191049575805664,0.3364753723144531,-0.8503993153572083
1683928270598961000,11.4359609375,0.636345386505127,0.31147193908691406,-0.701377272605896
1683928270609003000,11.4460029296875,0.7178839445114136,0.26499176025390625,-0.6386504769325256
1683928270619045400,11.45604541015625,0.7766168117523193,0.25909996032714844,-0.6040759682655334
1683928270629087500,11.46608740234375,0.795147180557251,0.2506570816040039,-0.5517594814300537
1683928270639129600,11.476129638671875,0.7954498529434204,0.2515993118286133,-0.5271509885787964
1683928270649171700,11.486171630859374,0.7596967220306396,0.24996280670166016,-0.48942333459854126
1683928270659214000,11.496214111328126,0.7108909487724304,0.22904586791992188,-0.4192945957183838
1683928270669256200,11.506256103515625,0.6503963470458984,0.2223491668701172,-0.33812272548675537
1683928270679298300,11.51629833984375,0.6003010272979736,0.22266197204589844,-0.24320125579833984
1683928270689340400,11.52634033203125,0.5630295276641846,0.20129108428955078,-0.1438388228416443
1683928270699382500,11.536382568359375,0.5263686180114746,0.1463460922241211,0.005127549171447754
1683928270709425000,11.5464248046875,0.48015549778938293,0.11048221588134766,0.11916249990463257
1683928270719467000,11.556467041015624,0.461760938167572,0.10796356201171875,0.27197545766830444
1683928270729509000,11.566509033203126,0.38866284489631653,0.07658958435058594,0.40325433015823364
1683928270739551200,11.57655126953125,0.34117573499679565,0.054617881774902344,0.47671881318092346
1683928270749593600,11.586593505859375,0.25872838497161865,-0.03684043884277344,0.5544977188110352
1683928270759635700,11.5966357421875,0.1601434350013733,-0.14510726928710938,0.5933761596679688
1683928270769677800,11.606677734375,0.027017176151275635,-0.2367267608642578,0.5888264179229736
1683928270779720000,11.616719970703125,-0.1364113688468933,-0.3260459899902344,0.5415524244308472
1683928270789762300,11.62676220703125,-0.2630649507045746,-0.329376220703125,0.4949950575828552
1683928270799804400,11.636804443359376,-0.3484128415584564,-0.3494424819946289,0.4823506474494934
1683928270809846500,11.646846435546875,-0.37479910254478455,-0.37886619567871094,0.45508211851119995
1683928270819888600,11.656888671875,-0.3927830755710602,-0.33393192291259766,0.4170263111591339
1683928270829931000,11.666930908203126,-0.39867204427719116,-0.3175315856933594,0.3129865527153015
1683928270839973000,11.67697314453125,-0.43860721588134766,-0.21503639221191406,0.21278011798858643
1683928270850015200,11.68701513671875,-0.4601386785507202,-0.13895893096923828,0.08834666013717651
1683928270860057300,11.697057373046874,-0.5081949234008789,0.12081432342529297,0.003481447696685791
1683928270870099700,11.707099609375,-0.5461741089820862,0.18654537200927734,0.04193460941314697
1683928270880141800,11.717141845703125,-0.5445828437805176,0.33583545684814453,0.05281198024749756
1683928270890184000,11.727183837890625,-0.53631192445755,0.3034963607788086,0.04065227508544922
1683928270900226000,11.73722607421875,-0.4494417905807495,0.17600440979003906,0.022037982940673828
1683928270910268200,11.74726806640625,-0.35141438245773315,0.15175628662109375,-0.02904677391052246
1683928270920310500,11.757310546875,-0.23848211765289307,0.1682596206665039,-0.06432485580444336
1683928270930352600,11.7673525390625,-0.1253904104232788,0.12275028228759766,-0.09163904190063477
1683928270940394800,11.777394775390626,-0.06914323568344116,0.22538471221923828,-0.10716474056243896
1683928270950436900,11.787436767578125,0.06218034029006958,0.1414470672607422,-0.09164667129516602
1683928270960479200,11.797479248046875,0.25238877534866333,-0.1624746322631836,-0.612027645111084
1683928270970521300,11.807521240234376,0.5059600472450256,-0.055877685546875,-0.1313495635986328
1683928270980563500,11.8175634765625,0.5001316666603088,0.4087352752685547,0.3967097997665405
1683928270990605600,11.82760546875,0.4571545124053955,0.2944917678833008,0.07590162754058838
1683928271000648000,11.83764794921875,0.6282073259353638,-0.14246368408203125,0.05622720718383789
1683928271010690000,11.84768994140625,0.6640462875366211,0.28415489196777344,0.3856404423713684
1683928271020732200,11.857732177734375,0.6662858724594116,0.31847572326660156,0.10381877422332764
1683928271030774300,11.867774169921875,0.6185696721076965,0.090667724609375,-0.0009849071502685547
1683928271040816600,11.877816650390624,0.6643677949905396,0.1268167495727539,0.23763799667358398
1683928271050858800,11.887858642578125,0.6584562063217163,0.11660480499267578,0.5150391459465027
1683928271060900900,11.89790087890625,0.5367516279220581,-0.11266613006591797,0.8192088603973389
1683928271070943000,11.90794287109375,0.3287023901939392,-0.17579269409179688,0.8811860084533691
1683928271080985300,11.9179853515625,0.13829964399337769,-0.17486190795898438,0.8685382008552551
1683928271091027500,11.92802734375,-0.025811731815338135,-0.24277687072753906,1.0222442150115967
1683928271101069600,11.938069580078125,-0.21552109718322754,-0.38043689727783203,1.2071675062179565
1683928271111111700,11.948111572265624,-0.43708741664886475,-0.45241546630859375,1.31429922580719
1683928271121154000,11.958154052734375,-0.6845829486846924,-0.7020730972290039,1.3441250324249268
1683928271131196200,11.968196044921875,-0.8257602453231812,-1.0832853317260742,1.4312723875045776
1683928271141238300,11.97823828125,-0.8609241247177124,-1.4448223114013672,1.5656083822250366
1683928271151280400,11.9882802734375,-0.7773053646087646,-1.614335060119629,1.7079592943191528
1683928271161322500,11.998322509765625,-0.6549094915390015,-1.621964454650879,1.8162198066711426
1683928271171364900,12.00836474609375,-0.5077774524688721,-1.5162162780761719,1.938066005706787
1683928271181407000,12.018406982421874,-0.4122416079044342,-1.445408821105957,2.112924814224243
1683928271191449000,12.028448974609375,-0.3818398118019104,-1.4399852752685547,2.2735419273376465
1683928271201491200,12.0384912109375,-0.44389134645462036,-1.637038230895996,2.3734002113342285
1683928271211533600,12.048533447265624,-0.458473265171051,-1.8792695999145508,2.058893918991089
1683928271221575700,12.05857568359375,-0.3884872496128082,-1.956390380859375,1.834692120552063
1683928271231617800,12.06861767578125,-0.5743913054466248,-1.909358024597168,1.7055160999298096
1683928271241660000,12.078659912109375,-1.0681664943695068,-1.530069351196289,1.2089409828186035
1683928271251702300,12.088702392578124,-1.6773853302001953,-0.9790678024291992,0.6633360981941223
1683928271261744400,12.098744384765626,-2.0998289585113525,-0.2257537841796875,0.17878305912017822
1683928271271786500,12.108786376953125,-2.1764330863952637,0.5190105438232422,-0.08240282535552979
1683928271281828600,12.11882861328125,-2.089470863342285,1.0542545318603516,-0.37355852127075195
1683928271291871000,12.12887109375,-1.9576531648635864,1.4872808456420898,-0.7863138914108276
1683928271301913000,12.1389130859375,-1.7037672996520996,1.7676877975463867,-1.1398059129714966
1683928271311955200,12.148955078125,-1.1956133842468262,1.8025035858154297,-1.3135207891464233
1683928271321997300,12.158997314453124,-0.6173605918884277,1.85014009475708,-1.4343576431274414
1683928271332039700,12.169039794921876,-0.0824708342552185,1.9080772399902344,-1.53428316116333
1683928271342081800,12.179081787109375,0.3070858418941498,1.8378238677978516,-1.5212265253067017
1683928271352124000,12.1891240234375,0.651225209236145,1.7544116973876953,-1.5326051712036133
1683928271362166000,12.199166015625,0.8663336038589478,1.4907608032226562,-1.7385684251785278
1683928271372208000,12.2092080078125,1.0720845460891724,1.0164451599121094,-1.750985860824585
1683928271382250500,12.21925048828125,1.2207541465759277,0.42049503326416016,-1.927536964416504
1683928271392292600,12.229292724609374,1.3697383403778076,-0.1724100112915039,-2.0355982780456543
1683928271402334700,12.239334716796876,1.5546071529388428,-0.8049802780151367,-2.027836561203003
1683928271412376800,12.249376953125,1.708251714706421,-1.371760368347168,-2.0890495777130127
1683928271422419200,12.259419189453125,1.7683022022247314,-1.8749685287475586,-2.1248161792755127
1683928271432461300,12.26946142578125,1.729146957397461,-2.24979305267334,-2.0972108840942383
1683928271442503400,12.27950341796875,1.5662578344345093,-2.126248359680176,-2.1791441440582275
1683928271452545500,12.289545654296875,1.306497573852539,-1.6777429580688477,-2.1884822845458984
1683928271462588000,12.299587890625,1.0224272012710571,-1.0651063919067383,-1.9449951648712158
1683928271472630000,12.309630126953126,0.65076744556427,-0.4151115417480469,-1.5106258392333984
1683928271482672000,12.319672119140625,0.24060845375061035,0.19109725952148438,-1.0693057775497437
1683928271492714200,12.32971435546875,-0.08040857315063477,0.6986446380615234,-0.7154799699783325
1683928271502756600,12.339756591796874,-0.28093063831329346,1.0336036682128906,-0.4549413323402405
1683928271512798700,12.349798828125,-0.3336775302886963,1.2677373886108398,-0.3352295756340027
1683928271522840800,12.3598408203125,-0.2989006042480469,1.3794212341308594,-0.2971220016479492
1683928271532883000,12.369883056640624,-0.17714107036590576,1.4164152145385742,-0.3305584490299225
1683928271542925000,12.379925048828126,-0.0012036561965942383,1.4098424911499023,-0.4377681314945221
1683928271552967400,12.389967529296875,0.15964818000793457,1.431467056274414,-0.5569615364074707
1683928271563009500,12.400009521484375,0.3362126350402832,1.3857412338256836,-0.7046854496002197
1683928271573051600,12.4100517578125,0.4608680009841919,1.2992315292358398,-0.8858366012573242
1683928271583093800,12.42009375,0.5284901857376099,1.1649742126464844,-1.0650124549865723
1683928271593136000,12.43013623046875,0.5172940492630005,1.0237798690795898,-1.2475959062576294
1683928271603178200,12.44017822265625,0.3893730640411377,0.8279170989990234,-1.3103569746017456
1683928271613220400,12.450220458984376,0.1838381290435791,0.6419267654418945,-1.422143578529358
1683928271623262500,12.460262451171875,-0.02228415012359619,0.4322948455810547,-1.46684730052948
1683928271633304800,12.470304931640625,-0.21725332736968994,0.2158060073852539,-1.48292076587677
1683928271643347000,12.480346923828124,-0.3992539644241333,0.10477161407470703,-1.531377911567688
1683928271653389000,12.49038916015625,-0.4548419713973999,0.10625457763671875,-1.5196627378463745
1683928271663431200,12.50043115234375,-0.4092637300491333,0.19626808166503906,-1.4374324083328247
1683928271673473500,12.5104736328125,-0.2699779272079468,0.29819202423095703,-1.3534057140350342
1683928271683515600,12.520515625,-0.12534523010253906,0.3618202209472656,-1.2646220922470093
1683928271693557800,12.530557861328125,0.07444381713867188,0.34195995330810547,-1.1694175004959106
1683928271703599900,12.540599853515625,0.2617533206939697,0.2365741729736328,-1.0165865421295166
1683928271713642200,12.550642333984374,0.2959479093551636,0.13659381866455078,-0.7184223532676697
1683928271723684400,12.560684326171875,0.2000124454498291,0.06807231903076172,-0.449268639087677
1683928271733726500,12.5707265625,0.013370752334594727,0.08808612823486328,-0.18939398229122162
