time,seconds_elapsed,z,y,x
1683928942315083500,0.03408349609375,0,0,0
1683928942325125000,0.044125,-0.06293869018554688,0.05824470520019531,-0.06842470169067383
1683928942335166700,0.054166748046875,-0.12629222869873047,0.11685740947723389,-0.09184503555297852
1683928942345208300,0.064208251953125,-0.21776199340820312,0.055422425270080566,-0.016941070556640625
1683928942355250000,0.07425,-0.16635990142822266,-0.3723970651626587,-0.22012710571289062
1683928942365291500,0.08429150390625,0.12338829040527344,-0.39604562520980835,-0.05473899841308594
1683928942375333000,0.0943330078125,0.4640970230102539,-0.29854756593704224,0.16258478164672852
1683928942385374700,0.104374755859375,0.5746393203735352,-0.09243839979171753,0.5481953620910645
1683928942395416300,0.114416259765625,0.2337188720703125,0.09519648551940918,0.7914986610412598
1683928942405458000,0.1244580078125,-0.17397212982177734,0.12680697441101074,0.8326115608215332
1683928942415499500,0.13449951171875,-0.7709226608276367,0.44454967975616455,-0.09808158874511719
1683928942425541000,0.144541015625,-1.1865530014038086,0.6438714265823364,-0.4824070930480957
1683928942435582700,0.154582763671875,-1.2408781051635742,0.45516228675842285,-0.45824146270751953
1683928942445624300,0.164624267578125,-0.2062525749206543,-0.40186500549316406,0.8317532539367676
1683928942455666000,0.174666015625,0.06982421875,0.2383657693862915,0.04981851577758789
1683928942465707500,0.18470751953125,0.42529773712158203,0.8000377416610718,-0.6467132568359375
1683928942475749000,0.1947490234375,0.6236953735351562,0.8685362339019775,-1.0341382026672363
1683928942485790700,0.204790771484375,0.9099874496459961,0.7994499206542969,-0.9907054901123047
1683928942495832300,0.214832275390625,-0.1325068473815918,0.467157244682312,-1.5331952571868896
1683928942505874000,0.2248740234375,-1.2141242027282715,0.3954954147338867,-2.296326160430908
1683928942515915500,0.23491552734375,-1.826263427734375,0.3285703659057617,-2.586167097091675
1683928942525957000,0.24495703125,-1.7029180526733398,0.18313360214233398,-2.193136692047119
1683928942535998700,0.254998779296875,-1.238175868988037,0.15695762634277344,-1.392268180847168
1683928942546040300,0.265040283203125,-0.7185115814208984,0.25087904930114746,-1.1429412364959717
1683928942556082000,0.27508203125,-0.40468549728393555,0.3452271819114685,-1.2804324626922607
1683928942566123500,0.28512353515625,-0.1979813575744629,0.43632882833480835,-1.2354159355163574
1683928942576165000,0.2951650390625,-0.2953157424926758,0.5115971565246582,-1.1328177452087402
1683928942586206700,0.305206787109375,-0.6261715888977051,0.5017015933990479,-1.2927453517913818
1683928942596248300,0.315248291015625,-1.0420722961425781,0.37879079580307007,-1.4563148021697998
1683928942606290200,0.325290283203125,-1.4654827117919922,0.24652254581451416,-1.7948400974273682
1683928942616331500,0.33533154296875,-1.6724424362182617,0.13112163543701172,-2.1858913898468018
1683928942626373000,0.345373046875,-1.7216434478759766,0.022425591945648193,-2.608461618423462
1683928942636414700,0.355414794921875,-1.6874923706054688,-0.12324321269989014,-2.7786171436309814
1683928942646456600,0.36545654296875,-1.632951259613037,-0.4440719485282898,-2.925283670425415
1683928942656498200,0.375498291015625,-1.4935760498046875,-0.5918633341789246,-2.684894323348999
1683928942666539500,0.38553955078125,-1.3826231956481934,-0.47588983178138733,-2.110959529876709
1683928942676581400,0.395581298828125,-1.6437911987304688,-0.6051698327064514,-1.8467652797698975
1683928942686623000,0.405623046875,-1.7260098457336426,-0.9975676536560059,-2.120988368988037
1683928942696664600,0.41566455078125,-1.4426560401916504,-1.2931318283081055,-2.5276436805725098
1683928942706706200,0.4257060546875,-1.1326618194580078,-1.54573655128479,-2.883516788482666
1683928942716747800,0.435747802734375,-0.33656835556030273,-1.3560104370117188,-2.362231731414795
1683928942726789400,0.445789306640625,-0.25700855255126953,-1.3271725177764893,-0.8817000389099121
1683928942736831000,0.4558310546875,0.12610673904418945,-1.369908094406128,-0.49346208572387695
1683928942746872600,0.46587255859375,1.2868471145629883,-0.4493234157562256,-0.7873268127441406
1683928942756914200,0.4759140625,1.3675308227539062,-0.5994304418563843,0.3798685073852539
1683928942766955800,0.485955810546875,2.170760154724121,-0.8124306201934814,0.37996625900268555
1683928942776997400,0.495997314453125,2.967668294906616,-1.019923210144043,0.5593633651733398
1683928942787039000,0.5060390625,3.9842395782470703,-0.9983992576599121,0.8383302688598633
1683928942797080600,0.51608056640625,5.303976058959961,-0.8487288951873779,1.5907597541809082
1683928942807122200,0.5261220703125,5.628538131713867,-0.8090803623199463,3.868687629699707
1683928942817163800,0.536163818359375,6.147188663482666,-0.499237060546875,4.741071701049805
1683928942827205400,0.546205322265625,6.472612380981445,-0.04278707504272461,5.494078636169434
1683928942837247000,0.5562470703125,6.481595516204834,0.3535590171813965,6.021629810333252
1683928942847288600,0.56628857421875,5.505845069885254,0.5708706378936768,6.015824794769287
1683928942857330200,0.576330078125,4.246436595916748,0.877291202545166,6.306944847106934
1683928942867371800,0.586371826171875,2.655381441116333,1.4532878398895264,6.48553466796875
1683928942877413400,0.596413330078125,1.08591890335083,2.0682764053344727,6.429523468017578
1683928942887455000,0.606455078125,0.5261592864990234,2.4640297889709473,6.840540885925293
1683928942897496600,0.61649658203125,1.1435613632202148,3.16339111328125,6.92121696472168
1683928942907538200,0.6265380859375,1.682065486907959,2.575063467025757,6.92912483215332
1683928942917579800,0.636579833984375,2.7766757011413574,2.383035659790039,6.823956489562988
1683928942927621400,0.646621337890625,3.2431607246398926,2.7970902919769287,5.5759782791137695
1683928942937663000,0.6566630859375,2.819683074951172,2.8405745029449463,5.001630783081055
1683928942947704600,0.66670458984375,1.6216375827789307,2.9613394737243652,4.0363616943359375
1683928942957746200,0.67674609375,0.25515806674957275,2.8539810180664062,2.9229698181152344
1683928942967787800,0.686787841796875,-0.35047149658203125,2.397693157196045,2.509174346923828
1683928942977829400,0.696829345703125,-0.9252261519432068,2.1291656494140625,1.9981880187988281
1683928942987871000,0.70687109375,-1.6483906507492065,2.0398988723754883,1.5011835098266602
1683928942997912600,0.71691259765625,-2.9019346237182617,2.1876368522644043,1.4989891052246094
1683928943007954200,0.7269541015625,-3.4876747131347656,2.3236937522888184,1.8321819305419922
1683928943017995800,0.736995849609375,-3.9119343757629395,3.0179834365844727,1.7891178131103516
1683928943028037400,0.747037353515625,-4.420571327209473,3.7535948753356934,1.7710886001586914
1683928943038079000,0.757078857421875,-5.660808086395264,3.511035203933716,1.9383020401000977
1683928943048120600,0.76712060546875,-4.8853607177734375,2.552971124649048,1.5637226104736328
1683928943058162200,0.777162109375,-3.744201183319092,1.7423357963562012,1.5360050201416016
1683928943068203800,0.787203857421875,-2.9595561027526855,1.152931809425354,1.4739007949829102
1683928943078245400,0.797245361328125,-2.2737903594970703,0.8656630516052246,1.3362007141113281
1683928943088287000,0.807286865234375,-2.2218751907348633,0.5580086708068848,1.16302490234375
1683928943098328600,0.81732861328125,-2.2734174728393555,0.30436062812805176,1.0383920669555664
1683928943108370200,0.8273701171875,-2.085343360900879,-0.030936002731323242,0.5567922592163086
1683928943118411800,0.837411865234375,-1.4472992420196533,-0.3315865993499756,0.4408855438232422
1683928943128453400,0.847453369140625,-1.0287270545959473,-0.5393705368041992,0.40921974182128906
1683928943138495000,0.857494873046875,-0.6445367336273193,-1.2016046047210693,0.4264974594116211
1683928943148536600,0.86753662109375,-0.6380844116210938,-0.43856942653656006,1.0233030319213867
1683928943158578200,0.877578125,0.3924887180328369,-0.527719259262085,-0.5835847854614258
1683928943168619800,0.887619873046875,2.0254719257354736,-1.4948071241378784,0.031638145446777344
1683928943178661400,0.897661376953125,2.860485076904297,-1.7493557929992676,-1.1984281539916992
1683928943188703000,0.907702880859375,2.542888879776001,-2.0723485946655273,-2.0425186157226562
1683928943198744600,0.91774462890625,2.6325621604919434,-1.7847477197647095,-2.4222354888916016
1683928943208786200,0.9277861328125,2.338986396789551,-1.2706286907196045,-2.5641937255859375
1683928943218827800,0.937827880859375,2.416565418243408,-0.8915272951126099,-2.180081367492676
1683928943228869400,0.947869384765625,2.8068289756774902,-0.7983653545379639,-1.7934579849243164
1683928943238911000,0.957910888671875,3.1191251277923584,-0.7238972187042236,-1.9112553596496582
1683928943248952600,0.96795263671875,3.12075138092041,-0.9057625532150269,-1.8052558898925781
1683928943258994200,0.977994140625,3.3644185066223145,-0.5950973033905029,-1.6377854347229004
1683928943269035800,0.988035888671875,3.2495219707489014,-1.0966026782989502,-1.1504735946655273
1683928943279077400,0.998077392578125,3.1082611083984375,-1.299568772315979,-0.6446933746337891
1683928943289119000,1.008118896484375,3.0405728816986084,-1.055495023727417,-0.19439029693603516
1683928943299160600,1.01816064453125,3.6627042293548584,-0.6282645463943481,-0.5290536880493164
1683928943309202200,1.0282021484375,3.8171513080596924,-1.0750083923339844,-2.413940906524658
1683928943319243800,1.038243896484375,3.759653091430664,-2.3107187747955322,-1.3896193504333496
1683928943329285400,1.048285400390625,1.1277973651885986,-2.608673334121704,-0.8881120681762695
1683928943339327000,1.058326904296875,-0.3727438449859619,-2.113117218017578,-0.9271821975708008
1683928943349368600,1.06836865234375,-1.1619030237197876,-1.7917697429656982,-0.5610990524291992
1683928943359410200,1.07841015625,-1.935630202293396,-1.703747272491455,0.16750526428222656
1683928943369451800,1.08845166015625,-2.8758296966552734,-1.9981369972229004,1.2476606369018555
1683928943379493400,1.098493408203125,-3.6141529083251953,-1.8306372165679932,1.5707283020019531
1683928943389535000,1.108534912109375,-3.6215906143188477,-1.377178430557251,1.5535354614257812
1683928943399576600,1.11857666015625,-3.0006461143493652,-1.130885124206543,1.099076271057129
1683928943409618200,1.1286181640625,-2.060518264770508,-1.3250319957733154,0.04414653778076172
1683928943419659800,1.13865966796875,-1.0484782457351685,-1.6273460388183594,-0.7946634292602539
1683928943429701400,1.148701416015625,-0.09403395652770996,-1.766087293624878,-0.8632898330688477
1683928943439743000,1.158742919921875,0.7402988076210022,-1.7144358158111572,-0.15720558166503906
1683928943449784600,1.16878466796875,0.9476780891418457,-1.5628080368041992,0.7720537185668945
1683928943459826200,1.178826171875,0.9136210083961487,-1.4249377250671387,1.283395767211914
1683928943469867800,1.18886767578125,0.6099839806556702,-1.0792646408081055,1.1440725326538086
1683928943479909400,1.198909423828125,0.3464679718017578,-0.877007007598877,1.1807889938354492
1683928943489951000,1.208950927734375,0.8492274284362793,-0.13348007202148438,0.44727230072021484
1683928943499992600,1.21899267578125,1.246401071548462,-0.3855142593383789,0.15553569793701172
1683928943510034200,1.2290341796875,0.5873216390609741,-1.1038703918457031,0.18271732330322266
1683928943520075800,1.23907568359375,0.11489737033843994,-1.748857021331787,0.7730340957641602
1683928943530117400,1.249117431640625,0.736504316329956,-1.9182677268981934,0.9926586151123047
1683928943540159000,1.259158935546875,0.7608518004417419,-0.8028922080993652,1.1423091888427734
1683928943550200600,1.26920068359375,0.42193514108657837,-0.2231740951538086,1.3799190521240234
1683928943560242200,1.2792421875,0.20096057653427124,0.07607316970825195,1.3733386993408203
1683928943570283800,1.28928369140625,0.12209093570709229,0.059932708740234375,1.2900943756103516
1683928943580325400,1.299325439453125,0.07615828514099121,0.0628657341003418,1.245737075805664
1683928943590367000,1.309366943359375,-0.10780447721481323,0.09260702133178711,0.7137241363525391
1683928943600408600,1.31940869140625,0.32064956426620483,-0.37857913970947266,0.35821533203125
1683928943610450200,1.3294501953125,0.7914608120918274,-0.14592885971069336,-0.1643829345703125
1683928943620491800,1.33949169921875,0.7744330167770386,0.0766153335571289,0.0897531509399414
1683928943630533400,1.349533447265625,0.8589416742324829,0.16339731216430664,-0.5077085494995117
1683928943640575000,1.359574951171875,0.8265954256057739,-0.645073413848877,-1.2933597564697266
1683928943650616600,1.369616455078125,0.20360541343688965,-0.7885165214538574,-0.4531402587890625
1683928943660658200,1.379658203125,-0.3474191427230835,0.41831111907958984,0.6784811019897461
1683928943670699800,1.38969970703125,-0.4531991481781006,0.7370924949645996,-0.17442798614501953
1683928943680741400,1.399741455078125,-0.08825325965881348,0.6416306495666504,-0.38161373138427734
1683928943690783000,1.409782958984375,0.34816789627075195,0.14243459701538086,-0.16519737243652344
1683928943700824600,1.419824462890625,0.7187659740447998,0.07738780975341797,-0.031083106994628906
1683928943710866200,1.4298662109375,0.46131694316864014,0.4848475456237793,-0.1017618179321289
1683928943720907800,1.43990771484375,0.30818700790405273,1.2261147499084473,-0.2663145065307617
1683928943730949400,1.449949462890625,0.35961759090423584,1.64947509765625,-0.2278146743774414
1683928943740991000,1.459990966796875,0.7622711658477783,1.7689695358276367,-0.39598608016967773
1683928943751032600,1.470032470703125,0.7583450078964233,1.3627800941467285,-0.24834728240966797
1683928943761074200,1.48007421875,0.5401239395141602,0.9287247657775879,-0.1682300567626953
1683928943771115800,1.49011572265625,0.15141332149505615,0.23348760604858398,0.05232429504394531
1683928943781157400,1.500157470703125,-0.17772626876831055,0.023435592651367188,0.6400423049926758
1683928943791199000,1.510198974609375,-0.1685199737548828,-0.39079809188842773,1.2369232177734375
1683928943801240600,1.520240478515625,0.6026175022125244,0.2980375289916992,1.4553565979003906
1683928943811282200,1.5302822265625,-0.5644800662994385,-1.9361863136291504,1.281031608581543
1683928943821323800,1.54032373046875,-0.7303738594055176,-3.274618625640869,0.7900876998901367
1683928943831365400,1.550365478515625,-0.49869275093078613,-2.592646598815918,0.18487024307250977
1683928943841407000,1.560406982421875,0.4749866724014282,-0.15976953506469727,-0.5961761474609375
1683928943851448600,1.570448486328125,1.3798679113388062,0.570378303527832,-0.48810482025146484
1683928943861490200,1.580490234375,1.4768636226654053,0.263822078704834,-0.10480499267578125
1683928943871531800,1.59053173828125,1.3891775608062744,-0.00854349136352539,0.13644075393676758
1683928943881573400,1.600573486328125,1.4128892421722412,0.20826244354248047,0.29466962814331055
1683928943891615000,1.610614990234375,1.2953791618347168,0.48978281021118164,0.24130535125732422
1683928943901656600,1.620656494140625,1.030929684638977,0.011617183685302734,0.5842118263244629
1683928943911698200,1.6306982421875,1.124820351600647,0.038425445556640625,0.7676272392272949
1683928943921739800,1.64073974609375,1.2716082334518433,0.39832019805908203,0.7705168724060059
1683928943931781400,1.650781494140625,1.0541930198669434,0.5038318634033203,1.1746368408203125
1683928943941823000,1.660822998046875,0.4571216106414795,0.6825876235961914,1.7168102264404297
1683928943951864600,1.670864501953125,-0.5634969472885132,0.005097389221191406,1.0667319297790527
1683928943961906200,1.68090625,0.08442342281341553,0.7771248817443848,0.7373781204223633
1683928943971947800,1.69094775390625,0.2796206474304199,0.6229500770568848,0.6247696876525879
1683928943981989400,1.7009892578125,1.25262451171875,0.1696910858154297,1.4404644966125488
1683928943992031000,1.711031005859375,1.4392352104187012,1.2612528800964355,0.6207637786865234
1683928944002072600,1.721072509765625,0.5792196989059448,1.9071669578552246,0.11164045333862305
1683928944012114200,1.7311142578125,0.1113053560256958,1.4485993385314941,0.3296799659729004
1683928944022155800,1.74115576171875,-0.25033336877822876,1.1925525665283203,0.3987259864807129
1683928944032197400,1.751197265625,-0.24213021993637085,1.0020732879638672,0.16869497299194336
1683928944042239000,1.761239013671875,-0.15557658672332764,2.159947395324707,-0.7775225639343262
1683928944052280600,1.771280517578125,0.060166776180267334,0.9564390182495117,-0.17360973358154297
1683928944062322200,1.781322265625,-0.1728135347366333,0.29737424850463867,-0.10881805419921875
1683928944072363800,1.79136376953125,-0.7504189014434814,-0.195587158203125,-0.061209678649902344
1683928944082405400,1.8014052734375,-0.9243718385696411,-0.36834001541137695,0.09997844696044922
1683928944092447000,1.811447021484375,-0.4227200746536255,-0.31923770904541016,0.520256519317627
1683928944102488600,1.821488525390625,0.0472412183880806,0.034114837646484375,0.46762990951538086
1683928944112530200,1.8315302734375,0.3225669860839844,0.5463271141052246,0.2913336753845215
1683928944122571800,1.84157177734375,0.44473692774772644,1.4018597602844238,1.0940899848937988
1683928944132613400,1.85161328125,0.05676806718111038,0.7546582221984863,0.6784391403198242
1683928944142655000,1.861655029296875,-0.10679208487272263,1.925786018371582,0.5837159156799316
1683928944152696600,1.871696533203125,-0.8524677753448486,0.2631406784057617,0.8422479629516602
1683928944162738200,1.88173828125,-1.0261907577514648,-0.6661529541015625,0.5792646408081055
1683928944172779800,1.89177978515625,-0.5561838746070862,-0.649806022644043,0.35164594650268555
1683928944182821400,1.9018212890625,0.08263576030731201,0.20207881927490234,0.050794124603271484
1683928944192863000,1.911863037109375,0.15634828805923462,0.48002004623413086,0.5554084777832031
1683928944202904600,1.921904541015625,0.06870311498641968,0.7587213516235352,0.8738851547241211
1683928944212946200,1.9319462890625,0.005116164684295654,1.0329651832580566,0.9121723175048828
1683928944222987800,1.94198779296875,-0.06830108165740967,0.8075442314147949,1.2057347297668457
1683928944233029400,1.952029296875,0.051918983459472656,0.9044480323791504,1.191357135772705
1683928944243071000,1.962071044921875,0.32462114095687866,1.3521709442138672,0.7763128280639648
1683928944253112600,1.972112548828125,0.5440736413002014,0.9543266296386719,0.5282340049743652
1683928944263154200,1.982154296875,1.2686638832092285,-0.5125885009765625,0.07074403762817383
1683928944273195800,1.99219580078125,0.3928144574165344,-0.32688188552856445,0.45226192474365234
1683928944283237400,2.0022373046875,0.43265217542648315,-0.5443243980407715,0.323544979095459
1683928944293279000,2.012279052734375,0.44426992535591125,-0.14307165145874023,0.13189315795898438
1683928944303320600,2.022320556640625,0.7235324382781982,0.5027866363525391,0.5889983177185059
1683928944313362200,2.032362060546875,0.4679449498653412,0.6522388458251953,0.6852078437805176
1683928944323403800,2.04240380859375,0.16288739442825317,0.6667232513427734,0.7167739868164062
1683928944333445400,2.0524453125,-0.000263214111328125,1.0546627044677734,0.5091333389282227
1683928944343487000,2.062487060546875,-0.10420262813568115,1.1491484642028809,-0.3002448081970215
1683928944353528600,2.072528564453125,-0.12559819221496582,1.086167812347412,0.40545034408569336
1683928944363570200,2.082570068359375,0.36328625679016113,1.4398503303527832,1.4417662620544434
1683928944373611800,2.09261181640625,0.6613650918006897,1.4045295715332031,2.4243345260620117
1683928944383653400,2.1026533203125,0.8427007794380188,0.7843942642211914,3.321378231048584
1683928944393695000,2.112695068359375,0.952378511428833,0.0006809234619140625,3.7191104888916016
1683928944403736600,2.122736572265625,1.0029956102371216,-0.3176407814025879,3.5529356002807617
1683928944413778200,2.132778076171875,0.6294445395469666,-0.2710452079772949,2.60416841506958
1683928944423819800,2.14281982421875,0.04371297359466553,-0.5184025764465332,1.6146879196166992
1683928944433861400,2.152861328125,0.4870147705078125,1.8216485977172852,0.6751337051391602
1683928944443903000,2.162903076171875,-1.342137098312378,-1.1489205360412598,1.1030755043029785
1683928944453944600,2.172944580078125,-1.3088440895080566,-1.8303794860839844,0.10292911529541016
1683928944463986200,2.182986083984375,-0.9997698068618774,-0.34933042526245117,-0.42381715774536133
1683928944474027800,2.19302783203125,-0.5375280380249023,0.24004459381103516,-0.29731273651123047
1683928944484069400,2.2030693359375,0.3067309856414795,1.4027700424194336,-0.17256784439086914
1683928944494111000,2.213111083984375,0.43874168395996094,0.6117434501647949,-0.2534909248352051
1683928944504152600,2.223152587890625,0.9837091565132141,1.3410577774047852,-0.4180583953857422
1683928944514194200,2.233194091796875,0.03371167182922363,0.9900002479553223,-0.5061097145080566
1683928944524235800,2.24323583984375,-0.6641476154327393,0.660489559173584,-0.8453011512756348
1683928944534277400,2.25327734375,-1.4112789630889893,0.3026857376098633,-1.2611632347106934
1683928944544319000,2.263319091796875,-1.4019813537597656,-0.03789806365966797,-1.3623437881469727
1683928944554360600,2.273360595703125,-0.9292339086532593,-0.5320072174072266,-1.1986479759216309
1683928944564402200,2.283402099609375,-0.48893284797668457,-1.050004482269287,-1.1375432014465332
1683928944574443800,2.29344384765625,-0.3504915237426758,-0.9844083786010742,-0.9012675285339355
1683928944584485400,2.3034853515625,-0.5837055444717407,-1.1723065376281738,-0.6352682113647461
1683928944594527000,2.31352685546875,-1.2871586084365845,-1.1639690399169922,-0.16782140731811523
1683928944604568600,2.323568603515625,-1.8310555219650269,-1.6898503303527832,0.16299152374267578
1683928944614610200,2.333610107421875,-1.4200900793075562,-1.7028179168701172,0.3969607353210449
1683928944624651800,2.34365185546875,-0.3534700870513916,-1.1079435348510742,0.628547191619873
1683928944634693400,2.353693359375,0.2735304832458496,-0.5662589073181152,0.34912919998168945
1683928944644735000,2.36373486328125,0.3964118957519531,-0.9873700141906738,0.4226398468017578
1683928944654776600,2.373776611328125,0.20125794410705566,-0.882695198059082,0.665769100189209
1683928944664818200,2.383818115234375,0.39858078956604004,-1.4534072875976562,0.7426061630249023
1683928944674859800,2.39385986328125,0.6091399192810059,-1.9866347312927246,1.2087993621826172
1683928944684901400,2.4039013671875,0.552478551864624,-1.647231101989746,1.1606407165527344
1683928944694943000,2.41394287109375,0.4407374858856201,-1.153101921081543,0.6307721138000488
1683928944704984600,2.423984619140625,0.2716909646987915,-0.6980714797973633,-0.23603296279907227
1683928944715026200,2.434026123046875,-0.10684573650360107,-0.8654603958129883,-1.1412339210510254
1683928944725067800,2.44406787109375,-0.5450761318206787,0.19323062896728516,-1.6176996231079102
1683928944735109400,2.454109375,-0.5391049385070801,-0.9395394325256348,-2.2994589805603027
1683928944745151000,2.46415087890625,-0.9198535680770874,-0.6118202209472656,-2.6992006301879883
1683928944755192600,2.474192626953125,-0.705504298210144,-0.08126258850097656,-2.9189090728759766
1683928944765234200,2.484234130859375,-0.8942418098449707,-0.1118168830871582,-2.85526180267334
1683928944775275800,2.49427587890625,-0.9858551025390625,-0.35793542861938477,-2.3942394256591797
1683928944785317400,2.5043173828125,-0.9855459928512573,0.2539091110229492,-2.131052017211914
1683928944795359000,2.51435888671875,-0.9182246923446655,0.3695359230041504,-1.5716938972473145
1683928944805400600,2.524400634765625,-0.6292710304260254,0.06357669830322266,-1.237107276916504
1683928944815442200,2.534442138671875,-0.32810211181640625,0.38753843307495117,-1.2307791709899902
1683928944825483800,2.54448388671875,-0.001387476921081543,0.6090316772460938,-0.7160496711730957
1683928944835525400,2.554525390625,0.6184068918228149,1.1969928741455078,-0.2755584716796875
1683928944845567000,2.56456689453125,0.8717093467712402,1.1826248168945312,-0.3878774642944336
1683928944855608600,2.574608642578125,1.0011063814163208,1.4103937149047852,-0.9978399276733398
1683928944865650200,2.584650146484375,0.6472927331924438,1.2572660446166992,-0.9855208396911621
1683928944875691800,2.59469189453125,0.17268061637878418,0.9625682830810547,-0.8700747489929199
1683928944885733400,2.6047333984375,0.017183542251586914,0.5538177490234375,-0.7308311462402344
1683928944895774700,2.614774658203125,-0.030077457427978516,0.33971738815307617,-0.7056159973144531
1683928944905816600,2.624816650390625,-0.006039023399353027,1.286329746246338,-0.5826964378356934
1683928944915858200,2.634858154296875,-0.2895939350128174,0.739830493927002,-0.6466226577758789
1683928944925899500,2.6448994140625,-0.4388490915298462,0.1482243537902832,-0.40575218200683594
1683928944935941000,2.654941162109375,-0.021312236785888672,-0.1200251579284668,0.0715632438659668
1683928944945983000,2.66498291015625,0.2683439254760742,-0.07213449478149414,-0.012110233306884766
1683928944956024300,2.6750244140625,0.3140695095062256,0.06373739242553711,-0.3050808906555176
1683928944966066000,2.68506591796875,0.1830991506576538,0.4012312889099121,-0.5187115669250488
1683928944976107800,2.695107666015625,-0.08923912048339844,0.6504936218261719,-0.833254337310791
1683928944986149000,2.705149169921875,-0.30355894565582275,1.299027442932129,-1.199897289276123
1683928944996190700,2.715190673828125,-0.9454468488693237,2.000056266784668,-1.3981943130493164
1683928945006232300,2.725232421875,-0.43331634998321533,0.31232213973999023,-1.2470793724060059
1683928945016274200,2.735274169921875,-0.9357812404632568,1.6371355056762695,-0.7644715309143066
1683928945026315500,2.7453154296875,-0.9257369041442871,0.9208965301513672,-0.6573858261108398
1683928945036357000,2.755357177734375,-0.7949850559234619,0.8181924819946289,0.02104949951171875
1683928945046399000,2.76539892578125,-0.7188725471496582,0.5881023406982422,0.48484182357788086
1683928945056440300,2.7754404296875,-0.5705822706222534,3.9520740509033203,-0.3686394691467285
1683928945066482000,2.78548193359375,0.1929306983947754,1.599128246307373,0.9921221733093262
1683928945076523500,2.7955234375,-0.005690574645996094,1.453986644744873,1.4047565460205078
1683928945086565000,2.805565185546875,-0.14427483081817627,0.6964688301086426,1.464613437652588
1683928945096606700,2.815606689453125,-0.4484754800796509,0.30678749084472656,1.2457523345947266
1683928945106648300,2.8256484375,-0.4852675199508667,-0.6775832176208496,1.5011835098266602
1683928945116690000,2.83568994140625,-1.510071039199829,-0.9240603446960449,2.5739808082580566
1683928945126731500,2.8457314453125,-1.875244140625,1.3178157806396484,1.8853492736816406
1683928945136773000,2.855773193359375,-1.1773200035095215,0.8635110855102539,1.6684045791625977
1683928945146814700,2.865814697265625,-1.5071505308151245,0.7480344772338867,1.44504976272583
1683928945156856300,2.875856201171875,-1.861539363861084,0.25048828125,1.2041540145874023
1683928945166898000,2.88589794921875,-1.791976809501648,-0.6149072647094727,1.0361084938049316
1683928945176939500,2.895939453125,-1.4293322563171387,-0.4891080856323242,0.5834565162658691
1683928945186981000,2.905981201171875,-0.9188724756240845,-0.40075111389160156,-0.0775294303894043
1683928945197022700,2.916022705078125,-0.5274810791015625,-0.36966896057128906,-0.8310723304748535
1683928945207064300,2.926064208984375,-0.3895648717880249,-1.3402228355407715,-0.9832401275634766
1683928945217106000,2.93610595703125,-0.5956747531890869,-1.1460485458374023,-1.6617779731750488
1683928945227147500,2.9461474609375,-0.6885362863540649,-0.8421249389648438,-2.4053573608398438
1683928945237189000,2.956189208984375,-0.546230673789978,-0.6947979927062988,-2.3151466846466064
1683928945247230700,2.966230712890625,-1.1474179029464722,-0.7823848724365234,-1.6960442066192627
1683928945257272300,2.976272216796875,-2.3545265197753906,-0.587066650390625,0.22806644439697266
1683928945267314000,2.98631396484375,-2.2811357975006104,-0.6569223403930664,1.5914702415466309
1683928945277355500,2.99635546875,-0.26416921615600586,-1.069101333618164,2.0817055702209473
1683928945287397000,3.006397216796875,1.8390514850616455,-1.920492172241211,2.070561408996582
1683928945297438700,3.016438720703125,2.9525561332702637,-3.182413101196289,1.8409013748168945
1683928945307480300,3.026480224609375,3.3412258625030518,-4.322798728942871,1.5818147659301758
1683928945317522000,3.03652197265625,3.2720413208007812,-3.7007970809936523,2.020571708679199
1683928945327563500,3.0465634765625,2.485447406768799,-1.6863012313842773,2.637002944946289
1683928945337605000,3.056605224609375,0.9586436152458191,-0.48043346405029297,2.2892093658447266
1683928945347646700,3.066646728515625,-0.33533942699432373,0.5751438140869141,-0.9548277854919434
1683928945357688300,3.076688232421875,-1.9441558122634888,0.9331660270690918,-2.758345603942871
1683928945367730000,3.08672998046875,-3.0408480167388916,1.1451935768127441,-3.6484954357147217
1683928945377771500,3.096771484375,-3.3885374069213867,1.0954761505126953,-3.7845726013183594
1683928945387813000,3.106813232421875,-2.486398696899414,0.9016437530517578,-3.2821221351623535
1683928945397854700,3.116854736328125,-0.6505427360534668,0.6574020385742188,-2.5715675354003906
1683928945407896300,3.126896240234375,1.3164085149765015,0.5192737579345703,-2.012510299682617
1683928945417938000,3.13693798828125,2.6938185691833496,0.3938741683959961,-1.677910327911377
1683928945427979500,3.1469794921875,3.4415152072906494,0.19620227813720703,-1.4189066886901855
1683928945438021000,3.157021240234375,3.820281505584717,2.4184651374816895,-1.1012616157531738
1683928945448062700,3.167062744140625,3.053511619567871,1.1880521774291992,-1.5757832527160645
1683928945458104300,3.177104248046875,2.273089647293091,0.16423797607421875,-1.8344378471374512
1683928945468146000,3.18714599609375,1.893272876739502,0.17682933807373047,-1.8967556953430176
1683928945478187500,3.1971875,1.6294243335723877,0.02526378631591797,-1.7341134548187256
1683928945488229000,3.20722900390625,1.3816981315612793,-0.06608772277832031,-1.4756052494049072
1683928945498270700,3.217270751953125,1.182443618774414,-0.15739822387695312,-1.1986002922058105
1683928945508312300,3.227312255859375,0.9916613101959229,-0.5653972625732422,-0.9230270385742188
1683928945518354000,3.23735400390625,1.0109403133392334,-0.8240652084350586,-0.6726140975952148
1683928945528395500,3.2473955078125,1.1909656524658203,-0.9532890319824219,-0.22057604789733887
1683928945538437000,3.25743701171875,1.4270846843719482,-2.0490503311157227,-0.30880093574523926
1683928945548478700,3.267478759765625,1.6216404438018799,-1.658371925354004,-0.02060079574584961
1683928945558520300,3.277520263671875,1.3455239534378052,0.5508384704589844,0.5712027549743652
1683928945568562000,3.28756201171875,0.2417648434638977,-1.6190853118896484,0.024360179901123047
1683928945578603500,3.297603515625,-0.3714550733566284,-0.2995433807373047,0.001216888427734375
1683928945588645000,3.30764501953125,-0.4655480980873108,0.8143644332885742,-0.15071392059326172
1683928945598686700,3.317686767578125,-0.5837276577949524,0.5464277267456055,-0.4668705463409424
1683928945608728300,3.327728271484375,-0.32540708780288696,-0.32108402252197266,-1.0034773349761963
1683928945618770000,3.33777001953125,0.2740478217601776,-0.3596515655517578,-1.273726463317871
1683928945628811500,3.3478115234375,0.843390941619873,-0.749608039855957,-1.3888955116271973
1683928945638853000,3.35785302734375,1.2189013957977295,-1.835343360900879,-1.5876026153564453
1683928945648894700,3.367894775390625,1.74436616897583,-1.4284372329711914,-1.2625963687896729
1683928945658936300,3.377936279296875,1.7110430002212524,-0.6237955093383789,-0.40041399002075195
1683928945668978000,3.38797802734375,1.168729543685913,-0.6801214218139648,0.2515997886657715
1683928945679019500,3.39801953125,0.6274371147155762,-0.5464105606079102,0.9137938022613525
1683928945689061000,3.40806103515625,0.18655134737491608,-0.0075740814208984375,1.2681269645690918
1683928945699102700,3.418102783203125,-0.20442138612270355,0.5130653381347656,1.174586534500122
1683928945709144300,3.428144287109375,-0.5225924849510193,0.8675298690795898,0.6522607803344727
1683928945719186000,3.43818603515625,-0.7415744662284851,0.9329452514648438,0.13008618354797363
1683928945729227500,3.4482275390625,-0.7608004808425903,0.8802814483642578,-0.27289342880249023
1683928945739269000,3.45826904296875,-0.36799871921539307,0.3612051010131836,-0.3479940891265869
1683928945749310700,3.468310791015625,-0.1360260248184204,1.1662664413452148,0.4074220657348633
1683928945759352300,3.478352294921875,-0.24586960673332214,3.051016330718994,1.2533495426177979
1683928945769394000,3.488393798828125,-0.4788948893547058,2.0356698036193848,0.6415331363677979
1683928945779435500,3.498435546875,-0.2908322215080261,0.3867645263671875,0.20344853401184082
1683928945789477000,3.50847705078125,-0.047831326723098755,-0.5664215087890625,-0.11546468734741211
1683928945799518700,3.518518798828125,0.20604103803634644,-1.8231172561645508,-0.2873549461364746
1683928945809560300,3.528560302734375,0.4973524808883667,-1.7581100463867188,0.43290090560913086
1683928945819602000,3.538601806640625,0.5125798583030701,-0.7000846862792969,1.6587872505187988
1683928945829643500,3.5486435546875,0.17400407791137695,-0.3727540969848633,2.266890048980713
1683928945839685000,3.55868505859375,-0.2525491416454315,-0.7539339065551758,2.5484142303466797
1683928945849726700,3.568726806640625,-0.4758300483226776,-0.5330047607421875,2.61521315574646
1683928945859768300,3.578768310546875,-0.49794572591781616,-0.1857442855834961,2.423433780670166
1683928945869810000,3.588809814453125,-0.32180652022361755,-0.014111518859863281,1.8113512992858887
1683928945879851500,3.5988515625,-0.10932296514511108,0.20360565185546875,1.0738601684570312
1683928945889893000,3.60889306640625,0.0054939985275268555,0.30597972869873047,0.502434253692627
1683928945899934700,3.618934814453125,0.05220174789428711,0.38891124725341797,0.2041473388671875
1683928945909976300,3.628976318359375,0.07753688097000122,3.4927234649658203,0.9299111366271973
1683928945920018000,3.639017822265625,-0.10232609510421753,2.3440399169921875,-0.0654609203338623
1683928945930059500,3.6490595703125,-0.06592816114425659,0.9886760711669922,-0.823492169380188
1683928945940100900,3.659100830078125,0.1621779203414917,0.2648429870605469,-0.8796333074569702
1683928945950142700,3.669142822265625,0.4108482003211975,-0.6841402053833008,-0.6848406791687012
1683928945960184300,3.679184326171875,0.6576652526855469,-0.88232421875,0.159196138381958
1683928945970226000,3.689225830078125,0.7291204333305359,-0.5495023727416992,1.1226646900177002
1683928945980267500,3.699267578125,0.7227621078491211,-0.33862972259521484,1.783126950263977
1683928945990309000,3.70930908203125,0.47264862060546875,1.8692965507507324,2.7860145568847656
1683928946000350700,3.719350830078125,0.0002092123031616211,-0.8593606948852539,1.7901172637939453
1683928946010392000,3.72939208984375,-0.28113865852355957,-1.3312005996704102,1.5722852945327759
1683928946020434000,3.739433837890625,-0.5238394141197205,-1.8746089935302734,1.5448256731033325
1683928946030475500,3.7494755859375,-0.5966626405715942,-1.656773567199707,2.164884090423584
1683928946040516900,3.759516845703125,-0.89368736743927,-1.2048273086547852,2.4900288581848145
1683928946050558500,3.769558349609375,-1.2553666830062866,-0.9173793792724609,2.307556390762329
1683928946060600300,3.779600341796875,-1.5574339628219604,-0.7661962509155273,2.0134286880493164
1683928946070641700,3.7896416015625,-1.5324175357818604,-0.9271812438964844,1.9551373720169067
1683928946080683300,3.799683349609375,-1.1294077634811401,-1.0469961166381836,2.168759822845459
1683928946090725000,3.80972509765625,-0.6867663264274597,-1.083780288696289,2.347731351852417
1683928946100766700,3.8197666015625,-0.47705262899398804,-0.9933853149414062,2.428002119064331
1683928946110808000,3.82980810546875,-0.4124506711959839,-0.7865228652954102,2.3081822395324707
1683928946120849700,3.839849609375,-0.3182217478752136,-0.7234296798706055,1.9477391242980957
1683928946130891300,3.849891357421875,-0.1412215232849121,-0.7627773284912109,1.6922615766525269
1683928946140932900,3.859932861328125,0.15526878833770752,-0.8517379760742188,1.5139189958572388
1683928946150974500,3.869974365234375,0.2807796597480774,-0.8922138214111328,1.3930083513259888
1683928946161016000,3.88001611328125,0.08305090665817261,-0.1889324188232422,2.415882110595703
1683928946171057700,3.8900576171875,-0.1485365331172943,-1.0160102844238281,1.6004242897033691
1683928946181099300,3.900099365234375,-0.713050365447998,-1.0813121795654297,1.2101011276245117
1683928946191140900,3.910140869140625,-1.5499154329299927,-0.8874979019165039,1.2573716640472412
1683928946201182500,3.920182373046875,-2.2216854095458984,-0.26703929901123047,1.2816147804260254
1683928946211224000,3.93022412109375,-2.8429181575775146,0.4945049285888672,0.8058726787567139
1683928946221265700,3.940265625,-3.3155150413513184,2.5580806732177734,0.7490177154541016
1683928946231307300,3.950307373046875,-3.087738275527954,0.8865985870361328,-0.8645943403244019
1683928946241348900,3.960348876953125,-1.6470284461975098,1.0205621719360352,-2.4343395233154297
1683928946251390500,3.970390380859375,-0.1071319580078125,1.0179386138916016,-1.8785715103149414
1683928946261432000,3.98043212890625,1.07364821434021,0.7772531509399414,-2.359511137008667
1683928946271473700,3.9904736328125,1.4410024881362915,0.19093990325927734,-2.394573450088501
1683928946281515300,4.000515380859375,1.3405213356018066,-0.5353193283081055,-1.973536491394043
1683928946291556900,4.010556884765625,1.0482301712036133,-0.7591476440429688,-1.6361488103866577
1683928946301598500,4.020598388671875,0.9680799245834351,-0.7553644180297852,-1.2900724411010742
1683928946311640000,4.03064013671875,1.0326824188232422,-0.9069318771362305,-1.0142759084701538
1683928946321681700,4.040681640625,0.9809112548828125,-1.0849018096923828,-0.9012610912322998
1683928946331723300,4.05072314453125,0.7735655307769775,-1.262019157409668,-0.8273530006408691
1683928946341764900,4.060764892578125,0.447129487991333,-1.6326751708984375,-0.8779141902923584
1683928946351806500,4.070806396484375,0.4438067674636841,-1.6195898056030273,-0.7505781650543213
1683928946361848000,4.08084814453125,0.5886503458023071,-1.4518814086914062,-0.691162109375
1683928946371889700,4.0908896484375,0.8039640188217163,-1.5173215866088867,-0.6433858871459961
1683928946381931300,4.10093115234375,0.9826934337615967,-1.6784114837646484,-0.6158528327941895
1683928946391972900,4.110972900390625,1.000267505645752,-1.5078201293945312,-0.6509473323822021
1683928946402014500,4.121014404296875,0.9909110069274902,-1.2531280517578125,-0.8049907684326172
1683928946412056000,4.13105615234375,0.9413061141967773,-1.1181297302246094,-1.0168392658233643
1683928946422097700,4.14109765625,0.9287675619125366,-0.7726840972900391,-1.1819508075714111
1683928946432139300,4.15113916015625,0.9434272050857544,-0.049694061279296875,-1.2153615951538086
1683928946442180900,4.161180908203125,0.9487544298171997,0.8929328918457031,-0.9479272365570068
1683928946452222500,4.171222412109375,0.7360782623291016,0.936396598815918,-1.2502031326293945
1683928946462264000,4.18126416015625,0.6087151765823364,1.455014705657959,-1.2441117763519287
1683928946472305700,4.1913056640625,0.49264395236968994,1.2843303680419922,-1.6099138259887695
1683928946482347300,4.20134716796875,0.4860055446624756,1.3005785942077637,-1.7388617992401123
1683928946492388900,4.211388916015625,0.45922040939331055,1.4109892845153809,-1.7540494203567505
1683928946502430500,4.221430419921875,0.3701024055480957,1.3743467330932617,-1.8291655778884888
1683928946512472000,4.23147216796875,0.23294568061828613,1.2079992294311523,-1.7869195938110352
1683928946522513700,4.241513671875,0.0839536190032959,1.1514015197753906,-1.6832246780395508
1683928946532555300,4.25155517578125,-0.12452936172485352,1.0586910247802734,-1.5052423477172852
1683928946542596900,4.261596923828125,-0.16105103492736816,0.6886911392211914,-1.369727373123169
1683928946552638500,4.271638427734375,-0.24914216995239258,0.5953655242919922,-1.2010438442230225
1683928946562680000,4.28168017578125,-0.33194756507873535,0.41219329833984375,-0.9418189525604248
1683928946572721700,4.2917216796875,-0.41271114349365234,0.2561349868774414,-0.6516320705413818
1683928946582763300,4.30176318359375,-0.4002866744995117,0.09076404571533203,-0.4652698040008545
1683928946592804900,4.311804931640625,-0.39447450637817383,-0.016046524047851562,-0.21090197563171387
1683928946602846500,4.321846435546875,-0.40171098709106445,0.0021028518676757812,-0.16836929321289062
1683928946612888000,4.33188818359375,-0.268324613571167,-0.07326221466064453,-0.42295217514038086
1683928946622929700,4.3419296875,-0.14748167991638184,0.08946704864501953,-0.6927342414855957
1683928946632971300,4.35197119140625,-0.04439592361450195,0.2824821472167969,-0.7722845077514648
1683928946643012900,4.362012939453125,0.03961515426635742,0.36394309997558594,-0.7207531929016113
1683928946653054500,4.372054443359375,0.19815731048583984,0.4220752716064453,-0.7364442348480225
1683928946663096000,4.382095947265625,0.26908016204833984,0.42446231842041016,-0.7083628177642822
1683928946673137700,4.3921376953125,0.17388224601745605,0.49641990661621094,-0.5411274433135986
1683928946683179300,4.40217919921875,0.014847993850708008,0.5087661743164062,-0.3249237537384033
1683928946693220900,4.412220947265625,-0.2212355136871338,0.4345731735229492,-0.09925723075866699
1683928946703262500,4.422262451171875,-0.5244598388671875,0.3782958984375,0.10304474830627441
1683928946713304000,4.432303955078125,-0.7582724094390869,0.46105289459228516,0.31423234939575195
1683928946723345700,4.442345703125,-0.9050154685974121,0.5242605209350586,0.5416049957275391
1683928946733387300,4.45238720703125,-0.8531534671783447,0.5097637176513672,0.9339990615844727
1683928946743428900,4.462428955078125,-0.5455832481384277,0.4700746536254883,1.2956042289733887
1683928946753470500,4.472470458984375,-0.1756751537322998,0.34564208984375,1.5124647617340088
1683928946763512000,4.482511962890625,0.11124396324157715,0.30118656158447266,1.4571533203125
1683928946773553700,4.4925537109375,0.3387051820755005,0.3535041809082031,1.3351421356201172
1683928946783595300,4.50259521484375,0.44510161876678467,0.3947277069091797,1.1856191158294678
1683928946793636900,4.512636962890625,0.30783534049987793,0.4540729522705078,1.095231294631958
1683928946803678500,4.522678466796875,-0.16032671928405762,0.38175296783447266,1.0696513652801514
1683928946813720000,4.532719970703125,-0.8233113288879395,0.3702220916748047,0.9321243762969971
1683928946823761700,4.54276171875,-1.4557414054870605,0.3094205856323242,0.7068822383880615
1683928946833803300,4.55280322265625,-1.8109781742095947,0.2979555130004883,0.4756965637207031
1683928946843844900,4.562844970703125,-1.9279367923736572,0.4318876266479492,0.38196849822998047
1683928946853886500,4.572886474609375,-1.7406136989593506,0.5116214752197266,0.2718160152435303
1683928946863928000,4.582927978515625,-1.321629524230957,0.6057157516479492,0.31707286834716797
1683928946873969700,4.5929697265625,-0.9250617027282715,0.7406511306762695,0.08558511734008789
1683928946884011300,4.60301123046875,-0.5546314716339111,0.4730691909790039,-0.37584590911865234
1683928946894052900,4.613052978515625,-0.23652362823486328,-0.24103260040283203,-0.6905043125152588
1683928946904094500,4.623094482421875,0.05567622184753418,-0.8487682342529297,-0.8642780780792236
1683928946914136000,4.633135986328125,0.17429709434509277,-1.1100797653198242,-0.901376485824585
1683928946924177700,4.643177734375,0.05506265163421631,-1.309030532836914,-0.84311842918396
1683928946934219300,4.65321923828125,-0.10773813724517822,-1.6684589385986328,-0.6832222938537598
1683928946944260900,4.6632607421875,-0.40894389152526855,-1.9009265899658203,-0.5691921710968018
1683928946954302500,4.673302490234375,-1.27196204662323,-2.251235008239746,-0.16419410705566406
1683928946964344000,4.683343994140625,-3.078787326812744,-2.750676155090332,0.5253505706787109
1683928946974385700,4.6933857421875,-4.4769206047058105,-2.62847900390625,1.751584768295288
1683928946984427300,4.70342724609375,-3.053161859512329,-1.7481498718261719,3.029022455215454
1683928946994468900,4.71346875,-0.8649376630783081,-1.0806150436401367,3.48987078666687
1683928947004510500,4.723510498046875,1.1118404865264893,-0.7090263366699219,3.2389588356018066
1683928947014552000,4.733552001953125,2.3349416255950928,-0.49784278869628906,2.065680980682373
1683928947024593700,4.74359375,2.87833309173584,-0.31674671173095703,0.4375426769256592
1683928947034635300,4.75363525390625,2.8313708305358887,-0.1060018539428711,-0.9150917530059814
1683928947044676900,4.7636767578125,2.5106823444366455,0.11666393280029297,-1.7090986967086792
1683928947054718500,4.773718505859375,2.057343006134033,0.41653919219970703,-2.1863465309143066
1683928947064760000,4.783760009765625,1.4384595155715942,0.6141386032104492,-2.5268423557281494
1683928947074801700,4.7938017578125,0.864170491695404,0.8929529190063477,-2.652162790298462
1683928947084843300,4.80384326171875,0.44384312629699707,1.3334884643554688,-2.4501311779022217
1683928947094884900,4.813884765625,-0.051735520362854004,1.2800579071044922,-2.1758193969726562
1683928947104926500,4.823926513671875,-0.608586311340332,1.0508346557617188,-1.7602845430374146
1683928947114968000,4.833968017578125,-1.101523756980896,0.8363742828369141,-1.1040232181549072
1683928947125009700,4.844009765625,-1.2553974390029907,0.6447725296020508,-0.26255321502685547
1683928947135051300,4.85405126953125,-0.8937380313873291,0.4931488037109375,0.47605133056640625
1683928947145092900,4.8640927734375,-0.11876308917999268,0.4063987731933594,0.805340051651001
1683928947155134500,4.874134521484375,0.68434739112854,0.4255352020263672,0.6847388744354248
1683928947165176000,4.884176025390625,1.2862426042556763,0.34940338134765625,0.47136425971984863
1683928947175217700,4.8942177734375,1.6487722396850586,0.2154369354248047,0.4391517639160156
1683928947185259300,4.90425927734375,1.9261528253555298,0.09796333312988281,0.49697041511535645
1683928947195300900,4.91430078125,2.043226718902588,-0.03641319274902344,0.48315930366516113
1683928947205342500,4.924342529296875,2.0286669731140137,-0.18282699584960938,0.345353364944458
1683928947215384000,4.934384033203125,1.9601409435272217,-0.22659873962402344,0.07485198974609375
1683928947225425700,4.94442578125,1.8534846305847168,-0.26093387603759766,-0.26691436767578125
1683928947235467300,4.95446728515625,1.7271634340286255,-0.2906179428100586,-0.5618946552276611
1683928947245508900,4.9645087890625,1.6203646659851074,-0.33707427978515625,-0.8142125606536865
1683928947255550500,4.974550537109375,1.55181086063385,-0.39541149139404297,-0.9759954214096069
1683928947265592000,4.984592041015625,1.5835607051849365,-0.5487480163574219,-1.0433752536773682
1683928947275633700,4.994633544921875,1.6586867570877075,-0.5839834213256836,-0.8144640922546387
1683928947285675300,5.00467529296875,1.7026636600494385,-0.4540901184082031,-0.5567245483398438
1683928947295716900,5.014716796875,1.5933046340942383,-0.4369697570800781,-0.4009413719177246
1683928947305758500,5.024758544921875,1.495772123336792,-0.44879817962646484,-0.40421342849731445
1683928947315800000,5.034800048828125,1.3901160955429077,-0.4823188781738281,-0.40375280380249023
1683928947325841700,5.044841552734375,1.2867567539215088,-0.4540281295776367,-0.4599614143371582
1683928947335883300,5.05488330078125,1.1967785358428955,-0.3855133056640625,-0.5986335277557373
1683928947345925000,5.064925048828125,1.058671236038208,-0.25046730041503906,-0.6919305324554443
1683928947355966500,5.074966552734375,0.8579698204994202,-0.10410690307617188,-0.7205421924591064
1683928947366008000,5.085008056640625,0.6550050377845764,0.036785125732421875,-0.7652647495269775
1683928947376049700,5.095049560546875,0.42810970544815063,0.10545635223388672,-0.8206183910369873
1683928947386091500,5.105091552734375,0.1816137284040451,0.13330936431884766,-0.8715523481369019
1683928947396132900,5.1151328125,-0.10936057567596436,0.049078941345214844,-0.9220144748687744
1683928947406174500,5.125174560546875,-0.3459779620170593,0.04178905487060547,-0.8812305927276611
1683928947416216300,5.13521630859375,-0.5386745929718018,0.05627155303955078,-0.7665865421295166
1683928947426258000,5.1452578125,-0.6242460608482361,0.039795875549316406,-0.7128338813781738
1683928947436299300,5.15529931640625,-0.5071981549263,0.033049583435058594,-0.5051581859588623
1683928947446340900,5.1653408203125,-0.25089532136917114,0.0575103759765625,-0.27314162254333496
1683928947456382700,5.1753828125,0.0034516602754592896,0.09391403198242188,-0.05076241493225098
1683928947466424300,5.18542431640625,0.2562882900238037,0.07527923583984375,0.11142706871032715
1683928947476465700,5.195465576171875,0.44107070565223694,-0.017293930053710938,0.23290181159973145
1683928947486507500,5.205507568359375,0.6055521965026855,-0.06437015533447266,0.31789660453796387
1683928947496549000,5.215549072265625,0.6995857357978821,-0.09502315521240234,0.41549086570739746
1683928947506590700,5.2255908203125,0.7172865271568298,-0.09508895874023438,0.4607088565826416
1683928947516632000,5.235632080078125,0.6638118624687195,-0.0119171142578125,0.46404027938842773
1683928947526674000,5.245673828125,0.5622482299804688,0.0950307846069336,0.3700718879699707
1683928947536715500,5.255715576171875,0.4265771508216858,0.1039266586303711,0.37021565437316895
1683928947546757000,5.265757080078125,0.3199094533920288,0.10303878784179688,0.36022448539733887
1683928947556798500,5.275798583984375,0.23983168601989746,0.09455490112304688,0.32251477241516113
1683928947566840300,5.28584033203125,0.2079995721578598,-0.000370025634765625,0.20198869705200195
1683928947576882000,5.2958818359375,0.17874456942081451,-0.05002403259277344,-0.024455547332763672
1683928947586923500,5.305923583984375,0.19454769790172577,-0.08532047271728516,-0.13107037544250488
1683928947596965000,5.315965087890625,0.20550864934921265,-0.11800765991210938,-0.2343003749847412
1683928947607006700,5.3260068359375,0.2328818291425705,-0.09324169158935547,-0.3750178813934326
1683928947617048300,5.33604833984375,0.23546573519706726,-0.2808561325073242,-0.4425431489944458
1683928947627090000,5.34608984375,0.2805321216583252,-0.1877727508544922,-0.41558802127838135
1683928947637131500,5.356131591796875,0.20247215032577515,-0.07997989654541016,-0.1852095127105713
1683928947647173000,5.366173095703125,0.16451561450958252,0.05169200897216797,0.029383420944213867
1683928947657214700,5.376214599609375,0.09939301013946533,0.06301212310791016,0.10488414764404297
1683928947667256300,5.38625634765625,-0.040491849184036255,-0.14932823181152344,0.15872812271118164
1683928947677298000,5.3962978515625,-0.027241021394729614,-0.1769256591796875,0.26778173446655273
1683928947687339500,5.406339599609375,0.020727038383483887,-0.19006919860839844,0.2778432369232178
1683928947697381000,5.416381103515625,-0.021222233772277832,-0.19821739196777344,0.278764009475708
1683928947707422700,5.426422607421875,0.016081243753433228,0.00360870361328125,0.37990331649780273
1683928947717464300,5.43646435546875,-0.07909625768661499,0.014074325561523438,0.3792724609375
1683928947727506000,5.446505859375,-0.17686042189598083,-0.081451416015625,0.22099685668945312
1683928947737547500,5.456547607421875,-0.11901828646659851,-0.1306314468383789,0.1331782341003418
1683928947747589000,5.466589111328125,0.04994729161262512,0.08936309814453125,-0.14884257316589355
1683928947757630700,5.476630615234375,0.2609871029853821,0.2185077667236328,-0.4611300230026245
1683928947767672300,5.48667236328125,0.40487319231033325,0.12432670593261719,-0.8298578262329102
1683928947777714000,5.4967138671875,0.6350098848342896,0.010827064514160156,-0.8855921030044556
1683928947787755500,5.506755615234375,0.6816521286964417,-0.3026247024536133,-0.6199382543563843
1683928947797797000,5.516797119140625,0.7562416791915894,-0.14806365966796875,-0.28187084197998047
1683928947807838700,5.526838623046875,0.6285419464111328,0.0878438949584961,0.2415456771850586
1683928947817880300,5.53688037109375,0.3164646029472351,0.26653575897216797,0.7373148202896118
1683928947827922000,5.546921875,-0.09770852327346802,0.08440971374511719,1.0954126119613647
1683928947837963500,5.556963623046875,-0.4027218818664551,-0.06721305847167969,1.2777926921844482
1683928947848005000,5.567005126953125,-0.47094157338142395,0.032520294189453125,1.3121107816696167
1683928947858046700,5.577046630859375,-0.3668828010559082,0.2862730026245117,1.226076602935791
1683928947868088300,5.58708837890625,-0.24049371480941772,0.6134042739868164,1.2245956659317017
1683928947878130000,5.5971298828125,-0.1891743540763855,0.682255744934082,1.307047963142395
1683928947888171500,5.607171630859375,-0.11901283264160156,0.5913496017456055,1.4056932926177979
1683928947898213000,5.617213134765625,-0.08472639322280884,0.4912242889404297,1.518438458442688
1683928947908254700,5.627254638671875,-0.0016865730285644531,0.37925148010253906,1.584599494934082
1683928947918296300,5.63729638671875,0.08089357614517212,0.24247074127197266,1.479455828666687
1683928947928338000,5.647337890625,0.15308380126953125,0.1998138427734375,1.4209344387054443
1683928947938379500,5.657379638671875,0.1477038860321045,0.14599895477294922,1.2670615911483765
1683928947948421000,5.667421142578125,0.19198662042617798,0.0975046157836914,1.1353850364685059
1683928947958462700,5.677462646484375,0.2065645456314087,0.17438793182373047,1.0511164665222168
1683928947968504300,5.68750439453125,0.10532569885253906,0.10623645782470703,0.9970371723175049
1683928947978546000,5.6975458984375,0.04728341102600098,0.08842277526855469,0.9536067247390747
1683928947988587500,5.70758740234375,-0.028519749641418457,0.12466144561767578,0.8050936460494995
1683928947998629000,5.717629150390625,-0.11990708112716675,0.10554790496826172,0.7216634750366211
1683928948008670700,5.727670654296875,-0.18372005224227905,0.12389183044433594,0.6411563158035278
1683928948018712300,5.73771240234375,-0.3056979775428772,0.01706409454345703,0.5699728727340698
1683928948028754000,5.74775390625,-0.3745153546333313,-0.11816120147705078,0.5926845073699951
1683928948038795500,5.75779541015625,-0.3913206458091736,-0.34671974182128906,0.7266073226928711
1683928948048837000,5.767837158203125,-0.34580421447753906,-0.6148910522460938,0.8894858360290527
1683928948058878700,5.777878662109375,-0.17132019996643066,-0.6334190368652344,0.9437277317047119
1683928948068920300,5.78792041015625,0.1790562868118286,-0.6789140701293945,0.764904260635376
1683928948078962000,5.7979619140625,0.6005359292030334,-0.9087190628051758,0.40082037448883057
1683928948089003500,5.80800341796875,0.9463183283805847,-0.8576183319091797,-0.05801272392272949
1683928948099045000,5.818045166015625,0.9646970629692078,-0.9158830642700195,-0.27701306343078613
1683928948109086700,5.828086669921875,0.8356468081474304,-1.0688228607177734,-0.11140120029449463
1683928948119128300,5.83812841796875,0.6975436210632324,-1.1013870239257812,0.15240895748138428
1683928948129170000,5.848169921875,0.6779531240463257,-0.8921747207641602,0.5253738164901733
1683928948139211500,5.85821142578125,0.5941126346588135,-0.5421466827392578,0.8872551918029785
1683928948149253000,5.868253173828125,0.5427630543708801,-0.13549518585205078,1.2648048400878906
1683928948159294700,5.878294677734375,0.4540199041366577,0.023525238037109375,1.6999090909957886
1683928948169336300,5.88833642578125,0.35888391733169556,0.24990081787109375,1.8757832050323486
1683928948179378000,5.8983779296875,0.22394412755966187,0.6244297027587891,1.7364246845245361
1683928948189419500,5.90841943359375,0.04397037625312805,0.9511861801147461,1.3250008821487427
1683928948199461000,5.918461181640625,-0.1985113024711609,1.1614484786987305,0.8573484420776367
1683928948209502700,5.928502685546875,-0.44699913263320923,1.181706428527832,0.5522714853286743
1683928948219544300,5.93854443359375,-0.6742182970046997,1.2725763320922852,0.17388498783111572
1683928948229586000,5.9485859375,-0.8602803945541382,1.2737483978271484,-0.3191927671432495
1683928948239627500,5.95862744140625,-0.9342809319496155,1.142669677734375,-0.7484933733940125
1683928948249669000,5.968669189453125,-1.0213145017623901,0.9661064147949219,-1.0201327800750732
1683928948259710700,5.978710693359375,-1.0492103099822998,0.7592487335205078,-1.1911993026733398
1683928948269752300,5.98875244140625,-1.3187302350997925,0.3484916687011719,-1.1428741216659546
1683928948279794000,5.9987939453125,-1.2059671878814697,0.27913951873779297,-0.7304872870445251
1683928948289835500,6.00883544921875,-1.164881944656372,0.19430255889892578,-0.22875165939331055
1683928948299877000,6.018877197265625,-1.1253710985183716,0.09357547760009766,0.3372887372970581
1683928948309918700,6.028918701171875,-1.031316876411438,-0.08318901062011719,0.7828328609466553
1683928948319960300,6.038960205078125,-0.903897225856781,-0.24553966522216797,1.1082252264022827
1683928948330002000,6.049001953125,-0.7568651437759399,-0.4396381378173828,1.2031352519989014
1683928948340043500,6.05904345703125,-0.5903015732765198,-0.47023773193359375,1.137844204902649
1683928948350085000,6.069085205078125,-0.47260981798171997,-0.3069324493408203,0.8512977361679077
1683928948360126700,6.079126708984375,-0.43892568349838257,-0.16289424896240234,0.5765012502670288
1683928948370168300,6.089168212890625,-0.3061525821685791,-0.09097671508789062,0.39867210388183594
1683928948380210000,6.0992099609375,-0.09440764784812927,0.21043109893798828,0.13279938697814941
1683928948390251500,6.10925146484375,-0.2855568528175354,0.17985248565673828,-0.10910844802856445
1683928948400293000,6.119293212890625,-0.9004817605018616,-0.09450817108154297,-0.36253654956817627
1683928948410334700,6.129334716796875,-0.8065462112426758,0.14929485321044922,-0.5168185234069824
1683928948420376300,6.139376220703125,-0.8944420218467712,0.06258487701416016,-0.7375994920730591
1683928948430418000,6.14941796875,-0.6428613662719727,0.10067081451416016,-0.7746706008911133
1683928948440459500,6.15945947265625,-0.6147054433822632,0.027215003967285156,-0.8296051025390625
1683928948450501000,6.169501220703125,-0.43047404289245605,-0.23894309997558594,-0.7616204023361206
1683928948460542700,6.179542724609375,-0.25173938274383545,-0.4586944580078125,-0.815221905708313
1683928948470584300,6.189584228515625,-0.13141155242919922,-0.7302579879760742,-0.8894778490066528
1683928948480626000,6.1996259765625,-0.03962576389312744,-0.8720359802246094,-1.0767322778701782
1683928948490667500,6.20966748046875,0.11362564563751221,-0.9482336044311523,-1.2193750143051147
1683928948500709000,6.219709228515625,0.3490208387374878,-0.8973064422607422,-1.3978999853134155
1683928948510750700,6.229750732421875,0.5932046175003052,-0.7170372009277344,-1.4320536851882935
1683928948520792300,6.239792236328125,0.7425826787948608,-0.6735115051269531,-1.274523138999939
1683928948530834000,6.249833984375,0.6915040016174316,-0.5512475967407227,-1.0418752431869507
1683928948540875500,6.25987548828125,0.5576388835906982,-0.601902961730957,-0.8746529817581177
1683928948550917000,6.269917236328125,0.397100567817688,-0.4391937255859375,-0.8112059831619263
1683928948560958700,6.279958740234375,0.23365581035614014,-0.2895936965942383,-0.6704797744750977
1683928948571000300,6.290000244140625,0.12451708316802979,-0.16852283477783203,-0.6446881294250488
1683928948581042000,6.3000419921875,0.20741331577301025,0.038918495178222656,-0.7630069255828857
1683928948591083500,6.31008349609375,0.43772411346435547,0.2973794937133789,-0.7777893543243408
1683928948601125000,6.320125,0.6237117052078247,0.49466896057128906,-0.7885491847991943
1683928948611166700,6.330166748046875,0.8130898475646973,0.6543922424316406,-0.7196004390716553
1683928948621208300,6.340208251953125,0.9369040727615356,0.814417839050293,-0.6575295925140381
1683928948631250000,6.35025,0.8766564130783081,0.8960533142089844,-0.6508231163024902
1683928948641291500,6.36029150390625,0.7387135028839111,0.9764118194580078,-0.6821277141571045
1683928948651333000,6.3703330078125,0.5631158351898193,0.9625005722045898,-0.5675194263458252
1683928948661374700,6.380374755859375,0.29091930389404297,0.8373231887817383,-0.3753845691680908
1683928948671416300,6.390416259765625,0.08196377754211426,0.619354248046875,-0.1718461513519287
1683928948681458000,6.4004580078125,-0.09982943534851074,0.4585914611816406,-0.03870582580566406
1683928948691499500,6.41049951171875,-0.31193697452545166,0.36629199981689453,0.06467866897583008
1683928948701541400,6.420541259765625,-0.4404240846633911,0.29885292053222656,0.09986400604248047
1683928948711583000,6.4305830078125,-0.5616710186004639,0.20122432708740234,0.1315600872039795
1683928948721624300,6.440624267578125,-0.5922137498855591,0.13580608367919922,0.0721278190612793
1683928948731666000,6.450666015625,-0.5293818712234497,-0.019044876098632812,0.1377575397491455
1683928948741707800,6.460707763671875,-0.3536098003387451,-0.17205810546875,0.02612900733947754
1683928948751749400,6.470749267578125,-0.20479607582092285,-0.2967538833618164,0.0685582160949707
1683928948761790700,6.480790771484375,-0.06353211402893066,-0.3620328903198242,0.052575111389160156
1683928948771832300,6.490832275390625,0.03938925266265869,-0.310760498046875,0.16699957847595215
1683928948781874200,6.500874267578125,0.10632658004760742,-0.1580638885498047,0.2954585552215576
1683928948791915800,6.510915771484375,0.13712453842163086,-0.2354879379272461,0.3165295124053955
1683928948801957000,6.52095703125,0.15145587921142578,-0.21609973907470703,0.35412120819091797
1683928948811999000,6.5309990234375,0.024968862533569336,-0.032375335693359375,-0.00888514518737793
1683928948822040600,6.54104052734375,-0.16546213626861572,0.18137741088867188,-0.6656246185302734
1683928948832082200,6.551082275390625,-0.2683960199356079,0.3506927490234375,-0.9866085052490234
1683928948842123800,6.561123779296875,-0.28072071075439453,0.5351772308349609,-1.0420308113098145
1683928948852165400,6.571165283203125,-0.19366323947906494,0.5938034057617188,-0.9979062080383301
1683928948862207000,6.58120703125,-0.1113659143447876,0.5080413818359375,-0.9189786911010742
1683928948872248600,6.59124853515625,0.008930563926696777,0.3648185729980469,-0.8851697444915771
1683928948882290200,6.601290283203125,0.12838304042816162,0.3032999038696289,-0.8667161464691162
1683928948892331800,6.611331787109375,0.2531932592391968,0.47580528259277344,-0.7645983695983887
1683928948902373400,6.621373291015625,0.3333934545516968,0.7208824157714844,-0.6479768753051758
1683928948912415000,6.6314150390625,0.36324942111968994,0.9232883453369141,-0.550670862197876
1683928948922456600,6.64145654296875,0.336963415145874,0.9613151550292969,-0.4361231327056885
1683928948932498200,6.651498291015625,0.2763493061065674,0.8877592086791992,-0.25206470489501953
1683928948942539800,6.661539794921875,0.23200035095214844,0.8078546524047852,-0.05265450477600098
1683928948952581400,6.671581298828125,0.22354340553283691,0.7453575134277344,0.17973709106445312
1683928948962623000,6.681623046875,0.22109174728393555,0.6302623748779297,0.36841464042663574
1683928948972664600,6.69166455078125,0.1746518611907959,0.47411155700683594,0.34827280044555664
1683928948982706200,6.7017060546875,0.09163010120391846,0.2528648376464844,0.33648014068603516
1683928948992747800,6.711747802734375,-0.03152894973754883,0.040241241455078125,0.12939834594726562
1683928949002789400,6.721789306640625,-0.1484394073486328,-0.07042407989501953,-0.10654520988464355
1683928949012831000,6.7318310546875,-0.22779858112335205,-0.12595081329345703,-0.2565915584564209
1683928949022872600,6.74187255859375,-0.14532673358917236,-0.18018054962158203,-0.3161661624908447
1683928949032914200,6.7519140625,-0.059868693351745605,-0.0932474136352539,-0.17586231231689453
1683928949042955800,6.761955810546875,-0.01999032497406006,0.05678272247314453,0.04456901550292969
1683928949052997400,6.771997314453125,-0.1311333179473877,0.08368778228759766,0.36931657791137695
1683928949063039000,6.7820390625,-0.42444097995758057,0.10854911804199219,0.5899734497070312
1683928949073080600,6.79208056640625,-0.8722063302993774,0.062424659729003906,0.7744786739349365
1683928949083122200,6.8021220703125,-1.2175920009613037,0.08429336547851562,0.8277859687805176
1683928949093163800,6.812163818359375,-1.4860591888427734,0.14365196228027344,0.6417257785797119
1683928949103205400,6.822205322265625,-1.2395350933074951,0.5852451324462891,0.5377528667449951
1683928949113247000,6.8322470703125,-1.1556378602981567,0.6669340133666992,0.37305569648742676
1683928949123288600,6.84228857421875,-1.1467695236206055,0.5764169692993164,0.24318289756774902
1683928949133330200,6.852330078125,-1.0341066122055054,0.5479946136474609,0.07564330101013184
1683928949143371800,6.862371826171875,-0.6924518346786499,0.5856657028198242,-0.038890838623046875
1683928949153413400,6.872413330078125,-0.33318114280700684,0.6065912246704102,-0.18421697616577148
1683928949163455000,6.882455078125,-0.015096545219421387,0.5916471481323242,-0.24184656143188477
1683928949173496600,6.89249658203125,0.17957091331481934,0.5583267211914062,-0.14590740203857422
1683928949183538200,6.9025380859375,0.39874982833862305,0.3507661819458008,-0.027800798416137695
1683928949193579800,6.912579833984375,0.6176259517669678,0.10462665557861328,0.09263730049133301
1683928949203621400,6.922621337890625,0.7242022752761841,-0.1015920639038086,0.1700129508972168
1683928949213663000,6.9326630859375,0.7044171094894409,-0.29448413848876953,0.22871160507202148
1683928949223704600,6.94270458984375,0.4928511381149292,-0.5841732025146484,0.22694659233093262
1683928949233746200,6.95274609375,0.11789858341217041,-0.9252462387084961,0.2811858654022217
1683928949243787800,6.962787841796875,-0.412572979927063,-1.484858512878418,0.4991128444671631
1683928949253829400,6.972829345703125,-1.156976580619812,-2.3942909240722656,0.8320846557617188
1683928949263871000,6.98287109375,-1.5467461347579956,-2.4142284393310547,1.2005341053009033
1683928949273912600,6.99291259765625,-1.7403727769851685,-2.2578210830688477,2.0013694763183594
1683928949283954200,7.0029541015625,-1.2492510080337524,-1.4641752243041992,2.0087902545928955
1683928949293995800,7.012995849609375,-0.45956647396087646,-0.9220333099365234,1.5354652404785156
1683928949304037400,7.023037353515625,0.18088114261627197,-0.6604938507080078,0.8710978031158447
1683928949314079000,7.033078857421875,0.5285145044326782,-0.5893020629882812,0.3412344455718994
1683928949324120600,7.04312060546875,0.6469061970710754,-0.4297752380371094,0.0009605884552001953
1683928949334162200,7.053162109375,0.5741161108016968,-0.3172121047973633,-0.35537242889404297
1683928949344203800,7.063203857421875,0.357793927192688,-0.06454658508300781,-0.8294093608856201
1683928949354245400,7.073245361328125,0.04773414134979248,0.0888681411743164,-1.2857789993286133
1683928949364287000,7.083286865234375,-0.3391660451889038,0.40299034118652344,-1.740989327430725
1683928949374328600,7.09332861328125,-0.7141188383102417,0.7216739654541016,-2.198021650314331
1683928949384370200,7.1033701171875,-0.8481348752975464,0.8463888168334961,-2.406280279159546
1683928949394411800,7.113411865234375,-0.627544641494751,0.8607311248779297,-2.2322182655334473
1683928949404453400,7.123453369140625,-0.1825031042098999,0.8643360137939453,-1.7579617500305176
1683928949414495000,7.133494873046875,0.2828882336616516,0.8969306945800781,-1.3339805603027344
1683928949424536600,7.14353662109375,0.6343056559562683,0.8627347946166992,-0.9860202074050903
1683928949434578200,7.153578125,0.9308995604515076,0.7195672988891602,-0.8610186576843262
1683928949444619800,7.163619873046875,1.1148544549942017,0.5760116577148438,-0.8396453857421875
1683928949454661400,7.173661376953125,1.3164740800857544,0.45643043518066406,-0.8095782995223999
1683928949464703000,7.183702880859375,1.4721496105194092,0.18435192108154297,-0.6836802959442139
1683928949474744600,7.19374462890625,1.6613376140594482,-0.017425537109375,-0.6118297576904297
1683928949484786200,7.2037861328125,1.7679117918014526,-0.15588951110839844,-0.549823522567749
1683928949494827800,7.213827880859375,1.7564549446105957,-0.3358726501464844,-0.4808865785598755
1683928949504869400,7.223869384765625,1.686874270439148,-0.45873355865478516,-0.40729475021362305
1683928949514911000,7.233910888671875,1.5607761144638062,-0.5338411331176758,-0.36229586601257324
1683928949524952600,7.24395263671875,1.3715571165084839,-0.5449628829956055,-0.3379061222076416
1683928949534994200,7.253994140625,1.1320608854293823,-0.4001121520996094,-0.3500173091888428
1683928949545035800,7.264035888671875,0.9149073362350464,-0.24850082397460938,-0.42086100578308105
1683928949555077400,7.274077392578125,0.6632070541381836,-0.2026844024658203,-0.5043374300003052
1683928949565119000,7.284118896484375,0.5267415046691895,-0.13109493255615234,-0.6259872913360596
1683928949575160600,7.29416064453125,0.4645705819129944,0.047293663024902344,-0.8195968866348267
1683928949585202200,7.3042021484375,0.4586108326911926,0.21978473663330078,-0.9596878290176392
1683928949595243800,7.314243896484375,0.4443507194519043,0.3383026123046875,-1.2147691249847412
1683928949605285400,7.324285400390625,0.3416978716850281,0.16657447814941406,-1.4406723976135254
1683928949615327000,7.334326904296875,0.3318721652030945,-0.06903553009033203,-1.718976616859436
1683928949625368600,7.34436865234375,0.25020796060562134,-0.24357128143310547,-1.8057281970977783
1683928949635410400,7.354410400390625,0.2546629011631012,-0.4624958038330078,-1.7190121412277222
1683928949645451800,7.36445166015625,0.24286484718322754,-0.5158624649047852,-1.63946533203125
1683928949655493400,7.374493408203125,0.16745811700820923,-0.5809717178344727,-1.3879425525665283
1683928949665535000,7.384534912109375,0.08691221475601196,-0.30422115325927734,-1.1882168054580688
1683928949675576800,7.394576904296875,-0.05077129602432251,-0.17145538330078125,-0.8759341239929199
1683928949685618200,7.4046181640625,-0.10305944085121155,-0.1635599136352539,-0.6296795606613159
1683928949695659800,7.41465966796875,-0.059709757566452026,-0.30907630920410156,-0.465126633644104
1683928949705701600,7.42470166015625,0.08328777551651001,-0.3832979202270508,-0.35253238677978516
1683928949715743200,7.4347431640625,0.24901366233825684,-0.3889617919921875,-0.24779343605041504
1683928949725784800,7.444784912109375,0.5101269483566284,-0.3383522033691406,-0.1806316375732422
1683928949735826200,7.454826171875,0.7097241878509521,-0.36539745330810547,-0.2160024642944336
1683928949745868000,7.464867919921875,0.9183298945426941,-0.4484281539916992,-0.2919144630432129
1683928949755909600,7.47490966796875,1.079297423362732,-0.41277599334716797,-0.46265745162963867
1683928949765951200,7.484951171875,1.2583775520324707,-0.28455448150634766,-0.6880357265472412
1683928949775992800,7.494992919921875,1.4090189933776855,-0.16607952117919922,-0.915350079536438
1683928949786034400,7.505034423828125,1.459426760673523,-0.07353687286376953,-1.123308777809143
1683928949796076000,7.515075927734375,1.4490327835083008,-0.052041053771972656,-1.2392359972000122
1683928949806117600,7.52511767578125,1.3794200420379639,-0.032257080078125,-1.313631534576416
1683928949816159200,7.5351591796875,1.2472175359725952,-0.0023889541625976562,-1.2872920036315918
1683928949826200800,7.545200927734375,1.0937474966049194,0.0183258056640625,-1.15605890750885
1683928949836242400,7.555242431640625,0.9553426504135132,-0.025098800659179688,-1.008823037147522
1683928949846284000,7.565283935546875,0.7981144189834595,0.03236103057861328,-0.8763586282730103
1683928949856325600,7.57532568359375,0.693294107913971,0.03276824951171875,-0.6514736413955688
1683928949866367200,7.5853671875,0.6354448199272156,0.0669565200805664,-0.4492619037628174
1683928949876408800,7.595408935546875,0.5549594163894653,0.060797691345214844,-0.25295329093933105
1683928949886450400,7.605450439453125,0.5140752792358398,0.11707305908203125,-0.05532956123352051
1683928949896492000,7.615491943359375,0.4771789014339447,0.11843299865722656,0.17635369300842285
1683928949906533600,7.62553369140625,0.44484883546829224,0.1770620346069336,0.4101831912994385
1683928949916575200,7.6355751953125,0.4156811833381653,0.17331981658935547,0.5764927864074707
1683928949926616800,7.645616943359375,0.3523164391517639,0.20993804931640625,0.7274434566497803
1683928949936658400,7.655658447265625,0.30063316226005554,0.1960306167602539,0.815065860748291
1683928949946700000,7.665699951171875,0.2361764758825302,0.16753101348876953,0.8560831546783447
1683928949956741600,7.67574169921875,0.17956902086734772,0.14824962615966797,0.8835158348083496
1683928949966783200,7.685783203125,0.10642983019351959,0.10932254791259766,0.9108490943908691
1683928949976824800,7.695824951171875,-0.020702674984931946,0.07685470581054688,0.8749234676361084
1683928949986866400,7.705866455078125,-0.1519920825958252,0.01991748809814453,0.752446174621582
1683928949996908000,7.715907958984375,-0.29257693886756897,-0.006015777587890625,0.6005778312683105
1683928950006949600,7.72594970703125,-0.4025099575519562,-0.09883403778076172,0.5485670566558838
1683928950016991200,7.7359912109375,-0.4832955300807953,-0.11518001556396484,0.39258766174316406
1683928950027032800,7.74603271484375,-0.5042004585266113,-0.11725044250488281,0.24078369140625
1683928950037074400,7.756074462890625,-0.44741183519363403,-0.05960559844970703,0.0818321704864502
1683928950047116000,7.766115966796875,-0.3808239698410034,-0.11671829223632812,0.06878972053527832
1683928950057157600,7.77615771484375,-0.2502348721027374,-0.11382865905761719,0.013454675674438477
1683928950067199200,7.78619921875,-0.1282450407743454,-0.1466360092163086,0.05450725555419922
1683928950077240800,7.79624072265625,-0.003848765045404434,-0.19359111785888672,0.07229185104370117
1683928950087282400,7.806282470703125,0.09144879132509232,-0.22121620178222656,0.02643752098083496
1683928950097324000,7.816323974609375,0.22357743978500366,-0.19127845764160156,-0.08488345146179199
1683928950107365600,7.82636572265625,0.356733113527298,-0.10619544982910156,-0.21556425094604492
1683928950117407200,7.8364072265625,0.48222726583480835,-0.030580520629882812,-0.22235345840454102
1683928950127448800,7.84644873046875,0.540414571762085,-0.0002384185791015625,-0.23225760459899902
1683928950137490400,7.856490478515625,0.5918872952461243,0.061656951904296875,-0.25344252586364746
1683928950147532000,7.866531982421875,0.6609771251678467,0.061966896057128906,-0.17804348468780518
1683928950157573600,7.87657373046875,0.6927356719970703,0.050484657287597656,-0.07559478282928467
1683928950167615200,7.886615234375,0.718827486038208,0.07242584228515625,0.019519567489624023
1683928950177656800,7.89665673828125,0.7473218441009521,0.10858917236328125,0.14314556121826172
1683928950187698400,7.906698486328125,0.7720555067062378,0.19718456268310547,0.25728845596313477
1683928950197740000,7.916739990234375,0.7966029047966003,0.22104930877685547,0.3620861768722534
1683928950207781600,7.92678173828125,0.8606986999511719,0.25677490234375,0.469527006149292
1683928950217823200,7.9368232421875,0.8900318741798401,0.30431079864501953,0.5863384008407593
1683928950227864800,7.94686474609375,0.8208667039871216,0.2968425750732422,0.6337771415710449
1683928950237906400,7.956906494140625,0.7323466539382935,0.22980117797851562,0.6935086250305176
1683928950247948000,7.966947998046875,0.5583043098449707,0.19408607482910156,0.7273478507995605
1683928950257989600,7.97698974609375,0.4410924017429352,0.1657266616821289,0.7546178102493286
1683928950268031200,7.98703125,0.3128984272480011,0.16385459899902344,0.847522497177124
1683928950278072800,7.99707275390625,0.22509093582630157,0.20030593872070312,0.8818361759185791
1683928950288114400,8.007114501953126,0.15899890661239624,0.2076129913330078,0.9521967172622681
1683928950298156000,8.017156005859375,0.12749233841896057,0.15843963623046875,1.0443521738052368
1683928950308197600,8.02719775390625,0.12817078828811646,0.11956596374511719,1.0918675661087036
1683928950318239200,8.0372392578125,0.17007172107696533,0.10013294219970703,1.1822311878204346
1683928950328280800,8.04728076171875,0.2477700114250183,0.12090778350830078,1.2296017408370972
1683928950338322400,8.057322509765624,0.33688247203826904,0.10111522674560547,1.3144843578338623
1683928950348364300,8.0673642578125,0.44836974143981934,0.07662296295166016,1.3484221696853638
1683928950358406000,8.077406005859375,0.5597082376480103,-0.009097099304199219,1.3384876251220703
1683928950368447200,8.087447265625,0.6393519043922424,-0.07721138000488281,1.2363663911819458
1683928950378488800,8.09748876953125,0.6772481799125671,-0.2951087951660156,1.1658953428268433
1683928950388530700,8.10753076171875,0.6891798973083496,-0.5001001358032227,1.0276625156402588
1683928950398572300,8.117572265625,0.697841227054596,-0.6616687774658203,0.9994566440582275
1683928950408614000,8.12761376953125,0.6899860501289368,-0.8109550476074219,0.8819262981414795
1683928950418655500,8.137655517578125,0.636811375617981,-0.9175624847412109,0.7772188186645508
1683928950428697000,8.147697021484374,0.5699121952056885,-0.8904476165771484,0.58111572265625
1683928950438738700,8.15773876953125,0.43003156781196594,-0.788111686706543,0.3584322929382324
1683928950448780300,8.1677802734375,0.2668365240097046,-0.7714481353759766,0.08594238758087158
1683928950458822000,8.17782177734375,0.12016648054122925,-0.6759567260742188,-0.17954003810882568
1683928950468863500,8.187863525390625,0.025219261646270752,-0.6173524856567383,-0.2678687572479248
1683928950478905000,8.197905029296875,-0.04556286334991455,-0.5765438079833984,-0.1990506649017334
1683928950488946700,8.20794677734375,-0.0154649019241333,-0.5082769393920898,-0.07649672031402588
1683928950498988300,8.21798828125,-0.004945099353790283,-0.40073299407958984,0.026666641235351562
1683928950509030000,8.22802978515625,-0.02750784158706665,-0.18252849578857422,0.07182598114013672
1683928950519071500,8.238071533203126,-0.11325114965438843,0.18896865844726562,-0.14681023359298706
1683928950529113000,8.248113037109375,-0.1317615509033203,0.6366691589355469,-0.38803887367248535
1683928950539154700,8.25815478515625,-0.12412339448928833,1.0163564682006836,-0.5178645253181458
1683928950549196300,8.2681962890625,-0.1599276065826416,1.3725662231445312,-0.6283205151557922
1683928950559238000,8.27823779296875,-0.19180536270141602,1.6086750030517578,-0.7311097383499146
1683928950569279500,8.288279541015624,-0.2570533752441406,1.6616487503051758,-0.6742687225341797
1683928950579321000,8.298321044921876,-0.2944290041923523,1.421182632446289,-0.40267693996429443
1683928950589362700,8.30836279296875,-0.23769855499267578,1.1124687194824219,-0.16541483998298645
1683928950599404300,8.318404296875,-0.13603025674819946,0.8752593994140625,0.02226659655570984
1683928950609446000,8.32844580078125,0.003955721855163574,0.7327022552490234,0.03126153349876404
1683928950619487500,8.338487548828125,0.11809605360031128,0.5719203948974609,-0.15455526113510132
1683928950629529000,8.348529052734374,0.16969609260559082,0.31560516357421875,-0.38143134117126465
1683928950639570700,8.35857080078125,0.05424445867538452,-0.03774547576904297,-0.6483608484268188
1683928950649612300,8.3686123046875,-0.15164226293563843,-0.34002017974853516,-1.0142033100128174
1683928950659654000,8.37865380859375,-0.5678446292877197,-0.6448593139648438,-1.6238682270050049
1683928950669695500,8.388695556640625,-1.4254217147827148,-0.81976318359375,-2.388981819152832
1683928950679737000,8.398737060546875,-2.499159574508667,-0.8758001327514648,-3.0369091033935547
1683928950689778700,8.40877880859375,-2.976113796234131,-0.5135936737060547,-3.5800399780273438
1683928950699820300,8.4188203125,-2.7222044467926025,-0.10973072052001953,-3.5288546085357666
1683928950709862000,8.42886181640625,-2.0243239402770996,0.20192623138427734,-2.9897303581237793
1683928950719903500,8.438903564453126,-1.3536064624786377,0.2596302032470703,-2.2694826126098633
1683928950729945000,8.448945068359375,-0.7924543619155884,0.2531852722167969,-1.5457701683044434
1683928950739986700,8.458986572265625,-0.34617137908935547,0.2573966979980469,-0.9263015985488892
1683928950750028300,8.4690283203125,-0.06547439098358154,0.6474609375,-0.11958873271942139
1683928950760070000,8.47906982421875,0.23462635278701782,1.1153268814086914,0.8116718530654907
1683928950770111500,8.489111572265625,0.19074034690856934,0.8232326507568359,0.9766405820846558
1683928950780153000,8.499153076171876,0.14672791957855225,0.8141002655029297,0.9894533753395081
1683928950790194700,8.509194580078125,0.09816372394561768,0.6092996597290039,0.9123894572257996
1683928950800236300,8.519236328125,-0.031867146492004395,0.35233116149902344,0.6336287260055542
1683928950810278000,8.52927783203125,-0.1968928575515747,0.1579570770263672,0.38916659355163574
1683928950820319500,8.539319580078125,-0.3261091709136963,0.19099044799804688,0.05259048938751221
1683928950830361000,8.549361083984374,-0.33057963848114014,-0.09078025817871094,-0.22787880897521973
1683928950840402700,8.559402587890625,-0.22056186199188232,-0.13205242156982422,-0.551427960395813
1683928950850444300,8.5694443359375,-0.07402265071868896,-0.2414379119873047,-0.8612188100814819
1683928950860486000,8.57948583984375,0.1400688886642456,-0.34769725799560547,-1.2293202877044678
1683928950870527500,8.589527587890625,0.2671167850494385,-0.559107780456543,-1.3620558977127075
1683928950880569300,8.5995693359375,0.4066431522369385,-0.46738529205322266,-1.273648977279663
1683928950890611000,8.60961083984375,0.4631214141845703,-0.18995380401611328,-0.7094924449920654
1683928950900652500,8.619652587890625,0.4317280054092407,0.462066650390625,-0.03360545635223389
1683928950910694000,8.62969384765625,0.37660765647888184,0.8386936187744141,0.4190923571586609
1683928950920735700,8.63973583984375,0.2711656093597412,1.0123405456542969,0.6661974787712097
1683928950930777300,8.64977734375,0.12585508823394775,1.1552085876464844,0.8548004031181335
1683928950940819000,8.65981884765625,-0.08089995384216309,1.1212263107299805,0.8324083089828491
1683928950950860500,8.669860595703126,-0.26912689208984375,1.0839052200317383,0.5029281377792358
1683928950960902100,8.679902099609375,-0.36539745330810547,1.109614372253418,0.11587071418762207
1683928950970943700,8.68994384765625,-0.29406309127807617,1.2059202194213867,-0.22234070301055908
1683928950980985300,8.6999853515625,-0.15254759788513184,1.2324600219726562,-0.5936397314071655
1683928950991027000,8.71002685546875,-0.0006191730499267578,1.2809934616088867,-0.8403230905532837
1683928951001068500,8.720068603515625,0.18863844871520996,1.4248590469360352,-0.7031000852584839
1683928951011110100,8.730110107421876,0.3044297695159912,1.4471979141235352,-0.7507338523864746
1683928951021151700,8.74015185546875,0.3435487747192383,1.2018718719482422,-0.9015264511108398
1683928951031193300,8.750193359375,0.3500218391418457,0.915278434753418,-0.9617983102798462
1683928951041235000,8.76023486328125,0.35875868797302246,0.7062644958496094,-0.8739569187164307
1683928951051276500,8.770276611328125,0.39791226387023926,0.356964111328125,-0.6411718130111694
1683928951061318100,8.780318115234374,0.45839524269104004,0.07558631896972656,-0.4396228790283203
1683928951071359700,8.79035986328125,0.47008609771728516,-0.1639842987060547,-0.31047701835632324
1683928951081401300,8.8004013671875,0.368196964263916,-0.3116474151611328,-0.2600060701370239
1683928951091443000,8.81044287109375,0.15135788917541504,-0.2269878387451172,-0.12011659145355225
1683928951101484500,8.820484619140625,0.04063582420349121,-0.02788257598876953,0.04942190647125244
1683928951111526100,8.830526123046875,0.11227035522460938,0.06812095642089844,0.14053696393966675
1683928951121567700,8.840567626953124,0.23136067390441895,0.16670703887939453,0.14015698432922363
1683928951131609300,8.850609375,0.3303103446960449,0.3039255142211914,0.04552412033081055
1683928951141651000,8.86065087890625,0.36595749855041504,0.38190650939941406,-0.0865485668182373
1683928951151692500,8.870692626953126,0.2126774787902832,0.44124507904052734,-0.14901554584503174
1683928951161734100,8.880734130859375,-0.0871281623840332,0.4840383529663086,-0.16127526760101318
1683928951171775700,8.890775634765625,-0.48802971839904785,0.4619007110595703,-0.18922924995422363
1683928951181817300,8.9008173828125,-0.838329553604126,0.44153404235839844,-0.11751329898834229
1683928951191859000,8.91085888671875,-0.9501335620880127,0.4710874557495117,-0.05342996120452881
1683928951201900500,8.920900634765625,-0.9045188426971436,0.5651693344116211,-0.18297171592712402
1683928951211942100,8.930942138671876,-0.7021670341491699,0.6371755599975586,-0.3838082551956177
1683928951221983700,8.940983642578125,-0.6248643398284912,0.5408496856689453,-0.5627309083938599
1683928951232025300,8.951025390625,-0.5148968696594238,0.4299459457397461,-0.4659978151321411
1683928951242067000,8.96106689453125,-0.44934606552124023,0.2836580276489258,-0.4283759593963623
1683928951252108500,8.971108642578125,-0.48150014877319336,0.18409156799316406,-0.41428136825561523
1683928951262150100,8.981150146484374,-0.5254261493682861,0.084136962890625,-0.5774651765823364
1683928951272192000,8.99119189453125,-0.6301693916320801,-0.006455421447753906,-0.8760401010513306
1683928951282233600,9.001233642578125,-0.7044620513916016,0.25686073303222656,-1.2654484510421753
1683928951292275000,9.01127490234375,-0.7037904262542725,0.44194793701171875,-1.3166587352752686
1683928951302316500,9.021316650390625,-0.6177797317504883,0.5517416000366211,-1.0542951822280884
1683928951312358400,9.0313583984375,-0.46535682678222656,0.5726966857910156,-0.8811901807785034
1683928951322400000,9.04139990234375,-0.3098268508911133,0.5123481750488281,-0.8558104038238525
1683928951332441600,9.051441650390625,-0.1445620059967041,0.46647167205810547,-0.8505262136459351
1683928951342483200,9.061483154296875,0.03543567657470703,0.37764930725097656,-0.901119589805603
1683928951352524800,9.07152490234375,0.1757802963256836,0.32705020904541016,-0.9311418533325195
1683928951362566400,9.08156640625,0.2987619638442993,0.21657657623291016,-0.9462392330169678
1683928951372608000,9.09160791015625,0.3994722366333008,0.26139068603515625,-0.922980546951294
1683928951382649600,9.101649658203126,0.48914897441864014,0.32748985290527344,-0.8825780153274536
1683928951392691200,9.111691162109375,0.5715900659561157,0.5130424499511719,-0.6730377674102783
1683928951402732800,9.12173291015625,0.5505838394165039,0.7583532333374023,-0.518248438835144
1683928951412774400,9.1317744140625,0.5093597173690796,0.82000732421875,-0.376741886138916
1683928951422816000,9.14181591796875,0.34079647064208984,0.8011484146118164,-0.2730519771575928
1683928951432857600,9.151857666015625,0.12463188171386719,0.6898288726806641,-0.16367924213409424
1683928951442899200,9.161899169921876,-0.10207700729370117,0.36907482147216797,0.055847883224487305
1683928951452940800,9.17194091796875,-0.3466825485229492,0.0826578140258789,0.3866385221481323
1683928951462982400,9.181982421875,-0.534672737121582,-0.16517162322998047,0.6888174414634705
1683928951473024000,9.19202392578125,-0.6156940460205078,-0.3797292709350586,0.9164254069328308
1683928951483065600,9.202065673828125,-0.5056779384613037,-0.43220996856689453,1.0071994066238403
1683928951493107200,9.212107177734374,-0.271165132522583,-0.47776222229003906,1.0941641330718994
1683928951503148800,9.222148681640626,-0.06992018222808838,-0.4108705520629883,1.0363497734069824
1683928951513190400,9.2321904296875,0.021947145462036133,-0.31764984130859375,0.9151807427406311
1683928951523232000,9.24223193359375,0.015265226364135742,-0.2675151824951172,0.7910517454147339
1683928951533273600,9.252273681640625,-0.1313481330871582,-0.13861465454101562,0.706690788269043
1683928951543315200,9.262315185546875,-0.3127720355987549,-0.17707538604736328,0.6550443172454834
1683928951553356800,9.272356689453124,-0.5813652276992798,-0.10789203643798828,0.43570804595947266
1683928951563398400,9.2823984375,-0.8457320928573608,-0.0007610321044921875,0.2409602403640747
1683928951573440000,9.29243994140625,-1.1209217309951782,0.19171428680419922,-0.0037511587142944336
1683928951583481600,9.302481689453124,-1.2756205797195435,0.44025421142578125,-0.18400871753692627
1683928951593523200,9.312523193359375,-1.2677154541015625,0.5581521987915039,-0.3601400852203369
1683928951603564800,9.322564697265625,-1.1497089862823486,0.5814809799194336,-0.5345556735992432
1683928951613606400,9.3326064453125,-0.9489647150039673,0.46047115325927734,-0.7071205377578735
1683928951623648000,9.34264794921875,-0.7486368417739868,0.3270730972290039,-0.8721213340759277
1683928951633689900,9.35268994140625,-0.6311995983123779,0.18146133422851562,-1.0023077726364136
1683928951643731500,9.3627314453125,-0.5235576629638672,0.05721855163574219,-1.077652931213379
1683928951653772800,9.372772705078125,-0.4832797050476074,-0.009991645812988281,-0.9870408773422241
1683928951663814700,9.382814697265625,-0.5292333364486694,-0.07534217834472656,-0.8305463790893555
1683928951673856300,9.392856201171876,-0.585223913192749,0.03555488586425781,-0.5916415452957153
1683928951683897900,9.40289794921875,-0.5662249326705933,-0.03328227996826172,-0.3528834581375122
1683928951693939500,9.412939453125,-0.4308481216430664,0.06740760803222656,-0.23519623279571533
1683928951703981000,9.42298095703125,-0.2306809425354004,0.060420989990234375,-0.06211292743682861
1683928951714022700,9.433022705078125,-0.03713274002075195,0.07275009155273438,0.15435290336608887
1683928951724064300,9.443064208984374,0.022901177406311035,0.1495380401611328,0.35945892333984375
1683928951734105900,9.45310595703125,-0.04343092441558838,0.27136898040771484,0.5010250210762024
1683928951744147500,9.4631474609375,-0.14372527599334717,0.37607479095458984,0.6153520345687866
1683928951754189000,9.47318896484375,-0.16568458080291748,0.4592428207397461,0.6647736430168152
1683928951764230700,9.483230712890625,-0.045920610427856445,0.6381559371948242,0.5517044067382812
1683928951774272300,9.493272216796875,0.09668540954589844,0.6667385101318359,0.4092888832092285
1683928951784313900,9.50331396484375,0.1699695587158203,0.6911449432373047,0.27232563495635986
1683928951794355500,9.51335546875,0.23750567436218262,0.6516590118408203,0.09705305099487305
1683928951804397000,9.52339697265625,0.3063257932662964,0.5434446334838867,-0.0026663541793823242
1683928951814438700,9.533438720703124,0.31446731090545654,0.3879718780517578,-0.07865428924560547
1683928951824480300,9.543480224609375,0.3216949701309204,0.4027433395385742,-0.09323060512542725
1683928951834521900,9.55352197265625,0.2731848955154419,0.3558797836303711,-0.02414882183074951
1683928951844563500,9.5635634765625,0.25610458850860596,0.31441307067871094,0.04581105709075928
1683928951854605000,9.57360498046875,0.18297803401947021,0.24239730834960938,0.14246642589569092
1683928951864646700,9.583646728515625,0.09076118469238281,0.18273258209228516,0.21790051460266113
1683928951874688300,9.593688232421876,-0.024473905563354492,0.06595993041992188,0.34162962436676025
1683928951884729900,9.603729736328125,-0.1714484691619873,0.06879043579101562,0.4922088384628296
1683928951894771500,9.613771484375,-0.32064104080200195,0.17882919311523438,0.6482669115066528
1683928951904813000,9.62381298828125,-0.47176218032836914,0.3145742416381836,0.8313355445861816
1683928951914854700,9.633854736328125,-0.6108111143112183,0.4498777389526367,1.0312341451644897
1683928951924896300,9.643896240234374,-0.7382324934005737,0.5825786590576172,1.1803224086761475
1683928951934937900,9.653937744140626,-0.831069827079773,0.6485300064086914,1.2946267127990723
1683928951944979500,9.6639794921875,-0.9072179794311523,0.6577482223510742,1.3331067562103271
1683928951955021300,9.674021240234374,-0.9247480630874634,0.7012796401977539,1.2387607097625732
1683928951965063000,9.68406298828125,-0.9466899633407593,0.7289056777954102,1.2202982902526855
1683928951975104500,9.6941044921875,-0.9129981994628906,0.7358541488647461,1.129259467124939
1683928951985146000,9.70414599609375,-0.8325451612472534,0.7102146148681641,1.0582666397094727
1683928951995187700,9.714187744140625,-0.8622360229492188,0.623417854309082,0.9203959107398987
1683928952005229300,9.724229248046875,-0.8654384613037109,0.5567388534545898,0.8520095348358154
1683928952015271000,9.73427099609375,-0.8500368595123291,0.5268802642822266,0.7743314504623413
1683928952025312500,9.7443125,-0.7481385469436646,0.5458097457885742,0.7736470699310303
1683928952035354000,9.75435400390625,-0.5405049324035645,0.6279010772705078,0.7094247937202454
1683928952045395700,9.764395751953124,-0.32477307319641113,0.8351840972900391,0.6517550945281982
1683928952055437300,9.774437255859375,-0.16341710090637207,0.8905277252197266,0.7065902352333069
1683928952065479000,9.78447900390625,-0.14607727527618408,0.18460559844970703,0.8075266480445862
1683928952075520500,9.7945205078125,-0.271140456199646,0.28454017639160156,0.7040927410125732
1683928952085562000,9.80456201171875,-0.39652395248413086,0.3762531280517578,0.7575653791427612
1683928952095603700,9.814603759765625,-0.34784913063049316,0.4584512710571289,0.6609827280044556
1683928952105645300,9.824645263671876,-0.35314643383026123,0.4074516296386719,0.4916214942932129
1683928952115687000,9.83468701171875,-0.46006858348846436,0.45156192779541016,0.22774112224578857
1683928952125728500,9.844728515625,-0.643271803855896,0.43846797943115234,0.05001819133758545
1683928952135770000,9.85477001953125,-0.9287550449371338,0.3454866409301758,-0.07393193244934082
1683928952145811700,9.864811767578125,-1.2967770099639893,0.47979164123535156,-0.13776934146881104
1683928952155853300,9.874853271484374,-1.5495492219924927,0.4091062545776367,-0.2136467695236206
1683928952165895000,9.88489501953125,-1.6109086275100708,-0.2116222381591797,-0.202245831489563
1683928952175936500,9.8949365234375,-1.7538915872573853,-1.1615676879882812,-0.21929752826690674
1683928952185978000,9.90497802734375,-1.8560022115707397,-2.3679733276367188,-0.24239158630371094
1683928952196019700,9.915019775390626,-1.6624159812927246,-3.0997238159179688,-0.4578227996826172
1683928952206061300,9.925061279296875,-1.4293336868286133,-3.3436479568481445,-0.6117305755615234
1683928952216103000,9.93510302734375,-1.1086333990097046,-3.2154150009155273,-0.6556421518325806
1683928952226144500,9.94514453125,-0.8659952282905579,-2.6751327514648438,-0.7622405290603638
1683928952236186400,9.955186279296875,-0.855247437953949,-1.4896173477172852,-0.8678841590881348
1683928952246228000,9.96522802734375,-1.020524263381958,-0.36722278594970703,-1.048735499382019
1683928952256269600,9.97526953125,-1.0981030464172363,0.46305179595947266,-1.1784820556640625
1683928952266311200,9.985311279296875,-0.9293633103370667,1.059260368347168,-1.308618426322937
1683928952276352800,9.995352783203124,-0.4979285001754761,1.5794782638549805,-1.3600102663040161
1683928952286394400,10.005394287109375,0.2711063325405121,1.7230281829833984,-1.3191592693328857
1683928952296436000,10.01543603515625,0.9832785129547119,1.901719093322754,-1.244335651397705
1683928952306477600,10.0254775390625,1.4441156387329102,1.7908849716186523,-1.0111925601959229
1683928952316519200,10.035519287109375,1.5323600769042969,1.2672672271728516,-0.6803647875785828
1683928952326560800,10.045560791015625,1.3495495319366455,0.6377639770507812,-0.36765187978744507
1683928952336602400,10.055602294921876,1.0177816152572632,0.17024803161621094,-0.09253889322280884
1683928952346644000,10.06564404296875,0.5610525608062744,-0.19536972045898438,0.1738031506538391
1683928952356685600,10.075685546875,0.02451920509338379,-0.40453338623046875,0.4882769286632538
1683928952366727200,10.08572705078125,-0.3837873637676239,-0.42681407928466797,0.7962514162063599
1683928952376768800,10.095768798828125,-0.6309190392494202,-0.28920555114746094,0.8186471462249756
1683928952386810400,10.105810302734374,-0.5976399183273315,-0.09508800506591797,0.5162444710731506
1683928952396852000,10.11585205078125,-0.3524348735809326,0.10743904113769531,0.10262668132781982
1683928952406893600,10.1258935546875,0.004746720194816589,0.35419750213623047,-0.176621675491333
1683928952416935200,10.13593505859375,0.3330591917037964,0.5665674209594727,-0.23219060897827148
1683928952426976800,10.145976806640626,0.6080856323242188,0.4273662567138672,-0.25056612491607666
1683928952437018400,10.156018310546875,0.6682379841804504,0.1643657684326172,-0.18313980102539062
1683928952447060000,10.16606005859375,0.6811857223510742,-0.15299129486083984,-0.03798335790634155
1683928952457101600,10.1761015625,0.7239240407943726,-0.3765249252319336,0.1629023551940918
1683928952467143200,10.18614306640625,0.9144361615180969,-0.3034086227416992,0.16227072477340698
1683928952477184800,10.196184814453124,1.2580955028533936,-0.09430599212646484,0.026295840740203857
1683928952487226600,10.2062265625,1.6487977504730225,0.09999942779541016,-0.11093169450759888
1683928952497268200,10.216268310546875,1.9919219017028809,0.1410198211669922,-0.186784029006958
1683928952507309800,10.226309814453124,2.2391910552978516,0.1700439453125,-0.07185536623001099
1683928952517351400,10.236351318359375,2.410083293914795,0.10596656799316406,0.14975416660308838
1683928952527393000,10.24639306640625,2.4918596744537354,0.08524036407470703,0.4148893356323242
1683928952537434600,10.2564345703125,2.4618020057678223,0.12207317352294922,0.6013714075088501
1683928952547476200,10.266476318359375,2.314192056655884,0.1660327911376953,0.73151034116745
1683928952557517800,10.276517822265625,2.0885660648345947,0.1405191421508789,0.810956597328186
1683928952567559400,10.286559326171876,1.8344913721084595,0.3154268264770508,0.7978318333625793
1683928952577601000,10.29660107421875,1.5581531524658203,0.21745681762695312,0.7634293437004089
1683928952587642600,10.306642578125,1.379133939743042,0.1840953826904297,0.7144870162010193
1683928952597684200,10.316684326171876,1.206926703453064,0.23670673370361328,0.6202632188796997
1683928952607725800,10.326725830078125,1.116642951965332,0.1959390640258789,0.5459292531013489
1683928952617767400,10.336767333984374,1.0750776529312134,0.18139934539794922,0.4773556590080261
1683928952627809000,10.34680908203125,1.016303300857544,0.06159782409667969,0.4320908784866333
1683928952637850600,10.3568505859375,0.9513841867446899,-0.04386615753173828,0.3797116279602051
1683928952647892200,10.366892333984374,0.8276588916778564,-0.21384525299072266,0.40374791622161865
1683928952657933800,10.376933837890626,0.6880620718002319,-0.23326969146728516,0.4276924729347229
1683928952667975400,10.386975341796875,0.5253665447235107,-0.1789569854736328,0.45872485637664795
1683928952678017000,10.39701708984375,0.35255759954452515,-0.12268447875976562,0.5441573262214661
1683928952688058600,10.40705859375,0.1614256203174591,-0.08824443817138672,0.6760686039924622
1683928952698100500,10.4171005859375,-0.010410189628601074,-0.09215831756591797,0.8082301616668701
1683928952708142000,10.42714208984375,-0.13588544726371765,-0.043494224548339844,0.8901501893997192
1683928952718183700,10.43718359375,-0.21231302618980408,0.03379535675048828,0.9122836589813232
1683928952728225300,10.447225341796875,-0.22021201252937317,0.10625457763671875,0.972771406173706
1683928952738267000,10.457266845703124,-0.19261199235916138,0.011622428894042969,0.9989959597587585
1683928952748308500,10.46730859375,-0.1411253809928894,0.015455245971679688,0.9909114837646484
1683928952758350000,10.47735009765625,-0.06390213966369629,-0.03297615051269531,1.0206063985824585
1683928952768391700,10.4873916015625,0.009102582931518555,-0.08584785461425781,1.0378742218017578
1683928952778433300,10.497433349609375,0.04545861482620239,-0.14801406860351562,1.0547637939453125
1683928952788475000,10.507474853515625,0.0681869387626648,-0.14787006378173828,1.1048260927200317
1683928952798516500,10.5175166015625,0.05325525999069214,-0.1429119110107422,1.1404469013214111
1683928952808558000,10.52755810546875,0.06291401386260986,-0.14748764038085938,1.1426770687103271
1683928952818599700,10.537599609375,0.0757322907447815,-0.0731821060180664,1.163834571838379
1683928952828641300,10.547641357421876,0.082278311252594,0.001033782958984375,1.1485295295715332
1683928952838683000,10.557682861328125,0.10637170076370239,0.10619449615478516,1.0802385807037354
1683928952848724500,10.567724365234374,0.13098591566085815,0.0917501449584961,1.0021111965179443
1683928952858766000,10.57776611328125,0.1463145613670349,0.08455944061279297,0.9260361194610596
1683928952868807700,10.5878076171875,0.1782701015472412,0.07979965209960938,0.8735431432723999
1683928952878849300,10.597849365234374,0.20026248693466187,0.0702962875366211,0.834809422492981
1683928952888891000,10.607890869140626,0.24810975790023804,0.056059837341308594,0.7238109707832336
1683928952898932500,10.617932373046875,0.25979286432266235,0.05858135223388672,0.6413553953170776
1683928952908974300,10.627974365234374,0.24532854557037354,0.06349658966064453,0.518430233001709
1683928952919016000,10.638015869140625,0.2598220109939575,0.11137676239013672,0.38187482953071594
1683928952929057500,10.6480576171875,0.2576358914375305,0.08745479583740234,0.306096613407135
1683928952939099100,10.65809912109375,0.2697463035583496,0.08501434326171875,0.22456005215644836
1683928952949140700,10.668140625,0.26751869916915894,0.11114311218261719,0.11857950687408447
1683928952959182300,10.678182373046875,0.2898250222206116,0.10610771179199219,0.093340665102005
1683928952969224000,10.688223876953124,0.3252740502357483,0.08673477172851562,0.05320197343826294
1683928952979265500,10.698265625,0.38321661949157715,0.02198505401611328,0.058170437812805176
1683928952989307100,10.70830712890625,0.4457893967628479,0.01694488525390625,0.0776515007019043
1683928952999348700,10.7183486328125,0.48348385095596313,-0.009663581848144531,0.1806778907775879
1683928953009390300,10.728390380859375,0.5052043199539185,-0.07844257354736328,0.21626141667366028
1683928953019432000,10.738431884765625,0.5043163895606995,-0.021567344665527344,0.21893978118896484
1683928953029473500,10.7484736328125,0.4793825149536133,0.0035228729248046875,0.3279614746570587
1683928953039515100,10.75851513671875,0.46657687425613403,0.0915517807006836,0.397860050201416
1683928953049556700,10.768556640625,0.4470558762550354,0.21322345733642578,0.4575282037258148
1683928953059598300,10.778598388671876,0.4513500928878784,0.27618980407714844,0.5487073659896851
1683928953069640000,10.788639892578125,0.4603731036186218,0.3097066879272461,0.597557544708252
1683928953079681500,10.798681640625,0.5162662863731384,0.35663604736328125,0.6751922369003296
1683928953089723400,10.808723388671876,0.5490484833717346,0.34848880767822266,0.7565695643424988
1683928953099765000,10.818764892578125,0.6268855929374695,0.3638801574707031,0.883439838886261
1683928953109806600,10.828806640625,0.6401293873786926,0.23997974395751953,0.9956417679786682
1683928953119848200,10.83884814453125,0.5963242053985596,0.20035457611083984,1.0322468280792236
1683928953129889800,10.848889892578125,0.5102751851081848,0.11171245574951172,1.077300786972046
1683928953139931400,10.858931396484374,0.3924470543861389,-0.05103588104248047,1.1592093706130981
1683928953149973000,10.868972900390625,0.23242300748825073,-0.17363739013671875,1.1507880687713623
1683928953160014600,10.8790146484375,0.065052330493927,-0.2967519760131836,1.1578497886657715
1683928953170056200,10.88905615234375,-0.06628531217575073,-0.35912036895751953,1.0745397806167603
1683928953180097800,10.899097900390625,-0.20624196529388428,-0.3569517135620117,0.9889732599258423
1683928953190139400,10.909139404296875,-0.30424976348876953,-0.34774112701416016,0.7929010391235352
1683928953200181000,10.919180908203124,-0.4032759368419647,-0.3622732162475586,0.64421546459198
1683928953210222600,10.92922265625,-0.45449525117874146,-0.3414297103881836,0.5262941122055054
1683928953220264200,10.93926416015625,-0.5062611699104309,-0.21052837371826172,0.518622636795044
1683928953230305800,10.949305908203126,-0.5728609561920166,-0.10086536407470703,0.5881403684616089
1683928953240347400,10.959347412109375,-0.6142264604568481,0.042082786560058594,0.7730661630630493
1683928953250389000,10.969388916015625,-0.6452975273132324,0.15662765502929688,1.0350955724716187
1683928953260430800,10.979430908203126,-0.6826847791671753,0.1562967300415039,1.27278470993042
1683928953270472400,10.989472412109375,-0.7377718687057495,0.07141304016113281,1.509110450744629
1683928953280514000,10.99951416015625,-0.7867844104766846,0.042354583740234375,1.665991187095642
1683928953290555600,11.0095556640625,-0.8539097905158997,0.030539512634277344,1.7844476699829102
1683928953300597200,11.01959716796875,-0.9221215844154358,-0.015982627868652344,1.8313660621643066
1683928953310638800,11.029638916015625,-0.9731594324111938,-0.25858211517333984,1.8420120477676392
1683928953320680400,11.039680419921876,-0.9266530275344849,-0.6064672470092773,1.8405373096466064
1683928953330722000,11.04972216796875,-0.7522424459457397,-0.8459978103637695,1.987565040588379
1683928953340763600,11.059763671875,-0.5167407989501953,-0.8874626159667969,2.112980365753174
1683928953350805200,11.06980517578125,-0.27275291085243225,-0.6925897598266602,2.26993465423584
1683928953360846800,11.079846923828125,-0.1339581310749054,-0.4691944122314453,2.375509738922119
1683928953370888400,11.089888427734374,-0.12227895855903625,-0.2460184097290039,2.4105186462402344
1683928953380930000,11.099929931640625,-0.1675751805305481,0.027227401733398438,2.2274632453918457
1683928953390971600,11.1099716796875,-0.26392632722854614,0.30502796173095703,1.7833397388458252
1683928953401013200,11.12001318359375,-0.2726181149482727,0.4606590270996094,1.2673959732055664
1683928953411054800,11.130054931640625,-0.11432501673698425,0.2673206329345703,0.939863383769989
1683928953421096400,11.140096435546875,0.0963931679725647,-0.21219539642333984,0.7645348906517029
1683928953431138000,11.150137939453124,0.3107144832611084,-0.7552461624145508,0.5735846757888794
1683928953441180000,11.160179931640625,0.49830567836761475,-1.101546287536621,0.3243493437767029
1683928953451221500,11.170221435546875,0.6528964042663574,-1.101252555847168,-0.011138439178466797
1683928953461263000,11.18026318359375,0.7436594367027283,-0.9152402877807617,-0.3964587450027466
1683928953471304700,11.1903046875,0.7420951128005981,-0.5057411193847656,-0.8401913046836853
1683928953481346300,11.20034619140625,0.7581366896629333,-0.06901931762695312,-1.103461503982544
1683928953491388000,11.210387939453126,0.7819870710372925,0.4211091995239258,-1.5198476314544678
1683928953501429500,11.220429443359375,0.8605272769927979,0.9120645523071289,-1.7552313804626465
1683928953511471000,11.23047119140625,1.0183329582214355,1.3799657821655273,-1.879136562347412
1683928953521512700,11.2405126953125,1.211594581604004,1.6601285934448242,-2.007082462310791
1683928953531554300,11.25055419921875,1.407806158065796,1.8988041877746582,-2.0092875957489014
1683928953541596000,11.260595947265625,1.5344926118850708,1.9479069709777832,-2.2168209552764893
1683928953551637500,11.270637451171876,1.61786949634552,1.6190814971923828,-2.3027732372283936
1683928953561679000,11.28067919921875,1.5870198011398315,1.204564094543457,-2.281428575515747
1683928953571720700,11.290720703125,1.5170707702636719,0.7715845108032227,-2.0498266220092773
1683928953581762300,11.30076220703125,1.3658206462860107,0.2605772018432617,-1.7695720195770264
1683928953591804000,11.310803955078125,1.1793158054351807,-0.3448600769042969,-1.5447595119476318
1683928953601845500,11.320845458984374,1.0345995426177979,-0.7026948928833008,-1.361308217048645
1683928953611887400,11.330887451171876,0.8438053131103516,-0.9779682159423828,-1.2555962800979614
1683928953621929000,11.340928955078125,0.6797482967376709,-0.8726119995117188,-1.413307547569275
1683928953631970600,11.350970458984374,0.4959498345851898,-0.6388378143310547,-1.556422233581543
1683928953642012200,11.36101220703125,0.26949456334114075,-0.4418516159057617,-1.5571781396865845
1683928953652053800,11.3710537109375,-0.018488138914108276,-0.2862663269042969,-1.466770052909851
1683928953662095400,11.381095458984374,-0.30768153071403503,-0.16479110717773438,-1.407311201095581
1683928953672137000,11.391136962890625,-0.5727673172950745,-0.23018741607666016,-1.2540736198425293
1683928953682178600,11.401178466796875,-0.7834000587463379,-0.3289794921875,-0.9198309183120728
1683928953692220200,11.41122021484375,-0.9509035348892212,-0.4177713394165039,-0.505396842956543
1683928953702261800,11.42126171875,-1.034722924232483,-0.45325469970703125,-0.09957706928253174
1683928953712303400,11.431303466796875,-1.0375688076019287,-0.3733348846435547,0.14851272106170654
1683928953722345000,11.441344970703126,-0.9818124771118164,-0.26668453216552734,0.27740609645843506
1683928953732386600,11.451386474609375,-0.8735564947128296,-0.1406841278076172,0.3334031105041504
1683928953742428200,11.46142822265625,-0.7163007855415344,0.04510688781738281,0.30749237537384033
1683928953752470000,11.471469970703126,-0.5325625538825989,0.19499588012695312,0.2354799509048462
1683928953762511600,11.48151171875,-0.3063446283340454,0.2732505798339844,0.1291748285293579
1683928953772553000,11.491552978515625,-0.10484850406646729,0.31339550018310547,-0.034769654273986816
1683928953782594800,11.5015947265625,0.09865507483482361,0.2867717742919922,-0.12906932830810547
1683928953792636400,11.511636474609375,0.22297808527946472,0.1839447021484375,-0.16570830345153809
1683928953802678000,11.521677978515624,0.3230603337287903,0.13643550872802734,-0.19035089015960693
1683928953812719600,11.5317197265625,0.35551103949546814,0.10107421875,-0.1647096872329712
1683928953822761200,11.54176123046875,0.29597941040992737,0.10652351379394531,-0.09654700756072998
1683928953832802800,11.551802734375,0.20165520906448364,0.10973644256591797,-0.03656411170959473
1683928953842844400,11.561844482421876,0.03707656264305115,0.1441326141357422,0.08681094646453857
1683928953852886000,11.571885986328125,-0.12273673713207245,0.1618337631225586,0.1371372938156128
1683928953862927600,11.581927734375,-0.3055684268474579,0.1675882339477539,0.16466522216796875
1683928953872969200,11.59196923828125,-0.45552122592926025,0.10166740417480469,0.19049692153930664
1683928953883010800,11.6020107421875,-0.5103756189346313,0.021556854248046875,0.23766028881072998
1683928953893052400,11.612052490234374,-0.5181490778923035,-0.15403270721435547,0.2941741943359375
1683928953903094000,11.622093994140625,-0.4393102526664734,-0.2554817199707031,0.23657381534576416
1683928953913135600,11.632135498046875,-0.3018196225166321,-0.31667518615722656,0.14371895790100098
1683928953923177200,11.64217724609375,-0.17458456754684448,-0.38556766510009766,0.0961005687713623
1683928953933219000,11.652218994140625,-0.05948495864868164,-0.3570137023925781,0.046931564807891846
1683928953943260700,11.6622607421875,0.022716939449310303,-0.32424163818359375,0.0015397071838378906
1683928953953302300,11.67230224609375,0.044990479946136475,-0.32044506072998047,0.014153063297271729
1683928953963344000,11.68234375,0.038875579833984375,-0.3191490173339844,-0.018806636333465576
1683928953973385500,11.692385498046875,0.014857769012451172,-0.27498626708984375,-0.027968227863311768
1683928953983427000,11.702427001953126,0.019389867782592773,-0.2096576690673828,-0.07259976863861084
1683928953993468700,11.71246875,0.06525790691375732,-0.1352548599243164,-0.13068300485610962
1683928954003510300,11.72251025390625,0.16977953910827637,0.01976299285888672,-0.10146653652191162
1683928954013551900,11.7325517578125,0.318378746509552,0.12152481079101562,-0.073880136013031
1683928954023593500,11.742593505859375,0.49372220039367676,0.2061166763305664,0.013631463050842285
1683928954033635000,11.752635009765624,0.6777176260948181,0.2546987533569336,-0.006502866744995117
1683928954043676700,11.7626767578125,0.8568806052207947,0.32011890411376953,-0.04268777370452881
1683928954053718300,11.77271826171875,1.0204542875289917,0.3117971420288086,-0.02998596429824829
1683928954063760000,11.782759765625,1.0196449756622314,0.32564735412597656,0.02393639087677002
1683928954073801700,11.7928017578125,1.0052695274353027,0.3497600555419922,0.03497406840324402
1683928954083843300,11.80284326171875,0.8847278952598572,0.31008434295654297,0.07642701268196106
1683928954093885000,11.812885009765624,0.7693687081336975,0.20905494689941406,0.1494017243385315
1683928954103926500,11.822926513671876,0.641261637210846,0.16128063201904297,0.3204164505004883
1683928954113968000,11.832968017578125,0.5204729437828064,0.10910892486572266,0.4326895475387573
1683928954124009700,11.843009765625,0.39790165424346924,0.1384410858154297,0.6274009943008423
1683928954134051300,11.85305126953125,0.2833017110824585,0.14397048950195312,0.8463634848594666
1683928954144093000,11.863093017578125,0.21038782596588135,0.18299388885498047,0.8773844242095947
1683928954154134500,11.873134521484374,0.10352575778961182,0.11676025390625,0.9696833491325378
1683928954164176100,11.883176025390625,-0.11132633686065674,0.043099403381347656,1.0072152614593506
1683928954174217700,11.8932177734375,-0.2705265283584595,-0.0193939208984375,0.9416098594665527
1683928954184259300,11.90325927734375,-0.2837502956390381,0.026782989501953125,0.681269109249115
1683928954194301000,11.913301025390625,-0.16326332092285156,0.07623291015625,0.41246920824050903
1683928954204342500,11.923342529296875,0.005608320236206055,0.08616256713867188,0.14615124464035034
1683928954214384400,11.93338427734375,0.13707411289215088,0.06177330017089844,-0.03138729929924011
1683928954224426000,11.943426025390625,0.2718693017959595,0.02502918243408203,-0.1657237410545349
1683928954234467600,11.953467529296875,0.44081687927246094,0.04566478729248047,-0.28830471634864807
1683928954244509200,11.96350927734375,0.5608632564544678,0.045070648193359375,-0.36339491605758667
1683928954254550800,11.97355078125,0.6244118213653564,0.009098052978515625,-0.4106636643409729
1683928954264592400,11.98359228515625,0.6391464471817017,-0.0001010894775390625,-0.46371203660964966
1683928954274634000,11.993634033203126,0.608288049697876,0.03883647918701172,-0.4716479778289795
1683928954284675600,12.003675537109375,0.5183452367782593,0.08989429473876953,-0.3815484344959259
1683928954294717200,12.01371728515625,0.4388614892959595,0.2247457504272461,-0.3237121105194092
1683928954304758800,12.0237587890625,0.3030202388763428,0.33101558685302734,-0.1585029661655426
1683928954314800400,12.03380029296875,0.16245365142822266,0.3775205612182617,-0.017621517181396484
1683928954324842000,12.043842041015624,0.11423707008361816,0.36654090881347656,0.12272283434867859
1683928954334883600,12.053883544921876,0.17989468574523926,0.32201480865478516,0.24470946192741394
1683928954344925400,12.063925537109375,0.44660985469818115,0.3372631072998047,0.413862019777298
1683928954354967000,12.073967041015624,0.7219908237457275,0.40506458282470703,0.4520717263221741
1683928954365008600,12.084008544921875,0.8484873175621033,0.549107551574707,0.40649569034576416
1683928954375050200,12.09405029296875,0.8297507762908936,0.7069196701049805,0.2936205267906189
1683928954385091800,12.104091796875,0.7740068435668945,0.7159442901611328,0.2870161533355713
1683928954395133400,12.114133544921875,0.7097713947296143,0.6505842208862305,0.2736014127731323
1683928954405175000,12.124175048828125,0.6735671758651733,0.4875020980834961,0.2349603772163391
1683928954415216600,12.134216552734374,0.6754413843154907,0.2799558639526367,0.14452219009399414
1683928954425258200,12.14425830078125,0.6018359661102295,-0.00022792816162109375,0.10711973905563354
1683928954435299800,12.1542998046875,0.5030418634414673,-0.26676177978515625,0.08844602108001709
1683928954445341400,12.164341552734374,0.3973273038864136,-0.4411296844482422,0.050592660903930664
1683928954455383300,12.17438330078125,0.21160292625427246,-0.5146951675415039,0.00964421033859253
1683928954465425000,12.1844248046875,0.04545998573303223,-0.46469783782958984,-0.031246602535247803
1683928954475466500,12.194466552734376,-0.04134213924407959,-0.35654640197753906,-0.11211496591567993
1683928954485508000,12.204508056640625,0.03272819519042969,-0.12377166748046875,-0.1414281129837036
1683928954495549700,12.2145498046875,0.08209478855133057,0.06629562377929688,-0.2015259861946106
1683928954505591300,12.22459130859375,0.15696477890014648,0.21652698516845703,-0.20972028374671936
1683928954515633000,12.2346328125,0.2631188631057739,0.31339168548583984,-0.24558904767036438
1683928954525674500,12.244674560546875,0.29444944858551025,0.32908153533935547,-0.3400718569755554
1683928954535716000,12.254716064453126,0.29252707958221436,0.32178306579589844,-0.45248788595199585
1683928954545757700,12.2647578125,0.3082364797592163,0.22385025024414062,-0.601181149482727
1683928954555799300,12.27479931640625,0.2915825843811035,0.0628204345703125,-0.7237095236778259
1683928954565841000,12.2848408203125,0.262631893157959,-0.09442806243896484,-0.8269392848014832
1683928954575882500,12.294882568359375,0.20036351680755615,-0.15419578552246094,-0.9237921237945557
1683928954585924000,12.304924072265624,0.17158186435699463,-0.18919849395751953,-0.9889997243881226
1683928954595966000,12.314966064453126,0.24540913105010986,-0.1764678955078125,-1.0184454917907715
1683928954606007600,12.325007568359375,0.38801586627960205,-0.17341327667236328,-1.0186662673950195
1683928954616049200,12.335049072265624,0.5175368785858154,-0.12324905395507812,-1.0069751739501953
1683928954626090800,12.3450908203125,0.721611499786377,-0.061692237854003906,-0.986964762210846
1683928954636132400,12.35513232421875,0.9217212200164795,-0.05683135986328125,-0.9854683876037598
1683928954646174000,12.365174072265624,0.995826005935669,-0.07199287414550781,-0.9672567844390869
1683928954656215600,12.375215576171875,0.9347792863845825,-0.10412406921386719,-0.9302978515625
1683928954666257200,12.385257080078125,0.7584275007247925,-0.1409435272216797,-0.7968837022781372
1683928954676298800,12.395298828125,0.48299622535705566,-0.1236257553100586,-0.6179821491241455
1683928954686340400,12.40534033203125,0.14254963397979736,-0.03705787658691406,-0.3426060080528259
1683928954696382200,12.41538232421875,-0.16939008235931396,0.12398529052734375,-0.06470373272895813
1683928954706423800,12.425423828125,-0.40577399730682373,0.2752571105957031,0.17971312999725342
1683928954716465400,12.43546533203125,-0.6122211217880249,0.32691287994384766,0.2823176085948944
1683928954726507000,12.445507080078125,-0.7937562465667725,0.28485107421875,0.2855222225189209
1683928954736548600,12.455548583984376,-0.8624364137649536,0.22412109375,0.2650644779205322
1683928954746590200,12.465590087890625,-0.618756890296936,0.33412742614746094,0.271043986082077
1683928954756631800,12.4756318359375,-0.16200768947601318,0.6031103134155273,0.3347559869289398
1683928954766673400,12.48567333984375,0.293060302734375,0.8953580856323242,0.35636472702026367
1683928954776715000,12.495715087890625,0.5260167121887207,1.0298986434936523,0.4911128878593445
1683928954786756600,12.505756591796874,0.6124042272567749,1.0957183837890625,0.6254831552505493
1683928954796798200,12.515798095703126,0.5930044651031494,0.9807291030883789,0.7534313797950745
1683928954806839800,12.52583984375,0.472988486289978,0.7139759063720703,0.7522069215774536
1683928954816881400,12.53588134765625,0.2387371063232422,0.19063472747802734,0.6905353665351868
