time,seconds_elapsed,z,y,x
1683915278840180700,0.0281806640625,0,0,0
1683915278850221600,0.0382216796875,-0.001909494400024414,-0.4355754852294922,0.5049901008605957
1683915278860262400,0.048262451171875,0.24648594856262207,-0.40691423416137695,1.0349726676940918
1683915278870303500,0.058303466796875,0.26543641090393066,-0.30706071853637695,1.1596593856811523
1683915278880344300,0.06834423828125,-1.231173038482666,-1.6990013122558594,0.002376556396484375
1683915278890385200,0.07838525390625,-0.8278481960296631,-2.254538059234619,1.2983546257019043
1683915278900426000,0.088426025390625,-0.22933340072631836,-2.3231420516967773,2.5679945945739746
1683915278910467000,0.098467041015625,0.8232753276824951,-1.1194510459899902,3.6908817291259766
1683915278920508000,0.1085078125,0.9836969375610352,-0.8666415214538574,3.5947837829589844
1683915278930548700,0.118548828125,0.1299266815185547,-0.30794811248779297,2.7805728912353516
1683915278940589800,0.12858984375,-0.3427232503890991,0.36498022079467773,2.6114501953125
1683915278950630700,0.138630615234375,0.07385611534118652,0.5011191368103027,2.374795913696289
1683915278960671500,0.14867138671875,0.18067502975463867,-0.022310256958007812,2.610515594482422
1683915278970712600,0.158712646484375,0.2513120174407959,-0.5435266494750977,2.8641481399536133
1683915278980753400,0.16875341796875,0.672680139541626,0.26351165771484375,2.5371923446655273
1683915278990794200,0.178794189453125,1.0245943069458008,0.34943675994873047,3.696413993835449
1683915279000835000,0.1888349609375,0.4543144702911377,-1.4647903442382812,6.90244722366333
1683915279010876200,0.198876220703125,1.8095314502716064,-1.6826410293579102,7.386528968811035
1683915279020917000,0.2089169921875,2.6196255683898926,-0.7265720367431641,7.342774391174316
1683915279030957800,0.218957763671875,2.7644262313842773,0.42691612243652344,6.454076766967773
1683915279040999000,0.2289990234375,2.1419448852539062,1.2955169677734375,5.694855690002441
1683915279051039700,0.239039794921875,1.2412385940551758,0.8740701675415039,4.972380638122559
1683915279061080600,0.24908056640625,-0.19639301300048828,0.18384933471679688,4.898395538330078
1683915279071121400,0.259121337890625,-2.285536766052246,-0.292266845703125,4.677813529968262
1683915279081162500,0.26916259765625,-3.8398029804229736,-0.6948509216308594,3.7771968841552734
1683915279091203300,0.279203369140625,-6.097920894622803,-1.6917695999145508,1.4431419372558594
1683915279101244200,0.289244140625,-18.36823081970215,1.8483304977416992,1.0733366012573242
1683915279111285200,0.29928515625,-17.709604263305664,3.4283523559570312,2.944446563720703
1683915279121326000,0.309326171875,-9.993778228759766,2.920835018157959,4.5154266357421875
1683915279131367000,0.319366943359375,-4.939454078674316,3.6776580810546875,4.45462703704834
1683915279141407700,0.32940771484375,-1.5278637409210205,3.9960737228393555,3.070476531982422
1683915279151448800,0.33944873046875,0.2806887626647949,4.233084201812744,0.8496084213256836
1683915279161489700,0.34948974609375,-0.21631145477294922,5.152756690979004,-2.0630149841308594
1683915279171530500,0.359530517578125,-2.3852853775024414,3.8072285652160645,-3.5762834548950195
1683915279181571600,0.369571533203125,-4.184186935424805,2.2612133026123047,-3.971862316131592
1683915279191612400,0.3796123046875,-4.5442585945129395,1.2563977241516113,-4.283936023712158
1683915279201653200,0.3896533203125,-3.0809051990509033,1.3299779891967773,-4.673084735870361
1683915279211694000,0.399694091796875,-0.45865416526794434,1.1601033210754395,-5.692080974578857
1683915279221735200,0.409735107421875,-0.5004856586456299,0.9845695495605469,-7.149187088012695
1683915279231776000,0.41977587890625,-0.9245555400848389,0.759765625,-8.580236434936523
1683915279241816800,0.42981689453125,-1.6550761461257935,0.779170036315918,-9.048746109008789
1683915279251858000,0.43985791015625,-2.2804579734802246,0.21097707748413086,-6.2702317237854
1683915279261898800,0.449898681640625,-2.2668046951293945,0.7443203926086426,-1.8273892402648926
1683915279271939600,0.459939697265625,-2.0461559295654297,0.7869472503662109,-1.7912893295288086
1683915279281980400,0.46998046875,-3.3722586631774902,0.9660964012145996,-0.09855937957763672
1683915279292021500,0.480021484375,-2.04780912399292,-0.08341598510742188,-2.8003320693969727
1683915279302062300,0.490062255859375,-0.9109857082366943,-0.9088773727416992,-5.1027350425720215
1683915279312103200,0.500103271484375,0.4246206283569336,-1.4200758934020996,-5.796469211578369
1683915279322144300,0.510144287109375,4.793609619140625,-0.33417510986328125,-6.243879318237305
1683915279332185000,0.52018505859375,3.001774787902832,-1.0681090354919434,-4.841433048248291
1683915279342226000,0.530225830078125,2.5633797645568848,-1.1562952995300293,-5.785248756408691
1683915279352266800,0.540266845703125,1.147562026977539,-1.70758056640625,-6.090251922607422
1683915279362307800,0.550307861328125,-1.2649660110473633,-1.4010767936706543,-5.592600345611572
1683915279372348700,0.5603486328125,-1.9637131690979004,-1.8831591606140137,-5.192170143127441
1683915279382389500,0.570389404296875,-1.8592400550842285,-2.17952299118042,-4.310450077056885
1683915279392430600,0.5804306640625,-2.188858985900879,-2.493107318878174,-4.442583084106445
1683915279402471400,0.590471435546875,-2.661167860031128,-2.619320869445801,-4.879026412963867
1683915279412512300,0.60051220703125,-2.7794907093048096,-2.3517608642578125,-4.107728958129883
1683915279422553000,0.610552978515625,-3.1683876514434814,-2.115471363067627,-3.4832816123962402
1683915279432594200,0.62059423828125,-3.314234495162964,-1.9936723709106445,-2.8669590950012207
1683915279442635000,0.630635009765625,-2.67726993560791,-1.6737089157104492,-1.8537344932556152
1683915279452675800,0.64067578125,-2.0576400756835938,-1.5157957077026367,-1.3204231262207031
1683915279462717000,0.650717041015625,-1.482022762298584,-1.3699884414672852,-1.2211804389953613
1683915279472757800,0.6607578125,-1.4260272979736328,-1.1927504539489746,-1.1046943664550781
1683915279482798600,0.670798583984375,-1.4956345558166504,-1.172332763671875,-0.7170472145080566
1683915279492839400,0.68083935546875,-1.6112146377563477,-1.2844772338867188,-0.28293609619140625
1683915279502880500,0.690880615234375,-1.634786605834961,-1.0357918739318848,0.3096761703491211
1683915279512921300,0.70092138671875,-1.7791099548339844,-0.8026914596557617,0.7358956336975098
1683915279522962200,0.710962158203125,-1.8913860321044922,-0.6368598937988281,0.6405868530273438
1683915279533003000,0.7210029296875,-2.147157669067383,-0.5326533317565918,0.27956295013427734
1683915279543044000,0.731044189453125,-2.3682937622070312,-0.7329435348510742,-0.2368321418762207
1683915279553085000,0.7410849609375,-2.5137476921081543,-1.2611207962036133,-1.1573338508605957
1683915279563125800,0.751125732421875,-2.584738254547119,-1.553469181060791,-1.6858470439910889
1683915279573166800,0.761166748046875,-2.291309356689453,-1.518303394317627,-1.6380915641784668
1683915279583207700,0.771207763671875,-1.916886806488037,-1.2967333793640137,-1.4867310523986816
1683915279593248500,0.78124853515625,-1.5662384033203125,-1.386314868927002,-1.1579453945159912
1683915279603289600,0.79128955078125,-1.2350645065307617,-1.1111078262329102,-0.6686749458312988
1683915279613330400,0.801330322265625,-1.0214791297912598,-0.7200126647949219,-0.3501729965209961
1683915279623371300,0.811371337890625,-1.3205108642578125,-0.8113422393798828,-0.4792823791503906
1683915279633412000,0.821412109375,-1.6336555480957031,-0.811699390411377,-0.41966724395751953
1683915279643453200,0.831453125,-1.931553840637207,-0.7461943626403809,-0.5999560356140137
1683915279653494000,0.841493896484375,-2.0437679290771484,-0.8911170959472656,-0.9290764331817627
1683915279663534800,0.851534912109375,-1.9055662155151367,-0.7384061813354492,-0.8134799003601074
1683915279673575700,0.86157568359375,-1.5780868530273438,-0.2866230010986328,-0.34706783294677734
1683915279683616800,0.87161669921875,-1.3659067153930664,0.020153522491455078,0.15816259384155273
1683915279693657600,0.88165771484375,-1.2875056266784668,0.10350370407104492,0.7794170379638672
1683915279703698400,0.891698486328125,-1.3062543869018555,0.14117717742919922,0.920590877532959
1683915279713739500,0.901739501953125,-1.3170738220214844,0.34740114212036133,0.8925275802612305
1683915279723780400,0.9117802734375,-1.3836426734924316,0.4481649398803711,1.0493779182434082
1683915279733821200,0.9218212890625,-1.405642032623291,0.4253106117248535,1.12711763381958
1683915279743862000,0.931862060546875,-1.2412405014038086,0.25575828552246094,1.1570382118225098
1683915279753903000,0.941903076171875,-1.0347957611083984,0.08653116226196289,1.2099571228027344
1683915279763944000,0.95194384765625,-0.8043498992919922,0.07976102828979492,0.8061532974243164
1683915279773984800,0.96198486328125,-0.549933910369873,0.09677934646606445,0.6886229515075684
1683915279784025900,0.97202587890625,-0.41450071334838867,0.181884765625,0.6416506767272949
1683915279794066700,0.982066650390625,-0.4348301887512207,0.4307122230529785,0.30479907989501953
1683915279804107500,0.992107421875,-0.7571544647216797,0.7808020114898682,0.21036195755004883
1683915279814148600,1.002148681640625,-1.325284481048584,0.8643200397491455,0.08084487915039062
1683915279824189400,1.012189453125,-1.753674030303955,0.9583384990692139,-0.30484533309936523
1683915279834230300,1.022230224609375,-2.091520309448242,1.0882282257080078,-0.45491600036621094
1683915279844271000,1.03227099609375,-2.395719051361084,1.1007091999053955,-0.7061033248901367
1683915279854312200,1.042312255859375,-2.4401822090148926,1.1085143089294434,-0.8917403221130371
1683915279864353000,1.05235302734375,-2.1476187705993652,1.0260024070739746,-0.8139300346374512
1683915279874393900,1.062393798828125,-1.7115693092346191,0.8518590927124023,-0.376833438873291
1683915279884434700,1.0724345703125,-1.0329747200012207,0.5617532730102539,-0.12753772735595703
1683915279894475800,1.082475830078125,-0.20767498016357422,0.23534059524536133,-0.038372039794921875
1683915279904516600,1.0925166015625,0.736015796661377,0.19231414794921875,0.19565105438232422
1683915279914557400,1.102557373046875,1.5073533058166504,0.11188936233520508,0.40349435806274414
1683915279924598300,1.112598388671875,1.8947463035583496,-0.2736806869506836,0.3792762756347656
1683915279934639400,1.122639404296875,2.022984027862549,-0.5196413993835449,-0.0344085693359375
1683915279944680200,1.13268017578125,2.2031288146972656,-0.513979434967041,-0.3735032081604004
1683915279954721000,1.142720947265625,2.214510917663574,-0.5365943908691406,-0.5467939376831055
1683915279964762000,1.15276220703125,2.020869255065918,-0.5129060745239258,-0.6835112571716309
1683915279974803000,1.162802978515625,1.8704633712768555,-0.5090980529785156,-0.640594482421875
1683915279984843800,1.17284375,1.7026023864746094,-0.6208033561706543,-0.8157577514648438
1683915279994884900,1.182884765625,1.6498022079467773,-0.6842455863952637,-1.0011391639709473
1683915280004925700,1.19292578125,1.5329995155334473,-0.5618853569030762,-1.2247834205627441
1683915280014966500,1.202966552734375,1.3451428413391113,-0.5353102684020996,-1.499849796295166
1683915280025007400,1.21300732421875,1.0746755599975586,-0.5533642768859863,-1.8733491897583008
1683915280035048400,1.22304833984375,0.7106094360351562,-0.2886033058166504,-2.3753514289855957
1683915280045089300,1.23308935546875,0.3031344413757324,0.05081653594970703,-2.88006329536438
1683915280055130000,1.243130126953125,-0.2430419921875,0.3227524757385254,-3.164926767349243
1683915280065171000,1.2531708984375,-0.6981368064880371,0.5696985721588135,-3.343179225921631
1683915280075212000,1.2632119140625,-1.1169800758361816,0.4722154140472412,-3.824005603790283
1683915280085252900,1.2732529296875,-1.6520581245422363,0.38436079025268555,-4.506206512451172
1683915280095293700,1.283293701171875,-2.0951108932495117,0.0324554443359375,-5.110123634338379
1683915280105334800,1.293334716796875,-2.463339328765869,-0.4183168411254883,-5.934725761413574
1683915280115375600,1.303375732421875,-2.700378894805908,-0.7598533630371094,-6.5555644035339355
1683915280125416400,1.31341650390625,-2.6794958114624023,-0.961146354675293,-7.3228254318237305
1683915280135457300,1.323457275390625,-2.7321865558624268,-1.4422688484191895,-8.654084205627441
1683915280145498400,1.333498291015625,-2.5588572025299072,-0.6638283729553223,-8.63416862487793
1683915280155539200,1.343539306640625,-2.5723536014556885,-0.17815828323364258,-8.492563247680664
1683915280165580000,1.353580078125,-3.169093608856201,-0.7191462516784668,-8.135503768920898
1683915280175620900,1.363620849609375,-3.801438570022583,-1.9382514953613281,-6.9190263748168945
1683915280185662000,1.373661865234375,-3.0410714149475098,-3.0762033462524414,-4.858322620391846
1683915280195702800,1.383702880859375,-2.1629810333251953,-3.6682205200195312,-3.2909364700317383
1683915280205743600,1.39374365234375,-0.9893689155578613,-3.164903163909912,-1.9741687774658203
1683915280215784700,1.40378466796875,0.0019466876983642578,-2.3304648399353027,-0.4728388786315918
1683915280225825500,1.413825439453125,-0.05415606498718262,-1.342444896697998,0.5597467422485352
1683915280235866400,1.423866455078125,-0.42123889923095703,-1.453749179840088,2.353400707244873
1683915280245907500,1.433907470703125,-0.7448869943618774,-1.402514934539795,4.034679889678955
1683915280255948300,1.4439482421875,-0.6469045877456665,-1.1415472030639648,5.8564558029174805
1683915280265989000,1.453989013671875,-0.21190571784973145,-1.330965518951416,7.140241622924805
1683915280276030000,1.464030029296875,0.14895915985107422,-1.7723264694213867,7.862984657287598
1683915280286071000,1.474071044921875,0.4787607192993164,-2.2257208824157715,7.425909519195557
1683915280296111900,1.48411181640625,1.0012853145599365,-2.6433515548706055,6.551024436950684
1683915280306152700,1.494152587890625,1.448974847793579,-2.67744779586792,5.419327259063721
1683915280316193500,1.504193603515625,1.9556047916412354,-2.3904051780700684,5.384335041046143
1683915280326234600,1.514234619140625,2.243983745574951,-2.4519968032836914,6.329370498657227
1683915280336275500,1.524275390625,2.120361804962158,-2.86515474319458,7.160865306854248
1683915280346316300,1.53431640625,1.9869403839111328,-3.2409772872924805,7.382688999176025
1683915280356357400,1.544357421875,1.6258227825164795,-3.5221786499023438,6.679337501525879
1683915280366398200,1.554398193359375,1.3782404661178589,-4.162449836730957,5.729223251342773
1683915280376439000,1.56443896484375,-0.420529842376709,-3.467043399810791,4.356817722320557
1683915280386480000,1.574480224609375,-2.6972227096557617,-2.4233217239379883,2.715660572052002
1683915280396521000,1.58452099609375,-4.511081695556641,-2.4800195693969727,1.3805761337280273
1683915280406561800,1.594561767578125,-6.204728126525879,-2.9462428092956543,1.7152338027954102
1683915280416602600,1.6046025390625,-7.284200668334961,-3.5597996711730957,2.1886696815490723
1683915280426643700,1.614643798828125,-6.367822647094727,-3.6786317825317383,2.133604049682617
1683915280436684500,1.6246845703125,-4.098193168640137,-2.4908270835876465,1.3342671394348145
1683915280446725400,1.634725341796875,-5.6214752197265625,-1.215047836303711,0.2120075225830078
1683915280456766200,1.64476611328125,-7.428934097290039,-0.9287619590759277,0.14398813247680664
1683915280466807300,1.654807373046875,-4.9136433601379395,-1.0303874015808105,0.6921710968017578
1683915280476848000,1.66484814453125,-2.378434896469116,-0.6459856033325195,0.7427549362182617
1683915280486889000,1.674888916015625,-1.1022512912750244,0.031514644622802734,0.24632644653320312
1683915280496930000,1.684929931640625,-0.1941356658935547,0.6129088401794434,0.12267446517944336
1683915280506971000,1.694970947265625,0.4878804683685303,1.1893811225891113,0.03130960464477539
1683915280517011700,1.70501171875,1.1607325077056885,1.5560541152954102,-0.03248262405395508
1683915280527052500,1.715052490234375,1.7477545738220215,1.4863858222961426,-0.2860989570617676
1683915280537093600,1.72509375,1.7922165393829346,1.3633289337158203,-0.9290966987609863
1683915280547134500,1.735134521484375,1.5297348499298096,1.3732614517211914,-1.6220407485961914
1683915280557175300,1.74517529296875,1.4295048713684082,1.8128581047058105,-2.3871946334838867
1683915280567216000,1.755216064453125,0.5876257419586182,2.6413586139678955,-3.033346176147461
1683915280577257200,1.76525732421875,-0.0661386251449585,3.011221408843994,-2.515839099884033
1683915280587298000,1.775298095703125,-2.6324257850646973,3.726078987121582,-2.5819921493530273
1683915280597339000,1.7853388671875,-5.020686149597168,5.447861194610596,-2.2062201499938965
1683915280607380000,1.7953798828125,-4.800274848937988,6.744968891143799,-0.8380842208862305
1683915280617420800,1.8054208984375,-2.2869768142700195,6.2928948402404785,1.0713424682617188
1683915280627461600,1.815461669921875,-0.40271973609924316,4.898995399475098,1.7050371170043945
1683915280637502500,1.82550244140625,2.9310059547424316,4.203676700592041,0.7105264663696289
1683915280647543600,1.83554345703125,3.0148534774780273,3.976918935775757,-2.156006336212158
1683915280657584400,1.84558447265625,3.18979811668396,3.825798511505127,-3.216183662414551
1683915280667625200,1.855625244140625,2.2934250831604004,3.1670360565185547,-3.772711753845215
1683915280677666300,1.865666259765625,1.6349053382873535,2.360537528991699,-2.929900646209717
1683915280687707100,1.87570703125,1.5144894123077393,2.8709402084350586,-4.3771185874938965
1683915280697748000,1.885748046875,1.127097487449646,2.439143180847168,-4.845983982086182
1683915280707788800,1.895788818359375,0.6581112146377563,1.6873517036437988,-6.707638263702393
1683915280717830000,1.905829833984375,0.7617039680480957,1.4346258640289307,-5.623844146728516
1683915280727870700,1.91587060546875,1.2176553010940552,1.9782121181488037,-3.3014063835144043
1683915280737911600,1.92591162109375,1.4013980627059937,2.6214609146118164,0.10595417022705078
1683915280747952400,1.935952392578125,0.918816328048706,3.981750726699829,1.7235164642333984
1683915280757993500,1.945993408203125,0.7041633725166321,3.659115791320801,1.361337661743164
1683915280768034300,1.956034423828125,0.9325381517410278,4.998928070068359,0.3614940643310547
1683915280778075100,1.9660751953125,-0.6111483573913574,0.3044428825378418,0.7115478515625
1683915280788116200,1.9761162109375,0.22896218299865723,-0.0632481575012207,-0.6040496826171875
1683915280798157000,1.986156982421875,0.45936182141304016,-1.0734221935272217,-1.4217281341552734
1683915280808198000,1.996197998046875,-0.12388640642166138,-1.9642634391784668,-1.1721038818359375
1683915280818239000,2.006239013671875,-0.1983354687690735,-2.4383232593536377,-0.6973047256469727
1683915280828279800,2.01627978515625,-0.301885724067688,-2.631897211074829,-0.44963645935058594
1683915280838320600,2.026320556640625,-0.29117411375045776,-2.5117545127868652,-0.21223735809326172
1683915280848361500,2.036361572265625,-0.31432902812957764,-2.361107587814331,0.05465507507324219
1683915280858402600,2.046402587890625,-0.37539350986480713,-2.571185350418091,0.46186065673828125
1683915280868443400,2.056443359375,-0.44073736667633057,-2.8283989429473877,0.9154500961303711
1683915280878484200,2.066484130859375,-0.4891918897628784,-2.8609418869018555,1.2692289352416992
1683915280888525000,2.076525146484375,-0.37286311388015747,-2.5675249099731445,1.4281988143920898
1683915280898566100,2.086566162109375,-0.1579979658126831,-2.0711464881896973,1.288222312927246
1683915280908607000,2.09660693359375,-0.2044503092765808,-1.5809342861175537,0.9257688522338867
1683915280918647800,2.106647705078125,-0.37718647718429565,-1.1371221542358398,0.5348968505859375
1683915280928689000,2.11668896484375,-0.3671431541442871,-0.5974931716918945,0.037590980529785156
1683915280938729700,2.126729736328125,-0.2467125654220581,-0.05989229679107666,-0.24286174774169922
1683915280948770600,2.1367705078125,-0.09731417894363403,0.1936328411102295,-0.2298879623413086
1683915280958811400,2.146811279296875,0.4067912995815277,0.37627899646759033,-0.2705802917480469
1683915280968852500,2.1568525390625,0.9650505781173706,0.1963026523590088,-0.3105316162109375
1683915280978893300,2.166893310546875,1.4132670164108276,-0.31159067153930664,-0.15000343322753906
1683915280988934100,2.17693408203125,1.6739134788513184,-0.7824075222015381,-0.0007181167602539062
1683915280998975200,2.186975341796875,1.8266658782958984,-0.9896934032440186,-0.11566352844238281
1683915281009016000,2.19701611328125,1.846603512763977,-1.1474242210388184,-0.648564338684082
1683915281019057000,2.207056884765625,1.80872642993927,-1.2126116752624512,-1.3165931701660156
1683915281029097700,2.21709765625,1.7925760746002197,-1.2690720558166504,-1.7289257049560547
1683915281039138800,2.227138916015625,1.6875808238983154,-1.2679262161254883,-1.855506420135498
1683915281049179600,2.2371796875,1.3525793552398682,-1.193361520767212,-1.8946619033813477
1683915281059220500,2.247220458984375,1.037852168083191,-1.0118370056152344,-1.9393248558044434
1683915281069261600,2.257261474609375,0.8024675250053406,-0.9181568622589111,-1.950000286102295
1683915281079302400,2.267302490234375,0.679100513458252,-0.929459810256958,-1.9091100692749023
1683915281089343200,2.27734326171875,0.6555877327919006,-1.1819992065429688,-1.8212709426879883
1683915281099384000,2.287384033203125,0.6862213611602783,-1.4989938735961914,-1.8165440559387207
1683915281109425200,2.297425048828125,0.9728008508682251,-1.7920536994934082,-1.8475794792175293
1683915281119466000,2.307466064453125,1.3901599645614624,-2.0377297401428223,-1.6681647300720215
1683915281129506800,2.3175068359375,1.7915058135986328,-2.2537953853607178,-1.1859846115112305
1683915281139547600,2.327547607421875,2.13348650932312,-2.520843744277954,-0.7512855529785156
1683915281149588700,2.337588623046875,2.200103282928467,-2.5887277126312256,-0.37198925018310547
1683915281159629600,2.347629638671875,1.844282627105713,-2.3888418674468994,-0.1628284454345703
1683915281169670400,2.35767041015625,1.378817081451416,-2.2494757175445557,-0.2768125534057617
1683915281179711500,2.36771142578125,0.9258121252059937,-2.122040033340454,-0.22693443298339844
1683915281189752300,2.37775244140625,0.6603880524635315,-2.27315092086792,-0.15074729919433594
1683915281199793200,2.387793212890625,0.6735135316848755,-2.5141961574554443,0.12632369995117188
1683915281209834200,2.397834228515625,0.8886281251907349,-2.5282845497131348,0.3970804214477539
1683915281219875000,2.407875,1.0672149658203125,-2.405496597290039,0.6642055511474609
1683915281229916000,2.417916015625,1.0348198413848877,-2.283815383911133,0.637873649597168
1683915281239956700,2.427956787109375,0.5866435766220093,-2.042909622192383,0.44542407989501953
1683915281249997800,2.437997802734375,0.20899030566215515,-1.821335792541504,0.048851966857910156
1683915281260038700,2.44803857421875,-0.02986222505569458,-1.5813870429992676,-0.24367809295654297
1683915281270079500,2.45807958984375,-0.18234892189502716,-1.2267541885375977,-0.41651248931884766
1683915281280120300,2.468120361328125,-0.2335253804922104,-0.817108154296875,-0.5167303085327148
1683915281290161400,2.478161376953125,-0.1887366771697998,-0.45569324493408203,-0.5709209442138672
1683915281300202200,2.4882021484375,-0.034862056374549866,-0.2227931022644043,-0.6335573196411133
1683915281310243000,2.4982431640625,0.1285804957151413,-0.036362648010253906,-0.6828393936157227
1683915281320284200,2.5082841796875,0.19812214374542236,0.2157297134399414,-0.6960153579711914
1683915281330325000,2.518324951171875,0.18124157190322876,0.5766072273254395,-0.7307252883911133
1683915281340365800,2.52836572265625,0.04083827883005142,0.8155961036682129,-0.6211566925048828
1683915281350406700,2.53840673828125,-0.12932725250720978,0.9211225509643555,-0.4895172119140625
1683915281360447700,2.54844775390625,-0.18777193129062653,1.077672004699707,-0.2511100769042969
1683915281370488600,2.558488525390625,-0.06834270805120468,1.3608074188232422,0.13432788848876953
1683915281380529400,2.568529296875,0.17384089529514313,1.7390391826629639,0.4842033386230469
1683915281390570200,2.5785703125,0.4261516332626343,2.058340072631836,0.6819734573364258
1683915281400611300,2.588611328125,0.6562191247940063,2.218177080154419,0.7396869659423828
1683915281410652200,2.598652099609375,0.8126580119132996,2.268881320953369,0.7424173355102539
1683915281420693000,2.60869287109375,0.8497803211212158,2.2659313678741455,0.7245688438415527
1683915281430734000,2.618734130859375,0.705755889415741,2.2542600631713867,0.7028141021728516
1683915281440775000,2.62877490234375,0.4725153148174286,2.2465944290161133,0.7267866134643555
1683915281450815700,2.638815673828125,0.1890706717967987,2.203249454498291,0.8524074554443359
1683915281460856800,2.64885693359375,-0.17214709520339966,2.1432251930236816,1.0235166549682617
1683915281470897700,2.658897705078125,-0.535287082195282,2.106078624725342,1.2622590065002441
1683915281480938500,2.6689384765625,-0.808146595954895,2.060520648956299,1.532214641571045
1683915281490979300,2.678979248046875,-0.9229174852371216,2.0102643966674805,1.76725435256958
1683915281501020400,2.6890205078125,-0.8499898314476013,1.9369821548461914,1.9576606750488281
1683915281511061200,2.699061279296875,-0.6365574598312378,1.769521713256836,2.1189517974853516
1683915281521102000,2.70910205078125,-0.3157714307308197,1.4034743309020996,2.313234329223633
1683915281531143000,2.719142822265625,0.05255645513534546,0.9108643531799316,2.543400287628174
1683915281541184000,2.72918408203125,0.3949977457523346,0.48784732818603516,2.629730701446533
1683915281551224800,2.739224853515625,0.7039074301719666,0.21263456344604492,2.4319658279418945
1683915281561265700,2.749265625,0.965881884098053,-0.009097099304199219,2.073349952697754
1683915281571306800,2.759306640625,1.200088381767273,-0.21504497528076172,1.6419954299926758
1683915281581347600,2.76934765625,1.399613380432129,-0.41069793701171875,1.1939377784729004
1683915281591388400,2.779388427734375,1.578632116317749,-0.6427402496337891,0.8058428764343262
1683915281601429500,2.789429443359375,1.7384169101715088,-1.0323448181152344,0.6484050750732422
1683915281611470300,2.79947021484375,1.9069018363952637,-1.4518451690673828,0.7393388748168945
1683915281621511200,2.80951123046875,2.0734479427337646,-1.8859362602233887,1.0918388366699219
1683915281631552000,2.819552001953125,2.178738594055176,-2.2876243591308594,1.618995189666748
1683915281641593000,2.829593017578125,2.2535712718963623,-2.445943832397461,2.0951733589172363
1683915281651634000,2.839634033203125,2.3469557762145996,-2.2719221115112305,2.3180441856384277
1683915281661674800,2.8496748046875,2.492356300354004,-1.851508617401123,2.1986894607543945
1683915281671715600,2.859715576171875,2.5832204818725586,-1.1184468269348145,1.8620495796203613
1683915281681756700,2.869756591796875,2.5280773639678955,-0.545168399810791,1.0284919738769531
1683915281691797500,2.879797607421875,2.3560240268707275,-0.20574045181274414,-0.12455272674560547
1683915281701838300,2.88983837890625,2.108682632446289,-0.13112163543701172,-1.245640754699707
1683915281711879400,2.89987939453125,1.8155827522277832,-0.3544130325317383,-2.222372531890869
1683915281721920300,2.909920166015625,1.2829265594482422,-0.900881290435791,-2.931032180786133
1683915281731961000,2.919961181640625,0.5416929721832275,-1.6033868789672852,-3.3479084968566895
1683915281742002000,2.930001953125,-0.19948983192443848,-2.2002553939819336,-3.4876439571380615
1683915281752043000,2.94004296875,-0.8707947731018066,-2.536776065826416,-3.29435396194458
1683915281762083800,2.950083740234375,-1.6387803554534912,-2.5242300033569336,-2.892216205596924
1683915281772124700,2.960124755859375,-2.108567476272583,-2.1810173988342285,-2.4948439598083496
1683915281782165500,2.97016552734375,-1.9999139308929443,-1.6146173477172852,-2.2357993125915527
1683915281792206600,2.98020654296875,-1.4979538917541504,-0.983365535736084,-2.1008849143981934
1683915281802247400,2.990247314453125,-0.8732569217681885,-0.42645692825317383,-2.008599281311035
1683915281812288500,3.00028857421875,-0.053479671478271484,-0.15179157257080078,-1.9398903846740723
1683915281822329300,3.010329345703125,0.6267644166946411,-0.06521987915039062,-1.7342000007629395
1683915281832370200,3.0203701171875,0.9950565099716187,-0.13949298858642578,-1.4767427444458008
1683915281842411000,3.030410888671875,1.168233036994934,-0.1936044692993164,-1.416618824005127
1683915281852452000,3.0404521484375,1.2209017276763916,-0.13082265853881836,-1.6196036338806152
1683915281862493000,3.050492919921875,1.19402277469635,0.08577585220336914,-1.9947495460510254
1683915281872533800,3.06053369140625,1.0707440376281738,0.4189763069152832,-2.310852527618408
1683915281882574600,3.07057470703125,0.8339786529541016,0.8484101295471191,-2.421069622039795
1683915281892615700,3.08061572265625,0.4469578266143799,1.3544554710388184,-2.42083740234375
1683915281902656500,3.090656494140625,0.006796598434448242,1.8444194793701172,-2.4185409545898438
1683915281912697300,3.100697265625,-0.34890151023864746,2.066037654876709,-2.2792863845825195
1683915281922738200,3.11073828125,-0.18606114387512207,2.0885987281799316,-1.9198899269104004
1683915281932779300,3.120779296875,0.2994028329849243,2.1744747161865234,-1.6080145835876465
1683915281942820000,3.130820068359375,0.8000656366348267,2.288835048675537,-1.3373050689697266
1683915281952861000,3.14086083984375,1.1901143789291382,2.336207866668701,-1.0793442726135254
1683915281962902000,3.150902099609375,1.3848876953125,2.2638087272644043,-0.8258347511291504
1683915281972942800,3.16094287109375,1.3161405324935913,1.9893240928649902,-0.6213932037353516
1683915281982983700,3.170983642578125,0.990168571472168,1.6022491455078125,-0.6362881660461426
1683915281993024500,3.1810244140625,0.46703338623046875,1.187464714050293,-0.7501521110534668
1683915282003065600,3.191065673828125,-0.08008289337158203,0.8653779029846191,-0.8316302299499512
1683915282013106400,3.2011064453125,-0.46775758266448975,0.7290821075439453,-0.7965793609619141
1683915282023147300,3.211147216796875,-0.6978451013565063,0.563356876373291,-0.5969333648681641
1683915282033188400,3.221188232421875,-0.8803009986877441,0.2494029998779297,-0.25612878799438477
1683915282043229200,3.231229248046875,-1.0802103281021118,-0.10092830657958984,0.1371135711669922
1683915282053270000,3.24127001953125,-1.3166028261184692,-0.30087852478027344,0.49434375762939453
1683915282063311000,3.25131103515625,-1.5736252069473267,-0.4213089942932129,0.7100863456726074
1683915282073352000,3.26135205078125,-1.8507494926452637,-0.5306415557861328,0.8058886528015137
1683915282083392800,3.271392822265625,-2.1125919818878174,-0.6224327087402344,0.7990689277648926
1683915282093433600,3.28143359375,-2.3564612865448,-0.6830062866210938,0.6855549812316895
1683915282103474700,3.291474609375,-2.535521984100342,-0.6914987564086914,0.5655150413513184
1683915282113515500,3.301515625,-2.4618515968322754,-0.5725212097167969,0.5682964324951172
1683915282123556400,3.311556396484375,-2.0724892616271973,-0.3340592384338379,0.656609058380127
1683915282133597200,3.32159716796875,-1.5897173881530762,-0.008645057678222656,0.8791189193725586
1683915282143638300,3.33163818359375,-1.6878639459609985,0.737128734588623,1.1489014625549316
1683915282153679000,3.34167919921875,-2.1408143043518066,1.064523696899414,1.4189128875732422
1683915282163720000,3.351719970703125,-2.124091148376465,1.0000972747802734,1.4065556526184082
1683915282173761000,3.361760986328125,-1.5465718507766724,0.5304183959960938,1.1213607788085938
1683915282183801900,3.3718017578125,-0.721930980682373,-0.13959360122680664,0.6789288520812988
1683915282193842700,3.3818427734375,0.05911564826965332,-0.7724733352661133,0.12414979934692383
1683915282203883500,3.391883544921875,0.6370664834976196,-1.3099064826965332,-0.3000960350036621
1683915282213924600,3.401924560546875,0.9298686385154724,-1.766357421875,-0.4017477035522461
1683915282223965400,3.41196533203125,0.42461350560188293,-2.065117835998535,-0.09958028793334961
1683915282234006300,3.42200634765625,-0.9734092950820923,-2.1795172691345215,0.5566806793212891
1683915282244047400,3.43204736328125,-1.4188703298568726,-1.9707579612731934,1.0160884857177734
1683915282254088200,3.442088134765625,-0.7748312950134277,-1.7482147216796875,1.3359489440917969
1683915282264129000,3.45212890625,0.3872429132461548,-1.3194289207458496,1.314082145690918
1683915282274170000,3.462170166015625,1.2974820137023926,-0.8782362937927246,1.053126335144043
1683915282284211000,3.4722109375,1.8381589651107788,-0.5300698280334473,0.5473723411560059
1683915282294251800,3.482251708984375,2.140728712081909,-0.15457773208618164,-0.12391233444213867
1683915282304292600,3.492292724609375,2.250396728515625,0.15975379943847656,-0.8197455406188965
1683915282314333700,3.502333740234375,2.109927177429199,0.3500356674194336,-1.6247353553771973
1683915282324374500,3.51237451171875,2.1002283096313477,0.573857307434082,-2.4453883171081543
1683915282334415400,3.522415283203125,2.449134349822998,1.0499053001403809,-3.375033140182495
1683915282344456200,3.532456298828125,2.857379913330078,1.4098386764526367,-4.124663352966309
1683915282354497300,3.542497314453125,2.998964309692383,1.1993165016174316,-4.3459553718566895
1683915282364538000,3.5525380859375,2.693819999694824,0.571110725402832,-3.970165252685547
1683915282374579000,3.562578857421875,2.502314805984497,0.36912107467651367,-3.4624786376953125
1683915282384620000,3.5726201171875,2.5379416942596436,0.3961215019226074,-2.9273698329925537
1683915282394660900,3.582660888671875,2.559328556060791,0.16946983337402344,-2.2741873264312744
1683915282404701700,3.59270166015625,2.5015766620635986,-0.34792137145996094,-1.6245245933532715
1683915282414742800,3.60274267578125,2.3566458225250244,-1.0713090896606445,-1.0067226886749268
1683915282424783600,3.61278369140625,2.1926376819610596,-2.0152931213378906,-0.29321765899658203
1683915282434824400,3.622824462890625,2.0271782875061035,-2.9575672149658203,0.4417872428894043
1683915282444865300,3.632865234375,1.7526843547821045,-3.4194250106811523,1.4567432403564453
1683915282454906400,3.64290625,1.2473247051239014,-3.318502426147461,2.4715757369995117
1683915282464947200,3.652947265625,0.5444172620773315,-2.9959630966186523,3.2477612495422363
1683915282474988000,3.662988037109375,-0.0897531509399414,-2.531191825866699,3.6576976776123047
1683915282485029000,3.673029052734375,-0.539722204208374,-2.171444892883301,3.666531562805176
1683915282495070000,3.683070068359375,-0.7329974174499512,-1.7809820175170898,3.2598772048950195
1683915282505110800,3.69311083984375,-0.784098744392395,-1.2750663757324219,2.6826224327087402
1683915282515151600,3.703151611328125,-0.5690364837646484,-0.595463752746582,1.8882007598876953
1683915282525192700,3.713192626953125,-0.22326886653900146,0.10920047760009766,0.9593358039855957
1683915282535233500,3.723233642578125,0.07345283031463623,0.7385120391845703,0.15683889389038086
1683915282545274400,3.7332744140625,0.15930193662643433,1.2409796714782715,-0.3876328468322754
1683915282555315200,3.743315185546875,0.220328688621521,1.6378364562988281,-0.7460494041442871
1683915282565356300,3.753356201171875,0.22813719511032104,1.927464485168457,-0.9936506748199463
1683915282575397000,3.763397216796875,0.02444407343864441,2.0325827598571777,-1.2225213050842285
1683915282585438000,3.77343798828125,-0.25438687205314636,1.6250982284545898,-1.299259901046753
1683915282595479000,3.78347900390625,-0.6595540046691895,1.122828483581543,-1.2691552639007568
1683915282605520000,3.793519775390625,-0.9723522067070007,0.8831539154052734,-1.255871295928955
1683915282615560700,3.803560791015625,-0.961237907409668,0.8739900588989258,-1.2936112880706787
1683915282625601800,3.813601806640625,-0.7125625014305115,0.9822254180908203,-1.264068603515625
1683915282635642600,3.823642578125,-0.36345088481903076,1.265078067779541,-0.9834144115447998
1683915282645683500,3.833683349609375,-0.034032173454761505,1.6628303527832031,-0.4929471015930176
1683915282655724300,3.843724365234375,0.15205226838588715,1.9716386795043945,0.021570444107055664
1683915282665765400,3.853765380859375,0.15752828121185303,2.144293785095215,0.44513630867004395
1683915282675806200,3.86380615234375,-0.012090295553207397,2.220187187194824,0.7310531139373779
1683915282685847000,3.873846923828125,-0.2732122242450714,2.17983341217041,0.8896291255950928
1683915282695888100,3.88388818359375,-0.5323753356933594,2.0505666732788086,0.918372392654419
1683915282705929000,3.893928955078125,-0.7076517939567566,1.893385410308838,0.8964006900787354
1683915282715969800,3.9039697265625,-0.8704355359077454,1.7758755683898926,0.8292908668518066
1683915282726010600,3.9140107421875,-1.042248249053955,1.63193941116333,0.7684903144836426
1683915282736051700,3.9240517578125,-1.1000839471817017,1.4923744201660156,0.7158358097076416
1683915282746092500,3.934092529296875,-1.05571711063385,1.3972978591918945,0.6566860675811768
1683915282756133400,3.94413330078125,-0.9307779669761658,1.1910219192504883,0.595526933670044
1683915282766174200,3.95417431640625,-0.8415754437446594,0.9580421447753906,0.49120545387268066
1683915282776215300,3.96421533203125,-0.8206536173820496,0.6299886703491211,0.40696144104003906
1683915282786256100,3.974256103515625,-0.8084579706192017,0.2685375213623047,0.3843040466308594
1683915282796297000,3.984296875,-0.7664706707000732,-0.1467599868774414,0.46402406692504883
1683915282806338000,3.994338134765625,-0.722444474697113,-0.5486068725585938,0.7410056591033936
1683915282816379000,4.00437890625,-0.7392843961715698,-1.023773193359375,1.310530185699463
1683915282826419700,4.014419677734375,-0.9209616780281067,-1.5743303298950195,2.1052393913269043
1683915282836460800,4.024460693359375,-1.3234975337982178,-2.39333438873291,3.0707197189331055
1683915282846501600,4.034501708984375,-1.7264575958251953,-2.909724235534668,3.8600645065307617
1683915282856542500,4.04454248046875,-2.0318305492401123,-3.3598384857177734,4.773481845855713
1683915282866583600,4.05458349609375,-2.318805456161499,-3.518185615539551,5.509011268615723
1683915282876624400,4.064624267578125,-2.4267258644104004,-3.177769660949707,5.504591941833496
1683915282886665200,4.074665283203125,-2.638664722442627,-3.0256576538085938,5.256217002868652
1683915282896706000,4.0847060546875,-2.846365451812744,-2.935601234436035,4.5563249588012695
1683915282906747100,4.0947470703125,-2.6573009490966797,-2.739640235900879,3.549853801727295
1683915282916788000,4.1047880859375,-2.088911533355713,-2.5970306396484375,2.5129964351654053
1683915282926828800,4.114828857421875,-1.3321621417999268,-2.5517053604125977,1.5478034019470215
1683915282936869600,4.12486962890625,-0.5778172016143799,-2.5534439086914062,0.6528418064117432
1683915282946910700,4.13491064453125,0.2608853578567505,-2.559323310852051,-0.147078275680542
1683915282956951600,4.14495166015625,1.1220242977142334,-2.5651121139526367,-0.7544704675674438
1683915282966992400,4.154992431640625,1.913450002670288,-2.6243362426757812,-1.163952350616455
1683915282977033500,4.165033447265625,2.556910753250122,-2.664552688598633,-1.4071580171585083
1683915282987074300,4.17507421875,2.9503278732299805,-2.7538986206054688,-1.648679256439209
1683915282997115100,4.185115234375,3.079312324523926,-2.953235626220703,-2.132628917694092
1683915283007156000,4.195156005859375,3.0449979305267334,-3.1007394790649414,-2.761312961578369
1683915283017197000,4.205197021484375,2.940033435821533,-2.881031036376953,-3.218775510787964
1683915283027238000,4.21523779296875,2.664174795150757,-2.5399837493896484,-3.4704811573028564
1683915283037278700,4.22527880859375,2.3777272701263428,-2.069133758544922,-3.4924871921539307
1683915283047319800,4.23531982421875,2.214118003845215,-1.689504623413086,-3.395292282104492
1683915283057360600,4.245360595703125,2.2074737548828125,-1.3728418350219727,-3.23799204826355
1683915283067401500,4.2554013671875,2.4299323558807373,-0.7788715362548828,-2.909435272216797
1683915283077442600,4.265442626953125,2.9663777351379395,-0.1839885711669922,-2.572385311126709
1683915283087483400,4.2754833984375,3.3631372451782227,0.23651123046875,-2.1074962615966797
1683915283097524200,4.285524169921875,3.471952438354492,0.4848299026489258,-1.6629738807678223
1683915283107565000,4.29556494140625,3.357604503631592,0.6291961669921875,-1.3894577026367188
1683915283117606100,4.305606201171875,3.173267364501953,0.7048754692077637,-1.2786787748336792
1683915283127647000,4.31564697265625,2.9515819549560547,0.7735152244567871,-1.2984652519226074
1683915283137687800,4.325687744140625,2.812692165374756,0.8919906616210938,-1.4375228881835938
1683915283147728600,4.335728759765625,2.865964651107788,1.098567008972168,-1.728361964225769
1683915283157769700,4.345769775390625,3.0193471908569336,1.3773622512817383,-2.1219730377197266
1683915283167810600,4.355810546875,3.1676464080810547,1.6849713325500488,-2.5364620685577393
1683915283177851400,4.365851318359375,3.2589876651763916,2.0182571411132812,-2.888169765472412
1683915283187892500,4.375892578125,3.2634668350219727,2.324427604675293,-3.1448092460632324
1683915283197933300,4.385933349609375,3.166743040084839,2.569517135620117,-3.2742364406585693
1683915283207974100,4.39597412109375,2.970165729522705,2.7149429321289062,-3.2927913665771484
1683915283218015200,4.40601513671875,2.6728997230529785,2.7726869583129883,-3.195336103439331
1683915283228056000,4.41605615234375,2.3612234592437744,2.970914363861084,-2.97965669631958
1683915283238097000,4.426096923828125,1.915967345237732,3.2297844886779785,-2.7302584648132324
1683915283248138000,4.436137939453125,1.5024925470352173,3.2579545974731445,-2.485785961151123
1683915283258178800,4.4461787109375,1.017671823501587,3.0163631439208984,-2.3082172870635986
1683915283268219600,4.4562197265625,0.38876891136169434,2.568793296813965,-2.1300208568573
1683915283278260500,4.466260498046875,-0.39315342903137207,2.1097874641418457,-1.8265644311904907
1683915283288301600,4.476301513671875,-1.1502876281738281,1.7250151634216309,-1.27572762966156
1683915283298342400,4.48634228515625,-1.7851300239562988,1.2769131660461426,-0.4351489543914795
1683915283308383200,4.49638330078125,-2.29183292388916,0.7272214889526367,0.5896594524383545
1683915283318424000,4.506424072265625,-2.7402491569519043,0.14185619354248047,1.5449645519256592
1683915283328465200,4.516465087890625,-2.955953359603882,-0.46185779571533203,2.26031756401062
1683915283338506000,4.526506103515625,-2.931929111480713,-0.964512825012207,2.7378880977630615
1683915283348546800,4.536546875,-2.740994453430176,-1.4381561279296875,3.026366710662842
1683915283358588000,4.546587890625,-2.486692428588867,-1.6538610458374023,3.058439254760742
1683915283368628700,4.556628662109375,-2.227200746536255,-1.6053838729858398,2.7979443073272705
1683915283378669600,4.566669677734375,-1.8770689964294434,-1.3186359405517578,2.3836452960968018
1683915283388710400,4.57671044921875,-1.3032306432724,-1.1832618713378906,1.9861934185028076
1683915283398751500,4.58675146484375,-0.6248288154602051,-1.0809030532836914,1.516634225845337
1683915283408792300,4.596792236328125,0.08194136619567871,-0.9999265670776367,0.9718222618103027
1683915283418833200,4.606833251953125,0.6568514108657837,-0.9701251983642578,0.5072429180145264
1683915283428874200,4.616874267578125,0.9229958653450012,-0.9955120086669922,0.15772271156311035
1683915283438915000,4.6269150390625,0.8838098645210266,-1.1906213760375977,-0.08026671409606934
1683915283448956000,4.636955810546875,0.5255275964736938,-1.657975196838379,-0.07621550559997559
1683915283458997000,4.6469970703125,-0.3672288656234741,-2.2651920318603516,0.06608819961547852
1683915283469037800,4.657037841796875,-1.9087238311767578,-2.909459114074707,0.13356328010559082
1683915283479078700,4.66707861328125,-1.575547695159912,-3.1218624114990234,0.58225417137146
1683915283489119500,4.677119384765625,-0.6824158430099487,-3.098971366882324,1.127073049545288
1683915283499160600,4.68716064453125,0.09643548727035522,-2.878612518310547,1.447422981262207
1683915283509201400,4.697201416015625,0.6614809036254883,-2.4498205184936523,1.5043330192565918
1683915283519242200,4.7072421875,1.0793662071228027,-1.7818927764892578,1.3764760494232178
1683915283529283300,4.717283447265625,1.3943376541137695,-0.9713296890258789,0.972947359085083
1683915283539324200,4.72732421875,1.6685553789138794,-0.17094135284423828,0.3387129306793213
1683915283549365000,4.737364990234375,1.9158071279525757,0.4680814743041992,-0.5449227094650269
1683915283559405800,4.74740576171875,2.2281572818756104,0.9488716125488281,-1.5083916187286377
1683915283569447000,4.757447021484375,2.590564727783203,1.2754383087158203,-2.3551483154296875
1683915283579487700,4.76748779296875,2.9547572135925293,1.3852100372314453,-2.9348583221435547
1683915283589528600,4.777528564453125,3.262446880340576,1.2603540420532227,-3.2934165000915527
1683915283599569700,4.787569580078125,3.4873228073120117,0.9695453643798828,-3.436373710632324
1683915283609610500,4.797610595703125,3.6021673679351807,0.5350065231323242,-3.3895339965820312
1683915283619651300,4.8076513671875,3.620575428009033,-0.01357269287109375,-3.1965749263763428
1683915283629692400,4.8176923828125,3.6092610359191895,-0.4638080596923828,-2.933501720428467
1683915283639733200,4.827733154296875,3.517406463623047,-0.7978096008300781,-2.7762515544891357
1683915283649774000,4.837774169921875,3.2935001850128174,-1.0138988494873047,-2.7602248191833496
1683915283659815000,4.84781494140625,2.9676942825317383,-1.080514907836914,-2.8069097995758057
1683915283669856000,4.85785595703125,2.4933881759643555,-1.0959014892578125,-2.8738152980804443
1683915283679896800,4.867896728515625,1.9023674726486206,-1.0561208724975586,-2.90903639793396
1683915283689937700,4.877937744140625,1.1393020153045654,-1.0522775650024414,-2.8561758995056152
1683915283699978800,4.887978759765625,0.388509064912796,-0.8168659210205078,-2.775325298309326
1683915283710019600,4.89801953125,-1.4083057641983032,-0.46151065826416016,-2.301419258117676
1683915283720060400,4.908060302734375,-2.480792999267578,-0.10721111297607422,-1.975782036781311
1683915283730101200,4.918101318359375,-2.8203837871551514,0.35002899169921875,-1.7854317426681519
1683915283740142300,4.928142333984375,-2.761237144470215,0.820988655090332,-1.5904325246810913
1683915283750183200,4.93818310546875,-2.3720333576202393,1.2317476272583008,-1.3026180267333984
1683915283760224000,4.94822412109375,-1.7561944723129272,1.5149688720703125,-0.9394127130508423
1683915283770265000,4.95826513671875,-1.0805169343948364,1.6390676498413086,-0.5224190950393677
1683915283780306000,4.968305908203125,-0.4557570815086365,1.6528024673461914,-0.11284208297729492
1683915283790346800,4.9783466796875,0.08293472230434418,1.5847339630126953,0.25224077701568604
1683915283800387600,4.9883876953125,0.49820804595947266,1.4736089706420898,0.5290853977203369
1683915283810428700,4.9984287109375,0.7646377086639404,1.3513803482055664,0.7073748111724854
1683915283820469500,5.008469482421875,0.9186714291572571,1.2454252243041992,0.8099747896194458
1683915283830510300,5.01851025390625,1.0126582384109497,1.1568422317504883,0.892614483833313
1683915283840551400,5.028551513671875,1.0712621212005615,1.0818290710449219,0.9902356863021851
1683915283850592300,5.03859228515625,1.0976343154907227,0.9925699234008789,1.1150373220443726
1683915283860633000,5.048633056640625,1.1003241539001465,0.8705272674560547,1.2651419639587402
1683915283870674200,5.058674072265625,1.0867090225219727,0.6826019287109375,1.4396212100982666
1683915283880715000,5.068715087890625,1.0553025007247925,0.4597330093383789,1.6397380828857422
1683915283890755800,5.078755859375,1.0094720125198364,0.2324075698852539,1.8461798429489136
1683915283900796700,5.088796630859375,0.9232946634292603,0.021726608276367188,2.0251879692077637
1683915283910837800,5.098837646484375,0.8083847761154175,-0.1753225326538086,2.181029796600342
1683915283920878600,5.108878662109375,0.6301942467689514,-0.33339977264404297,2.3199949264526367
1683915283930919400,5.11891943359375,0.3662605881690979,-0.4099235534667969,2.3819661140441895
1683915283940960500,5.12896044921875,-0.05719953775405884,-0.42601490020751953,2.335160255432129
1683915283951001300,5.13900146484375,-0.7228370904922485,-0.4263343811035156,2.210254669189453
1683915283961042200,5.149042236328125,-1.5910708904266357,-0.4495983123779297,2.0666563510894775
1683915283971083000,5.1590830078125,-2.4826738834381104,-0.5388879776000977,1.9559777975082397
1683915283981124000,5.1691240234375,-3.0521152019500732,-0.6856040954589844,1.969190239906311
1683915283991165000,5.1791650390625,-3.1526100635528564,-0.880584716796875,2.1165051460266113
1683915284001205800,5.189205810546875,-2.852072238922119,-1.1282539367675781,2.3420023918151855
1683915284011246800,5.199246826171875,-2.360293388366699,-1.3648614883422852,2.541945219039917
1683915284021287700,5.20928759765625,-1.9198634624481201,-1.5821189880371094,2.7359275817871094
1683915284031328500,5.21932861328125,-1.6422760486602783,-1.767007827758789,2.944883346557617
1683915284041369600,5.22936962890625,-1.4756301641464233,-1.9221677780151367,3.1922669410705566
1683915284051410400,5.239410400390625,-1.3791946172714233,-2.002286911010742,3.451993465423584
1683915284061451300,5.249451171875,-1.383697271347046,-1.9624090194702148,3.671504020690918
1683915284071492400,5.259492431640625,-1.5212281942367554,-1.7865095138549805,3.8118021488189697
1683915284081533200,5.269533203125,-1.830418586730957,-1.4580316543579102,3.7097432613372803
1683915284091574000,5.279573974609375,-2.0190541744232178,-1.044081687927246,3.1597952842712402
1683915284101614800,5.28961474609375,-1.8143270015716553,-0.6933135986328125,2.339043140411377
1683915284111656000,5.299656005859375,-1.3131053447723389,-0.49096202850341797,1.510828971862793
1683915284121696800,5.30969677734375,-0.6515117883682251,-0.3881845474243164,0.791205883026123
1683915284131737600,5.319737548828125,0.06334245204925537,-0.4286928176879883,-0.007960319519042969
1683915284141778700,5.32977880859375,0.7958418130874634,-0.5959558486938477,-0.7718734741210938
1683915284151819500,5.339819580078125,1.5529664754867554,-0.801112174987793,-1.3374418020248413
1683915284161860400,5.3498603515625,2.278809070587158,-1.0653009414672852,-1.6787203550338745
1683915284171901200,5.359901123046875,2.929750680923462,-1.4150495529174805,-1.8899052143096924
1683915284181942300,5.3699423828125,3.502387046813965,-1.8403100967407227,-2.0414910316467285
1683915284191983000,5.379983154296875,3.963650703430176,-2.27691650390625,-2.138275384902954
1683915284202024000,5.39002392578125,4.301827430725098,-2.658390998840332,-2.2010498046875
1683915284212065000,5.40006494140625,4.539936542510986,-2.9307804107666016,-2.2086572647094727
1683915284222105900,5.41010595703125,4.726907730102539,-2.997234344482422,-2.129667282104492
1683915284232146700,5.420146728515625,4.849648475646973,-2.8299970626831055,-2.012080192565918
1683915284242187800,5.430187744140625,4.912670135498047,-2.4912004470825195,-1.8581783771514893
1683915284252228600,5.440228515625,4.984017372131348,-2.0647716522216797,-1.7049305438995361
1683915284262269400,5.45026953125,4.921359062194824,-1.5933399200439453,-1.4946370124816895
1683915284272310300,5.460310302734375,4.533788204193115,-1.1070756912231445,-1.2381231784820557
1683915284282351400,5.470351318359375,3.791585683822632,-0.6390495300292969,-0.9910154342651367
1683915284292392200,5.48039208984375,2.8291234970092773,-0.1789407730102539,-0.7655799388885498
1683915284302433000,5.49043310546875,2.284501552581787,0.27632808685302734,-0.7077178955078125
1683915284312474000,5.50047412109375,2.122713804244995,0.6947603225708008,-0.8344051837921143
1683915284322515000,5.510514892578125,2.1352438926696777,1.0041007995605469,-1.032299518585205
1683915284332555800,5.5205556640625,2.243459463119507,1.1383891105651855,-1.232457160949707
1683915284342596600,5.5305966796875,2.393489122390747,1.134634017944336,-1.4003310203552246
1683915284352637700,5.5406376953125,2.51090669631958,1.0598468780517578,-1.5751066207885742
1683915284362678500,5.550678466796875,2.560166358947754,0.9597554206848145,-1.7573344707489014
1683915284372719400,5.56071923828125,2.553224563598633,0.8475947380065918,-1.9333078861236572
1683915284382760400,5.570760498046875,2.5029642581939697,0.7519397735595703,-2.1057331562042236
1683915284392801300,5.58080126953125,2.420623540878296,0.6899003982543945,-2.2411608695983887
1683915284402842000,5.590842041015625,2.325010061264038,0.6732683181762695,-2.310546398162842
1683915284412883200,5.60088330078125,2.201655626296997,0.6652622222900391,-2.3173768520355225
1683915284422924000,5.610924072265625,2.0471878051757812,0.662440299987793,-2.2385005950927734
1683915284432964900,5.62096484375,1.8499164581298828,0.655339241027832,-2.083414316177368
1683915284443006000,5.631005859375,1.5656579732894897,0.6367092132568359,-1.8465662002563477
1683915284453046800,5.641046875,1.206599235534668,0.5198545455932617,-1.4942665100097656
1683915284463087600,5.651087646484375,0.8078473806381226,0.2728109359741211,-1.0447759628295898
1683915284473128400,5.66112841796875,0.3725217580795288,-0.035973548889160156,-0.5493485927581787
1683915284483169500,5.67116943359375,-0.29959797859191895,-0.29833221435546875,-0.019350767135620117
1683915284493210400,5.68121044921875,-1.2048355340957642,-0.4258232116699219,0.48149800300598145
1683915284503251200,5.691251220703125,-1.5632269382476807,-0.5252666473388672,0.6696133613586426
1683915284513292300,5.701292236328125,-1.2925580739974976,-0.6904306411743164,0.48036742210388184
1683915284523333000,5.7113330078125,-0.7390733957290649,-0.8617649078369141,0.06652593612670898
1683915284533374000,5.7213740234375,-0.18361198902130127,-0.9778518676757812,-0.45945167541503906
1683915284543414800,5.731414794921875,0.2777223587036133,-1.0439815521240234,-1.0437991619110107
1683915284553455900,5.741455810546875,0.6726445555686951,-1.1249780654907227,-1.5890827178955078
1683915284563496700,5.75149658203125,0.9896669387817383,-1.2539644241333008,-2.0461337566375732
1683915284573537500,5.76153759765625,1.2360671758651733,-1.4040861129760742,-2.348025321960449
1683915284583578600,5.77157861328125,1.5113656520843506,-1.556279182434082,-2.508976936340332
1683915284593619500,5.781619384765625,1.886171579360962,-1.6865625381469727,-2.5469212532043457
1683915284603660300,5.791660400390625,2.179643154144287,-1.810368537902832,-2.567859172821045
1683915284613701400,5.801701416015625,2.4790306091308594,-1.9027528762817383,-2.627330780029297
1683915284623742200,5.8117421875,2.7909560203552246,-1.9521541595458984,-2.521314859390259
1683915284633783000,5.821782958984375,3.0643503665924072,-1.946141242980957,-2.3671698570251465
1683915284643824000,5.83182421875,3.2675085067749023,-1.862715721130371,-2.183513641357422
1683915284653865000,5.841864990234375,3.363976001739502,-1.695521354675293,-1.9841663837432861
1683915284663905800,5.85190576171875,3.396268844604492,-1.3973979949951172,-1.7955433130264282
1683915284673946600,5.861946533203125,3.397548198699951,-1.0089101791381836,-1.6225515604019165
1683915284683987700,5.87198779296875,3.3651950359344482,-0.5924587249755859,-1.4401789903640747
1683915284694028500,5.882028564453125,3.2676100730895996,-0.17969894409179688,-1.242849588394165
1683915284704069400,5.8920693359375,3.122562885284424,0.1950826644897461,-1.008601188659668
1683915284714110500,5.9021103515625,2.9446897506713867,0.5003366470336914,-0.7341190576553345
1683915284724151300,5.9121513671875,2.7507009506225586,0.7287931442260742,-0.4365386962890625
1683915284734192000,5.922192138671875,2.5344390869140625,0.8493995666503906,-0.11387944221496582
1683915284744233000,5.93223291015625,2.2637434005737305,0.8645601272583008,0.24418234825134277
1683915284754274000,5.942274169921875,1.8818072080612183,0.8032703399658203,0.6139559745788574
1683915284764315000,5.95231494140625,1.4022785425186157,0.6968040466308594,0.9616045951843262
1683915284774355700,5.962355712890625,0.8779187202453613,0.5788850784301758,1.2514584064483643
1683915284784396800,5.972396728515625,0.361855685710907,0.47933101654052734,1.4413607120513916
1683915284794437600,5.982437744140625,-0.10192438215017319,0.4219369888305664,1.5425167083740234
1683915284804478500,5.992478515625,-0.4668869972229004,0.4274005889892578,1.5619826316833496
1683915284814519600,6.00251953125,-0.6562303304672241,0.4813423156738281,1.593984603881836
1683915284824560400,6.012560302734375,-0.6398775577545166,0.565913200378418,1.639082908630371
1683915284834601200,6.022601318359375,-0.49232134222984314,0.6348648071289062,1.6329917907714844
1683915284844642300,6.032642333984375,-0.31641334295272827,0.6197319030761719,1.5916574001312256
1683915284854683100,6.04268310546875,-0.19773012399673462,0.48308658599853516,1.5728964805603027
1683915284864724000,6.052723876953125,-0.22108586132526398,0.2518949508666992,1.5877110958099365
1683915284874764800,6.062764892578125,-0.3953278362751007,-0.022691726684570312,1.597855806350708
1683915284884806000,6.072805908203125,-0.7232286930084229,-0.2870025634765625,1.5893747806549072
1683915284894846700,6.0828466796875,-1.1533297300338745,-0.46857357025146484,1.5990111827850342
1683915284904887600,6.092887451171875,-1.5815577507019043,-0.5028572082519531,1.6652989387512207
1683915284914928600,6.1029287109375,-1.8152308464050293,-0.37143516540527344,1.7618651390075684
1683915284924969500,6.112969482421875,-1.7194362878799438,-0.1733865737915039,1.8330295085906982
1683915284935010300,6.12301025390625,-1.3482491970062256,0.021086692810058594,1.8529400825500488
1683915284945051100,6.133051025390625,-0.7959344387054443,0.19713401794433594,1.7935993671417236
1683915284955092200,6.14309228515625,-0.16174210608005524,0.316741943359375,1.6521258354187012
1683915284965133000,6.153133056640625,0.4511701464653015,0.3854808807373047,1.4406051635742188
1683915284975174000,6.163173828125,0.9855234026908875,0.4423837661743164,1.220801591873169
1683915284985215000,6.173215087890625,1.434935212135315,0.46634960174560547,1.0434212684631348
1683915284995255800,6.183255859375,1.806672215461731,0.4599933624267578,0.8938014507293701
1683915285005296600,6.193296630859375,2.1077239513397217,0.4326972961425781,0.7679555416107178
1683915285015337700,6.203337646484375,2.333656072616577,0.3937492370605469,0.6498901844024658
1683915285025378600,6.213378662109375,2.4887850284576416,0.3454437255859375,0.5317902565002441
1683915285035419400,6.22341943359375,2.5864968299865723,0.29990673065185547,0.41437292098999023
1683915285045460500,6.23346044921875,2.6304211616516113,0.25496959686279297,0.28930068016052246
1683915285055501300,6.243501220703125,2.6180169582366943,0.21776962280273438,0.17371869087219238
1683915285065542100,6.253542236328125,2.537216901779175,0.1905221939086914,0.05788397789001465
1683915285075583000,6.2635830078125,2.350918769836426,0.16602516174316406,-0.04829001426696777
1683915285085624000,6.2736240234375,2.0512731075286865,0.11827659606933594,-0.10993313789367676
1683915285095665000,6.283664794921875,1.688775897026062,0.04045295715332031,-0.10217642784118652
1683915285105705700,6.293705810546875,1.3351131677627563,-0.04086780548095703,-0.037148237228393555
1683915285115746800,6.303746826171875,1.011784553527832,-0.09434032440185547,0.05086851119995117
1683915285125787600,6.31378759765625,0.7248707413673401,-0.10808849334716797,0.1578054428100586
1683915285135828500,6.323828369140625,0.5032100677490234,-0.07329940795898438,0.2807910442352295
1683915285145869300,6.333869384765625,0.3790263831615448,0.011746406555175781,0.3923473358154297
1683915285155910400,6.343910400390625,0.34874942898750305,0.09932422637939453,0.48482704162597656
1683915285165951200,6.353951171875,0.39489802718162537,0.17777061462402344,0.5696961879730225
1683915285175992000,6.363991943359375,0.4915790557861328,0.24469757080078125,0.6520266532897949
1683915285186033200,6.374033203125,0.6195878982543945,0.3072395324707031,0.7221221923828125
1683915285196074000,6.384073974609375,0.7650845050811768,0.3725566864013672,0.7799746990203857
1683915285206114800,6.39411474609375,0.9209991693496704,0.44046974182128906,0.8346161842346191
1683915285216156000,6.404156005859375,1.0825984477996826,0.4988985061645508,0.9095394611358643
1683915285226196700,6.41419677734375,1.240248441696167,0.5333089828491211,1.0015254020690918
1683915285236237600,6.424237548828125,1.3913089036941528,0.5507383346557617,1.1146674156188965
1683915285246278700,6.434278564453125,1.5084681510925293,0.5583076477050781,1.241518497467041
1683915285256319500,6.444319580078125,1.5824412107467651,0.5607624053955078,1.3676345348358154
1683915285266360300,6.4543603515625,1.5941213369369507,0.5486221313476562,1.4837749004364014
1683915285276401400,6.4644013671875,1.5421936511993408,0.5411615371704102,1.585679054260254
1683915285286442200,6.474442138671875,1.4371414184570312,0.5359840393066406,1.6708991527557373
1683915285296483000,6.484483154296875,1.284282922744751,0.5330400466918945,1.7366857528686523
1683915285306524000,6.49452392578125,1.1069183349609375,0.5372028350830078,1.7665443420410156
1683915285316565000,6.50456494140625,0.9028798341751099,0.5509614944458008,1.7679579257965088
1683915285326605800,6.514605712890625,0.7214769721031189,0.5670385360717773,1.7524850368499756
1683915285336646700,6.524646728515625,0.6018892526626587,0.590083122253418,1.7199299335479736
1683915285346687700,6.534687744140625,0.5638428330421448,0.619999885559082,1.6896188259124756
1683915285356728600,6.544728515625,0.5922365784645081,0.6472187042236328,1.6596951484680176
1683915285366769400,6.554769287109375,0.6692414879798889,0.6764726638793945,1.6517765522003174
1683915285376810200,6.564810302734375,0.7563560605049133,0.6908645629882812,1.6818475723266602
1683915285386851300,6.574851318359375,0.8191785216331482,0.6973361968994141,1.7414116859436035
1683915285396892200,6.58489208984375,0.8410006761550903,0.6956443786621094,1.8171496391296387
1683915285406933200,6.594933349609375,0.8210977911949158,0.6831216812133789,1.914872169494629
1683915285416974000,6.60497412109375,0.7620842456817627,0.6284294128417969,2.0429790019989014
1683915285427015000,6.615014892578125,0.649806797504425,0.5288705825805664,2.195373058319092
1683915285437055700,6.6250556640625,0.4925799071788788,0.3816490173339844,2.372699022293091
1683915285447096800,6.635096923828125,0.29859694838523865,0.19326496124267578,2.569899082183838
1683915285457137700,6.6451376953125,0.08994710445404053,-0.032286643981933594,2.784924030303955
1683915285467178500,6.655178466796875,-0.10880279541015625,-0.28365230560302734,2.9938480854034424
1683915285477219600,6.665219482421875,-0.34413617849349976,-0.5390558242797852,3.1150496006011963
1683915285487260400,6.675260498046875,-0.6965991258621216,-0.8017501831054688,3.0990333557128906
1683915285497301200,6.68530126953125,-1.0884132385253906,-1.041029930114746,2.86749529838562
1683915285507342300,6.69534228515625,-1.3221862316131592,-1.1852293014526367,2.551374673843384
1683915285517383200,6.705383056640625,-1.2472273111343384,-1.2085323333740234,2.199399709701538
1683915285527424000,6.715424072265625,-0.9120573997497559,-1.1084928512573242,1.859649658203125
1683915285537464800,6.72546484375,-0.46661055088043213,-0.9279279708862305,1.5304930210113525
1683915285547506000,6.735505859375,-0.027858734130859375,-0.7605085372924805,1.2231156826019287
1683915285557546800,6.745546630859375,0.39183974266052246,-0.7078132629394531,0.9625561237335205
1683915285567587600,6.755587646484375,0.7613910436630249,-0.8280544281005859,0.7177250385284424
1683915285577628700,6.765628662109375,1.0598984956741333,-1.0589399337768555,0.44380712509155273
1683915285587669500,6.77566943359375,1.3166165351867676,-1.3213777542114258,0.16018462181091309
1683915285597710300,6.78571044921875,1.5813400745391846,-1.5217704772949219,-0.11255884170532227
1683915285607751400,6.79575146484375,1.8701236248016357,-1.635293960571289,-0.3372311592102051
1683915285617792300,6.805792236328125,2.1765856742858887,-1.6229820251464844,-0.5325784683227539
1683915285627833000,6.8158330078125,2.4527535438537598,-1.5095796585083008,-0.7287994623184204
1683915285637874200,6.825874267578125,2.651766538619995,-1.3481473922729492,-0.8317983150482178
1683915285647915000,6.8359150390625,2.7814040184020996,-1.149801254272461,-0.8098218441009521
1683915285657955800,6.845955810546875,2.876199245452881,-0.9554433822631836,-0.7337262630462646
1683915285667996700,6.85599658203125,2.9571850299835205,-0.7790975570678711,-0.7089402675628662
1683915285678037800,6.866037841796875,3.004922866821289,-0.6487894058227539,-0.7291884422302246
1683915285688078600,6.87607861328125,2.9807651042938232,-0.5300359725952148,-0.8109207153320312
1683915285698119400,6.886119384765625,2.902190923690796,-0.4096231460571289,-0.9325625896453857
1683915285708160500,6.896160400390625,2.7944862842559814,-0.28089141845703125,-1.0651271343231201
1683915285718201300,6.906201416015625,2.6747851371765137,-0.12903213500976562,-1.2253888845443726
1683915285728242200,6.9162421875,2.527006149291992,0.022640228271484375,-1.39150869846344
1683915285738283300,6.926283203125,2.3234848976135254,0.15305137634277344,-1.546986699104309
1683915285748324000,6.936323974609375,2.0580942630767822,0.2655000686645508,-1.6863771677017212
1683915285758365000,6.946364990234375,1.7569915056228638,0.34523677825927734,-1.8123209476470947
1683915285768405800,6.95640576171875,1.47527277469635,0.4193401336669922,-1.9146214723587036
1683915285778446800,6.96644677734375,1.2785710096359253,0.4934978485107422,-1.9694682359695435
1683915285788487700,6.97648779296875,1.1638849973678589,0.5354948043823242,-1.9692341089248657
1683915285798528800,6.98652880859375,1.0752160549163818,0.552983283996582,-1.9201123714447021
1683915285808569600,6.996569580078125,0.9654498100280762,0.5449180603027344,-1.8688580989837646
1683915285818610400,7.0066103515625,0.8600234985351562,0.5066919326782227,-1.8535215854644775
1683915285828651300,7.0166513671875,0.7896826267242432,0.4618978500366211,-1.868263840675354
1683915285838692400,7.0266923828125,0.7220854759216309,0.43525218963623047,-1.9076007604599
1683915285848733200,7.036733154296875,0.6522798538208008,0.42494678497314453,-1.9562252759933472
1683915285858774000,7.04677392578125,0.588507890701294,0.4209098815917969,-1.962403416633606
1683915285868815000,7.056815185546875,0.513214111328125,0.43855953216552734,-1.9238858222961426
1683915285878856000,7.06685595703125,0.4273045063018799,0.4773674011230469,-1.8604199886322021
1683915285888896800,7.076896728515625,0.332918643951416,0.5330905914306641,-1.7895073890686035
1683915285898937900,7.086937744140625,0.22866439819335938,0.5850324630737305,-1.7216968536376953
1683915285908978700,7.096978759765625,0.10317850112915039,0.6236104965209961,-1.6346197128295898
1683915285919019500,7.10701953125,-0.03762531280517578,0.63848876953125,-1.5031366348266602
1683915285929060400,7.117060302734375,-0.17401647567749023,0.6147375106811523,-1.3336796760559082
1683915285939101400,7.127101318359375,-0.31687498092651367,0.5421247482299805,-1.1324782371520996
1683915285949142300,7.137142333984375,-0.4582178592681885,0.4336967468261719,-0.9193627834320068
1683915285959183000,7.14718310546875,-0.5321190357208252,0.29617786407470703,-0.7200577259063721
1683915285969224200,7.15722412109375,-0.5061371326446533,0.14913177490234375,-0.5429246425628662
1683915285979265000,7.16726513671875,-0.4867744445800781,0.01864910125732422,-0.3676450252532959
1683915285989305900,7.177305908203125,-0.5541269779205322,-0.03864574432373047,-0.14696550369262695
1683915285999347000,7.187346923828125,-0.7042088508605957,0.06558513641357422,0.14028000831604004
1683915286009387800,7.1973876953125,-0.8874590396881104,0.2976808547973633,0.5323119163513184
1683915286019428600,7.2074287109375,-0.9556300640106201,0.5500974655151367,0.9586584568023682
1683915286029469700,7.2174697265625,-0.8293886184692383,0.7270870208740234,1.3535141944885254
1683915286039510500,7.227510498046875,-0.4516010284423828,0.8262100219726562,1.6252024173736572
1683915286049551400,7.23755126953125,0.14455389976501465,0.8401727676391602,1.686248540878296
1683915286059592400,7.247592529296875,0.7527902126312256,0.8067512512207031,1.5293140411376953
1683915286069633300,7.25763330078125,1.0943076610565186,0.8114233016967773,1.1761443614959717
1683915286079674000,7.267674072265625,1.1811593770980835,0.9396743774414062,0.7039327621459961
1683915286089715000,7.27771484375,1.0992947816848755,1.1329917907714844,0.1802082061767578
1683915286099756000,7.287756103515625,0.9291021823883057,1.2970919609069824,-0.30028796195983887
1683915286109796900,7.297796875,0.7057526111602783,1.381932258605957,-0.6463429927825928
1683915286119837700,7.307837646484375,0.4486417770385742,1.4027047157287598,-0.8667252063751221
1683915286129878800,7.317878662109375,0.2192521095275879,1.38893461227417,-0.9735162258148193
1683915286139919600,7.327919677734375,0.06935405731201172,1.3678507804870605,-0.9978287220001221
1683915286149960400,7.33796044921875,-0.020070791244506836,1.3565483093261719,-0.9547481536865234
1683915286160001500,7.34800146484375,-0.06378173828125,1.3475313186645508,-0.8283326625823975
1683915286170042400,7.35804248046875,-0.06302285194396973,1.3070645332336426,-0.6485896110534668
1683915286180083200,7.368083251953125,-0.036203622817993164,1.2087249755859375,-0.4455399513244629
1683915286190124300,7.378124267578125,-0.0033006668090820312,1.0304198265075684,-0.25460267066955566
1683915286200165000,7.3881650390625,0.04525923728942871,0.8120594024658203,-0.09670305252075195
1683915286210206000,7.3982060546875,0.09904682636260986,0.6317205429077148,0.016215801239013672
1683915286220247000,7.4082470703125,0.13719677925109863,0.47098541259765625,0.07889652252197266
1683915286230288000,7.418287841796875,0.20424628257751465,0.14580535888671875,0.1279144287109375
1683915286240328700,7.42832861328125,0.25514769554138184,-0.49066638946533203,0.19591975212097168
1683915286250369500,7.43836962890625,0.2425767183303833,-1.394744873046875,0.3369731903076172
1683915286260410600,7.44841064453125,0.0518946647644043,-2.484203338623047,0.5050725936889648
1683915286270451500,7.458451416015625,-0.4592338800430298,-3.811945915222168,0.6937260627746582
1683915286280492300,7.4684921875,-2.230347156524658,-5.424064636230469,1.0294182300567627
1683915286290533400,7.478533447265625,-5.057938575744629,-6.706948280334473,1.9692487716674805
1683915286300574200,7.48857421875,-5.294403076171875,-6.471334457397461,2.0472984313964844
1683915286310615000,7.498614990234375,-4.377973556518555,-5.451816558837891,1.5997416973114014
1683915286320656100,7.50865625,-3.0498976707458496,-4.215874671936035,0.9582760334014893
1683915286330697000,7.518697021484375,-1.6665394306182861,-3.019777297973633,0.34542107582092285
1683915286340737800,7.52873779296875,-0.6218249797821045,-1.8343353271484375,-0.14568519592285156
1683915286350778600,7.538778564453125,-0.007531523704528809,-0.6671514511108398,-0.5563833713531494
1683915286360819700,7.54881982421875,0.33965039253234863,0.48064613342285156,-0.897676944732666
1683915286370860500,7.558860595703125,0.5616358518600464,1.5849733352661133,-1.1935250759124756
1683915286380901600,7.568901611328125,0.7333055734634399,2.6197361946105957,-1.443618893623352
1683915286390942500,7.5789423828125,0.8660876750946045,3.522665500640869,-1.635722279548645
1683915286400983300,7.5889833984375,1.0062967538833618,4.068679332733154,-1.647623896598816
1683915286411024400,7.5990244140625,1.1697564125061035,4.091996192932129,-1.5333284139633179
1683915286421065200,7.609065185546875,1.3906391859054565,3.716472625732422,-1.309195637702942
1683915286431106000,7.61910595703125,1.68197500705719,2.9552602767944336,-0.9819729328155518
1683915286441147000,7.62914697265625,2.034423828125,1.8885140419006348,-0.6089919805526733
1683915286451188000,7.63918798828125,2.4347825050354004,0.6521568298339844,-0.2667887210845947
1683915286461228800,7.649228759765625,2.83644437789917,-0.5380525588989258,-0.041092872619628906
1683915286471269600,7.65926953125,3.167630434036255,-1.406874656677246,0.0340571403503418
1683915286481310700,7.669310791015625,3.3505051136016846,-1.7303400039672852,0.02679157257080078
1683915286491351600,7.6793515625,3.3989391326904297,-1.6440935134887695,0.036099910736083984
1683915286501392400,7.689392333984375,3.3209681510925293,-1.3551712036132812,0.03096771240234375
1683915286511433500,7.69943359375,3.06964111328125,-1.0288629531860352,0.020868301391601562
1683915286521474300,7.709474365234375,2.65085506439209,-0.7569389343261719,-0.035124778747558594
1683915286531515100,7.71951513671875,2.146458864212036,-0.5077810287475586,-0.10493946075439453
1683915286541556000,7.729555908203125,1.6376256942749023,-0.2425384521484375,-0.1746354103088379
1683915286551597000,7.73959716796875,1.1595546007156372,0.039337158203125,-0.24474477767944336
1683915286561638000,7.749637939453125,0.7103807926177979,0.30720996856689453,-0.32282423973083496
1683915286571679000,7.759678955078125,0.1411581039428711,0.5231008529663086,-0.43352627754211426
1683915286581719800,7.7697197265625,-0.8630691766738892,0.6101961135864258,-0.5954008102416992
1683915286591760600,7.7797607421875,-1.9908363819122314,0.5516090393066406,-0.7428903579711914
1683915286601801700,7.7898017578125,-2.80887508392334,0.4277811050415039,-0.7978107929229736
1683915286611842600,7.799842529296875,-2.9622416496276855,0.2996091842651367,-0.717182993888855
1683915286621883400,7.80988330078125,-2.544443368911743,0.22226619720458984,-0.5284509658813477
1683915286631924200,7.81992431640625,-1.8871139287948608,0.2098865509033203,-0.2758200168609619
1683915286641965300,7.82996533203125,-1.2422959804534912,0.2682685852050781,0.03214693069458008
1683915286652006100,7.840006103515625,-0.7074083089828491,0.3539772033691406,0.37590456008911133
1683915286662047000,7.850046875,-0.28953543305397034,0.44057273864746094,0.7427871227264404
1683915286672088000,7.860088134765625,0.027503371238708496,0.5017356872558594,1.0785565376281738
1683915286682129000,7.87012890625,0.27778512239456177,0.5570592880249023,1.3337535858154297
1683915286692169700,7.880169677734375,0.46986210346221924,0.6120090484619141,1.5038175582885742
1683915286702210800,7.8902109375,0.6037322878837585,0.6693754196166992,1.6056288480758667
1683915286712251600,7.900251708984375,0.671331524848938,0.7283935546875,1.682719111442566
1683915286722292500,7.91029248046875,0.6624924540519714,0.7664585113525391,1.7197102308273315
1683915286732333600,7.92033349609375,0.5810686349868774,0.7905979156494141,1.6901582479476929
1683915286742374400,7.93037451171875,0.4453069567680359,0.7847347259521484,1.5934375524520874
1683915286752415200,7.940415283203125,0.27227985858917236,0.7137861251831055,1.444461464881897
1683915286762456300,7.950456298828125,0.06285429000854492,0.5378026962280273,1.2737274169921875
1683915286772497200,7.9604970703125,-0.18382501602172852,0.2476940155029297,1.122257947921753
1683915286782538000,7.9705380859375,-0.4465140700340271,-0.10122203826904297,1.004862666130066
1683915286792579000,7.9805791015625,-0.6817083358764648,-0.4104766845703125,0.9174497127532959
1683915286802620000,7.990619873046875,-0.8560054898262024,-0.5623683929443359,0.8028750419616699
1683915286812660700,8.00066064453125,-0.945420503616333,-0.5591630935668945,0.6285732984542847
1683915286822701800,8.010701904296875,-0.9943367838859558,-0.5497713088989258,0.4646998643875122
1683915286832742700,8.02074267578125,-1.0202856063842773,-0.6034126281738281,0.3684368133544922
1683915286842783500,8.030783447265625,-1.0228008031845093,-0.7024211883544922,0.36599719524383545
1683915286852824300,8.04082421875,-0.9791874885559082,-0.7893037796020508,0.5448833703994751
1683915286862865400,8.050865478515625,-0.8972805738449097,-0.8458375930786133,0.9102954864501953
1683915286872906200,8.06090625,-0.8184512257575989,-0.8564262390136719,1.3776062726974487
1683915286882947000,8.070947021484375,-0.7828544974327087,-0.8223915100097656,1.8969885110855103
1683915286892988200,8.08098828125,-0.8288341760635376,-0.7901706695556641,2.4058279991149902
1683915286903029000,8.091029052734376,-0.966900110244751,-0.7983064651489258,2.8861188888549805
1683915286913069800,8.10106982421875,-1.247878074645996,-0.8703708648681641,3.3380494117736816
1683915286923111000,8.11111083984375,-1.5772322416305542,-0.9225101470947266,3.7475943565368652
1683915286933151700,8.12115185546875,-1.8991420269012451,-0.9170007705688477,4.103679180145264
1683915286943192600,8.131192626953125,-2.484063148498535,-0.8504037857055664,4.4701151847839355
1683915286953233700,8.141233642578126,-3.100248098373413,-0.787053108215332,4.632257461547852
1683915286963274500,8.1512744140625,-3.0386199951171875,-0.8494253158569336,4.495792388916016
1683915286973315300,8.1613154296875,-2.3750574588775635,-1.1095848083496094,4.217461585998535
1683915286983356400,8.1713564453125,-1.4371752738952637,-1.3991880416870117,3.63673996925354
1683915286993397200,8.181397216796874,-0.43475115299224854,-1.4944934844970703,2.724436044692993
1683915287003438000,8.19143798828125,0.5344778299331665,-1.4621906280517578,1.8237864971160889
1683915287013479200,8.201479248046875,1.3650339841842651,-1.3786754608154297,1.0350286960601807
1683915287023520000,8.21152001953125,2.097527027130127,-1.2602462768554688,0.390056848526001
1683915287033560800,8.221560791015625,2.7538046836853027,-1.1237716674804688,-0.13841629028320312
1683915287043602000,8.231601806640626,3.2821044921875,-1.0298099517822266,-0.5890882015228271
1683915287053642800,8.241642822265625,3.672330141067505,-1.0321435928344727,-1.011940598487854
1683915287063683600,8.25168359375,3.9876813888549805,-1.158548355102539,-1.389559268951416
1683915287073724700,8.261724609375,4.253664493560791,-1.410172462463379,-1.6844159364700317
1683915287083765500,8.271765625,4.448473930358887,-1.7783575057983398,-1.881190538406372
1683915287093806300,8.281806396484376,4.5508527755737305,-2.146479606628418,-1.9901784658432007
1683915287103847200,8.29184716796875,4.51020622253418,-2.368989944458008,-2.0140318870544434
1683915287113888300,8.30188818359375,4.322381019592285,-2.343240737915039,-1.9611849784851074
1683915287123929000,8.31192919921875,4.031564712524414,-2.0420026779174805,-1.9208180904388428
1683915287133970200,8.32197021484375,3.5890512466430664,-1.5345821380615234,-1.9742436408996582
1683915287144011000,8.332010986328125,2.913280487060547,-0.9024333953857422,-2.08988881111145
1683915287154051800,8.3420517578125,1.9040520191192627,-0.32117271423339844,-2.043215274810791
1683915287164093000,8.352093017578126,0.7194795608520508,0.10884666442871094,-1.8119556903839111
1683915287174133800,8.3621337890625,-0.11539602279663086,0.4702720642089844,-1.6106171607971191
1683915287184174600,8.372174560546876,-0.2979552745819092,0.7668972015380859,-1.5440304279327393
1683915287194215700,8.382215576171875,-0.06823253631591797,0.9285650253295898,-1.5256843566894531
1683915287204256500,8.392256591796874,0.3164050579071045,0.9005632400512695,-1.5785034894943237
1683915287214297300,8.40229736328125,0.7235894203186035,0.7272939682006836,-1.710994839668274
1683915287224338200,8.412338134765625,1.075154423713684,0.45554351806640625,-1.9241331815719604
1683915287234379300,8.422379150390626,1.3639612197875977,0.16009807586669922,-2.1774368286132812
1683915287244420000,8.432420166015625,1.604416012763977,-0.0900278091430664,-2.423163652420044
1683915287254461000,8.4424609375,1.7695813179016113,-0.27771568298339844,-2.605929374694824
1683915287264502000,8.452501953125,1.8234038352966309,-0.3771848678588867,-2.674184799194336
1683915287274542800,8.46254296875,1.7791111469268799,-0.3336162567138672,-2.6046392917633057
1683915287284583700,8.472583740234375,1.6468051671981812,-0.13208866119384766,-2.4202158451080322
1683915287294624800,8.482624755859375,1.4897271394729614,0.11679458618164062,-2.1570544242858887
1683915287304665600,8.49266552734375,1.3487412929534912,0.3222846984863281,-1.8341562747955322
1683915287314706400,8.50270654296875,1.2072522640228271,0.4632244110107422,-1.4728589057922363
1683915287324747500,8.51274755859375,1.0440236330032349,0.5470790863037109,-1.1022064685821533
1683915287334788400,8.522788330078125,0.8441728353500366,0.5984182357788086,-0.7393443584442139
1683915287344829200,8.5328291015625,0.6482417583465576,0.6335430145263672,-0.42145466804504395
1683915287354870300,8.542870361328125,0.5126445293426514,0.6794929504394531,-0.19789576530456543
1683915287364911000,8.5529111328125,0.45715808868408203,0.744135856628418,-0.07791423797607422
1683915287374952000,8.562951904296876,0.48027539253234863,0.809504508972168,-0.04054546356201172
1683915287384993000,8.572992919921875,0.5618922710418701,0.8516397476196289,-0.03359651565551758
1683915287395033900,8.583033935546876,0.6625710725784302,0.8845067024230957,-0.0966951847076416
1683915287405074700,8.59307470703125,0.7830605506896973,0.9050707817077637,-0.22907519340515137
1683915287415115800,8.60311572265625,0.9120755195617676,0.927943229675293,-0.3898138999938965
1683915287425156600,8.613156494140625,1.0178911685943604,0.9482560157775879,-0.5454518795013428
1683915287435197400,8.623197509765625,1.0915054082870483,0.9658122062683105,-0.6836075782775879
1683915287445238500,8.633238525390626,1.1248432397842407,0.9782929420471191,-0.7977085113525391
1683915287455279400,8.643279296875,1.0827584266662598,0.975670337677002,-0.8651795387268066
1683915287465320200,8.6533203125,0.9470674991607666,0.94708251953125,-0.8763039112091064
1683915287475361300,8.663361328125,0.7656941413879395,0.903904914855957,-0.8364076614379883
1683915287485402000,8.673402099609374,0.5735948085784912,0.8416728973388672,-0.7646825313568115
1683915287495443000,8.68344287109375,0.37495946884155273,0.7536334991455078,-0.681567907333374
1683915287505484000,8.693484130859375,0.14218544960021973,0.6302480697631836,-0.6049153804779053
1683915287515524900,8.70352490234375,-0.13756275177001953,0.47324562072753906,-0.5237393379211426
1683915287525565700,8.713565673828125,-0.48708534240722656,0.2647056579589844,-0.4392080307006836
1683915287535606800,8.723606689453124,-0.8610785007476807,0.03686809539794922,-0.32985401153564453
1683915287545647600,8.733647705078125,-1.166092872619629,-0.17262744903564453,-0.19728946685791016
1683915287555688400,8.7436884765625,-1.4274156093597412,-0.3137979507446289,-0.026203155517578125
1683915287565729500,8.7537294921875,-1.6678056716918945,-0.35601139068603516,0.17645597457885742
1683915287575770400,8.763770263671875,-1.8881783485412598,-0.30959129333496094,0.40285515785217285
1683915287585811200,8.773811279296876,-2.0751094818115234,-0.23788070678710938,0.6720619201660156
1683915287595852300,8.783852294921875,-2.243610382080078,-0.20435428619384766,0.9472713470458984
1683915287605893000,8.79389306640625,-2.3342666625976562,-0.2353973388671875,1.1508188247680664
1683915287615934000,8.803933837890625,-2.2744908332824707,-0.28045654296875,1.200166940689087
1683915287625975000,8.81397509765625,-2.0394341945648193,-0.2652006149291992,1.0550386905670166
1683915287636015900,8.824015869140625,-1.6833806037902832,-0.15607833862304688,0.789229154586792
1683915287646056700,8.834056640625,-1.2893786430358887,0.030821800231933594,0.460221529006958
1683915287656097800,8.844097900390626,-0.9158377647399902,0.27945804595947266,0.11058878898620605
1683915287666138600,8.854138671875,-0.6297175884246826,0.5478076934814453,-0.21444368362426758
1683915287676179500,8.864179443359374,-0.41739416122436523,0.8118820190429688,-0.4529857635498047
1683915287686220500,8.874220458984375,-0.259645938873291,1.0214033126831055,-0.5875940322875977
1683915287696261400,8.884261474609374,-0.14962458610534668,1.1964378356933594,-0.645282506942749
1683915287706302200,8.89430224609375,-0.06565594673156738,1.3127737045288086,-0.6575617790222168
1683915287716343300,8.90434326171875,0.02923297882080078,1.3204679489135742,-0.6217620372772217
1683915287726384000,8.914384033203126,0.14171350002288818,1.1456475257873535,-0.5276732444763184
1683915287736425000,8.924425048828125,0.20955073833465576,0.8003549575805664,-0.37720155715942383
1683915287746466000,8.934466064453124,0.19561421871185303,0.34179019927978516,-0.18376731872558594
1683915287756507000,8.9445068359375,0.1645219326019287,-0.20169353485107422,0.05461430549621582
1683915287766547700,8.954547607421874,0.21175551414489746,-0.9048843383789062,0.3978238105773926
1683915287776588800,8.9645888671875,0.18766093254089355,-1.8261489868164062,0.8436839580535889
1683915287786629600,8.974629638671875,-0.16129589080810547,-2.8758811950683594,1.332758903503418
1683915287796670500,8.98467041015625,-0.6901519298553467,-3.8550968170166016,1.7932908535003662
1683915287806711600,8.994711669921875,-0.9251009225845337,-4.3803558349609375,1.9850685596466064
1683915287816752400,9.00475244140625,-0.8640291690826416,-4.2479753494262695,1.9635775089263916
1683915287826793200,9.014793212890625,-0.6168452501296997,-3.703836441040039,1.7333076000213623
1683915287836834300,9.024834228515624,-0.2603222131729126,-2.983820915222168,1.328956127166748
1683915287846875100,9.034875244140625,0.09410840272903442,-2.151275634765625,0.8073825836181641
1683915287856916000,9.044916015625,0.35633939504623413,-1.2275371551513672,0.20885705947875977
1683915287866957000,9.05495703125,0.49413079023361206,-0.2631540298461914,-0.39523768424987793
1683915287876998000,9.064997802734375,0.5298829078674316,0.6854104995727539,-0.9613455533981323
1683915287887038700,9.075038818359374,0.443307101726532,1.5630784034729004,-1.472982406616211
1683915287897079800,9.085079833984375,0.13064366579055786,2.2951407432556152,-2.0057666301727295
1683915287907120600,9.09512060546875,-0.3392622470855713,2.796527862548828,-2.529635190963745
1683915287917161500,9.105161376953125,-0.7127262949943542,2.9503307342529297,-2.8739030361175537
1683915287927202600,9.11520263671875,-0.8565476536750793,2.7533111572265625,-2.976301431655884
1683915287937243400,9.125243408203126,-0.7822357416152954,2.312150001525879,-2.8891139030456543
1683915287947284200,9.1352841796875,-0.5675082206726074,1.7127575874328613,-2.696077585220337
1683915287957325300,9.1453251953125,-0.27594780921936035,0.9758405685424805,-2.4608547687530518
1683915287967366100,9.1553662109375,0.0768510103225708,0.13770008087158203,-2.2017884254455566
1683915287977407000,9.165406982421874,0.49509820342063904,-0.6942415237426758,-1.9429879188537598
1683915287987448000,9.175447998046875,0.9514830112457275,-1.3603105545043945,-1.700972080230713
1683915287997489000,9.185489013671875,1.4407213926315308,-1.6984376907348633,-1.4613076448440552
1683915288007529700,9.19552978515625,1.9139362573623657,-1.7491960525512695,-1.2210456132888794
1683915288017570800,9.20557080078125,2.3280909061431885,-1.590804100036621,-0.986107587814331
1683915288027611600,9.215611572265624,2.643517255783081,-1.2995681762695312,-0.7608752250671387
1683915288037652500,9.225652587890625,2.831496477127075,-0.9598798751831055,-0.5417283773422241
1683915288047693600,9.235693603515625,2.874589681625366,-0.6328849792480469,-0.31975817680358887
1683915288057734400,9.245734375,2.7414746284484863,-0.34606170654296875,-0.10963916778564453
1683915288067775500,9.255775390625,2.4853403568267822,-0.07581520080566406,0.08117365837097168
1683915288077816300,9.26581640625,2.1724600791931152,0.18785858154296875,0.23287606239318848
1683915288087857200,9.275857177734375,1.8672252893447876,0.4550504684448242,0.357771635055542
1683915288097898000,9.28589794921875,1.5863666534423828,0.697148323059082,0.48514795303344727
1683915288107939000,9.29593896484375,1.328652262687683,0.8686008453369141,0.6031138896942139
1683915288117980000,9.30597998046875,1.0837045907974243,0.9478235244750977,0.7054116725921631
1683915288128020700,9.316020751953126,0.8393220901489258,0.9302949905395508,0.780925989151001
1683915288138061800,9.326061767578125,0.5401430130004883,0.8281154632568359,0.8129575252532959
1683915288148102700,9.3361025390625,0.1465197503566742,0.6599922180175781,0.8017218112945557
1683915288158143500,9.3461435546875,-0.2464805692434311,0.4839439392089844,0.7538423538208008
1683915288168184600,9.3561845703125,-0.5859811902046204,0.3209190368652344,0.7086584568023682
1683915288178225400,9.366225341796875,-0.8536362648010254,0.17504215240478516,0.6825783252716064
1683915288188266200,9.376266357421875,-1.0442620515823364,0.07573986053466797,0.684258222579956
1683915288198307300,9.386307373046876,-1.1631872653961182,0.04895591735839844,0.7175633907318115
1683915288208348200,9.39634814453125,-1.1834845542907715,0.09842491149902344,0.8114166259765625
1683915288218389000,9.406388916015626,-1.101273775100708,0.18672752380371094,0.9630434513092041
1683915288228430000,9.41643017578125,-0.9411786794662476,0.2861156463623047,1.1452562808990479
1683915288238471000,9.426470947265624,-0.7460923194885254,0.40035247802734375,1.3241887092590332
1683915288248512000,9.436511962890625,-0.564586877822876,0.4907550811767578,1.467902421951294
1683915288258552800,9.446552734375,-0.4232122600078583,0.5505075454711914,1.564399242401123
1683915288268593700,9.45659375,-0.336627721786499,0.5659503936767578,1.6175668239593506
1683915288278634800,9.466634765625,-0.31460708379745483,0.5568513870239258,1.6335909366607666
1683915288288675600,9.476675537109376,-0.3460865616798401,0.5306291580200195,1.6236958503723145
1683915288298716400,9.48671630859375,-0.4230425953865051,0.5038328170776367,1.581261396408081
1683915288308757500,9.496757568359374,-0.5170196890830994,0.4695167541503906,1.4710609912872314
1683915288318798300,9.50679833984375,-0.6031646728515625,0.4334888458251953,1.2855029106140137
1683915288328839200,9.516839111328125,-0.6647610068321228,0.3749704360961914,1.0695202350616455
1683915288338880300,9.52688037109375,-0.6949405074119568,0.3010749816894531,0.8727602958679199
1683915288348921000,9.536921142578125,-0.6937635540962219,0.2661752700805664,0.6983394622802734
1683915288358962000,9.5469619140625,-0.6496423482894897,0.28421783447265625,0.52950119972229
1683915288369003000,9.5570029296875,-0.5877432227134705,0.32645702362060547,0.371814489364624
1683915288379043800,9.5670439453125,-0.5223299860954285,0.35944080352783203,0.2373504638671875
1683915288389084700,9.577084716796875,-0.4573637843132019,0.35218143463134766,0.12816929817199707
1683915288399125800,9.587125732421875,-0.3779938220977783,0.3121147155761719,0.05192255973815918
1683915288409166600,9.59716650390625,-0.28930163383483887,0.22758197784423828,0.009670019149780273
1683915288419207700,9.607207763671875,-0.18909025192260742,0.1108102798461914,0.019096016883850098
1683915288429248500,9.61724853515625,-0.07784378528594971,-0.019025802612304688,0.08522999286651611
1683915288439289300,9.627289306640625,0.03610539436340332,-0.1335744857788086,0.20710301399230957
1683915288449330400,9.637330322265624,0.13719534873962402,-0.22613239288330078,0.35703444480895996
1683915288459371300,9.647371337890625,0.23249638080596924,-0.3233003616333008,0.5408545732498169
1683915288469412000,9.657412109375,0.3167518377304077,-0.4778881072998047,0.7845174074172974
1683915288479453200,9.667453125,0.3852647542953491,-0.7045230865478516,1.098168134689331
1683915288489494000,9.677493896484375,0.4309602975845337,-0.9510459899902344,1.442461371421814
1683915288499534800,9.687534912109374,0.4612410068511963,-1.1536054611206055,1.7860186100006104
1683915288509576000,9.697575927734375,0.4642157554626465,-1.3224525451660156,2.1126227378845215
1683915288519616800,9.70761669921875,0.4286000728607178,-1.4817628860473633,2.4176292419433594
1683915288529657600,9.71765771484375,0.33217501640319824,-1.6218013763427734,2.6711034774780273
1683915288539698700,9.72769873046875,0.1520092487335205,-1.715437889099121,2.837690591812134
1683915288549739500,9.737739501953126,-0.1224365234375,-1.7327613830566406,2.8801608085632324
1683915288559780400,9.7477802734375,-0.5033168196678162,-1.680293083190918,2.7910423278808594
1683915288569821400,9.757821533203124,-1.0093512535095215,-1.5344696044921875,2.595736026763916
1683915288579862300,9.7678623046875,-1.6253318786621094,-1.2755422592163086,2.308555841445923
1683915288589903000,9.777903076171874,-2.3004088401794434,-0.9419288635253906,1.950608253479004
1683915288599944200,9.787944091796875,-3.026973247528076,-0.593592643737793,1.569958209991455
1683915288609985000,9.797985107421875,-3.9075212478637695,-0.27828121185302734,1.1785821914672852
1683915288620025900,9.80802587890625,-4.334722995758057,0.0069065093994140625,0.7303342819213867
1683915288630067000,9.81806689453125,-3.9686684608459473,0.27785491943359375,0.18768930435180664
1683915288640107800,9.828107666015624,-3.152409553527832,0.5494489669799805,-0.3659071922302246
1683915288650148600,9.838148681640625,-2.2525811195373535,0.7551307678222656,-0.8736312389373779
1683915288660189700,9.848189697265624,-1.4861791133880615,0.8136253356933594,-1.2569025754928589
1683915288670230500,9.85823046875,-0.8528116941452026,0.7070493698120117,-1.453147053718567
1683915288680271400,9.868271240234375,-0.2347089648246765,0.4853811264038086,-1.4765557050704956
1683915288690312400,9.8783125,0.3862236738204956,0.2554664611816406,-1.3775986433029175
1683915288700353300,9.888353271484375,0.9671705365180969,0.028176307678222656,-1.2126542329788208
1683915288710394400,9.898394287109374,1.4548758268356323,-0.26056385040283203,-1.0001590251922607
1683915288720435200,9.908435302734375,1.8537683486938477,-0.6085910797119141,-0.764366626739502
1683915288730476000,9.91847607421875,2.2136588096618652,-1.0236482620239258,-0.5198209285736084
1683915288740517000,9.92851708984375,2.604501247406006,-1.4673633575439453,-0.26615476608276367
1683915288750558000,9.938557861328125,3.0228397846221924,-1.8829708099365234,-0.007921218872070312
1683915288760598800,9.948598876953126,3.4232864379882812,-2.2091922760009766,0.2123885154724121
1683915288770640000,9.958639892578125,3.718770980834961,-2.3771257400512695,0.3509652614593506
1683915288780680700,9.9686806640625,3.811084270477295,-2.332709312438965,0.42044568061828613
1683915288790721500,9.978721435546875,3.6474127769470215,-2.0930376052856445,0.44710683822631836
1683915288800762600,9.9887626953125,3.2330150604248047,-1.7281618118286133,0.4558095932006836
1683915288810803500,9.998803466796875,0.49414825439453125,0.48163414001464844,0.9261889457702637
1683915288820844300,10.00884423828125,-0.4363185167312622,1.1205201148986816,0.9668810367584229
1683915288830885400,10.018885498046876,0.005748867988586426,1.6658267974853516,0.581467866897583
1683915288840926200,10.02892626953125,0.8251198530197144,2.0674123764038086,-0.0351715087890625
1683915288850967000,10.038967041015624,1.346235990524292,2.2710156440734863,-0.4583759307861328
1683915288861008100,10.049008056640625,1.627835988998413,2.2958984375,-0.8660306930541992
1683915288871049000,10.059049072265625,1.8089635372161865,2.212042808532715,-1.1994714736938477
1683915288881090000,10.069090087890626,2.0116374492645264,2.0464959144592285,-1.5606486797332764
1683915288891131000,10.079130859375,2.2808797359466553,1.8386802673339844,-1.8464032411575317
1683915288901171700,10.089171630859376,2.445291519165039,1.526841163635254,-2.1669270992279053
1683915288911212800,10.099212890625,2.4573233127593994,1.2092514038085938,-2.484093189239502
1683915288921253600,10.109253662109374,2.409557342529297,0.9152932167053223,-2.800420045852661
1683915288931294500,10.11929443359375,2.2786099910736084,0.6224594116210938,-3.0027852058410645
1683915288941335600,10.12933544921875,2.093994379043579,0.3424091339111328,-2.920764446258545
1683915288951376400,10.13937646484375,1.84370756149292,0.07514572143554688,-2.615819215774536
1683915288961417200,10.149417236328125,1.4684892892837524,-0.03567218780517578,-2.240243673324585
1683915288971458300,10.159458251953126,0.9595532417297363,-0.08724021911621094,-1.8427777290344238
1683915288981499100,10.1694990234375,0.2384631633758545,0.006300926208496094,-1.6995468139648438
1683915288991540000,10.1795400390625,-0.47866225242614746,0.19735431671142578,-1.6973713636398315
1683915289001581000,10.1895810546875,-0.7614108324050903,0.3813199996948242,-1.5834836959838867
1683915289011622000,10.199621826171875,-1.1568986177444458,0.43883419036865234,-1.3524682521820068
1683915289021663000,10.2096630859375,-1.9758859872817993,0.2519245147705078,-1.1013610363006592
1683915289031703800,10.219703857421875,-2.686403751373291,-0.13831520080566406,-0.38062548637390137
1683915289041744600,10.22974462890625,-3.139394521713257,-0.7801856994628906,0.9546482563018799
1683915289051785700,10.23978564453125,-3.4859280586242676,-1.2933769226074219,1.842825174331665
1683915289061826600,10.24982666015625,-4.278034687042236,-1.5177040100097656,2.533153772354126
1683915289071867400,10.259867431640625,-5.223409652709961,-1.7249460220336914,3.2431883811950684
1683915289081908500,10.269908447265625,-4.770276069641113,-1.7363157272338867,3.1965675354003906
1683915289091949300,10.27994921875,-2.7930853366851807,-1.6258211135864258,2.2262048721313477
1683915289101990100,10.289990234375,-0.4615684747695923,-1.444493293762207,0.84317946434021
1683915289112031200,10.30003125,1.9416621923446655,-0.8983230590820312,-0.7183024883270264
1683915289122072000,10.310072021484375,3.81573486328125,-0.16275787353515625,-1.955909252166748
1683915289132113000,10.32011279296875,4.768669128417969,0.2260761260986328,-2.5476436614990234
1683915289142154000,10.330154052734375,4.8588409423828125,0.09358596801757812,-2.524077892303467
1683915289152194800,10.34019482421875,4.812284469604492,-0.24335384368896484,-2.3962152004241943
1683915289162236000,10.35023583984375,4.632793426513672,-0.7025127410888672,-2.327549457550049
1683915289172276700,10.36027685546875,4.368192672729492,-0.9109935760498047,-2.3192739486694336
1683915289182317600,10.370317626953126,3.952393054962158,-1.0964851379394531,-2.3525493144989014
1683915289192358700,10.380358642578125,3.5654919147491455,-1.4976434707641602,-2.344222068786621
1683915289202399500,10.3903994140625,3.450282335281372,-2.149087905883789,-3.0896172523498535
1683915289212440300,10.4004404296875,3.1571736335754395,-2.843865394592285,-3.4799633026123047
1683915289222481400,10.4104814453125,2.786320686340332,-3.3257646560668945,-2.5111777782440186
1683915289232522200,10.420522216796876,2.3743772506713867,-3.343478202819824,-2.1220831871032715
1683915289242563000,10.43056298828125,1.9188703298568726,-2.6016530990600586,-2.4317288398742676
1683915289252604200,10.440604248046874,1.5395208597183228,-0.8765697479248047,-2.4928030967712402
1683915289262645000,10.45064501953125,1.0255483388900757,0.5095100402832031,-1.9083030223846436
1683915289272685800,10.460685791015624,0.3794613480567932,1.3512630462646484,-0.9218639135360718
1683915289282727000,10.470726806640625,0.1337794065475464,1.7512307167053223,-0.352276086807251
1683915289292767700,10.480767822265625,0.39259886741638184,1.885941505432129,-0.16223526000976562
1683915289302808600,10.49080859375,0.7494723200798035,1.9478387832641602,0.030025482177734375
1683915289312849700,10.500849609375,1.1200025081634521,1.7852540016174316,0.26709747314453125
1683915289322890500,10.510890380859376,1.352605938911438,1.495107650756836,0.5988695621490479
1683915289332931600,10.520931640625,1.5080463886260986,1.1142044067382812,1.0365474224090576
1683915289342972400,10.530972412109374,1.5386719703674316,0.6911334991455078,1.4712729454040527
1683915289353013200,10.54101318359375,1.4293920993804932,0.3004913330078125,1.8914189338684082
1683915289363054300,10.551054443359375,1.132106900215149,-0.08838939666748047,2.337850570678711
1683915289373095200,10.56109521484375,0.5221454501152039,-0.3843088150024414,2.8117172718048096
1683915289383136000,10.571135986328125,-0.3104073107242584,-0.6134176254272461,3.100635051727295
1683915289393177000,10.581177001953124,-1.2322813272476196,-0.7280330657958984,3.1332805156707764
1683915289403218000,10.591218017578125,-2.3006532192230225,-0.6999616622924805,3.0233335494995117
1683915289413259000,10.601259033203124,-3.4132769107818604,-0.5584259033203125,2.853139877319336
1683915289423299800,10.6112998046875,-3.617338180541992,-0.3130607604980469,2.546379566192627
1683915289433340700,10.621340576171875,-2.3285880088806152,-0.0694875717163086,2.33939528465271
1683915289443381800,10.6313818359375,-0.8287768363952637,0.03066539764404297,2.197524070739746
1683915289453422600,10.641422607421875,0.3255934715270996,0.10706138610839844,2.0320780277252197
1683915289463463400,10.65146337890625,1.1337701082229614,0.2605247497558594,1.8479371070861816
1683915289473504500,10.66150439453125,1.7443771362304688,0.3889894485473633,1.507413387298584
1683915289483545300,10.67154541015625,2.3048107624053955,0.5408906936645508,1.2234163284301758
1683915289493586200,10.681586181640625,2.6629512310028076,0.6351747512817383,1.0085525512695312
1683915289503627300,10.691627197265625,2.8798413276672363,0.6290149688720703,0.8363127708435059
1683915289513668000,10.701668212890626,2.8884952068328857,0.5109157562255859,0.5923128128051758
1683915289523709200,10.711709228515625,2.9007506370544434,0.4199514389038086,0.3632192611694336
1683915289533750000,10.72175,2.861025810241699,0.34445953369140625,0.08293008804321289
1683915289543790800,10.731790771484375,2.7304537296295166,0.2966127395629883,-0.21156883239746094
1683915289553832000,10.74183203125,2.5815060138702393,0.22391223907470703,-0.4044778347015381
1683915289563872800,10.751872802734376,2.2718913555145264,0.11182212829589844,-0.5005745887756348
1683915289573913600,10.76191357421875,1.744268774986267,-0.0663290023803711,-0.4791254997253418
1683915289583954700,10.77195458984375,0.9276139736175537,-0.2557106018066406,-0.47649574279785156
1683915289593995500,10.78199560546875,-0.0016334056854248047,-0.3632373809814453,-0.30202674865722656
1683915289604036400,10.792036376953124,-0.7961774468421936,-0.3938894271850586,-0.06346392631530762
1683915289614077400,10.802077392578125,-1.259873628616333,-0.3430919647216797,0.24228334426879883
1683915289624118300,10.8121181640625,-1.3174238204956055,-0.3353424072265625,0.4703993797302246
1683915289634159400,10.822159423828126,-0.9821590781211853,-0.3277587890625,0.6627471446990967
1683915289644200200,10.8322001953125,-0.5070968270301819,-0.3395576477050781,0.6612637042999268
1683915289654241000,10.842240966796876,-0.18469810485839844,-0.3948831558227539,0.6587684154510498
1683915289664282000,10.8522822265625,0.09950017929077148,-0.4242982864379883,0.4920318126678467
1683915289674323000,10.862322998046874,0.36377543210983276,-0.3750314712524414,0.2630620002746582
1683915289684364000,10.872364013671875,0.5688108205795288,-0.30913639068603516,0.046648502349853516
1683915289694404900,10.88240478515625,0.742806613445282,-0.23122024536132812,-0.18306565284729004
1683915289704445700,10.89244580078125,0.921661376953125,-0.15787410736083984,-0.3585793972015381
1683915289714486800,10.90248681640625,1.0872553586959839,-0.0650491714477539,-0.4887208938598633
1683915289724527600,10.912527587890626,1.249170184135437,0.03534984588623047,-0.5657262802124023
1683915289734568400,10.922568359375,1.3666764497756958,0.14099597930908203,-0.5460977554321289
1683915289744609500,10.932609619140624,1.4115986824035645,0.24709701538085938,-0.49434638023376465
1683915289754650400,10.942650390625,1.3926968574523926,0.3154935836791992,-0.3983314037322998
1683915289764691200,10.952691162109375,1.3013583421707153,0.3559274673461914,-0.286604642868042
1683915289774732300,10.962732177734376,1.1276346445083618,0.3492422103881836,-0.08107829093933105
1683915289784773000,10.972773193359375,0.8955498933792114,0.2976722717285156,0.14746665954589844
1683915289794814000,10.98281396484375,0.7410756945610046,0.2514162063598633,0.33635807037353516
1683915289804855000,10.99285498046875,0.6515716314315796,0.26780223846435547,0.49983644485473633
1683915289814895900,11.002895751953124,0.7024861574172974,0.31806182861328125,0.7286691665649414
1683915289824937000,11.01293701171875,0.8988516926765442,0.3997373580932617,0.9558210372924805
1683915289834977800,11.022977783203125,1.0745030641555786,0.39800453186035156,1.13810133934021
1683915289845018600,11.0330185546875,1.2512708902359009,0.4371786117553711,1.356929063796997
1683915289855059700,11.043059814453125,1.3597166538238525,0.47165679931640625,1.540501356124878
1683915289865100500,11.0531005859375,1.3836318254470825,0.5850419998168945,1.6128299236297607
1683915289875141600,11.0631416015625,1.3294662237167358,0.667180061340332,1.7315526008605957
1683915289885182500,11.073182373046874,1.2333780527114868,0.737116813659668,1.8124017715454102
1683915289895223300,11.083223388671875,1.0727561712265015,0.7756681442260742,1.8405423164367676
1683915289905264400,11.093264404296875,0.9021169543266296,0.7159442901611328,1.7867681980133057
1683915289915305200,11.10330517578125,0.8044542074203491,0.6585168838500977,1.6916768550872803
1683915289925346000,11.113345947265625,0.7594078779220581,0.5604753494262695,1.572190761566162
1683915289935387100,11.12338720703125,0.7934882640838623,0.47696685791015625,1.3953537940979004
1683915289945428000,11.133427978515625,0.8514813184738159,0.40085601806640625,1.2475910186767578
1683915289955468800,11.14346875,0.9587390422821045,0.38465309143066406,1.1241645812988281
1683915289965510000,11.153510009765625,1.0161081552505493,0.4114341735839844,1.017801284790039
1683915289975550700,11.16355078125,1.0205448865890503,0.3735313415527344,0.942493200302124
1683915289985591800,11.173591796875,0.9625288844108582,0.32124996185302734,0.8718738555908203
1683915289995632600,11.183632568359375,0.7931097745895386,0.23320770263671875,0.8729658126831055
1683915290005673500,11.193673583984374,0.5288794040679932,0.08085060119628906,0.8760983943939209
1683915290015714600,11.203714599609375,0.20331895351409912,-0.04966926574707031,0.8333361148834229
1683915290025755400,11.21375537109375,-0.11298693716526031,-0.1392993927001953,0.7710213661193848
1683915290035796500,11.22379638671875,-0.4002389907836914,-0.19310474395751953,0.7433617115020752
1683915290045837300,11.23383740234375,-0.6243060827255249,-0.23777198791503906,0.7441577911376953
1683915290055878100,11.243878173828126,-0.7415948510169983,-0.2449636459350586,0.7077462673187256
1683915290065919200,11.253919189453125,-0.7698686122894287,-0.19818782806396484,0.7223734855651855
1683915290075960000,11.2639599609375,-0.7195568084716797,-0.14297008514404297,0.8387422561645508
1683915290086001000,11.2740009765625,-0.6044180393218994,-0.05315399169921875,0.9880776405334473
1683915290096042000,11.2840419921875,-0.4039498567581177,0.025445938110351562,1.2249460220336914
1683915290106082800,11.294082763671875,-0.11066034436225891,0.16176891326904297,1.4723780155181885
1683915290116123600,11.30412353515625,0.15767857432365417,0.2956838607788086,1.6797990798950195
1683915290126164700,11.314164794921876,0.48305743932724,0.42463016510009766,1.8466410636901855
1683915290136205600,11.32420556640625,0.7690287828445435,0.48941707611083984,1.8715834617614746
1683915290146246700,11.33424658203125,0.8023415803909302,0.4694681167602539,1.7562966346740723
1683915290156287500,11.34428759765625,0.2505437135696411,0.4349479675292969,1.6102569103240967
1683915290166328300,11.354328369140624,-0.4695102572441101,0.18068695068359375,1.4565258026123047
1683915290176369400,11.364369384765626,-0.9352065324783325,-0.1360616683959961,1.4915800094604492
1683915290186410200,11.37441015625,-1.1844799518585205,-0.4305696487426758,1.5278162956237793
1683915290196451000,11.384451171875,-1.3793553113937378,-0.7326345443725586,1.4367632865905762
1683915290206492200,11.3944921875,-1.4039746522903442,-1.0805435180664062,1.1025571823120117
1683915290216533000,11.404532958984374,-1.1730211973190308,-1.4419574737548828,0.6274619102478027
1683915290226574000,11.414573974609375,-0.9081971645355225,-1.7457380294799805,0.01319265365600586
1683915290236615000,11.424614990234375,-0.43422365188598633,-1.9357566833496094,-0.35008692741394043
1683915290246655700,11.43465576171875,0.03279757499694824,-1.863102912902832,-0.6947609186172485
1683915290256696800,11.44469677734375,0.46934235095977783,-1.5800752639770508,-0.9790880680084229
1683915290266737700,11.454737548828126,0.8829684257507324,-1.3516569137573242,-1.1825830936431885
1683915290276778500,11.464778564453125,1.1928610801696777,-1.0206031799316406,-1.0820616483688354
1683915290286819600,11.474819580078124,1.4328192472457886,-0.5837469100952148,-0.8359211683273315
1683915290296860400,11.4848603515625,1.6551034450531006,-0.1350555419921875,-0.45799922943115234
1683915290306901500,11.494901611328125,1.9008469581604004,0.005620002746582031,0.15944838523864746
1683915290316942300,11.5049423828125,2.025099992752075,-0.010863304138183594,0.8402199745178223
1683915290326983200,11.514983154296875,1.8775190114974976,0.053730010986328125,1.3191850185394287
1683915290337024300,11.525024169921876,1.5929903984069824,0.2770214080810547,1.5142431259155273
1683915290347065000,11.535065185546875,1.2208592891693115,0.567357063293457,1.582956075668335
1683915290357106000,11.54510595703125,0.9653998613357544,0.7479496002197266,1.4845023155212402
1683915290367147000,11.55514697265625,0.9783279895782471,0.7090826034545898,1.3975048065185547
1683915290377187800,11.565187744140625,1.2996288537979126,0.39392566680908203,1.1050209999084473
1683915290387229000,11.57522900390625,1.8923466205596924,-0.06242561340332031,0.6391093730926514
1683915290397269800,11.585269775390625,2.698624849319458,-0.3739166259765625,-0.005196809768676758
1683915290407310600,11.595310546875,3.2594618797302246,-0.32897377014160156,-0.7582907676696777
1683915290417351700,11.6053515625,3.6143085956573486,-0.051300048828125,-1.4922999143600464
1683915290427392500,11.615392578125,3.829591751098633,0.3325967788696289,-1.8642549514770508
1683915290437433600,11.62543359375,3.707873821258545,0.5994758605957031,-2.0781054496765137
1683915290447474400,11.635474365234375,3.084587574005127,0.7856407165527344,-2.0801162719726562
1683915290457515300,11.645515380859376,2.6308469772338867,0.9179477691650391,-1.8798012733459473
1683915290467556400,11.655556396484375,1.610657811164856,0.8073568344116211,-1.2157769203186035
1683915290477597200,11.66559716796875,0.03787398338317871,0.6501941680908203,-0.8905744552612305
1683915290487638000,11.675637939453125,-1.3361607789993286,0.3327169418334961,-0.4954376220703125
1683915290497679000,11.68567919921875,-2.0575473308563232,-0.008829116821289062,-0.2026960849761963
1683915290507720000,11.695719970703125,-1.5816596746444702,-0.23194122314453125,-0.31837916374206543
1683915290517761000,11.705760986328125,-0.9945162534713745,-0.5494365692138672,-0.3102257251739502
1683915290527801900,11.7158017578125,-0.9718579053878784,-0.9756755828857422,-0.07068610191345215
1683915290537842700,11.7258427734375,-1.200278401374817,-1.2282438278198242,-0.07567214965820312
1683915290547883800,11.7358837890625,-1.359034776687622,-1.341817855834961,-0.3128628730773926
1683915290557924600,11.745924560546875,-1.5315839052200317,-1.2902441024780273,-0.8067057132720947
1683915290567965700,11.755965576171874,-1.430241584777832,-1.0437192916870117,-1.469764232635498
1683915290578006500,11.766006591796875,-1.0782476663589478,-0.8652830123901367,-1.9253294467926025
1683915290588047400,11.77604736328125,-0.6736674308776855,-0.7139406204223633,-2.225220203399658
1683915290598088400,11.78608837890625,-0.3020172119140625,-0.5700397491455078,-2.51387357711792
1683915290608129300,11.79612939453125,-0.014127850532531738,-0.4765138626098633,-2.6304407119750977
1683915290618170000,11.806170166015624,0.1742156744003296,-0.30677318572998047,-2.612349033355713
1683915290628211200,11.816211181640625,0.23365998268127441,-0.1009073257446289,-2.6045775413513184
1683915290638252000,11.826251953125,0.3417491912841797,0.08225727081298828,-2.3659892082214355
1683915290648293000,11.836293212890626,0.289719820022583,0.17644500732421875,-2.073333740234375
1683915290658334000,11.846333984375,0.21886718273162842,0.22227096557617188,-1.6987624168395996
1683915290668374800,11.856374755859376,0.3642634153366089,0.13532733917236328,-1.1880600452423096
1683915290678416000,11.866415771484375,0.3698704242706299,0.2283153533935547,-0.747800350189209
1683915290688456700,11.876456787109374,0.3070552349090576,0.3169431686401367,-0.45079684257507324
1683915290698497500,11.88649755859375,0.22269797325134277,0.3439779281616211,-0.19080471992492676
1683915290708538600,11.89653857421875,0.16541790962219238,0.3593435287475586,0.1260972023010254
1683915290718579500,11.906579345703125,0.29053592681884766,0.35796260833740234,0.277008056640625
1683915290728620500,11.91662060546875,0.41151976585388184,0.3182659149169922,0.45081424713134766
1683915290738661400,11.926661376953126,0.5165884494781494,0.2882108688354492,0.5474190711975098
1683915290748702500,11.936702392578125,0.6523782014846802,0.20342063903808594,0.6180825233459473
1683915290758743300,11.946743408203124,0.7169941663742065,0.1381673812866211,0.7519187927246094
1683915290768784100,11.9567841796875,0.764946699142456,0.12621116638183594,0.7510080337524414
1683915290778825200,11.9668251953125,0.7267930507659912,0.19376277923583984,0.6825690269470215
1683915290788866000,11.976865966796876,0.5789885520935059,0.31420135498046875,0.47963476181030273
1683915290798907000,11.986906982421875,0.44434070587158203,0.4563016891479492,0.1309189796447754
1683915290808948000,11.996947998046876,0.49105405807495117,0.5821018218994141,-0.2544825077056885
1683915290818988800,12.00698876953125,0.5592137575149536,0.6492295265197754,-0.6438908576965332
1683915290829030000,12.01702978515625,0.4768345355987549,0.7010259628295898,-0.9388823509216309
1683915290839070700,12.02707080078125,0.256453275680542,0.6583437919616699,-1.1426334381103516
1683915290849111600,12.037111572265625,0.053658485412597656,0.4924888610839844,-1.353712558746338
1683915290859152600,12.047152587890626,-0.16349387168884277,0.20357131958007812,-1.4439690113067627
1683915290869193500,12.057193359375,-0.269824743270874,-0.019637107849121094,-1.4603219032287598
1683915290879234300,12.067234375,-0.14217352867126465,-0.09788227081298828,-1.4371817111968994
1683915290889275400,12.077275390625,0.10010528564453125,0.0196533203125,-1.3706514835357666
1683915290899316200,12.087316162109374,0.34622859954833984,0.2235260009765625,-1.289921522140503
1683915290909357300,12.097357421875,0.6277873516082764,0.5287904739379883,-1.2160184383392334
1683915290919398100,12.107398193359375,0.8960680961608887,0.8119573593139648,-1.1715068817138672
1683915290929439200,12.117439208984376,1.1008543968200684,0.9324455261230469,-1.0698082447052002
1683915290939480000,12.12747998046875,1.1956380605697632,0.8946166038513184,-0.9023313522338867
1683915290949521000,12.13752099609375,1.134631872177124,0.7285089492797852,-0.7639994621276855
1683915290959562000,12.14756201171875,0.8944928646087646,0.5165987014770508,-0.6630203723907471
1683915290969602800,12.157602783203124,0.5217938423156738,0.31044960021972656,-0.5969483852386475
1683915290979644000,12.167643798828125,0.13658428192138672,0.14294052124023438,-0.5935819149017334
1683915290989684700,12.177684814453125,-0.17592215538024902,0.07594108581542969,-0.4608497619628906
1683915290999725600,12.1877255859375,-0.32703280448913574,0.1191415786743164,-0.2814030647277832
1683915291009766700,12.1977666015625,-0.28892970085144043,0.1485271453857422,0.005112886428833008
1683915291019807500,12.207807373046874,-0.1423661708831787,0.22446727752685547,0.348865270614624
1683915291029848300,12.217848388671875,0.14333152770996094,0.3288230895996094,0.6242480278015137
1683915291039889400,12.227889404296874,0.5680834054946899,0.15181922912597656,0.7175695896148682
1683915291049930200,12.23793017578125,1.2867889404296875,-0.2560281753540039,0.9155697822570801
1683915291059971300,12.247971435546875,1.41306734085083,-0.8621597290039062,0.9977669715881348
1683915291070012200,12.25801220703125,0.6432067155838013,-1.710519790649414,0.8524386882781982
1683915291080053200,12.26805322265625,-0.35096073150634766,-2.4907913208007812,0.2928297519683838
1683915291090094000,12.278093994140624,-1.330049991607666,-3.219204902648926,-0.15709638595581055
1683915291100135000,12.288135009765625,-3.034895420074463,-4.230180740356445,0.034696102142333984
1683915291110176000,12.298176025390624,-5.666232585906982,-5.212029457092285,0.777764081954956
1683915291120216800,12.308216796875,-5.287076950073242,-5.316084861755371,1.6237375736236572
1683915291130257700,12.318257568359375,-2.5811567306518555,-4.057214736938477,1.8743007183074951
1683915291140298800,12.328298828125,-0.21151065826416016,-2.211620330810547,2.005917549133301
1683915291150339600,12.338339599609375,1.250115156173706,-0.6112422943115234,1.726423978805542
1683915291160380700,12.348380615234374,2.087839126586914,0.17455291748046875,1.0007030963897705
1683915291170421500,12.35842138671875,2.510383129119873,0.2263965606689453,0.08987212181091309
1683915291180462300,12.36846240234375,2.719906806945801,0.12300491333007812,-0.8100841045379639
1683915291190503400,12.37850341796875,2.702472686767578,-0.026073455810546875,-1.4521770477294922
1683915291200544300,12.388544189453125,2.5378527641296387,0.011652946472167969,-1.977426290512085
1683915291210585300,12.39858544921875,2.2323505878448486,0.23316478729248047,-2.44539475440979
1683915291220626200,12.408626220703125,1.7498862743377686,0.41579151153564453,-2.7931251525878906
1683915291230667300,12.418667236328124,1.1441051959991455,0.5747489929199219,-2.988499879837036
1683915291240708000,12.4287080078125,0.4832475185394287,0.6839351654052734,-3.1202566623687744
1683915291250749000,12.4387490234375,-0.12671947479248047,0.8084564208984375,-3.370089054107666
1683915291260790000,12.4487900390625,-0.4073268175125122,0.7767066955566406,-3.422665596008301
1683915291270830800,12.458830810546875,-0.2195061445236206,0.5303058624267578,-2.9905431270599365
1683915291280871700,12.46887158203125,0.48481208086013794,0.18181610107421875,-2.0913565158843994
1683915291290912800,12.478912841796875,1.2418813705444336,-0.10777759552001953,-1.25737726688385
1683915291300953600,12.48895361328125,1.9713680744171143,-0.3417625427246094,-0.4636974334716797
1683915291310994700,12.49899462890625,2.56378173828125,-0.4275979995727539,0.18761348724365234
1683915291321035500,12.509035400390625,3.0295984745025635,-0.3350372314453125,0.5853033065795898
1683915291331076400,12.519076416015626,3.334184169769287,-0.29146480560302734,0.6010425090789795
1683915291341117400,12.529117431640625,3.4291248321533203,-0.3318653106689453,0.43122076988220215
1683915291351158300,12.539158203125,3.4385805130004883,-0.29456520080566406,0.1329970359802246
1683915291361199400,12.549199462890625,3.3856682777404785,-0.2214488983154297,-0.1311206817626953
1683915291371240200,12.559240234375,3.2000584602355957,-0.07364845275878906,-0.38564634323120117
1683915291381281000,12.569281005859375,2.84610915184021,-0.008643150329589844,-0.5717267990112305
1683915291391322000,12.579322021484375,2.297560691833496,-0.004630088806152344,-0.6968710422515869
1683915291401363000,12.589363037109376,1.5915019512176514,-0.031037330627441406,-0.6797436475753784
1683915291411404000,12.599404052734375,0.702808678150177,-0.1222219467163086,-0.6887176036834717
1683915291421444900,12.60944482421875,-0.601136326789856,-0.2885589599609375,-0.6831846237182617
1683915291431485700,12.619485595703125,-1.9385780096054077,-0.36186885833740234,-0.4278271198272705
1683915291441526800,12.62952685546875,-3.072779655456543,-0.28504180908203125,0.16990089416503906
1683915291451567600,12.639567626953125,-3.7311744689941406,0.10373210906982422,0.9656131267547607
