time,seconds_elapsed,z,y,x
1684114855214497300,0.046497314453125,0,0,0
1684114855224537300,0.056537353515625,0.12391185760498047,0.37737035751342773,0.0015530586242675781
1684114855234577700,0.06657763671875,0.41759777069091797,0.6515971422195435,-0.13858556747436523
1684114855244617700,0.07661767578125,0.40528011322021484,0.9068533182144165,-0.904224157333374
1684114855254658000,0.086657958984375,0.4270515441894531,0.5942432880401611,-1.4370718002319336
1684114855264698000,0.096697998046875,-0.32085609436035156,0.14088833332061768,-3.2788097858428955
1684114855274738400,0.106738525390625,-3.5773963928222656,-1.9130192995071411,-5.434157371520996
1684114855284778500,0.116778564453125,0.6204242706298828,-1.2350735664367676,-3.025726079940796
1684114855294818800,0.12681884765625,2.462390899658203,-1.1325652599334717,-1.7664884328842163
1684114855304859000,0.13685888671875,2.847508430480957,-0.5272524356842041,-2.071272134780884
1684114855314899200,0.146899169921875,1.4876604080200195,-2.479218006134033,0.06332278251647949
1684114855324939300,0.156939208984375,-1.2663474082946777,-0.9277911186218262,-1.0941379070281982
1684114855334979600,0.1669794921875,-2.8682031631469727,-2.053668975830078,2.225135087966919
1684114855345019600,0.17701953125,-3.329103946685791,-1.636315107345581,5.680665493011475
1684114855355060000,0.18706005859375,-1.5805306434631348,-1.5188615322113037,3.3016574382781982
1684114855365100000,0.19710009765625,-0.0076122283935546875,-1.2090537548065186,0.695554256439209
1684114855375140400,0.207140380859375,0.28487682342529297,-1.0199320316314697,-0.45345020294189453
1684114855385180700,0.2171806640625,-0.42492103576660156,-1.5752437114715576,1.2169008255004883
1684114855395220700,0.227220703125,-0.9250655174255371,-1.969642162322998,2.0458598136901855
1684114855405260800,0.2372607421875,-0.5155429840087891,-1.3051879405975342,1.051377773284912
1684114855415301000,0.247301025390625,-0.36594057083129883,-0.07112717628479004,-0.08763504028320312
1684114855425341400,0.257341552734375,-0.9680728912353516,-0.6936237812042236,1.347994327545166
1684114855435381500,0.267381591796875,-0.8914799690246582,-0.666292667388916,0.5960350036621094
1684114855445421800,0.277421875,-0.5411920547485352,-0.3075294494628906,-0.08133316040039062
1684114855455462000,0.2874619140625,-0.26114702224731445,0.014968156814575195,-0.08720970153808594
1684114855465502200,0.297502197265625,0.04817676544189453,0.3814406394958496,-0.023933887481689453
1684114855475542300,0.307542236328125,0.23145484924316406,0.6871058940887451,0.15536022186279297
1684114855485582600,0.31758251953125,0.1860504150390625,0.6861112117767334,0.24315786361694336
1684114855495622700,0.32762255859375,0.37551116943359375,0.8246161937713623,0.1560201644897461
1684114855505663000,0.3376630859375,0.7515773773193359,1.1038706302642822,0.12618064880371094
1684114855515703000,0.347703125,0.8038301467895508,1.1142226457595825,0.04775857925415039
1684114855525743400,0.357743408203125,0.29888153076171875,0.7706509828567505,0.4833955764770508
1684114855535783400,0.367783447265625,0.33690452575683594,1.2211196422576904,-0.278623104095459
1684114855545823700,0.37782373046875,0.40700435638427734,1.1011757850646973,-0.2098832130432129
1684114855555863800,0.38786376953125,0.2331233024597168,0.6299777030944824,0.42929792404174805
1684114855565904100,0.397904052734375,0.12613677978515625,0.4604008197784424,-0.24130582809448242
1684114855575944200,0.407944091796875,-0.1322183609008789,-0.5689945220947266,0.06928777694702148
1684114855585984500,0.417984619140625,-0.20824575424194336,0.6931906938552856,-0.6015448570251465
1684114855596024800,0.42802490234375,-0.30980396270751953,-0.4864511489868164,0.2250838279724121
1684114855606065000,0.43806494140625,-0.3973832130432129,0.06977343559265137,0.20524120330810547
1684114855616105000,0.44810498046875,-0.8479228019714355,0.33423733711242676,0.37107181549072266
1684114855626145300,0.458145263671875,-0.3728499412536621,0.8200249671936035,-1.3565855026245117
1684114855636185600,0.468185546875,-0.8602004051208496,-0.6222169399261475,-1.2908978462219238
1684114855646225700,0.4782255859375,-0.27493953704833984,0.2023029327392578,0.0418086051940918
1684114855656266000,0.488265869140625,0.43622398376464844,0.1849517822265625,-0.08939647674560547
1684114855666306000,0.49830615234375,0.06368589401245117,0.05390429496765137,-0.3741488456726074
1684114855676346400,0.508346435546875,-0.12976884841918945,0.15861201286315918,-0.13700485229492188
1684114855686386400,0.518386474609375,-0.20436859130859375,0.14100384712219238,-0.03321123123168945
1684114855696426800,0.5284267578125,0.0370945930480957,1.1820021867752075,-0.4446754455566406
1684114855706466800,0.538466796875,0.08221435546875,0.20131301879882812,-0.3649873733520508
1684114855716507100,0.548507080078125,0.6355981826782227,-0.35555219650268555,-0.47854042053222656
1684114855726547200,0.558547119140625,0.6915907859802246,0.12113428115844727,-0.47164487838745117
1684114855736587500,0.56858740234375,0.8849244117736816,0.21820569038391113,-0.11203432083129883
1684114855746627600,0.578627685546875,0.9403338432312012,0.47908782958984375,-0.06173849105834961
1684114855756668000,0.58866796875,0.6560196876525879,0.6259698867797852,0.056372642517089844
1684114855766708200,0.598708251953125,0.45290613174438477,0.6738467216491699,0.13835573196411133
1684114855776748300,0.608748291015625,0.34339284896850586,0.4683372974395752,0.5561838150024414
1684114855786788600,0.61878857421875,0.1232304573059082,0.44661903381347656,0.7200307846069336
1684114855796828700,0.62882861328125,-0.2753028869628906,0.34783029556274414,0.8956546783447266
1684114855806869000,0.638868896484375,-0.5012946128845215,0.2383432388305664,0.691920280456543
1684114855816909000,0.648908935546875,-0.6622416973114014,0.49960875511169434,-0.16202163696289062
1684114855826949400,0.658949462890625,-0.6336071491241455,0.43367505073547363,-0.752197265625
1684114855836989400,0.668989501953125,-0.5147068500518799,0.4581780433654785,-0.7290792465209961
1684114855847029800,0.67902978515625,-0.5349881649017334,0.7893927097320557,-0.9208192825317383
1684114855857069800,0.68906982421875,-0.533294677734375,1.245705485343933,-1.1736125946044922
1684114855867110100,0.699110107421875,-0.6279547214508057,0.9440608024597168,-0.7311363220214844
1684114855877150200,0.709150146484375,-0.3430137634277344,0.8826010227203369,-1.0211400985717773
1684114855887190500,0.7191904296875,0.03671145439147949,0.631964921951294,-1.0657610893249512
1684114855897230600,0.729230712890625,0.2911410331726074,0.8810491561889648,-1.7185306549072266
1684114855907271000,0.73927099609375,0.5685691833496094,0.40490102767944336,-1.5278139114379883
1684114855917311200,0.749311279296875,0.5883398056030273,0.17445659637451172,-1.1887545585632324
1684114855927351300,0.759351318359375,0.3661479949951172,0.24759697914123535,-0.4282093048095703
1684114855937391600,0.7693916015625,-0.07305908203125,0.3912529945373535,-0.043781280517578125
1684114855947431700,0.779431640625,-0.8830063343048096,0.5272336006164551,0.3297405242919922
1684114855957472000,0.789471923828125,-1.8047616481781006,0.8825564384460449,0.7681560516357422
1684114855967512000,0.799511962890625,-2.377674102783203,1.4235918521881104,0.4163684844970703
1684114855977552400,0.809552490234375,-2.6215035915374756,1.107619285583496,0.5888242721557617
1684114855987592400,0.819592529296875,-1.3104746341705322,1.0178954601287842,0.554290771484375
1684114855997632800,0.8296328125,-0.02821105718612671,0.5570862293243408,0.5893344879150391
1684114856007672800,0.8396728515625,0.5625748038291931,-0.2673969268798828,1.216029167175293
1684114856017713200,0.849713134765625,0.6859099268913269,-0.15762662887573242,1.8508262634277344
1684114856027753200,0.859753173828125,0.10543173551559448,-0.11548233032226562,2.7434873580932617
1684114856037793500,0.86979345703125,-0.5705831050872803,0.07164525985717773,3.239659309387207
1684114856047833600,0.87983349609375,-0.8446441888809204,-0.022521018981933594,3.354435920715332
1684114856057874000,0.8898740234375,-0.8899710178375244,-0.08563375473022461,2.966398239135742
1684114856067914000,0.8999140625,-0.9026423692703247,-0.24812555313110352,2.101350784301758
1684114856077954300,0.909954345703125,-0.7744022607803345,-0.35749197006225586,1.0315189361572266
1684114856087994600,0.91999462890625,-0.6388603448867798,-0.3934459686279297,0.2203369140625
1684114856098034700,0.93003466796875,-0.5030478835105896,-0.542597770690918,-0.18040943145751953
1684114856108075000,0.940074951171875,-0.5363672375679016,-0.366182804107666,-0.3671855926513672
1684114856118115000,0.950114990234375,-0.6205083727836609,-0.303006649017334,-0.47812938690185547
1684114856128155400,0.9601552734375,-0.5211844444274902,-0.05042123794555664,-0.44556427001953125
1684114856138195500,0.970195556640625,-0.30697283148765564,-0.2852506637573242,-0.19547271728515625
1684114856148235800,0.98023583984375,-0.23374105989933014,-0.6376433372497559,0.3446664810180664
1684114856158275800,0.99027587890625,-0.3377586603164673,-0.4589247703552246,0.6749930381774902
1684114856168316200,1.000316162109375,-0.6746727228164673,0.04513406753540039,0.44674253463745117
1684114856178356200,1.010356201171875,-0.5417997241020203,0.15926313400268555,0.1410536766052246
1684114856188396500,1.020396484375,-0.2233203649520874,0.07815217971801758,-0.0536656379699707
1684114856198436900,1.030436767578125,-0.10482986271381378,-0.17680120468139648,-0.04296731948852539
1684114856208477000,1.040476806640625,0.1335371732711792,0.04268455505371094,-0.08759784698486328
1684114856218517200,1.050517333984375,0.05261796712875366,0.22783708572387695,0.17880535125732422
1684114856228557300,1.060557373046875,0.2687206268310547,0.5080060958862305,-0.06097602844238281
1684114856238597600,1.07059765625,0.26606854796409607,0.12731695175170898,-0.03748273849487305
1684114856248637700,1.0806376953125,0.35528361797332764,-0.17708444595336914,0.1752610206604004
1684114856258678000,1.090677978515625,0.7848905324935913,-0.709075927734375,1.4391732215881348
1684114856268718000,1.100718017578125,0.9967756271362305,-0.7859292030334473,2.538538932800293
1684114856278758400,1.11075830078125,0.03274264931678772,1.1720833778381348,0.7042198181152344
1684114856288798500,1.120798583984375,-0.5744092464447021,0.8588838577270508,0.4874458312988281
1684114856298838800,1.1308388671875,-0.6281225085258484,1.0699958801269531,0.1095428466796875
1684114856308879000,1.140879150390625,-0.413597971200943,0.7621293067932129,-0.1704716682434082
1684114856318919200,1.150919189453125,-0.22518528997898102,0.5132298469543457,-0.6126546859741211
1684114856328959200,1.160959228515625,0.26614320278167725,0.448974609375,-0.7503008842468262
1684114856338999600,1.17099951171875,0.49973946809768677,0.550940990447998,-0.4744739532470703
1684114856349039900,1.181039794921875,0.4474082589149475,0.6447763442993164,-0.07023048400878906
1684114856359080000,1.191079833984375,0.31995558738708496,0.6591854095458984,0.21724891662597656
1684114856369120300,1.201120361328125,0.37300610542297363,0.833162784576416,0.5537753105163574
1684114856379160300,1.211160400390625,0.3713885247707367,0.7688846588134766,0.9054675102233887
1684114856389200600,1.22120068359375,-0.012238383293151855,0.7248187065124512,1.3407635688781738
1684114856399240700,1.23124072265625,-0.06634581089019775,0.9104824066162109,1.9135541915893555
1684114856409281000,1.241281005859375,-0.9433902502059937,0.2756075859069824,1.4424214363098145
1684114856419321000,1.251321044921875,-0.5710048675537109,0.3791642189025879,1.5939240455627441
1684114856429361400,1.261361328125,0.17501422762870789,0.07177066802978516,1.807429313659668
1684114856439401500,1.2714013671875,-0.0687292218208313,-0.20614385604858398,1.7241501808166504
1684114856449441800,1.28144189453125,0.16217875480651855,-0.03754711151123047,1.2772159576416016
1684114856459482000,1.291482177734375,-0.2261400818824768,-0.1715717315673828,1.301243782043457
1684114856469522200,1.301522216796875,-0.6211864352226257,-0.5457673072814941,1.0068449974060059
1684114856479562500,1.3115625,-0.030645310878753662,-0.45247602462768555,0.8369112014770508
1684114856489602600,1.3216025390625,0.2301362156867981,-0.8522496223449707,0.9852075576782227
1684114856499643000,1.331642822265625,0.49009644985198975,-1.0836830139160156,1.0278759002685547
1684114856509683000,1.341682861328125,0.666904866695404,-0.40773630142211914,0.8869037628173828
1684114856519723300,1.35172314453125,-0.05891871452331543,0.1335744857788086,0.9736099243164062
1684114856529763300,1.361763427734375,-0.5613916516304016,-0.9425740242004395,1.289851188659668
1684114856539803600,1.3718037109375,-0.2430914342403412,0.33637285232543945,0.7380294799804688
1684114856549843700,1.38184375,-0.7863903045654297,-0.7990927696228027,0.9664835929870605
1684114856559884000,1.391884033203125,-0.13738197088241577,0.4826207160949707,0.586235523223877
1684114856569924400,1.40192431640625,-0.950045108795166,-0.5546026229858398,0.5726790428161621
1684114856579964400,1.41196435546875,-0.1062915176153183,1.1544690132141113,-0.007299900054931641
1684114856590004700,1.422004638671875,-0.8604438304901123,-0.8143444061279297,-0.008386611938476562
1684114856600044800,1.432044921875,0.4003201127052307,1.8102960586547852,-0.3972897529602051
1684114856610085000,1.442085205078125,-0.8674814701080322,-0.8674416542053223,-0.6238126754760742
1684114856620125200,1.452125244140625,-0.3701258897781372,1.2339329719543457,-0.38632678985595703
1684114856630165500,1.46216552734375,-0.08976682275533676,0.6529755592346191,0.13973665237426758
1684114856640205600,1.47220556640625,-0.07883347570896149,0.8951468467712402,0.40204954147338867
1684114856650246000,1.482245849609375,0.061393387615680695,1.001561164855957,0.6951146125793457
1684114856660286000,1.492285888671875,0.25876349210739136,1.1526288986206055,0.9127850532531738
1684114856670326300,1.502326171875,0.3799631595611572,1.0909137725830078,0.9815239906311035
1684114856680366600,1.51236669921875,0.4716944098472595,0.9554948806762695,1.0233221054077148
1684114856690406700,1.52240673828125,0.4430873394012451,0.8927483558654785,1.0913581848144531
1684114856700447000,1.532447021484375,0.23900924623012543,0.9520816802978516,0.9999113082885742
1684114856710487000,1.542487060546875,0.09665633738040924,0.8481640815734863,0.4658217430114746
1684114856720527400,1.55252734375,0.07471176981925964,1.0690011978149414,0.19581890106201172
1684114856730567400,1.5625673828125,-0.13711965084075928,0.5698018074035645,-0.6564846038818359
1684114856740607700,1.572607666015625,-0.8008764386177063,0.007182121276855469,-1.380068302154541
1684114856750647800,1.582647705078125,-1.3273475170135498,-0.2663288116455078,-1.6447677612304688
1684114856760688000,1.592688232421875,-1.029097318649292,1.7573390007019043,-1.1359667778015137
1684114856770728200,1.602728271484375,-0.8425822257995605,0.34418773651123047,-0.5891666412353516
1684114856780768500,1.6127685546875,-0.3209567666053772,-1.0650973320007324,-0.8134360313415527
1684114856790808800,1.622808837890625,0.041658759117126465,-1.5292816162109375,-0.30947208404541016
1684114856800849000,1.632848876953125,0.40226471424102783,-1.5731220245361328,-0.1717386245727539
1684114856810889200,1.64288916015625,-0.08447182178497314,-0.8527102470397949,-0.16577863693237305
1684114856820929300,1.65292919921875,-1.708149790763855,-1.8430676460266113,0.47298192977905273
1684114856830969600,1.662969482421875,-1.6942965984344482,-0.9754009246826172,0.050843238830566406
1684114856841009700,1.673009765625,-1.268569827079773,-0.8593664169311523,-0.08187532424926758
1684114856851050000,1.683050048828125,-1.1571520566940308,-1.2244834899902344,-0.6855988502502441
1684114856861090300,1.69309033203125,-1.037179708480835,-1.8104901313781738,-1.3445172309875488
1684114856871130400,1.70313037109375,-0.47204089164733887,-1.9355525970458984,-1.8075084686279297
1684114856881170700,1.713170654296875,-0.12334978580474854,-1.9563593864440918,-1.4902572631835938
1684114856891210800,1.723210693359375,0.04425942897796631,-1.7861366271972656,-0.9109277725219727
1684114856901251000,1.7332509765625,0.013508081436157227,-1.2911601066589355,-0.6414499282836914
1684114856911291100,1.743291015625,-0.08819007873535156,-0.9643726348876953,-0.6437244415283203
1684114856921331500,1.75333154296875,-0.019459247589111328,-0.8601999282836914,-0.6909818649291992
1684114856931371500,1.76337158203125,0.03998398780822754,-1.1396589279174805,0.1253824234008789
1684114856941411800,1.773411865234375,0.10457682609558105,-1.111621379852295,-0.047942161560058594
1684114856951452000,1.783451904296875,0.37694740295410156,-0.5365891456604004,-0.7430586814880371
1684114856961492200,1.7934921875,0.5315775871276855,-0.34418773651123047,-1.1161150932312012
1684114856971532500,1.803532470703125,0.6029152870178223,-0.3758234977722168,-1.4548988342285156
1684114856981572600,1.813572509765625,0.9222114086151123,0.1924152374267578,-1.8611478805541992
1684114856991613000,1.823613037109375,1.1944466829299927,1.2319073677062988,-1.9241833686828613
1684114857001653000,1.833653076171875,0.8613972663879395,1.7639069557189941,-2.5649914741516113
1684114857011693300,1.843693359375,0.405454158782959,0.8687796592712402,-3.344233512878418
1684114857021733400,1.8537333984375,0.30458593368530273,0.09064435958862305,-3.3684887886047363
1684114857031773700,1.863773681640625,0.3387110233306885,-0.03045654296875,-2.724092960357666
1684114857041813800,1.873813720703125,0.2824828624725342,0.1437363624572754,-2.2114882469177246
1684114857051854000,1.88385400390625,0.3047506809234619,0.25829219818115234,-1.6435933113098145
1684114857061894400,1.893894287109375,0.19455409049987793,0.1504669189453125,-1.0715622901916504
1684114857071934500,1.9039345703125,0.12918448448181152,-0.23398399353027344,-0.6854739189147949
1684114857081974800,1.913974853515625,-0.1874103546142578,-0.43378162384033203,-0.12075471878051758
1684114857092014800,1.924014892578125,-0.5069122314453125,-0.4787788391113281,0.18952083587646484
1684114857102055200,1.93405517578125,-0.8074204921722412,-0.6954441070556641,0.10027551651000977
1684114857112095200,1.94409521484375,-0.865013837814331,-0.8899641036987305,-0.050655364990234375
1684114857122135600,1.954135498046875,-0.8875219821929932,-1.0139069557189941,-0.10527515411376953
1684114857132176000,1.96417578125,-0.7646541595458984,-0.9664530754089355,-0.14804601669311523
1684114857142216000,1.9742158203125,-0.3803129196166992,-0.7735247611999512,-0.044592857360839844
1684114857152256300,1.98425634765625,0.48454880714416504,0.1843113899230957,0.04136514663696289
1684114857162296300,1.99429638671875,0.9550549983978271,-0.015469551086425781,-0.574528694152832
1684114857172336600,2.004336669921875,1.8838354349136353,-0.16721296310424805,-1.787501335144043
1684114857182376700,2.014376708984375,-0.22267723083496094,1.176764965057373,-1.2335805892944336
1684114857192417000,2.0244169921875,-1.607051134109497,1.3233418464660645,-0.3987770080566406
1684114857202457000,2.03445703125,-0.9986023902893066,0.40666627883911133,-0.47041940689086914
1684114857212497400,2.044497314453125,-0.8641080856323242,-1.0354738235473633,-0.4044785499572754
1684114857222537700,2.054537841796875,-0.2222301959991455,-1.311845302581787,0.11176919937133789
1684114857232577800,2.064577880859375,0.18562626838684082,0.19109439849853516,0.6160616874694824
1684114857242618000,2.0746181640625,-0.04953312873840332,0.8373913764953613,0.5274643898010254
1684114857252658200,2.084658203125,-0.6008832454681396,0.9245080947875977,0.3330497741699219
1684114857262698500,2.094698486328125,-1.2870559692382812,0.7768421173095703,0.2835502624511719
1684114857272738600,2.104738525390625,-1.7485027313232422,0.6310248374938965,0.4788346290588379
1684114857282779000,2.11477880859375,-1.891237735748291,0.44865989685058594,1.2061052322387695
1684114857292819000,2.12481884765625,-1.8239710330963135,0.33310604095458984,2.020857334136963
1684114857302859300,2.134859375,-1.6452159881591797,0.19285106658935547,2.3275461196899414
1684114857312899600,2.144899658203125,-1.4796016216278076,0.27593564987182617,2.0128841400146484
1684114857322939600,2.154939697265625,-1.5295875072479248,0.4499678611755371,1.438509464263916
1684114857332980000,2.16497998046875,-1.7132411003112793,0.4874458312988281,0.8386836051940918
1684114857343020000,2.17502001953125,-1.7561092376708984,0.5488033294677734,0.35121631622314453
1684114857353060400,2.185060302734375,-1.619699239730835,0.4800853729248047,-0.16245174407958984
1684114857363100400,2.195100341796875,-1.5335326194763184,1.399487018585205,-0.31747913360595703
1684114857373140700,2.205140625,-1.1963739395141602,0.35116004943847656,-1.3628783226013184
1684114857383180800,2.215180908203125,-0.4628620147705078,-0.15653085708618164,-1.9483366012573242
1684114857393221000,2.22522119140625,-0.25960803031921387,0.7212638854980469,-2.3583762645721436
1684114857403261400,2.235261474609375,-0.30318689346313477,0.5426368713378906,-1.5370960235595703
1684114857413301500,2.245301513671875,-0.5035068988800049,0.1453380584716797,-1.3297181129455566
1684114857423341800,2.255341796875,-0.4376864433288574,-0.08568954467773438,-1.1557109355926514
1684114857433382000,2.2653818359375,-0.3274729251861572,0.21261978149414062,-0.722012996673584
1684114857443422200,2.275422119140625,-1.057992935180664,0.0054721832275390625,-0.7412781715393066
1684114857453462500,2.285462646484375,-2.398937463760376,-0.7101306915283203,-0.7859408855438232
1684114857463502600,2.295502685546875,-2.39259672164917,-1.0618162155151367,-0.5604310035705566
1684114857473543000,2.30554296875,-2.0203404426574707,-1.9453697204589844,0.4404287338256836
1684114857483583000,2.3155830078125,-2.3217499256134033,-2.340045928955078,1.8071250915527344
1684114857493623300,2.325623291015625,-2.98547625541687,-2.1702680587768555,3.2464213371276855
1684114857503663400,2.335663330078125,-3.052485227584839,-2.403482437133789,4.279584884643555
1684114857513703700,2.34570361328125,-1.0165736675262451,-1.8707714080810547,4.637202262878418
1684114857523744000,2.355743896484375,1.2764760255813599,-0.8548450469970703,3.811272621154785
1684114857533784000,2.3657841796875,2.6450679302215576,-0.7412538528442383,1.821866512298584
1684114857543824400,2.375824462890625,3.3448173999786377,-0.872706413269043,0.19220495223999023
1684114857553864400,2.385864501953125,3.680508852005005,0.15256786346435547,-1.1613802909851074
1684114857563904800,2.39590478515625,4.102077960968018,1.584853172302246,-2.526198148727417
1684114857573944800,2.40594482421875,3.2469143867492676,0.7314043045043945,-3.0827746391296387
1684114857583985200,2.415985107421875,1.9394514560699463,0.4334297180175781,-3.2073631286621094
1684114857594025200,2.426025146484375,0.2613307237625122,-0.1374969482421875,-2.6673197746276855
1684114857604065500,2.4360654296875,-0.788663387298584,0.7586069107055664,-2.5805704593658447
1684114857614105900,2.44610595703125,-1.5635939836502075,1.3058438301086426,-2.478184223175049
1684114857624146000,2.45614599609375,-1.9919707775115967,1.435689926147461,-2.010891914367676
1684114857634186200,2.466186279296875,-1.8314305543899536,1.2814726829528809,-1.1794342994689941
1684114857644226300,2.476226318359375,-1.2257360219955444,1.050943374633789,-0.3060421943664551
1684114857654266600,2.4862666015625,-0.5739414691925049,0.8391304016113281,0.32601046562194824
1684114857664306700,2.496306640625,0.2152717113494873,0.8587303161621094,0.4934508800506592
1684114857674347000,2.506346923828125,0.6601896286010742,0.34395313262939453,0.40442824363708496
1684114857684387300,2.51638720703125,1.0520522594451904,0.17418956756591797,0.3791069984436035
1684114857694427400,2.526427490234375,1.327179193496704,0.08651542663574219,0.4889342784881592
1684114857704467700,2.5364677734375,1.2329928874969482,0.5189247131347656,1.0233190059661865
1684114857714507800,2.5465078125,1.2962321043014526,0.3343477249145508,1.3224973678588867
1684114857724548000,2.556548095703125,0.9329843521118164,-0.6551189422607422,1.313631296157837
1684114857734588200,2.566588134765625,0.9668130874633789,-0.9076709747314453,1.1096527576446533
1684114857744628500,2.57662841796875,1.2284554243087769,-0.63232421875,0.9390051364898682
1684114857754668800,2.586668701171875,1.4507582187652588,-0.30533790588378906,0.909268856048584
1684114857764708900,2.596708984375,1.5214858055114746,-0.2337512969970703,0.7182369232177734
1684114857774749200,2.606749267578125,1.440401315689087,-0.3251771926879883,0.5854504108428955
1684114857784789200,2.616789306640625,1.305445909500122,-0.4091663360595703,0.3149268627166748
1684114857794829600,2.62682958984375,1.206939935684204,-0.48576831817626953,0.15347886085510254
1684114857804870000,2.636869873046875,1.2115370035171509,-0.4232912063598633,-0.07418704032897949
1684114857814910000,2.646909912109375,1.190852403640747,-0.42481422424316406,-0.25583863258361816
1684114857824950300,2.6569501953125,1.2020196914672852,-0.4714469909667969,-0.40490221977233887
1684114857834990300,2.666990234375,1.4236176013946533,-0.22421646118164062,-0.46631693840026855
1684114857845030700,2.67703076171875,1.661790132522583,-0.0750741958618164,-0.44757628440856934
1684114857855070700,2.68707080078125,1.7052371501922607,0.19355487823486328,-0.4850153923034668
1684114857865111000,2.697111083984375,1.6144195795059204,0.12073516845703125,-0.43578672409057617
1684114857875151000,2.707151123046875,1.4689258337020874,-0.3374824523925781,-0.42859530448913574
1684114857885191400,2.71719140625,1.3254677057266235,-0.5958127975463867,-0.364849328994751
1684114857895231700,2.727231689453125,1.2481858730316162,-0.7077798843383789,-0.3172588348388672
1684114857905271800,2.737271728515625,1.1673023700714111,-0.6883525848388672,-0.11924457550048828
1684114857915312000,2.74731201171875,1.105792760848999,-0.4904966354370117,0.06799077987670898
1684114857925352200,2.757352294921875,0.8841020464897156,-0.45379066467285156,0.03619503974914551
1684114857935392500,2.767392578125,0.8057414889335632,0.026187896728515625,0.028215885162353516
1684114857945432600,2.7774326171875,0.7045243978500366,0.24503612518310547,0.020910263061523438
1684114857955473000,2.787472900390625,0.6132088899612427,0.07996273040771484,0.14618229866027832
1684114857965513200,2.79751318359375,0.48209381103515625,-0.09108161926269531,0.3623197078704834
1684114857975553300,2.80755322265625,0.23000502586364746,-0.07096099853515625,0.49793481826782227
1684114857985593600,2.817593505859375,0.03549087047576904,0.2698249816894531,0.6511235237121582
1684114857995633700,2.827633544921875,-0.08561748266220093,0.47889137268066406,0.5826919078826904
1684114858005674000,2.837674072265625,-0.32434630393981934,0.5671977996826172,0.21331572532653809
1684114858015714300,2.84771435546875,-0.39631199836730957,0.3905792236328125,0.12151002883911133
1684114858025754400,2.85775439453125,-0.3112030625343323,0.2825498580932617,0.1271824836730957
1684114858035794700,2.867794677734375,-0.17456203699111938,0.26531219482421875,0.04843854904174805
1684114858045834800,2.877834716796875,-0.13931846618652344,0.2605409622192383,0.03740692138671875
1684114858055875000,2.887875,-0.04860180616378784,0.2464885711669922,0.10268545150756836
1684114858065915100,2.8979150390625,-0.010168850421905518,0.29242706298828125,0.15373611450195312
1684114858075955500,2.90795556640625,0.015125453472137451,0.13486385345458984,0.22200703620910645
1684114858085995800,2.917995849609375,0.06987470388412476,0.033405303955078125,0.285628080368042
1684114858096035800,2.928035888671875,0.23182138800621033,-0.05095195770263672,0.3216583728790283
1684114858106076200,2.938076171875,0.35191377997398376,0.0010471343994140625,0.3182666301727295
1684114858116116200,2.9481162109375,0.18050071597099304,-0.11157798767089844,0.2355327606201172
1684114858126156500,2.958156494140625,-0.0683942437171936,-0.41974830627441406,0.2465822696685791
1684114858136196900,2.96819677734375,-0.1585252583026886,-0.3460826873779297,0.5135476589202881
1684114858146237000,2.97823681640625,-0.28206461668014526,-0.40022850036621094,0.6720409393310547
1684114858156277200,2.98827734375,-0.44235751032829285,-0.36076831817626953,0.7506303787231445
1684114858166317300,2.9983173828125,-0.2933368980884552,-0.23663711547851562,0.5998146533966064
1684114858176357600,3.008357666015625,-0.11206419765949249,-0.03667640686035156,0.5647461414337158
1684114858186397700,3.018397705078125,0.022354084998369217,0.23440170288085938,0.5054864883422852
1684114858196438000,3.02843798828125,0.09701261669397354,0.14464569091796875,0.43007898330688477
1684114858206478300,3.038478271484375,0.11504952609539032,0.08402061462402344,0.49568796157836914
1684114858216518400,3.048518310546875,0.05111631751060486,0.1167612075805664,0.7040674686431885
1684114858226558700,3.058558837890625,-0.19251015782356262,0.22942638397216797,0.9424536228179932
1684114858236598800,3.068598876953125,-0.4806426763534546,0.36269187927246094,1.0190579891204834
1684114858246639000,3.07863916015625,-0.5970084071159363,0.6077880859375,1.0011179447174072
1684114858256679400,3.088679443359375,-0.5383833050727844,0.8854169845581055,0.8932204246520996
1684114858266719500,3.098719482421875,-0.485887348651886,1.0447969436645508,0.6819303035736084
1684114858276759800,3.108759765625,-0.46734461188316345,0.8057546615600586,0.7067716121673584
1684114858286800000,3.1187998046875,-0.43549782037734985,0.4858055114746094,0.9261360168457031
1684114858296840200,3.128840087890625,-0.2557830214500427,0.3900575637817383,1.2123692035675049
1684114858306880500,3.138880615234375,-0.3804347515106201,0.12131118774414062,1.3023300170898438
1684114858316920600,3.148920654296875,-0.20533031225204468,1.0299854278564453,1.3638906478881836
1684114858326961000,3.1589609375,0.35845261812210083,2.57466459274292,1.681100606918335
1684114858337001000,3.1690009765625,-1.1870076656341553,0.21995258331298828,1.0865285396575928
1684114858347041300,3.179041259765625,-0.5947854518890381,1.4976916313171387,0.7579300403594971
1684114858357081300,3.189081298828125,-0.014884531497955322,0.15444183349609375,0.9769058227539062
1684114858367121700,3.19912158203125,-0.3576773703098297,-1.7501535415649414,0.6773922443389893
1684114858377162000,3.209161865234375,-0.4622601866722107,-2.368710517883301,0.15978074073791504
1684114858387202000,3.2192021484375,-0.25597792863845825,-1.4503755569458008,-0.8358421325683594
1684114858397242400,3.229242431640625,-0.6903603076934814,-0.24134540557861328,-1.824913740158081
1684114858407282400,3.239282470703125,-1.664682149887085,-0.015032768249511719,-2.0407180786132812
1684114858417322800,3.24932275390625,-2.103126049041748,-0.050202369689941406,-1.0654047727584839
1684114858427363000,3.259363037109375,-1.6835435628890991,0.10472965240478516,0.1515488624572754
1684114858437403100,3.269403076171875,-0.7779451012611389,-0.1952495574951172,0.9749345779418945
1684114858447443500,3.279443359375,0.15940487384796143,-0.6970710754394531,1.4692587852478027
1684114858457483500,3.2894833984375,0.886610209941864,-1.075819969177246,1.5689306259155273
1684114858467523800,3.29952392578125,1.3154242038726807,-1.313241958618164,1.5827841758728027
1684114858477564200,3.309564208984375,1.348891019821167,-1.4439096450805664,1.5842559337615967
1684114858487604200,3.319604248046875,1.2082301378250122,-1.4158935546875,1.650064468383789
1684114858497644500,3.32964453125,0.97795569896698,-1.530644416809082,1.7901403903961182
1684114858507684600,3.3396845703125,0.7843677997589111,-1.1749048233032227,2.0139174461364746
1684114858517725000,3.349724853515625,0.5401096343994141,-1.1249732971191406,1.97920823097229
1684114858527765200,3.35976513671875,0.1351528763771057,-1.4013710021972656,2.050525188446045
1684114858537805300,3.369805419921875,-0.3005335330963135,-1.4966487884521484,2.1930863857269287
1684114858547845600,3.379845703125,-0.6664344072341919,-1.152970314025879,2.2337772846221924
1684114858557885700,3.3898857421875,-1.2116807699203491,-0.5178289413452148,1.8308920860290527
1684114858567926000,3.399926025390625,-1.6642601490020752,0.4469890594482422,1.2062761783599854
1684114858577966000,3.409966064453125,-2.021611213684082,0.9775075912475586,0.5998964309692383
1684114858588006400,3.42000634765625,-2.269103765487671,1.073441505432129,0.17690801620483398
1684114858598046700,3.430046630859375,-2.404369354248047,0.47164058685302734,0.0871419906616211
1684114858608086800,3.440086669921875,-2.378462314605713,0.2313089370727539,0.16747522354125977
1684114858618127000,3.450127197265625,-1.9743058681488037,0.5138711929321289,0.3268005847930908
1684114858628167200,3.460167236328125,-1.4829216003417969,0.9336280822753906,0.385390043258667
1684114858638207500,3.47020751953125,-1.0662022829055786,1.1763877868652344,0.4065704345703125
1684114858648247800,3.480247802734375,-0.812884509563446,1.2401866912841797,0.21876835823059082
1684114858658287900,3.490287841796875,-0.5827707052230835,1.1094627380371094,0.06969070434570312
1684114858668328200,3.500328125,-0.3676684498786926,1.060129165649414,-0.07191824913024902
1684114858678368300,3.5103681640625,-0.2848951816558838,1.0662994384765625,-0.17151498794555664
1684114858688408600,3.52040869140625,-0.08220553398132324,1.2067070007324219,-0.08479952812194824
1684114858698449000,3.530448974609375,0.03746122121810913,0.8216629028320312,0.18365764617919922
1684114858708489000,3.540489013671875,0.14303475618362427,0.7095060348510742,0.26890039443969727
1684114858718529300,3.550529296875,0.25845396518707275,0.6014604568481445,0.36171603202819824
1684114858728569300,3.5605693359375,0.317279577255249,0.46779823303222656,0.5273334980010986
1684114858738609700,3.570609619140625,0.19387102127075195,-0.03057384490966797,0.505903959274292
1684114858748650000,3.58064990234375,0.11366987228393555,-0.39725780487060547,0.38855886459350586
1684114858758690000,3.59068994140625,0.04558765888214111,-0.858891487121582,0.2800331115722656
1684114858768730400,3.60073046875,0.09211862087249756,-1.2477331161499023,0.176469087600708
1684114858778770400,3.6107705078125,0.3223915100097656,-1.5180225372314453,0.11625003814697266
1684114858788810800,3.620810791015625,0.6284890174865723,-2.056593894958496,0.1980290412902832
1684114858798851000,3.63085107421875,1.190200686454773,-2.6168384552001953,0.22861146926879883
1684114858808891100,3.64089111328125,1.8252986669540405,-2.7980384826660156,0.12169837951660156
1684114858818931500,3.650931396484375,2.1461944580078125,-2.607210159301758,-0.16186118125915527
1684114858828971500,3.660971435546875,2.1379737854003906,-2.341038703918457,-0.4242672920227051
1684114858839011800,3.67101171875,1.8736519813537598,-2.037099838256836,-0.5487821102142334
1684114858849052200,3.68105224609375,1.4093186855316162,-1.8039865493774414,-0.618236780166626
1684114858859092200,3.69109228515625,0.9285264015197754,-1.5460596084594727,-0.6927950382232666
1684114858869132500,3.701132568359375,0.5960501432418823,-1.0983152389526367,-0.8762369155883789
1684114858879172600,3.711172607421875,0.4429241418838501,-0.5528764724731445,-1.0653953552246094
1684114858889213000,3.721212890625,0.5191149711608887,-0.13944339752197266,-1.3463821411132812
1684114858899253200,3.731253173828125,0.9098436832427979,0.2614727020263672,-1.4739267826080322
1684114858909293300,3.741293212890625,1.5095880031585693,0.8162736892700195,-1.5549880266189575
1684114858919333600,3.751333740234375,1.5426582098007202,0.6803817749023438,-1.0992016792297363
1684114858929373700,3.761373779296875,1.4959827661514282,0.8628787994384766,-0.6401350498199463
1684114858939414000,3.7714140625,1.3039977550506592,1.118056297302246,-0.3646705150604248
1684114858949454300,3.781454345703125,0.893573522567749,1.2355613708496094,-0.39290475845336914
1684114858959494400,3.791494384765625,0.5249181985855103,1.398712158203125,-0.5653541088104248
1684114858969534700,3.80153466796875,0.22891545295715332,1.6170730590820312,-0.8440747261047363
1684114858979574800,3.81157470703125,0.04787600040435791,1.696537971496582,-1.0151758193969727
1684114858989615000,3.821614990234375,-0.1225423812866211,1.6723880767822266,-1.1232244968414307
1684114858999655400,3.831655517578125,-0.22296881675720215,1.6979894638061523,-1.1639230251312256
1684114859009695500,3.841695556640625,-0.1616663932800293,1.8425636291503906,-1.0722105503082275
1684114859019735800,3.85173583984375,-0.12283086776733398,1.7152929306030273,-0.7686586380004883
1684114859029776000,3.86177587890625,-0.16200470924377441,1.246985912322998,-0.38414430618286133
1684114859039816200,3.871816162109375,-0.22360968589782715,0.5888853073120117,-0.07181024551391602
1684114859049856500,3.8818564453125,-0.21671009063720703,0.044562339782714844,0.040445566177368164
1684114859059896600,3.891896484375,-0.13947534561157227,-0.19997310638427734,-0.09215497970581055
1684114859069937000,3.90193701171875,-0.07727432250976562,-0.2789926528930664,-0.2972526550292969
1684114859079977000,3.91197705078125,0.1009058952331543,-0.2762918472290039,-0.3833959102630615
1684114859090017300,3.922017333984375,0.17361974716186523,-0.2749032974243164,-0.49934935569763184
1684114859100057600,3.9320576171875,0.21863853931427002,-0.21860694885253906,-0.7839484214782715
1684114859110097700,3.94209765625,0.24373018741607666,0.0030946731567382812,-1.1144788265228271
1684114859120138000,3.952137939453125,0.18543052673339844,0.26952362060546875,-1.328737497329712
1684114859130178000,3.962177978515625,0.12060391902923584,0.48580169677734375,-1.4874811172485352
1684114859140218400,3.97221826171875,-0.14494609832763672,0.5987577438354492,-1.585390329360962
1684114859150258700,3.9822587890625,-0.38277626037597656,0.6688814163208008,-1.6337743997573853
1684114859160298800,3.992298828125,-0.5764265060424805,0.6065006256103516,-1.502490520477295
1684114859170339000,4.002339111328125,-0.7960426807403564,0.4746227264404297,-1.2166199684143066
1684114859180379100,4.012379150390625,-1.0082221031188965,0.0910348892211914,-0.6932165622711182
1684114859190419500,4.02241943359375,-1.1903499364852905,-0.36009693145751953,-0.019724130630493164
1684114859200459800,4.032459716796875,-1.3660084009170532,-0.6650514602661133,0.7784841060638428
1684114859210499800,4.042499755859375,-1.7358263731002808,-0.675166130065918,1.4348132610321045
1684114859220540200,4.0525400390625,-2.505058765411377,-0.5882501602172852,1.9301774501800537
1684114859230580200,4.062580322265625,-3.5346879959106445,-0.3712024688720703,2.2203242778778076
1684114859240620500,4.07262060546875,-3.447727680206299,0.11490917205810547,1.9365007877349854
1684114859250660900,4.082660888671875,-1.7581393718719482,0.6934919357299805,0.957573652267456
1684114859260701000,4.092700927734375,0.3233916759490967,1.1301212310791016,0.0802619457244873
1684114859270741200,4.1027412109375,2.2553188800811768,1.2413015365600586,-0.46947646141052246
1684114859280781600,4.112781494140625,3.419882297515869,1.3682551383972168,-0.7701716423034668
1684114859290821600,4.122821533203125,3.67978572845459,1.2971186637878418,-0.8998370170593262
1684114859300862000,4.132862060546875,3.2971439361572266,1.154250144958496,-1.086003065109253
1684114859310902000,4.142902099609375,2.444108724594116,0.8406457901000977,-1.41450834274292
1684114859320942300,4.1529423828125,1.3544390201568604,0.1870288848876953,-1.7181094884872437
1684114859330982700,4.162982666015625,-0.26766037940979004,-1.2434158325195312,-1.7083524465560913
1684114859341022700,4.173022705078125,-2.9761133193969727,-3.0976877212524414,-1.6732454299926758
1684114859351063000,4.18306298828125,-6.508227825164795,-4.83670711517334,-1.5625200271606445
1684114859361103000,4.19310302734375,-7.245021343231201,-5.939990043640137,-1.2718727588653564
1684114859371143400,4.203143310546875,-4.470737457275391,-6.498357772827148,-0.593524694442749
1684114859381183700,4.213183837890625,-0.47603094577789307,-6.449784278869629,0.4581916332244873
1684114859391223800,4.223223876953125,2.3915770053863525,-5.345451354980469,0.9071431159973145
1684114859401264000,4.23326416015625,3.44926118850708,-3.1603784561157227,0.6543233394622803
1684114859411304400,4.243304443359375,3.4628376960754395,-0.8268003463745117,0.0447239875793457
1684114859421344500,4.253344482421875,3.2783937454223633,1.0027008056640625,-0.48383235931396484
1684114859431384800,4.263384765625,3.098019599914551,2.11834716796875,-0.7899856567382812
1684114859441425000,4.2734248046875,3.020796060562134,2.8963146209716797,-0.89858078956604
1684114859451465200,4.28346533203125,3.0281529426574707,3.3983449935913086,-0.9412049055099487
1684114859461505500,4.293505615234375,3.0361127853393555,3.764519691467285,-0.9321998357772827
1684114859471545600,4.303545654296875,2.9319939613342285,3.5701065063476562,-0.8825314044952393
1684114859481586000,4.3135859375,2.630161762237549,2.7751522064208984,-0.6477229595184326
1684114859491626200,4.323626220703125,2.242124557495117,1.5872173309326172,-0.32058823108673096
1684114859501666300,4.333666259765625,1.9478392601013184,0.5307350158691406,0.09488403797149658
1684114859511706600,4.34370654296875,1.7161287069320679,-0.16648197174072266,0.47109782695770264
1684114859521746700,4.35374658203125,1.5426781177520752,-0.7112054824829102,0.6412557363510132
1684114859531787000,4.363787109375,1.3913770914077759,-0.8964710235595703,0.9372533559799194
1684114859541827300,4.373827392578125,1.2881879806518555,-0.7716493606567383,1.3860026597976685
1684114859551867400,4.383867431640625,1.2050479650497437,-0.6056547164916992,1.660204291343689
1684114859561907700,4.39390771484375,1.2213692665100098,-0.2623462677001953,1.7779701948165894
1684114859571947800,4.40394775390625,1.2141693830490112,0.117462158203125,1.7361093759536743
1684114859581988000,4.413988037109375,1.1415884494781494,0.3024787902832031,1.4040915966033936
1684114859592028400,4.4240283203125,1.0380008220672607,0.47754859924316406,1.0257761478424072
1684114859602068500,4.434068359375,0.9572391510009766,0.7147989273071289,0.7195881605148315
1684114859612108800,4.44410888671875,1.004446029663086,0.9047660827636719,0.4480799436569214
1684114859622148900,4.45414892578125,1.1234310865402222,0.9812889099121094,0.2287660837173462
1684114859632189200,4.464189208984375,1.1694955825805664,0.768366813659668,0.05645233392715454
1684114859642229500,4.4742294921875,1.2901428937911987,0.5227203369140625,-0.025529980659484863
1684114859652269600,4.48426953125,1.321106195449829,0.32622528076171875,-0.5465584993362427
1684114859662310000,4.494309814453125,1.2909910678863525,-0.0957803726196289,-0.5713819265365601
1684114859672350200,4.50435009765625,1.280239224433899,-0.40882396697998047,-0.413240909576416
1684114859682390300,4.514390380859375,1.2929737567901611,-0.6232099533081055,-0.3915955424308777
1684114859692430600,4.5244306640625,1.330698847770691,-0.6823959350585938,-0.3979339599609375
1684114859702470700,4.534470703125,1.3190494775772095,-0.5252857208251953,-0.3384210765361786
1684114859712511000,4.544510986328125,1.2319263219833374,-0.2722768783569336,-0.31429004669189453
1684114859722551300,4.55455126953125,1.2188680171966553,0.011771202087402344,-0.4085606634616852
1684114859732591400,4.56459130859375,1.2699650526046753,0.2170238494873047,-0.5421335697174072
1684114859742631700,4.574631591796875,1.3088500499725342,0.2603187561035156,-0.7025901675224304
1684114859752671700,4.584671630859375,1.3719574213027954,0.20683002471923828,-0.8271645903587341
1684114859762712000,4.594712158203125,1.4558587074279785,0.08101463317871094,-0.8463906645774841
1684114859772752400,4.60475244140625,1.5745848417282104,-0.011517524719238281,-0.8986408114433289
1684114859782792400,4.61479248046875,1.7083247900009155,-0.12070560455322266,-0.9843843579292297
1684114859792832800,4.624832763671875,1.8141106367111206,-0.18653011322021484,-1.037346601486206
1684114859802873000,4.634873046875,1.8787611722946167,-0.3091135025024414,-1.049117088317871
1684114859812913200,4.6449130859375,1.868776559829712,-0.3662881851196289,-1.080101490020752
1684114859822953500,4.654953369140625,1.7710015773773193,-0.40821361541748047,-1.1875090599060059
1684114859832993500,4.66499365234375,1.579542636871338,-0.5112485885620117,-1.2182458639144897
1684114859843033900,4.675033935546875,1.3688302040100098,-0.5081624984741211,-1.197374939918518
1684114859853074200,4.68507421875,1.0958092212677002,-0.15180587768554688,-1.4807050228118896
1684114859863114200,4.6951142578125,0.7045780420303345,-0.11479663848876953,-1.2678074836730957
1684114859873154600,4.705154541015625,0.30622977018356323,-0.23363876342773438,-0.6925646066665649
1684114859883195000,4.71519482421875,-0.16973727941513062,-0.2807731628417969,-0.2249276041984558
1684114859893235000,4.72523486328125,-0.6438645124435425,-0.3087491989135742,0.14721697568893433
1684114859903275300,4.735275146484375,-0.9811941981315613,-0.31258106231689453,0.4573064148426056
1684114859913315300,4.7453154296875,-1.0596526861190796,-0.1893167495727539,0.6924068331718445
1684114859923355600,4.755355712890625,-0.893293023109436,0.0060214996337890625,0.7198217511177063
1684114859933396000,4.76539599609375,-0.5654639601707458,0.027284622192382812,0.6489472389221191
1684114859943436000,4.77543603515625,-0.21209952235221863,-0.029876708984375,0.5906287431716919
1684114859953476400,4.785476318359375,0.10876667499542236,0.0778951644897461,0.5628805160522461
1684114859963516400,4.795516357421875,0.32153719663619995,0.03471660614013672,0.465526819229126
1684114859973556700,4.805556640625,0.44009333848953247,0.005642890930175781,0.294766366481781
1684114859983597000,4.81559716796875,0.38848406076431274,-0.12156295776367188,0.1666697859764099
1684114859993637000,4.82563720703125,0.32365137338638306,-0.17929649353027344,0.16733777523040771
1684114860003677400,4.835677490234375,0.2719382047653198,-0.2702789306640625,0.205649733543396
1684114860013717800,4.8457177734375,0.260800838470459,-0.14366626739501953,0.23684531450271606
1684114860023757800,4.8557578125,0.2785969376564026,-0.28708648681640625,0.4271355867385864
1684114860033798100,4.865798095703125,0.3632385730743408,-0.36074352264404297,0.582278847694397
1684114860043838200,4.875838134765625,0.544810950756073,-0.2932853698730469,0.7100691795349121
1684114860053878500,4.88587841796875,0.7794232964515686,-0.11146736145019531,0.8424775004386902
1684114860063918800,4.8959189453125,1.0424202680587769,0.019661903381347656,1.0454224348068237
1684114860073959000,4.905958984375,1.3276276588439941,0.20060253143310547,1.1737761497497559
1684114860083999200,4.915999267578125,1.592235803604126,0.32140636444091797,1.3218276500701904
1684114860094039600,4.92603955078125,1.7715837955474854,0.45385169982910156,1.3740057945251465
1684114860104079600,4.93607958984375,1.8853439092636108,0.3280906677246094,1.4537923336029053
1684114860114120000,4.946119873046875,1.8923481702804565,0.09766674041748047,1.4458551406860352
1684114860124160300,4.95616015625,1.814546823501587,-0.1177206039428711,1.3885774612426758
1684114860134200300,4.966200439453125,1.7152986526489258,-0.30374908447265625,1.260748028755188
1684114860144240600,4.97624072265625,1.5391212701797485,-0.32671070098876953,1.0388798713684082
1684114860154280700,4.98628076171875,1.3578165769577026,-0.3087587356567383,0.773819625377655
1684114860164321000,4.996321044921875,1.1691385507583618,-0.24994564056396484,0.480573445558548
1684114860174361300,5.006361328125,1.0157010555267334,-0.1790609359741211,0.27033770084381104
1684114860184401400,5.0164013671875,0.9463694095611572,-0.12245750427246094,0.08435004949569702
1684114860194441700,5.026441650390625,0.925423264503479,-0.1136007308959961,-0.1100085973739624
1684114860204481800,5.036481689453125,0.9738132357597351,-0.11667633056640625,-0.26392287015914917
1684114860214522000,5.046522216796875,1.065683126449585,-0.0673666000366211,-0.3715161085128784
1684114860224562400,5.0565625,1.186617136001587,0.000621795654296875,-0.41100573539733887
1684114860234602500,5.0666025390625,1.232587218284607,0.02512645721435547,-0.45209407806396484
1684114860244642800,5.076642822265625,1.2656292915344238,0.0683736801147461,-0.4020122289657593
1684114860254683100,5.08668310546875,1.2693058252334595,0.11123943328857422,-0.3495461344718933
1684114860264723200,5.09672314453125,1.2778027057647705,0.15140151977539062,-0.22116398811340332
1684114860274763500,5.106763427734375,1.3510098457336426,0.25093555450439453,-0.1027677059173584
1684114860284803800,5.116803955078125,1.4911110401153564,0.40253257751464844,0.07714897394180298
1684114860294844000,5.126843994140625,1.6638092994689941,0.4461050033569336,0.23169314861297607
1684114860304884200,5.13688427734375,1.8394948244094849,0.36766719818115234,0.3813946843147278
1684114860314924300,5.14692431640625,1.9834657907485962,0.2534971237182617,0.5115733742713928
1684114860324964600,5.156964599609375,1.973023533821106,0.15148258209228516,0.545332133769989
1684114860335005000,5.1670048828125,1.7916127443313599,-0.0052700042724609375,0.5664418935775757
1684114860345045000,5.177044921875,1.4949989318847656,-0.07806396484375,0.4767264127731323
1684114860355085300,5.187085205078125,1.1087095737457275,-0.13633441925048828,0.31716376543045044
1684114860365125400,5.19712548828125,0.7025948762893677,-0.2923622131347656,0.2320217490196228
1684114860375165700,5.207165771484375,0.3611255884170532,-0.3786201477050781,0.19700145721435547
1684114860385206000,5.2172060546875,0.16283538937568665,-0.17551231384277344,0.1976446509361267
1684114860395246000,5.22724609375,0.07658243179321289,0.022617340087890625,0.2564992904663086
1684114860405286400,5.237286376953125,0.16148781776428223,0.5142555236816406,0.1747148633003235
1684114860415326700,5.24732666015625,0.25873085856437683,0.17166423797607422,0.28493279218673706
1684114860425366800,5.25736669921875,0.37185031175613403,-0.38512420654296875,0.19124984741210938
1684114860435407000,5.267406982421875,0.5327960252761841,-0.3703937530517578,0.39007771015167236
1684114860445447400,5.277447509765625,0.5991089940071106,-0.2294139862060547,0.6615380048751831
1684114860455487500,5.287487548828125,0.5358989238739014,-0.1055440902709961,0.6806013584136963
1684114860465527800,5.29752783203125,0.41010919213294983,-0.0035610198974609375,0.6370071768760681
1684114860475567900,5.30756787109375,0.2302483767271042,-0.02134990692138672,0.602849006652832
1684114860485608200,5.317608154296875,0.0719187930226326,0.09442615509033203,0.4977310299873352
1684114860495648500,5.3276484375,-0.08761725574731827,0.14749717712402344,0.41082119941711426
1684114860505688600,5.3376884765625,-0.20141589641571045,0.2095623016357422,0.3901572823524475
1684114860515729000,5.34772900390625,-0.25888755917549133,0.08000850677490234,0.42272526025772095
1684114860525769200,5.357769287109375,-0.23135606944561005,0.06505203247070312,0.46403270959854126
1684114860535809300,5.367809326171875,-0.19995608925819397,0.15017127990722656,0.4556456208229065
1684114860545849600,5.377849609375,-0.1807880401611328,0.16549396514892578,0.42445802688598633
1684114860555890000,5.387889892578125,-0.24243491888046265,0.12521934509277344,0.47274672985076904
1684114860565930000,5.397929931640625,-0.3857593536376953,0.18709754943847656,0.5252834558486938
1684114860575970300,5.40797021484375,-0.4217156767845154,0.3510723114013672,0.44951677322387695
1684114860586010600,5.4180107421875,0.06581246852874756,1.0655574798583984,-0.42725205421447754
1684114860596050700,5.42805078125,-0.33534860610961914,0.21509170532226562,0.12995672225952148
1684114860606091000,5.438091064453125,-0.14489179849624634,-0.2856292724609375,0.18404412269592285
1684114860616131000,5.448131103515625,2.461406946182251,0.36913585662841797,-0.47492265701293945
1684114860626171400,5.45817138671875,-0.6122547388076782,-0.22676467895507812,0.36615556478500366
1684114860636211700,5.468211669921875,-2.3639698028564453,-1.167820930480957,0.9099849462509155
1684114860646251800,5.478251708984375,-1.618499755859375,-1.8249197006225586,1.096487045288086
1684114860656292000,5.4882919921875,-1.3110496997833252,-2.0974302291870117,1.2376121282577515
1684114860666332200,5.498332275390625,-0.6012812852859497,-2.1427841186523438,1.074797511100769
1684114860676372500,5.50837255859375,0.17907464504241943,-1.9864139556884766,0.6966202259063721
1684114860686412800,5.518412841796875,0.6398502588272095,-1.5283069610595703,-0.0904930830001831
1684114860696452900,5.528452880859375,0.7429099082946777,-1.1618852615356445,-0.8569629192352295
1684114860706493200,5.5384931640625,0.7842466831207275,-0.8662023544311523,-1.2317105531692505
1684114860716533500,5.548533447265625,0.9729329347610474,-0.5529279708862305,-1.2439619302749634
1684114860726573600,5.558573486328125,1.1594595909118652,-0.13852500915527344,-1.2032039165496826
1684114860736614000,5.56861376953125,1.2123329639434814,0.17880630493164062,-0.9666797518730164
1684114860746654200,5.578654296875,1.3176418542861938,0.4239950180053711,-0.6896116137504578
1684114860756694300,5.5886943359375,1.3618128299713135,0.5907955169677734,-0.590021014213562
1684114860766734600,5.598734619140625,1.4259653091430664,0.7874050140380859,-0.4308127760887146
1684114860776774700,5.608774658203125,1.6345062255859375,0.9666175842285156,-0.0896499752998352
1684114860786815000,5.61881494140625,1.7479859590530396,0.8566150665283203,0.28064417839050293
1684114860796855300,5.628855224609375,1.6825861930847168,0.6226797103881836,0.5847209095954895
1684114860806895400,5.638895263671875,1.624934434890747,0.4675254821777344,0.6608765125274658
1684114860816935700,5.648935791015625,1.7799004316329956,0.3789958953857422,0.6219810247421265
1684114860826976000,5.65897607421875,1.9537426233291626,0.3358898162841797,0.6063238978385925
1684114860837016000,5.66901611328125,2.1445822715759277,0.28846263885498047,0.6206109523773193
1684114860847056400,5.679056396484375,2.251741409301758,0.22251605987548828,0.5704754590988159
1684114860857096700,5.6890966796875,2.1338424682617188,0.22595882415771484,0.3411756157875061
1684114860867136800,5.69913671875,1.880596399307251,0.18546009063720703,0.0721500813961029
1684114860877177000,5.709177001953125,1.643801212310791,0.21483135223388672,-0.07103502750396729
1684114860887217200,5.719217041015625,1.4972786903381348,0.40165042877197266,-0.27873435616493225
1684114860897257500,5.729257568359375,1.4633854627609253,0.4634542465209961,-0.43325209617614746
1684114860907297800,5.7392978515625,1.418935775756836,0.38841819763183594,-0.4648614525794983
1684114860917337900,5.749337890625,1.142604112625122,0.36260032653808594,-0.45797625184059143
1684114860927378200,5.759378173828125,0.8523998260498047,0.29468250274658203,-0.5123734474182129
1684114860937418500,5.76941845703125,0.6434199810028076,0.13948631286621094,-0.5429867506027222
1684114860947458600,5.77945849609375,0.21028196811676025,-0.12626171112060547,-0.5269323587417603
1684114860957499000,5.789498779296875,-0.09511971473693848,-0.3705177307128906,-0.5199640989303589
1684114860967539200,5.799539306640625,-0.26772642135620117,-0.5093936920166016,-0.6208916306495667
1684114860977579300,5.809579345703125,-0.37264561653137207,-0.5335206985473633,-0.8029652833938599
1684114860987619600,5.81961962890625,-0.4562962055206299,-0.49599361419677734,-1.0172399282455444
1684114860997659600,5.82965966796875,-0.47182130813598633,-0.39008235931396484,-1.2436434030532837
1684114861007700000,5.839699951171875,-0.34976840019226074,-0.23512935638427734,-1.470627784729004
1684114861017740300,5.849740234375,-0.13712358474731445,-0.11458778381347656,-1.5710928440093994
1684114861027780400,5.8597802734375,0.04498791694641113,-0.040009498596191406,-1.5854010581970215
1684114861037820700,5.869820556640625,0.20704865455627441,-0.03961753845214844,-1.553976058959961
1684114861047861000,5.879861083984375,0.32165420055389404,-0.05804729461669922,-1.3936772346496582
1684114861057901000,5.889901123046875,0.37651634216308594,-0.08560657501220703,-1.13856840133667
1684114861067941400,5.89994140625,0.4128671884536743,-0.11999130249023438,-1.0036624670028687
1684114861077981700,5.909981689453125,0.46467530727386475,-0.13501930236816406,-0.7854825854301453
1684114861088021800,5.920021728515625,0.5681283473968506,-0.1738128662109375,-0.6435731649398804
1684114861098062000,5.93006201171875,0.6109850406646729,-0.14606285095214844,-0.482915461063385
1684114861108102100,5.94010205078125,0.48372042179107666,-0.09398555755615234,-0.26679056882858276
1684114861118142500,5.950142578125,0.2970399856567383,-0.09846019744873047,0.19137416779994965
1684114861128182800,5.960182861328125,0.36759090423583984,-0.15683841705322266,0.6224486231803894
1684114861138222800,5.970222900390625,0.5000064373016357,-0.17563343048095703,0.8406932950019836
1684114861148263200,5.98026318359375,0.3633610010147095,-0.1221323013305664,0.6893487572669983
1684114861158303500,5.990303466796875,0.2425140142440796,-0.1756296157836914,0.7310344576835632
1684114861168343600,6.000343505859375,0.37006044387817383,-0.013116836547851562,0.6009277105331421
1684114861178384000,6.0103837890625,0.6371968984603882,0.20856761932373047,0.31628960371017456
1684114861188424200,6.020424072265625,0.850247859954834,0.2582082748413086,0.16369497776031494
1684114861198464300,6.03046435546875,0.8767973184585571,0.3838043212890625,0.0603623241186142
1684114861208504600,6.040504638671875,0.519019365310669,0.4712858200073242,-0.04062868654727936
1684114861218545000,6.050544921875,0.15426254272460938,0.44525146484375,-0.058232635259628296
1684114861228585000,6.0605849609375,0.05444955825805664,0.3891162872314453,-0.13413472473621368
1684114861238625300,6.070625244140625,0.06286096572875977,0.21006011962890625,-0.18918541073799133
1684114861248665300,6.080665283203125,0.08247590065002441,0.06633663177490234,-0.1882614940404892
1684114861258705700,6.09070556640625,0.08164715766906738,-0.07169723510742188,-0.09703397750854492
1684114861268746000,6.10074609375,-0.06719660758972168,-0.2769126892089844,0.16359630227088928
1684114861278786000,6.1107861328125,-0.15330719947814941,-0.26535606384277344,0.43581849336624146
1684114861288826400,6.120826416015625,0.5368987321853638,-0.13579082489013672,0.6188331842422485
1684114861298866700,6.13086669921875,1.195213794708252,-0.8021459579467773,1.1741670370101929
1684114861308906800,6.14090673828125,0.2721700668334961,-1.154332160949707,1.2600427865982056
1684114861318947000,6.150947021484375,0.7038025856018066,-0.19448089599609375,0.6899409890174866
1684114861328987400,6.1609873046875,0.7342805862426758,0.5855302810668945,-0.19181343913078308
1684114861339027500,6.17102734375,0.7322201728820801,1.1728286743164062,-0.8433898091316223
1684114861349067800,6.18106787109375,0.7726240158081055,1.2233448028564453,-1.0254285335540771
1684114861359107800,6.19110791015625,0.6263368129730225,0.9121179580688477,-0.9861692786216736
1684114861369148200,6.201148193359375,0.5919973850250244,1.1812114715576172,-1.3132725954055786
1684114861379188500,6.2111884765625,0.4796757698059082,1.0090818405151367,-1.5386149883270264
1684114861389228500,6.221228515625,0.4302549362182617,0.9199275970458984,-1.5161489248275757
1684114861399268900,6.231268798828125,0.31801939010620117,0.843937873840332,-1.3240233659744263
1684114861409309200,6.24130908203125,0.23210382461547852,0.7736520767211914,-0.9809622764587402
1684114861419349200,6.251349365234375,0.22408199310302734,0.7562484741210938,-0.6253857016563416
1684114861429389600,6.2613896484375,0.23786711692810059,0.9128351211547852,-0.45785918831825256
1684114861439430000,6.271429931640625,0.3603487014770508,1.0037603378295898,-0.41358333826065063
1684114861449470000,6.281469970703125,0.5554261207580566,0.9717769622802734,-0.42096757888793945
1684114861459510300,6.29151025390625,0.6368741989135742,0.7525300979614258,-0.47540363669395447
1684114861469550300,6.30155029296875,0.5694832801818848,0.5468835830688477,-0.5747746825218201
1684114861479590700,6.311590576171875,0.4348571300506592,0.4955892562866211,-0.6052805185317993
1684114861489631000,6.321630859375,0.36409783363342285,0.4692668914794922,-0.4963880181312561
1684114861499671300,6.33167138671875,0.6054846048355103,0.35840606689453125,-0.31730979681015015
1684114861509711400,6.34171142578125,1.0923417806625366,-0.5740280151367188,0.20755527913570404
1684114861519751700,6.351751708984375,0.4170471429824829,-0.919611930847168,-0.3376922309398651
1684114861529791700,6.361791748046875,0.023233413696289062,-1.3424224853515625,-0.8168621063232422
1684114861539832000,6.37183203125,-0.39299583435058594,-1.9105501174926758,-0.8733062744140625
1684114861549872400,6.381872314453125,-0.93088698387146,-2.177288055419922,-1.0845420360565186
1684114861559912400,6.391912353515625,-1.438805103302002,-2.6316680908203125,-1.472717046737671
1684114861569952800,6.401952880859375,-2.9380173683166504,-3.45928955078125,-2.0909509658813477
1684114861579993000,6.4119931640625,-5.527419090270996,-4.0325117111206055,-2.412966728210449
1684114861590033200,6.422033203125,-6.266659259796143,-3.4550647735595703,-1.3561768531799316
1684114861600073500,6.432073486328125,-4.048354625701904,-1.838892936706543,-0.06719669699668884
1684114861610113800,6.44211376953125,-1.292365312576294,-0.5467853546142578,0.9294551610946655
1684114861620153900,6.45215380859375,0.7353454232215881,0.050528526306152344,1.7759673595428467
1684114861630194200,6.462194091796875,2.427292823791504,0.5604076385498047,2.115118980407715
1684114861640234200,6.472234130859375,3.1374475955963135,1.053288459777832,1.4952373504638672
1684114861650274600,6.482274658203125,3.3036069869995117,1.5280179977416992,1.0919218063354492
1684114861660315000,6.49231494140625,3.172220230102539,1.7821364402770996,1.0653477907180786
1684114861670355000,6.50235498046875,2.336496353149414,1.572859764099121,1.2922614812850952
1684114861680395300,6.512395263671875,1.1399147510528564,1.192617416381836,1.3619420528411865
1684114861690435600,6.522435546875,0.48165929317474365,0.7392902374267578,0.9320753812789917
1684114861700475600,6.5324755859375,0.37964141368865967,0.3987312316894531,0.43444234132766724
1684114861710516000,6.542515869140625,0.5088056325912476,0.09151935577392578,0.1361382007598877
1684114861720556300,6.552556396484375,0.7627800703048706,-0.22997474670410156,0.06343591213226318
1684114861730596400,6.562596435546875,1.0701262950897217,-0.43871116638183594,0.12589317560195923
1684114861740636700,6.57263671875,1.315378189086914,-0.44865989685058594,0.25819751620292664
1684114861750676700,6.5826767578125,1.491212010383606,-0.24102306365966797,0.3665888011455536
1684114861760717000,6.592717041015625,1.543563961982727,-0.0072116851806640625,0.4091557562351227
1684114861770757400,6.60275732421875,1.5449827909469604,0.11426162719726562,0.26988542079925537
1684114861780797700,6.612797607421875,1.5860192775726318,-0.0029697418212890625,0.029192090034484863
1684114861790837800,6.622837646484375,1.6177523136138916,0.035439491271972656,-0.23216605186462402
1684114861800878000,6.632878173828125,1.5645039081573486,0.08834171295166016,-0.25467240810394287
1684114861810918100,6.642918212890625,1.4064003229141235,0.17515850067138672,-0.2603697180747986
1684114861820958500,6.65295849609375,1.0869777202606201,0.12871360778808594,-0.3520480990409851
1684114861830998800,6.662998779296875,0.6620811223983765,0.09697437286376953,-0.4970102906227112
1684114861841038800,6.673038818359375,0.20783597230911255,0.050579071044921875,-0.6266515851020813
1684114861851079200,6.6830791015625,-0.18958434462547302,0.06080913543701172,-0.6624760627746582
1684114861861119500,6.693119384765625,-0.47043561935424805,-0.013455390930175781,-0.6525821089744568
1684114861871159600,6.70315966796875,-0.5549663305282593,-0.050116539001464844,-0.6143174767494202
1684114861881199900,6.713199951171875,-0.42859312891960144,-0.008498191833496094,-0.5814507603645325
1684114861891240200,6.723240234375,-0.12017560005187988,0.051613807678222656,-0.5866584777832031
1684114861901280300,6.7332802734375,0.25806933641433716,0.0968475341796875,-0.679132342338562
1684114861911320600,6.743320556640625,0.6179572343826294,0.13690948486328125,-0.7268640995025635
1684114861921360600,6.753360595703125,0.9061464071273804,0.19339656829833984,-0.7799572944641113
1684114861931401000,6.76340087890625,1.1212433576583862,0.2017974853515625,-0.8164505362510681
1684114861941441300,6.773441162109375,1.2702301740646362,0.20997142791748047,-0.7860028147697449
1684114861951481300,6.7834814453125,1.3938666582107544,0.24425792694091797,-0.6871527433395386
1684114861961521700,6.793521728515625,1.5182764530181885,0.23065471649169922,-0.5711456537246704
1684114861971562000,6.80356201171875,1.6404829025268555,0.1646099090576172,-0.4055272936820984
1684114861981602000,6.81360205078125,1.7972568273544312,0.11803245544433594,-0.2820667028427124
1684114861991642400,6.823642333984375,1.917062759399414,0.08624553680419922,-0.13473308086395264
1684114862001682700,6.8336826171875,2.0219480991363525,0.019170761108398438,-0.07424688339233398
1684114862011722800,6.84372265625,2.0104494094848633,-0.07118701934814453,-0.03832399845123291
1684114862021763000,6.85376318359375,1.8903628587722778,-0.16101741790771484,-0.03854632377624512
1684114862031803100,6.86380322265625,1.6541085243225098,-0.2146749496459961,-0.016985774040222168
1684114862041843500,6.873843505859375,1.3588265180587769,-0.23003482818603516,0.017343640327453613
1684114862051883800,6.8838837890625,1.043781042098999,-0.19774341583251953,0.04320108890533447
1684114862061924000,6.893924072265625,0.6567148566246033,-0.11084175109863281,0.08713126182556152
1684114862071964200,6.903964111328125,0.21405737102031708,-0.029211044311523438,0.06795191764831543
1684114862082004500,6.91400439453125,-0.2202792763710022,0.07336711883544922,-0.04410344362258911
1684114862092044500,6.92404443359375,-0.5837467908859253,0.1491250991821289,-0.2021811604499817
1684114862102084900,6.9340849609375,-0.8100701570510864,0.2675352096557617,-0.3622603416442871
1684114862112125200,6.944125244140625,-0.8314323425292969,0.33545494079589844,-0.4925838112831116
1684114862122165200,6.954165283203125,-0.6242456436157227,0.29092884063720703,-0.6074192523956299
1684114862132205600,6.96420556640625,-0.307626336812973,0.2177104949951172,-0.6253368854522705
1684114862142246000,6.974245849609375,0.004718303680419922,0.1372976303100586,-0.518322229385376
1684114862152286000,6.984285888671875,0.25076159834861755,0.10458087921142578,-0.3490455150604248
1684114862162326300,6.994326171875,0.48449480533599854,0.06207466125488281,-0.14863789081573486
1684114862172366600,7.00436669921875,0.6668993234634399,0.007378578186035156,0.11860531568527222
1684114862182406700,7.01440673828125,0.7993003726005554,-0.0762472152709961,0.3546263575553894
1684114862192447000,7.024447021484375,0.8758559823036194,-0.09558582305908203,0.6257791519165039
1684114862202487000,7.034487060546875,0.897954523563385,-0.081817626953125,0.8452870845794678
1684114862212527400,7.04452734375,0.9008989334106445,-0.070770263671875,1.0599905252456665
1684114862222567700,7.054567626953125,0.8301200270652771,-0.057610511779785156,1.159509301185608
1684114862232607700,7.064607666015625,0.7558034062385559,-0.04957771301269531,1.2187678813934326
1684114862242648000,7.07464794921875,0.6644802093505859,-0.06577205657958984,1.3430378437042236
1684114862252688400,7.0846884765625,0.5210874080657959,-0.16334152221679688,1.478834629058838
1684114862262728400,7.094728515625,0.40303248167037964,-0.18435955047607422,1.5944416522979736
1684114862272768800,7.104768798828125,0.2754141688346863,-0.1909646987915039,1.6844254732131958
1684114862282809000,7.11480908203125,0.13481980562210083,-0.23079586029052734,1.781686544418335
1684114862292849200,7.12484912109375,0.02324455976486206,-0.2726163864135742,1.7452443838119507
1684114862302889500,7.134889404296875,-0.05377209186553955,-0.2684497833251953,1.6581063270568848
1684114862312929800,7.1449296875,-0.08141475915908813,-0.2254180908203125,1.4457283020019531
1684114862322969900,7.154969970703125,-0.07666665315628052,-0.15321636199951172,1.161502480506897
1684114862333010200,7.16501025390625,0.0003463625907897949,-0.09510040283203125,0.8379120826721191
1684114862343050500,7.175050537109375,0.07665383815765381,-0.036849021911621094,0.6237038373947144
1684114862353090600,7.185090576171875,0.16324740648269653,-0.031106948852539062,0.4186854362487793
1684114862363131000,7.195130859375,0.2233966588973999,-0.04687690734863281,0.24279522895812988
1684114862373171200,7.205171142578125,0.2757485508918762,-0.0364837646484375,0.13252472877502441
1684114862383211300,7.215211181640625,0.3176785111427307,-0.035941123962402344,0.01441037654876709
1684114862393251600,7.22525146484375,0.2723581790924072,0.021505355834960938,-0.058283329010009766
1684114862403291600,7.235291748046875,0.2333948016166687,0.04962444305419922,-0.09676551818847656
1684114862413332000,7.24533203125,0.17054420709609985,0.027004241943359375,-0.11524200439453125
1684114862423372300,7.255372314453125,0.05172914266586304,0.015924453735351562,-0.07782483100891113
1684114862433412400,7.265412353515625,-0.026131153106689453,0.033112525939941406,-0.00588381290435791
1684114862443452700,7.27545263671875,-0.05492269992828369,0.030841827392578125,0.20047438144683838
1684114862453493000,7.285492919921875,-0.04163616895675659,-0.03601360321044922,0.4608762264251709
1684114862463533000,7.295532958984375,0.027779996395111084,-0.07410049438476562,0.6862865686416626
1684114862473573400,7.305573486328125,0.029556691646575928,-0.3078174591064453,0.8951428532600403
1684114862483613700,7.31561376953125,0.03094613552093506,-0.44747447967529297,1.1696439981460571
1684114862493653800,7.32565380859375,0.21120589971542358,-0.056405067443847656,1.3589282035827637
1684114862503694000,7.335694091796875,0.35301053524017334,0.1285104751586914,1.486368179321289
1684114862513734400,7.345734375,0.4341723322868347,0.09365558624267578,1.500641107559204
1684114862523774500,7.3557744140625,0.506722092628479,0.06393146514892578,1.4121782779693604
1684114862533814800,7.365814697265625,0.5181950330734253,0.07017707824707031,1.3323168754577637
1684114862543855000,7.375855224609375,0.4834272265434265,0.11947822570800781,1.2850075960159302
1684114862553895200,7.385895263671875,0.45778924226760864,0.15939044952392578,1.2286531925201416
1684114862563935500,7.395935546875,0.4560115337371826,0.15903472900390625,1.1507844924926758
1684114862573975600,7.4059755859375,0.4640551805496216,0.10129833221435547,0.9659295082092285
1684114862584016000,7.416015869140625,0.45824384689331055,-0.1686382293701172,1.0598955154418945
1684114862594056200,7.42605615234375,0.5059265494346619,-0.4275074005126953,1.132620096206665
1684114862604096500,7.436096435546875,0.5311332941055298,-0.6081457138061523,1.1683436632156372
1684114862614136600,7.446136474609375,0.5753197073936462,-0.7129631042480469,1.2166640758514404
1684114862624177000,7.456177001953125,0.629200279712677,-0.8758268356323242,1.3154454231262207
1684114862634217000,7.466217041015625,0.7134453058242798,-1.0324230194091797,1.3034133911132812
1684114862644257300,7.47625732421875,0.8219238519668579,-1.1665830612182617,1.2428749799728394
1684114862654297600,7.486297607421875,0.9458453059196472,-1.2645254135131836,1.097865343093872
1684114862664337700,7.496337646484375,1.0862889289855957,-1.2979192733764648,1.0247806310653687
1684114862674378000,7.5063779296875,1.1759119033813477,-1.2602863311767578,0.797104001045227
1684114862684418300,7.516418212890625,1.2862930297851562,-1.3196687698364258,0.5482664108276367
1684114862694458400,7.526458251953125,1.3439843654632568,-1.3205642700195312,0.3859366178512573
1684114862704498700,7.536498779296875,1.3430380821228027,-1.2437982559204102,0.17529654502868652
1684114862714539000,7.5465390625,1.2922635078430176,-1.0656681060791016,-0.05459856986999512
1684114862724579000,7.5565791015625,1.2338393926620483,-0.8559589385986328,-0.41414105892181396
1684114862734619400,7.566619384765625,1.201944351196289,-0.5698423385620117,-0.7644561529159546
1684114862744659700,7.57665966796875,1.1562741994857788,-0.24366283416748047,-0.9944930076599121
1684114862754699800,7.58669970703125,1.0753743648529053,0.15342330932617188,-1.1001927852630615
1684114862764740000,7.596739990234375,0.9452011585235596,0.6142196655273438,-1.0908288955688477
1684114862774780400,7.606780517578125,0.7140803337097168,1.0172033309936523,-1.0174891948699951
1684114862784820500,7.616820556640625,0.48477596044540405,1.3490018844604492,-0.8348281383514404
1684114862794860800,7.62686083984375,0.28867974877357483,1.594447135925293,-0.5407402515411377
1684114862804900900,7.63690087890625,-0.12671391665935516,1.6962666511535645,-0.19905519485473633
1684114862814941200,7.646941162109375,-0.5964620113372803,1.5163326263427734,0.13400483131408691
1684114862824981500,7.6569814453125,-1.167872667312622,1.1979866027832031,0.2237842082977295
1684114862835021600,7.667021484375,-1.683700442314148,0.8235359191894531,-0.055358171463012695
1684114862845062000,7.677061767578125,-2.0683858394622803,0.18192577362060547,0.09772849082946777
1684114862855102200,7.687102294921875,-2.2738099098205566,-0.2708406448364258,0.37714171409606934
1684114862865142300,7.697142333984375,-2.315680503845215,-0.42202186584472656,0.5336859226226807
1684114862875182600,7.7071826171875,-2.1882553100585938,-0.43526649475097656,0.5352374315261841
1684114862885223000,7.717222900390625,-1.827873706817627,-0.34752464294433594,0.501953125
1684114862895263000,7.727262939453125,-1.3640656471252441,-0.2500295639038086,0.47266483306884766
1684114862905303300,7.73730322265625,-0.9616059064865112,-0.1668252944946289,0.3818979263305664
1684114862915343600,7.747343505859375,-0.6907284259796143,-0.11715030670166016,0.3135751485824585
1684114862925383700,7.7573837890625,-0.5422052145004272,-0.1104888916015625,0.2771207094192505
1684114862935424000,7.767424072265625,-0.5240631103515625,-0.16105270385742188,0.253109335899353
1684114862945464300,7.77746435546875,-0.5977514982223511,-0.2400979995727539,0.20294952392578125
1684114862955504400,7.78750439453125,-0.7052617073059082,-0.3236722946166992,0.20907652378082275
1684114862965544700,7.797544677734375,-0.8342805504798889,-0.41446495056152344,0.18017125129699707
1684114862975584800,7.807584716796875,-0.8832932114601135,-0.4794759750366211,0.11860573291778564
1684114862985625000,7.817625,-0.7980912923812866,-0.5120439529418945,0.10561800003051758
1684114862995665400,7.82766552734375,-0.5099447965621948,-0.49121856689453125,0.046506285667419434
1684114863005705500,7.83770556640625,-0.10271000862121582,-0.46755123138427734,-0.028153657913208008
1684114863015745800,7.847745849609375,0.3525329828262329,-0.45525646209716797,-0.26392340660095215
1684114863025786000,7.8577861328125,0.8033695220947266,-0.6375932693481445,-0.404659628868103
1684114863035826200,7.867826171875,0.9681118726730347,-0.771641731262207,-0.42266273498535156
1684114863045866500,7.877866455078125,0.9764866232872009,-0.8211708068847656,-0.6287473440170288
1684114863055906800,7.88790673828125,0.9232137799263,-0.8440542221069336,-0.7845935821533203
1684114863065947000,7.89794677734375,0.8485090732574463,-0.776310920715332,-0.9401516914367676
1684114863075987200,7.9079873046875,0.7440997958183289,-0.6948213577270508,-0.9868863821029663
1684114863086027500,7.918027587890625,0.7314274311065674,-0.6045675277709961,-1.040378212928772
1684114863096067600,7.928067626953125,0.8530269861221313,-0.42931270599365234,-1.144139051437378
1684114863106108000,7.93810791015625,1.0114083290100098,-0.28371238708496094,-1.2128715515136719
1684114863116148200,7.948148193359375,1.208876609802246,-0.17654895782470703,-1.0658069849014282
1684114863126188300,7.958188232421875,1.4565825462341309,0.02691173553466797,-0.8477309942245483
1684114863136228600,7.968228515625,1.6656922101974487,0.35109901428222656,-0.6475244760513306
1684114863146268700,7.9782685546875,1.8177742958068848,0.5574741363525391,-0.6110883951187134
1684114863156309000,7.98830908203125,2.0119991302490234,0.6491870880126953,-0.49995696544647217
1684114863166349300,7.998349365234375,2.052450180053711,0.6172761917114258,-0.3622404932975769
1684114863176389600,8.0083896484375,1.9958844184875488,0.5215702056884766,-0.297838032245636
1684114863186429700,8.0184296875,1.9231237173080444,0.46440601348876953,-0.33046048879623413
1684114863196470000,8.028469970703124,1.7740648984909058,0.41641998291015625,-0.1251993179321289
1684114863206510000,8.038510009765625,1.504061222076416,0.39361572265625,0.21852970123291016
1684114863216550400,8.04855029296875,0.9994857311248779,0.3589191436767578,0.5828346014022827
1684114863226590700,8.0585908203125,0.3515009880065918,0.3873710632324219,0.905498743057251
1684114863236630800,8.068630859375,-0.22854530811309814,0.4442911148071289,1.149161458015442
1684114863246671000,8.078671142578125,-0.6314988136291504,0.5502138137817383,1.2067950963974
1684114863256711400,8.08871142578125,-0.8132697343826294,0.5923023223876953,1.0672008991241455
1684114863266751500,8.09875146484375,-0.6918656826019287,0.6023092269897461,0.7059957981109619
1684114863276791800,8.108791748046874,-0.6000823974609375,0.5525979995727539,0.07964542508125305
1684114863286832000,8.11883203125,-0.5558583736419678,0.6040992736816406,-0.5866316556930542
1684114863296872200,8.1288720703125,-0.5823153257369995,0.6137371063232422,-1.0393004417419434
1684114863306912500,8.13891259765625,-0.48295629024505615,0.5820760726928711,-1.333622694015503
1684114863316952600,8.14895263671875,-0.18561971187591553,0.5960350036621094,-1.5808873176574707
1684114863326993000,8.158992919921875,0.06181681156158447,0.6348485946655273,-1.6596680879592896
1684114863337033200,8.169033203125,0.20046865940093994,0.67022705078125,-1.6060800552368164
1684114863347073500,8.179073486328125,0.27588343620300293,0.6855430603027344,-1.5102965831756592
1684114863357113600,8.189113525390624,0.35600757598876953,0.7045793533325195,-1.376153588294983
1684114863367154000,8.19915380859375,0.4803422689437866,0.6817007064819336,-1.2078351974487305
1684114863377194000,8.209194091796874,0.5642578601837158,0.6740379333496094,-1.0101288557052612
1684114863387234300,8.219234375,0.6520651578903198,0.659794807434082,-0.8566582798957825
1684114863397274600,8.229274658203124,0.70395827293396,0.6459598541259766,-0.6677734851837158
1684114863407314700,8.239314697265625,0.7246675491333008,0.6587963104248047,-0.48655688762664795
1684114863417355000,8.24935498046875,0.7208946943283081,0.6744356155395508,-0.24739903211593628
1684114863427395300,8.259395263671875,0.7444322109222412,0.6739015579223633,-0.035775139927864075
1684114863437435400,8.269435302734376,0.7325828075408936,0.6453580856323242,0.06151328980922699
1684114863447475700,8.279475830078125,0.6970770359039307,0.5650167465209961,0.17271628975868225
1684114863457516000,8.28951611328125,0.5588655471801758,0.45691871643066406,0.2342548668384552
1684114863467556000,8.29955615234375,0.2808699607849121,0.28752803802490234,0.3211691975593567
1684114863477596400,8.309596435546876,-0.16916751861572266,0.05402851104736328,0.43705910444259644
1684114863487636700,8.31963671875,-0.7030993700027466,-0.19159603118896484,0.524452805519104
1684114863497676800,8.3296767578125,-1.2949620485305786,-0.45960235595703125,0.520108699798584
1684114863507717000,8.339717041015625,-1.9309829473495483,-0.7123537063598633,0.5269313454627991
1684114863517757400,8.34975732421875,-2.5361275672912598,-0.9025459289550781,0.7006109952926636
1684114863527797500,8.359797607421875,-2.8446576595306396,-0.9730463027954102,0.9766119718551636
1684114863537837800,8.369837890625,-2.6483283042907715,-0.8804941177368164,1.3144006729125977
1684114863547878000,8.3798779296875,-2.190796375274658,-0.6958446502685547,1.6832386255264282
1684114863557918200,8.389918212890626,-1.685327172279358,-0.41132259368896484,1.8611326217651367
1684114863567958500,8.39995849609375,-1.1522693634033203,-0.14606952667236328,1.82743239402771
1684114863577998600,8.40999853515625,-0.6631531715393066,0.0692138671875,1.6789499521255493
1684114863588039000,8.420038818359375,-0.3119988441467285,0.17266273498535156,1.3926019668579102
1684114863598079200,8.430079345703126,-0.051632046699523926,0.2745218276977539,0.9572505354881287
1684114863608119300,8.440119384765625,0.08446991443634033,0.5061283111572266,0.47394561767578125
1684114863618159600,8.45015966796875,0.14697158336639404,0.8957138061523438,0.03086450695991516
1684114863628200000,8.460199951171875,0.24788141250610352,1.146794319152832,-0.3137504756450653
1684114863638240000,8.470239990234376,0.32984137535095215,1.2357282638549805,-0.6451154351234436
1684114863648280300,8.4802802734375,0.5436995029449463,1.0074758529663086,-1.014845609664917
1684114863658320400,8.4903203125,0.748456597328186,0.6202783584594727,-1.3328516483306885
1684114863668360700,8.500360595703125,0.7059903144836426,0.2821235656738281,-1.5588289499282837
1684114863678401000,8.510401123046876,0.33963561058044434,-0.15070343017578125,-1.8173032999038696
1684114863688441300,8.52044140625,-0.1333601474761963,-0.7737598419189453,-2.043311595916748
1684114863698481400,8.5304814453125,-0.5333740711212158,-1.815760612487793,-2.239490270614624
1684114863708521700,8.540521728515625,-1.3571738004684448,-3.361408233642578,-2.2419896125793457
1684114863718561800,8.550561767578126,-2.99460768699646,-5.061410903930664,-1.8250787258148193
1684114863728602000,8.56060205078125,-4.119947910308838,-5.822719573974609,-0.46768873929977417
1684114863738642400,8.570642333984376,-2.619920492172241,-4.945257186889648,1.1449546813964844
1684114863748682500,8.5806826171875,-0.33744847774505615,-3.23238468170166,2.3960113525390625
1684114863758722800,8.590722900390626,1.3857600688934326,-1.5217599868774414,2.770225763320923
1684114863768763100,8.60076318359375,2.2660720348358154,-0.22636127471923828,2.3630857467651367
1684114863778803200,8.61080322265625,2.5193276405334473,0.7476768493652344,1.5403236150741577
1684114863788843500,8.620843505859375,2.3829593658447266,1.6944580078125,0.7848513126373291
1684114863798883800,8.6308837890625,2.2238428592681885,2.652714729309082,0.25562840700149536
1684114863808924000,8.640923828125,2.199742555618286,3.3680601119995117,-0.18707549571990967
1684114863818964200,8.650964111328125,2.1898257732391357,3.5769238471984863,-0.6405837535858154
1684114863829004300,8.66100439453125,2.179288864135742,3.4917683601379395,-1.088524341583252
1684114863839044600,8.671044677734375,2.1169180870056152,2.940181255340576,-1.3957144021987915
1684114863849085000,8.6810849609375,1.9530171155929565,2.0854644775390625,-1.911267638206482
1684114863859125200,8.691125244140625,1.7391271591186523,1.1083498001098633,-2.277224063873291
1684114863869165300,8.701165283203125,1.6029032468795776,0.15084075927734375,-2.202364444732666
1684114863879205600,8.71120556640625,1.4955801963806152,-0.45156002044677734,-1.8466904163360596
1684114863889245700,8.72124560546875,1.3749700784683228,-0.7530431747436523,-1.4799752235412598
1684114863899286000,8.7312861328125,1.2415813207626343,-0.7261323928833008,-1.2304162979125977
1684114863909326300,8.741326416015625,1.1201835870742798,-0.37361907958984375,-0.7615159749984741
1684114863919366400,8.751366455078125,0.9549084901809692,-0.07277488708496094,-0.33196866512298584
1684114863929406700,8.76140673828125,0.7501057982444763,0.08645153045654297,-0.1258782148361206
1684114863939447000,8.771447021484375,0.41787320375442505,0.10471820831298828,0.06565654277801514
1684114863949487000,8.781487060546874,-0.004678010940551758,0.07293510437011719,0.08160972595214844
1684114863959527400,8.79152734375,-0.40075522661209106,-0.1736745834350586,0.23150920867919922
1684114863969567700,8.801567626953124,-0.7816282510757446,-0.4101133346557617,0.311248779296875
1684114863979607800,8.81160791015625,-1.053768515586853,-0.49092864990234375,0.2932901382446289
1684114863989648100,8.821648193359374,-1.1340348720550537,-0.3908061981201172,0.12816619873046875
1684114863999688200,8.831688232421875,-0.9696313738822937,-0.15364551544189453,-0.055459022521972656
1684114864009728500,8.841728515625,-0.5907700657844543,0.06251811981201172,-0.20971548557281494
1684114864019768800,8.851768798828125,-0.13860255479812622,0.2651214599609375,-0.2885626554489136
1684114864029809200,8.86180908203125,0.2808306813240051,0.3995246887207031,-0.3230454921722412
1684114864039849200,8.87184912109375,0.6244802474975586,0.41600894927978516,-0.2993358373641968
1684114864049889500,8.8818896484375,0.870811939239502,0.3054485321044922,-0.24889349937438965
1684114864059929600,8.8919296875,0.9957977533340454,0.1398916244506836,-0.13178539276123047
1684114864069970000,8.901969970703124,1.0455552339553833,-0.00875091552734375,-0.013723373413085938
1684114864080010200,8.91201025390625,1.1113471984863281,-0.10935592651367188,0.10438334941864014
1684114864090050300,8.92205029296875,1.1763741970062256,-0.17144012451171875,0.23588931560516357
1684114864100090600,8.932090576171875,1.2287203073501587,-0.2188720703125,0.3203725814819336
1684114864110131000,8.942130859375,1.2754595279693604,-0.23721694946289062,0.3977224826812744
1684114864120171000,8.9521708984375,1.3166528940200806,-0.25270557403564453,0.41478610038757324
1684114864130211300,8.96221142578125,1.3897991180419922,-0.21516895294189453,0.42901670932769775
1684114864140251600,8.972251708984375,1.4486041069030762,-0.12469100952148438,0.4092128276824951
1684114864150291700,8.982291748046874,1.489760160446167,-0.08404159545898438,0.44593894481658936
1684114864160332000,8.99233203125,1.5052846670150757,-0.04769706726074219,0.42185139656066895
1684114864170372400,9.002372314453124,1.4705184698104858,-0.11596965789794922,0.43499886989593506
1684114864180412400,9.012412353515625,1.3084133863449097,-0.1740398406982422,0.38036370277404785
1684114864190452700,9.02245263671875,1.0316663980484009,-0.22687244415283203,0.31117987632751465
1684114864200493000,9.0324931640625,0.7085833549499512,-0.24356842041015625,0.27562057971954346
1684114864210533000,9.042533203125,0.36494070291519165,-0.11451148986816406,0.11655604839324951
1684114864220573400,9.052573486328125,0.012787200510501862,0.02835845947265625,-0.06879687309265137
1684114864230613500,9.062613525390624,-0.28524890542030334,0.08453178405761719,-0.2932685613632202
1684114864240653800,9.07265380859375,-0.5457927584648132,0.10906696319580078,-0.48392558097839355
1684114864250694100,9.082694091796874,-0.6569002866744995,0.14731502532958984,-0.6489461660385132
1684114864260734200,9.092734130859375,-0.6609095335006714,0.20396041870117188,-0.73717200756073
1684114864270774500,9.1027744140625,-0.5228351354598999,0.2956695556640625,-0.7031455039978027
1684114864280814800,9.11281494140625,-0.2616880536079407,0.37692832946777344,-0.5971463918685913
1684114864290855000,9.12285498046875,0.019640058279037476,0.3928508758544922,-0.3720744848251343
1684114864300895200,9.132895263671875,0.30463194847106934,0.36507511138916016,-0.13128817081451416
1684114864310935600,9.142935546875,0.5078129768371582,0.23641681671142578,0.17474782466888428
1684114864320975600,9.1529755859375,0.6757323741912842,0.04301166534423828,0.47586488723754883
1684114864331016000,9.163015869140626,0.7786703109741211,-0.07639312744140625,0.7521979808807373
1684114864341056300,9.17305615234375,0.8372508883476257,-0.19829463958740234,1.0148162841796875
1684114864351096300,9.183096435546876,0.8745453953742981,-0.2962942123413086,1.2365235090255737
1684114864361136600,9.19313671875,0.8609168529510498,-0.3559989929199219,1.3710136413574219
1684114864371177000,9.203177001953126,0.7840695381164551,-0.38695621490478516,1.4989053010940552
1684114864381217000,9.213217041015625,0.6234786510467529,-0.4225587844848633,1.638677954673767
1684114864391257300,9.22325732421875,0.3929392397403717,-0.4172782897949219,1.6870595216751099
1684114864401297400,9.23329736328125,0.1448635458946228,-0.4665679931640625,1.741695523262024
1684114864411337700,9.243337646484376,-0.11099424958229065,-0.46498870849609375,1.7519179582595825
1684114864421378000,9.2533779296875,-0.38356873393058777,-0.4219179153442383,1.5954474210739136
1684114864431418000,9.263418212890626,-0.5791978240013123,-0.34202098846435547,1.2559669017791748
1684114864441458400,9.27345849609375,-0.6292053461074829,-0.2661714553833008,0.8599873781204224
1684114864451498800,9.283498779296876,-0.5462328195571899,-0.2232370376586914,0.5044281482696533
1684114864461538800,9.293538818359375,-0.3660261631011963,-0.18703174591064453,0.2587583065032959
1684114864471579100,9.3035791015625,-0.15598538517951965,-0.08858776092529297,0.030362963676452637
1684114864481619500,9.313619384765625,0.05515897274017334,0.02629375457763672,-0.12041258811950684
1684114864491659500,9.323659423828126,0.22302228212356567,0.1311635971069336,-0.2221052646636963
1684114864501699800,9.333699951171875,0.39502036571502686,0.19247150421142578,-0.28377652168273926
1684114864511740000,9.343739990234376,0.5394588112831116,0.24837207794189453,-0.283372163772583
1684114864521780200,9.3537802734375,0.6838725209236145,0.2701129913330078,-0.2685883045196533
1684114864531820500,9.363820556640626,0.7790971398353577,0.28390026092529297,-0.2390989065170288
1684114864541860600,9.373860595703125,0.8242806792259216,0.2800893783569336,-0.20663559436798096
1684114864551901000,9.38390087890625,0.812343180179596,0.3183927536010742,-0.14726805686950684
1684114864561941200,9.393941162109375,0.7179965376853943,0.25060176849365234,-0.03691685199737549
1684114864571981300,9.403981201171876,0.5931389927864075,0.17262744903564453,0.16933465003967285
1684114864582021600,9.414021728515625,0.49169230461120605,0.0560150146484375,0.38941001892089844
1684114864592062000,9.42406201171875,0.3976173400878906,0.010877609252929688,0.6154241561889648
1684114864602102000,9.43410205078125,0.31823211908340454,-0.05117607116699219,0.8036600351333618
1684114864612142300,9.444142333984376,0.2317025065422058,-0.0989980697631836,0.9418699741363525
1684114864622182700,9.4541826171875,0.14241039752960205,-0.12064075469970703,1.0728228092193604
1684114864632222700,9.46422265625,0.05269819498062134,-0.10649299621582031,1.143399953842163
1684114864642263000,9.474262939453125,-0.0461200475692749,-0.09473800659179688,1.184539794921875
1684114864652303400,9.484303466796876,-0.1266878843307495,-0.07329368591308594,1.1865479946136475
1684114864662343400,9.494343505859375,-0.16898828744888306,-0.09472179412841797,1.0829871892929077
1684114864672383700,9.5043837890625,-0.19384914636611938,-0.1518230438232422,0.9965325593948364
1684114864682424000,9.514424072265625,-0.20644357800483704,-0.17058563232421875,0.8725820779800415
1684114864692464000,9.524464111328125,-0.15792721509933472,-0.015089988708496094,0.8187605142593384
1684114864702504400,9.53450439453125,-0.06196749210357666,0.18982887268066406,0.7397645711898804
1684114864712544500,9.54454443359375,-0.01255875825881958,0.24584293365478516,0.690261721611023
1684114864722584800,9.554584716796874,0.03122466802597046,0.1748952865600586,0.6125805377960205
1684114864732625200,9.564625244140625,0.06740206480026245,0.017940521240234375,0.5783864259719849
1684114864742665200,9.574665283203124,0.11297893524169922,-0.09575271606445312,0.5968062877655029
1684114864752705500,9.58470556640625,0.17577910423278809,-0.22346878051757812,0.6506551504135132
1684114864762745900,9.594745849609374,0.24031269550323486,-0.40310001373291016,0.7391669750213623
1684114864772786000,9.604785888671875,0.3035089373588562,-0.6509284973144531,0.887959361076355
1684114864782826200,9.614826171875,0.414279043674469,-0.7494821548461914,0.9994171857833862
1684114864792866600,9.624866455078125,0.5224697589874268,-0.8326377868652344,1.1779139041900635
1684114864802906600,9.63490673828125,0.5823835134506226,-0.832768440246582,1.3940166234970093
1684114864812947000,9.644947021484375,0.6696254014968872,-0.9097843170166016,1.4695950746536255
1684114864822987300,9.6549873046875,0.7212735414505005,-1.0710391998291016,1.525633454322815
1684114864833027300,9.66502734375,0.7508412003517151,-1.3407707214355469,1.5496599674224854
1684114864843067600,9.675067626953124,0.8020041584968567,-1.5040254592895508,1.5923478603363037
1684114864853108000,9.68510791015625,0.8556238412857056,-1.633021354675293,1.5825445652008057
1684114864863148000,9.69514794921875,0.8993882536888123,-1.7475004196166992,1.442975401878357
1684114864873188400,9.705188232421875,0.9340909719467163,-1.9483318328857422,1.2615909576416016
1684114864883228400,9.715228515625,0.8807414770126343,-2.1374073028564453,1.1651432514190674
1684114864893268700,9.725268798828125,0.7649231553077698,-2.1326112747192383,1.1394625902175903
1684114864903309000,9.73530908203125,0.6175792813301086,-1.9026622772216797,1.007866382598877
1684114864913349000,9.74534912109375,0.4109121561050415,-1.4883766174316406,0.8823288679122925
1684114864923389400,9.755389404296874,0.1507161259651184,-1.024240493774414,0.6190338134765625
1684114864933429800,9.7654296875,-0.11125743389129639,-0.4346342086791992,0.2832913398742676
1684114864943469800,9.7754697265625,-0.4850326478481293,0.043521881103515625,-0.08106875419616699
1684114864953510100,9.78551025390625,-0.919073760509491,0.5015058517456055,-0.43885254859924316
1684114864963550500,9.795550537109374,-1.2645649909973145,0.918025016784668,-0.639561653137207
1684114864973590500,9.805590576171875,-1.5658037662506104,1.2098197937011719,-0.6981356143951416
1684114864983630800,9.815630859375,-1.7628986835479736,1.429884910583496,-0.5629215240478516
1684114864993671000,9.8256708984375,-1.8442254066467285,1.3963994979858398,-0.2692408561706543
1684114865003711200,9.835711181640624,-1.7273740768432617,1.1070775985717773,0.26645922660827637
1684114865013751600,9.84575146484375,-1.4520056247711182,0.7775754928588867,0.869590163230896
1684114865023791900,9.8557919921875,-1.1004077196121216,0.4778623580932617,1.3814553022384644
1684114865033832000,9.86583203125,-0.8170897960662842,0.3229560852050781,1.6856942176818848
1684114865043872300,9.875872314453124,-0.5982428193092346,0.25066661834716797,1.8082906007766724
1684114865053912300,9.885912353515625,-0.5191448330879211,0.2538003921508789,1.8423408269882202
1684114865063952600,9.89595263671875,-0.5481576919555664,0.3202066421508789,1.6352567672729492
1684114865073993000,9.905992919921875,-0.6667076349258423,0.3873863220214844,1.2334517240524292
1684114865084033000,9.916032958984376,-0.7842469215393066,0.4356069564819336,0.7486709356307983
1684114865094073300,9.9260732421875,-0.8806337118148804,0.3663482666015625,0.2394852638244629
1684114865104113700,9.93611376953125,-0.9039350748062134,0.27252197265625,-0.1911919116973877
1684114865114153700,9.94615380859375,-0.7921862602233887,0.08905029296875,-0.6073570251464844
1684114865124194000,9.956194091796876,-0.5071527361869812,-0.09852027893066406,-0.8669838905334473
1684114865134234400,9.966234375,-0.06501662731170654,-0.2881355285644531,-1.0602757930755615
1684114865144274400,9.9762744140625,0.46780824661254883,-0.5367879867553711,-1.1681745052337646
1684114865154314800,9.986314697265625,0.9806515574455261,-0.8124399185180664,-1.2934437990188599
1684114865164354800,9.996354736328126,1.4308338165283203,-1.0545015335083008,-1.3960318565368652
1684114865174395100,10.00639501953125,1.7050220966339111,-1.2219724655151367,-1.475515365600586
1684114865184435500,10.016435546875,1.8397040367126465,-1.2671289443969727,-1.5082244873046875
1684114865194475500,10.0264755859375,1.8430087566375732,-1.1975584030151367,-1.3834936618804932
1684114865204515800,10.036515869140626,1.7097856998443604,-1.1353569030761719,-1.1485182046890259
1684114865214556200,10.04655615234375,1.515670895576477,-0.9659795761108398,-0.941209077835083
1684114865224596200,10.05659619140625,1.3726222515106201,-0.7493667602539062,-0.6625176668167114
1684114865234636500,10.066636474609375,1.3435389995574951,-0.4258890151977539,-0.3205071687698364
1684114865244676900,10.0766767578125,1.4467294216156006,-0.08626270294189453,0.01456296443939209
1684114865254717000,10.086717041015625,1.7583155632019043,0.25345802307128906,0.3294954299926758
1684114865264757200,10.09675732421875,2.0975327491760254,0.515477180480957,0.6058434247970581
1684114865274797300,10.10679736328125,2.361147403717041,0.6436405181884766,0.8103392720222473
1684114865284837600,10.116837646484376,2.4288382530212402,0.7580537796020508,0.8513041734695435
1684114865294878000,10.1268779296875,2.3451998233795166,0.844059944152832,0.7606558799743652
1684114865304918300,10.136918212890626,2.0778610706329346,0.9152774810791016,0.6228559017181396
1684114865314958300,10.146958251953125,1.7581181526184082,1.0065851211547852,0.39081984758377075
1684114865324998700,10.15699853515625,1.428189754486084,0.8903236389160156,0.21488487720489502
1684114865335038700,10.167038818359375,1.209185242652893,0.6646642684936523,0.09886693954467773
1684114865345079000,10.1770791015625,0.8650796413421631,0.44185543060302734,0.014455318450927734
1684114865355119400,10.187119384765625,0.39481186866760254,0.2954549789428711,-0.08185839653015137
1684114865365159400,10.197159423828126,-0.0501481294631958,0.084014892578125,-0.10683655738830566
1684114865375199700,10.20719970703125,-0.41688597202301025,-0.10644340515136719,-0.09113770723342896
1684114865385240000,10.217239990234376,-0.6971306800842285,-0.26425838470458984,-0.10600495338439941
1684114865395280100,10.227280029296875,-0.8509079217910767,-0.35164356231689453,-0.20304042100906372
1684114865405320400,10.237320556640626,-0.9233269691467285,-0.43852710723876953,-0.39291125535964966
1684114865415360800,10.24736083984375,-0.8839871883392334,-0.4989290237426758,-0.6127723455429077
1684114865425400800,10.25740087890625,-0.7500526905059814,-0.5519857406616211,-0.8027443885803223
1684114865435441200,10.267441162109375,-0.5134743452072144,-0.43238067626953125,-0.9530181884765625
1684114865445481200,10.277481201171875,-0.20145952701568604,-0.30686187744140625,-1.0892033576965332
1684114865455521500,10.287521484375,0.12243592739105225,-0.1934041976928711,-1.157951831817627
1684114865465561900,10.297561767578125,0.38003432750701904,-0.09107589721679688,-1.1428178548812866
1684114865475602000,10.307601806640625,0.5522748231887817,-0.006987571716308594,-1.2627369165420532
1684114865485642200,10.317642333984375,0.6273722648620605,0.032204627990722656,-1.3911932706832886
1684114865495682600,10.3276826171875,0.5884004831314087,0.0998849868774414,-1.5311790704727173
1684114865505722600,10.33772265625,0.5328528881072998,0.1761913299560547,-1.6622157096862793
1684114865515763000,10.347762939453125,0.5679315328598022,0.2774848937988281,-1.6925990581512451
1684114865525803300,10.35780322265625,0.606564998626709,0.3608865737915039,-1.5910451412200928
1684114865535843300,10.36784326171875,0.603825569152832,0.438751220703125,-1.3867473602294922
1684114865545883600,10.377883544921875,0.5602521896362305,0.48760509490966797,-1.0431973934173584
1684114865555923700,10.387923828125,0.4700169563293457,0.5794134140014648,-0.7196352481842041
1684114865565964000,10.397964111328125,0.3663426637649536,0.6186361312866211,-0.3932020962238312
1684114865576004400,10.40800439453125,0.3088186979293823,0.6269712448120117,-0.11555537581443787
1684114865586044400,10.41804443359375,0.29443228244781494,0.5592584609985352,0.1502671241760254
1684114865596084700,10.428084716796874,0.2871098518371582,0.5232276916503906,0.33129775524139404
1684114865606125000,10.438125,0.2730727195739746,0.4518585205078125,0.46516889333724976
1684114865616165000,10.4481650390625,0.29384875297546387,0.34987735748291016,0.5154706239700317
1684114865626205400,10.458205322265625,0.25732266902923584,0.28166770935058594,0.6462711095809937
1684114865636245800,10.468245849609374,0.3026392459869385,0.17538833618164062,0.636011004447937
1684114865646285800,10.478285888671875,0.27679336071014404,0.08840084075927734,0.6104789972305298
1684114865656326100,10.488326171875,0.2608565092086792,0.027862548828125,0.6178689002990723
1684114865666366200,10.4983662109375,0.3374948501586914,-0.0037450790405273438,0.56036776304245
1684114865676406500,10.508406494140624,0.3862224817276001,-0.037395477294921875,0.4861499071121216
1684114865686446800,10.51844677734375,0.42139196395874023,-0.061138153076171875,0.3621574640274048
1684114865696487000,10.52848681640625,0.4509843587875366,-0.060821533203125,0.25313645601272583
1684114865706527200,10.53852734375,0.43295156955718994,-0.027126312255859375,0.1425061970949173
1684114865716567600,10.548567626953124,0.3847334384918213,-0.0032300949096679688,0.03967900574207306
1684114865726607600,10.558607666015625,0.23750615119934082,0.08727264404296875,0.01540955901145935
1684114865736648000,10.56864794921875,-0.024718284606933594,0.1390514373779297,-0.014237850904464722
1684114865746688300,10.578688232421875,-0.3055706024169922,0.07328510284423828,-0.0179864764213562
1684114865756728300,10.588728271484374,-0.5808593034744263,-0.08353233337402344,0.03565174341201782
1684114865766768600,10.5987685546875,-0.7102435827255249,-0.2379627227783203,0.04216495156288147
1684114865776809000,10.60880908203125,-0.6069966554641724,-0.2608375549316406,0.04531759023666382
1684114865786849000,10.61884912109375,-0.38573479652404785,-0.2261810302734375,0.03569887578487396
1684114865796889300,10.628889404296874,-0.2074413299560547,-0.12205982208251953,-0.01064959168434143
1684114865806929400,10.638929443359375,-0.08347713947296143,0.02021312713623047,-0.12197104096412659
1684114865816969700,10.6489697265625,0.0270768404006958,0.15751266479492188,-0.15213096141815186
1684114865827010000,10.659010009765625,0.23347175121307373,0.31621742248535156,-0.15541458129882812
1684114865837050000,10.669050048828124,0.36968350410461426,0.43912601470947266,-0.1336211860179901
1684114865847090400,10.67909033203125,0.508887767791748,0.5050172805786133,-0.09385302662849426
1684114865857130800,10.689130859375,0.6145669221878052,0.5404186248779297,-0.05542990565299988
1684114865867170800,10.6991708984375,0.594212532043457,0.5572071075439453,-0.049412280321121216
1684114865877211100,10.709211181640624,0.7204511165618896,0.5243339538574219,-0.10198560357093811
1684114865887251500,10.71925146484375,0.9041670560836792,0.4180631637573242,-0.3037809431552887
1684114865897291500,10.72929150390625,1.179276704788208,0.07405471801757812,-0.687768816947937
1684114865907331800,10.739331787109375,1.4710954427719116,-0.4350471496582031,-1.2487201690673828
1684114865917372000,10.749371826171876,1.4859540462493896,-0.9342508316040039,-1.7881325483322144
1684114865927412200,10.759412109375,1.155644178390503,-1.4167251586914062,-2.286501407623291
1684114865937452500,10.76945263671875,0.5684633255004883,-1.8186073303222656,-2.6758055686950684
1684114865947492600,10.77949267578125,-0.28579044342041016,-2.085738182067871,-2.8925490379333496
1684114865957533000,10.789532958984376,-1.443507432937622,-2.0713605880737305,-2.7512965202331543
1684114865967573200,10.7995732421875,-2.6838653087615967,-1.789576530456543,-1.7269766330718994
1684114865977613300,10.80961328125,-3.264458179473877,-1.3757123947143555,-0.19314461946487427
1684114865987653600,10.819653564453125,-2.919720411300659,-0.8322505950927734,1.1966193914413452
1684114865997694000,10.82969384765625,-2.0354745388031006,-0.39734935760498047,2.0158462524414062
1684114866007734000,10.839734130859375,-1.0832089185714722,0.02811145782470703,2.107097625732422
1684114866017774300,10.8497744140625,-0.38648533821105957,0.3230714797973633,1.9340566396713257
1684114866027814400,10.859814453125,0.0736076831817627,0.6149415969848633,1.7931182384490967
1684114866037854700,10.869854736328126,0.3677540421485901,0.8492498397827148,1.7567403316497803
1684114866047895000,10.87989501953125,0.6078320145606995,1.0598478317260742,1.6662653684616089
1684114866057935000,10.88993505859375,0.8573834896087646,1.1632413864135742,1.465796947479248
1684114866067975400,10.899975341796875,1.1246964931488037,1.1286430358886719,1.30998694896698
1684114866078015700,10.910015625,1.3748412132263184,0.9016027450561523,1.0988932847976685
1684114866088055800,10.920055908203125,1.6346949338912964,0.5378780364990234,0.8556723594665527
1684114866098096000,10.93009619140625,1.8356374502182007,0.2125072479248047,0.7391228079795837
1684114866108136400,10.940136474609375,1.9487353563308716,-0.1320972442626953,0.5925396680831909
1684114866118176500,10.950176513671876,1.9700920581817627,-0.3961019515991211,0.5211308598518372
1684114866128216800,10.960216796875,1.9508328437805176,-0.601466178894043,0.44403886795043945
1684114866138257000,10.9702568359375,1.7961766719818115,-0.7984638214111328,0.39811158180236816
1684114866148297200,10.980297119140625,1.5232360363006592,-0.8676357269287109,0.3055393695831299
1684114866158337500,10.990337646484376,1.0687668323516846,-0.814112663269043,0.2812455892562866
1684114866168377600,11.000377685546875,0.35351958870887756,-0.5214529037475586,0.2999199628829956
1684114866178418000,11.01041796875,-0.5257342457771301,-0.093475341796875,0.2119138240814209
1684114866188458200,11.020458251953125,-1.3975692987442017,0.3303508758544922,0.07011079788208008
1684114866198498300,11.030498291015626,-1.9403263330459595,0.5990657806396484,-0.11529457569122314
1684114866208538600,11.04053857421875,-1.9865316152572632,0.7079315185546875,-0.3804522752761841
1684114866218579000,11.050578857421876,-1.3943145275115967,0.6667842864990234,-0.5390176773071289
1684114866228619000,11.060618896484375,-0.40981730818748474,0.4473123550415039,-0.5508531332015991
1684114866238659300,11.070659423828126,0.6371352672576904,0.23644638061523438,-0.46845805644989014
1684114866248699400,11.080699462890625,1.5171482563018799,0.10851478576660156,-0.3665245771408081
1684114866258739700,11.09073974609375,2.1505253314971924,0.16398906707763672,-0.238930344581604
1684114866268780000,11.100780029296875,2.53607439994812,0.1713571548461914,-0.06699132919311523
1684114866278820000,11.110820068359375,2.7361392974853516,0.13379573822021484,0.016820669174194336
1684114866288860400,11.1208603515625,2.8707332611083984,0.06848907470703125,-0.04591226577758789
1684114866298900700,11.130900634765625,2.9310741424560547,0.09498786926269531,-0.1614614725112915
1684114866308940800,11.14094091796875,2.9414474964141846,0.10548973083496094,-0.2574739456176758
1684114866318981000,11.150981201171875,2.872776746749878,0.06650447845458984,-0.34611475467681885
1684114866329021400,11.161021484375,2.763206720352173,0.016214370727539062,-0.4368422031402588
1684114866339061500,11.1710615234375,2.6433212757110596,-0.021619796752929688,-0.4959990978240967
1684114866349101800,11.181101806640624,2.4545106887817383,-0.0016908645629882812,-0.5429662466049194
1684114866359142000,11.191141845703125,2.254417657852173,0.0830545425415039,-0.5327506065368652
1684114866369182200,11.20118212890625,2.0809617042541504,0.08199787139892578,-0.5419938564300537
1684114866379222500,11.211222412109375,1.9143946170806885,0.023969650268554688,-0.5871943235397339
1684114866389262600,11.2212626953125,1.739454984664917,-0.02889728546142578,-0.6701878309249878
1684114866399303000,11.231302978515625,1.5328792333602905,-0.06710338592529297,-0.7621904611587524
1684114866409343200,11.24134326171875,1.1531928777694702,-0.06687545776367188,-0.9037662744522095
1684114866419383300,11.25138330078125,0.6273261308670044,-0.016640663146972656,-1.0176721811294556
1684114866429423600,11.261423583984374,0.05284099280834198,0.018648147583007812,-1.1311637163162231
1684114866439464000,11.2714638671875,-0.4888163208961487,0.04606819152832031,-1.1138261556625366
1684114866449504000,11.28150390625,-0.7789982557296753,0.09444236755371094,-1.024614930152893
1684114866459544300,11.29154443359375,-0.799442708492279,0.13039016723632812,-0.8958191871643066
1684114866469584400,11.30158447265625,-0.49686771631240845,0.14687538146972656,-0.6843973398208618
1684114866479624700,11.311624755859375,0.014467060565948486,0.07472705841064453,-0.39858758449554443
1684114866489665000,11.3216650390625,0.5161758661270142,0.04303932189941406,-0.24460697174072266
1684114866499705000,11.331705078125,0.9183615446090698,0.06359291076660156,-0.06491684913635254
1684114866509745400,11.341745361328124,1.2217695713043213,0.06705951690673828,0.13008511066436768
1684114866519785700,11.35178564453125,1.3835917711257935,0.11326980590820312,0.27757370471954346
1684114866529825800,11.36182568359375,1.4435328245162964,0.10667133331298828,0.3914177417755127
1684114866539866000,11.3718662109375,1.4040770530700684,0.06177330017089844,0.4665071964263916
1684114866549906400,11.381906494140624,1.2541524171829224,-0.016550064086914062,0.4908106327056885
1684114866559946500,11.391946533203125,1.0002533197402954,-0.09711170196533203,0.5738360285758972
1684114866569986800,11.40198681640625,0.666068434715271,-0.1416301727294922,0.5908165574073792
1684114866580027100,11.412027099609375,0.302161306142807,-0.1620922088623047,0.6206856966018677
1684114866590067200,11.422067138671874,-0.02368786931037903,-0.1512765884399414,0.5939942598342896
1684114866600107500,11.432107421875,-0.26579004526138306,-0.1617145538330078,0.4943256378173828
1684114866610147600,11.442147705078124,-0.37378332018852234,-0.1359729766845703,0.40595948696136475
1684114866620188000,11.45218798828125,-0.3588374853134155,-0.1242523193359375,0.25508880615234375
1684114866630228200,11.462228271484374,-0.2265479862689972,-0.05732536315917969,0.14502322673797607
1684114866640268300,11.472268310546875,-0.04118737578392029,-0.021356582641601562,0.09709620475769043
1684114866650308600,11.48230859375,0.17306175827980042,0.017030715942382812,0.02778339385986328
1684114866660348700,11.4923486328125,0.3540641963481903,0.014739036560058594,-0.02696859836578369
1684114866670389000,11.502388916015626,0.4641348421573639,-0.009125709533691406,-0.08373355865478516
1684114866680429300,11.51242919921875,0.5311817526817322,-0.021114349365234375,-0.0732262134552002
1684114866690469400,11.522469482421876,0.5459355115890503,-0.023624420166015625,-0.06255614757537842
1684114866700509700,11.532509765625,0.54251629114151,0.00005245208740234375,-0.03259837627410889
1684114866710550000,11.542550048828126,0.5243829488754272,0.018808364868164062,-0.018991708755493164
1684114866720590000,11.552590087890625,0.4849722385406494,-0.0031633377075195312,-0.026376008987426758
1684114866730630400,11.56263037109375,0.45572131872177124,0.0035142898559570312,0.002585768699645996
1684114866740670700,11.572670654296875,0.44874075055122375,-0.013715744018554688,0.005425930023193359
1684114866750710800,11.582710693359376,0.45437175035476685,-0.026177406311035156,0.03260481357574463
1684114866760751000,11.592751220703125,0.4748542308807373,-0.04338836669921875,0.062248826026916504
1684114866770791200,11.602791259765626,0.4667850732803345,-0.07726383209228516,0.11567950248718262
1684114866780831500,11.61283154296875,0.43482643365859985,-0.08002567291259766,0.15234148502349854
1684114866790871800,11.622871826171876,0.42193713784217834,-0.10661888122558594,0.17190051078796387
1684114866800912000,11.632911865234375,0.36358118057250977,-0.15702438354492188,0.19852805137634277
1684114866810952200,11.6429521484375,0.29365891218185425,-0.18579387664794922,0.22980308532714844
1684114866820992500,11.652992431640625,0.24375787377357483,-0.20244884490966797,0.27011847496032715
1684114866831032600,11.663032470703126,0.20742517709732056,-0.21895980834960938,0.31245410442352295
1684114866841073000,11.673072998046875,0.19443723559379578,-0.19954776763916016,0.3523533344268799
1684114866851113200,11.68311328125,0.23854273557662964,-0.15393829345703125,0.38800930976867676
1684114866861153300,11.6931533203125,0.2630772292613983,-0.12288379669189453,0.37454402446746826
1684114866871193600,11.703193603515626,0.32269591093063354,-0.13028717041015625,0.3147042989730835
1684114866881233700,11.713233642578125,0.36454078555107117,-0.09249305725097656,0.3041926622390747
1684114866891274000,11.72327392578125,0.45808538794517517,-0.0645303726196289,0.31891965866088867
1684114866901314300,11.733314208984375,0.5904166102409363,-0.10915374755859375,0.3341977596282959
1684114866911354400,11.743354248046876,0.7394659519195557,-0.16009998321533203,0.3520035743713379
1684114866921394700,11.753394775390625,0.8736787438392639,-0.2172536849975586,0.34618377685546875
1684114866931434800,11.763434814453126,0.9564834833145142,-0.2358264923095703,0.328891396522522
1684114866941475000,11.77347509765625,0.9913734197616577,-0.2541828155517578,0.25082969665527344
1684114866951515400,11.783515380859376,0.953333854675293,-0.2323007583618164,0.1455698013305664
1684114866961555500,11.793555419921875,0.8452770113945007,-0.1638469696044922,0.04201352596282959
1684114866971595800,11.803595703125,0.6485017538070679,-0.14380264282226562,-0.07589685916900635
1684114866981636000,11.813635986328125,0.42114776372909546,-0.06538772583007812,-0.120574951171875
1684114866991676200,11.82367626953125,0.18735048174858093,-0.016656875610351562,-0.12589478492736816
1684114867001716500,11.833716552734375,-0.0018098056316375732,-0.044266700744628906,-0.04244816303253174
1684114867011756800,11.8437568359375,-0.17242780327796936,-0.09278106689453125,0.12347447872161865
1684114867021796900,11.853796875,-0.2824435830116272,-0.12176227569580078,0.2923198938369751
1684114867031837200,11.863837158203125,-0.2960762083530426,-0.13147640228271484,0.43518340587615967
1684114867041877200,11.873877197265625,-0.25387218594551086,-0.11272716522216797,0.45752525329589844
1684114867051917600,11.88391748046875,-0.2075408697128296,-0.0659799575805664,0.44349777698516846
1684114867061958000,11.8939580078125,-0.17000800371170044,-0.05526924133300781,0.31829845905303955
1684114867071998000,11.903998046875,-0.14086340367794037,-0.10360431671142578,0.18072402477264404
1684114867082038300,11.914038330078125,-0.08573777228593826,-0.21953296661376953,0.05998706817626953
1684114867092078600,11.92407861328125,-0.0018711388111114502,-0.3196077346801758,0.07393133640289307
1684114867102118700,11.93411865234375,0.15811750292778015,-0.28865814208984375,0.2246030569076538
1684114867112159000,11.944158935546875,0.34660306572914124,-0.2582235336303711,0.4431273937225342
1684114867122199000,11.954198974609374,0.513908863067627,-0.30826377868652344,0.685593843460083
1684114867132239400,11.9642392578125,0.4662418067455292,-0.3643789291381836,0.9087460041046143
1684114867142279700,11.97427978515625,0.29954105615615845,-0.3863067626953125,1.1050474643707275
1684114867152319700,11.98431982421875,0.27527838945388794,-0.3273887634277344,1.245713710784912
1684114867162360000,11.994360107421874,0.4306710362434387,-0.09708881378173828,1.2296104431152344
1684114867172400400,12.004400390625,0.5769470930099487,0.1651144027709961,1.0711784362792969
1684114867182440400,12.0144404296875,0.5609641075134277,0.29609107971191406,0.8208061456680298
1684114867192480800,12.024480712890625,0.4530182480812073,0.39663028717041016,0.6419020891189575
1684114867202521000,12.03452099609375,0.29580438137054443,0.46453857421875,0.5352005958557129
1684114867212561200,12.04456103515625,0.28636080026626587,0.4528045654296875,0.5557730197906494
1684114867222601500,12.0546015625,0.629751443862915,0.4047708511352539,0.8064494729042053
1684114867232641500,12.0646416015625,1.176438808441162,0.3609771728515625,1.1306753158569336
1684114867242681900,12.074681884765624,1.750590443611145,0.26972103118896484,1.4328978061676025
1684114867252722200,12.08472216796875,2.198544979095459,0.2004709243774414,1.7245831489562988
1684114867262762200,12.09476220703125,2.507937431335449,0.05292224884033203,1.9597268104553223
1684114867272802600,12.104802490234375,2.5759942531585693,-0.10602283477783203,2.102837324142456
1684114867282842600,12.114842529296874,2.3910837173461914,-0.3163585662841797,2.099888563156128
1684114867292883000,12.124883056640625,1.915439248085022,-0.42708778381347656,1.9876209497451782
1684114867302923300,12.13492333984375,1.3241534233093262,-0.42406368255615234,1.760482907295227
1684114867312963300,12.14496337890625,0.6269290447235107,-0.34358978271484375,1.5090936422348022
1684114867323003600,12.155003662109374,-0.11949250102043152,-0.23398876190185547,1.2789866924285889
1684114867333043700,12.165043701171875,-0.9886742234230042,-0.1744394302368164,1.036498785018921
1684114867343084000,12.175083984375,-1.7368015050888062,-0.048071861267089844,0.7602436542510986
1684114867353124400,12.185124267578125,-2.2072126865386963,0.05895233154296875,0.526069164276123
1684114867363164400,12.195164306640624,-2.2627906799316406,0.11331367492675781,0.30961155891418457
1684114867373204700,12.205204833984375,-1.947684645652771,0.08643245697021484,0.17149865627288818
1684114867383245000,12.2152451171875,-1.4222593307495117,0.03819561004638672,0.029391050338745117
1684114867393285000,12.22528515625,-0.983231246471405,-0.0384521484375,-0.11329805850982666
1684114867403325400,12.235325439453124,-0.5994600057601929,-0.14562606811523438,-0.18032348155975342
1684114867413365800,12.24536572265625,-0.3215188980102539,-0.1854562759399414,-0.34516751766204834
1684114867423405800,12.25540576171875,-0.1647188663482666,-0.1775226593017578,-0.6061023473739624
1684114867433446100,12.265446044921875,0.04044485092163086,-0.13158893585205078,-0.7194173336029053
1684114867443486200,12.275486328125,0.12703090906143188,-0.07161998748779297,-0.8990832567214966
1684114867453526500,12.285526611328125,0.15983325242996216,-0.11224746704101562,-1.0672736167907715
1684114867463566800,12.29556689453125,0.12096625566482544,-0.21482086181640625,-1.1086713075637817
1684114867473607000,12.30560693359375,0.22242087125778198,-0.3788900375366211,-1.070573091506958
1684114867483647200,12.315647216796876,0.3069266378879547,-0.5253782272338867,-0.9844143390655518
1684114867493687600,12.3256875,0.29420703649520874,-0.5660552978515625,-0.7371337413787842
1684114867503727600,12.3357275390625,0.17484444379806519,-0.7185869216918945,-0.044614195823669434
1684114867513768000,12.345767822265625,0.019722461700439453,-0.8417062759399414,0.6917247176170349
1684114867523808000,12.35580810546875,-0.03576403856277466,-0.8376312255859375,1.2271087169647217
1684114867533848300,12.365848388671875,0.05424392223358154,-0.8476781845092773,1.5184674263000488
1684114867543888600,12.375888671875,0.310851514339447,-0.8957042694091797,1.4508593082427979
1684114867553928700,12.3859287109375,0.5793744325637817,-0.8932170867919922,1.11553955078125
1684114867563969000,12.395968994140626,0.8159999847412109,-0.7020912170410156,0.676393449306488
1684114867574009300,12.40600927734375,0.9712111949920654,-0.4640312194824219,0.23502659797668457
1684114867584049400,12.41604931640625,1.0416150093078613,-0.12428760528564453,-0.10819399356842041
1684114867594089700,12.42608984375,0.994612455368042,0.07102298736572266,-0.16224408149719238
1684114867604129800,12.4361298828125,1.0444070100784302,0.2442178726196289,-0.13165295124053955
1684114867614170000,12.446170166015625,0.9301086664199829,0.25478458404541016,-0.05334126949310303
1684114867624210400,12.45621044921875,0.40242868661880493,0.14411258697509766,0.1593390703201294
1684114867634250500,12.46625048828125,-0.197088360786438,0.03615379333496094,0.11409705877304077
1684114867644290800,12.476290771484376,-0.5706802606582642,-0.024712562561035156,-0.11610472202301025
1684114867654331100,12.4863310546875,-0.6878520250320435,-0.04388618469238281,-0.3967174291610718
1684114867664371200,12.49637109375,-0.499309778213501,-0.023836135864257812,-0.8128795623779297
1684114867674411500,12.50641162109375,-0.005343317985534668,-0.016983985900878906,-1.221778392791748
1684114867684451600,12.51645166015625,0.6121532320976257,-0.034806251525878906,-1.4903452396392822
1684114867694492000,12.526491943359375,1.239030122756958,-0.0718536376953125,-1.5578538179397583
1684114867704532200,12.5365322265625,1.784717321395874,-0.11067962646484375,-1.4994001388549805
1684114867714572300,12.546572265625,2.194566488265991,-0.12922191619873047,-1.4279320240020752
1684114867724612600,12.556612548828125,2.416337013244629,-0.0961618423461914,-1.262120008468628
