time,seconds_elapsed,z,y,x
1683935585685562600,0.043562744140625,0,0,0
1683935585695603700,0.053603759765625,-0.055075645446777344,0.000033855438232421875,0.0405423641204834
1683935585705644500,0.06364453125,0.06060171127319336,-0.007694721221923828,0.05123543739318848
1683935585715685400,0.073685302734375,0.2984795570373535,-0.07115936279296875,0.09186720848083496
1683935585725726200,0.083726318359375,0.7398924827575684,-0.2557244300842285,0.28583288192749023
1683935585735767300,0.093767333984375,0.9985151290893555,-0.3787989616394043,0.4202125072479248
1683935585745808100,0.10380810546875,1.204681396484375,-0.3485698699951172,0.46163082122802734
1683935585755849000,0.113848876953125,0.8264064788818359,-0.44705629348754883,0.5288279056549072
1683935585765890000,0.12389013671875,-0.35983848571777344,-0.6205620765686035,0.41019344329833984
1683935585775931000,0.133930908203125,-1.003941535949707,-0.5944294929504395,0.17586183547973633
1683935585785971700,0.1439716796875,-1.4959139823913574,-0.5579667091369629,0.5135884284973145
1683935585796012500,0.154012451171875,-0.993535041809082,0.10411930084228516,1.487316608428955
1683935585806053400,0.164053466796875,-0.7453889846801758,0.5685420036315918,1.0404868125915527
1683935585816094500,0.174094482421875,-0.20587778091430664,0.23375654220581055,0.5771002769470215
1683935585826135300,0.18413525390625,-0.1127023696899414,-0.07632923126220703,-0.05392313003540039
1683935585836176100,0.194176025390625,0.4300880432128906,0.007636070251464844,-0.3090839385986328
1683935585846217000,0.204217041015625,1.155116081237793,0.052266597747802734,-0.605201244354248
1683935585856258000,0.214258056640625,1.373307228088379,0.018187522888183594,-1.017949104309082
1683935585866299000,0.224298828125,1.728487491607666,0.9588251113891602,-1.4501821994781494
1683935585876339700,0.234339599609375,0.8237714767456055,-0.7247371673583984,-0.8243160247802734
1683935585886380500,0.244380615234375,0.5726914405822754,-0.47304630279541016,-1.1425056457519531
1683935585896421600,0.254421630859375,0.2733597755432129,0.15448427200317383,-1.3499102592468262
1683935585906462500,0.26446240234375,0.17210960388183594,-0.7515287399291992,-0.7131552696228027
1683935585916503300,0.27450341796875,0.8035130500793457,0.5953860282897949,-0.7591357231140137
1683935585926544100,0.284544189453125,0.5870232582092285,0.064971923828125,-0.7249560356140137
1683935585936585200,0.294585205078125,0.3861203193664551,-0.3218550682067871,-1.125248908996582
1683935585946626000,0.3046259765625,0.18736934661865234,-0.1952805519104004,-2.114795207977295
1683935585956667000,0.3146669921875,0.44077253341674805,-0.7452712059020996,-3.082444906234741
1683935585966707700,0.324707763671875,1.022538185119629,-0.3868875503540039,-0.5068821907043457
1683935585976748500,0.33474853515625,1.034825325012207,-0.0087738037109375,-0.9416999816894531
1683935585986789600,0.34478955078125,1.1141233444213867,0.9395203590393066,-3.283046007156372
1683935585996830500,0.35483056640625,1.9780364036560059,-0.6825857162475586,-3.667684555053711
1683935586006871300,0.364871337890625,1.8657941818237305,-1.6383180618286133,-2.0340423583984375
1683935586016912400,0.374912353515625,1.9777212142944336,-1.5033893585205078,-1.4895834922790527
1683935586026953200,0.384953125,0.7720699310302734,-1.261256217956543,-0.9172277450561523
1683935586036994000,0.394994140625,0.05092906951904297,-0.4903907775878906,-0.4198141098022461
1683935586047035000,0.405034912109375,-1.745358943939209,0.08365631103515625,0.29538583755493164
1683935586057076000,0.415075927734375,-3.869286060333252,0.6912932395935059,0.9161291122436523
1683935586067116800,0.42511669921875,-5.814670562744141,0.8045494556427002,3.184329032897949
1683935586077157600,0.43515771484375,-5.36865234375,2.2611210346221924,4.906133651733398
1683935586087198500,0.445198486328125,-4.513327598571777,2.4176812171936035,5.823378562927246
1683935586097239300,0.4552392578125,-2.4677257537841797,2.3401832580566406,4.5863037109375
1683935586107280400,0.4652802734375,-0.7070332765579224,1.5096824169158936,2.5965003967285156
1683935586117321200,0.4753212890625,-0.1935023069381714,0.15727567672729492,1.5373725891113281
1683935586127362000,0.485362060546875,-0.19383716583251953,-1.0625271797180176,1.9903497695922852
1683935586137403000,0.49540283203125,0.4879261255264282,-0.8500232696533203,2.688444137573242
1683935586147444000,0.50544384765625,2.2519190311431885,-0.36075258255004883,0.6109046936035156
1683935586157484800,0.51548486328125,2.997872829437256,-0.7250862121582031,-0.8054094314575195
1683935586167525600,0.525525634765625,1.9677633047103882,-0.9172782897949219,-0.6007928848266602
1683935586177566500,0.53556640625,1.1452282667160034,-0.29091691970825195,-0.5918979644775391
1683935586187607600,0.545607666015625,0.3912137746810913,0.2665560245513916,-0.9177923202514648
1683935586197648400,0.5556484375,-0.11737322807312012,0.28962087631225586,-0.9658575057983398
1683935586207689200,0.565689208984375,-1.4403913021087646,0.8445403575897217,-0.5687503814697266
1683935586217730000,0.57572998046875,-1.000058650970459,0.8979921340942383,-0.5903854370117188
1683935586227771100,0.585771240234375,-0.7217913269996643,0.8784565925598145,-1.359644889831543
1683935586237812000,0.59581201171875,0.4449229836463928,-0.12462973594665527,-4.2567901611328125
1683935586247852800,0.605852783203125,1.8691779375076294,-0.49153971672058105,-4.913788318634033
1683935586257893600,0.6158935546875,2.210739850997925,-0.5922560691833496,-3.8269424438476562
1683935586267934700,0.625934814453125,2.027924060821533,0.35091614723205566,-2.2243385314941406
1683935586277975600,0.6359755859375,1.7269868850708008,1.0708792209625244,-1.379939079284668
1683935586288016400,0.646016357421875,1.5098503828048706,1.4899139404296875,-1.1646718978881836
1683935586298057200,0.65605712890625,1.8181490898132324,1.4940017461776733,-1.3359718322753906
1683935586308098300,0.666098388671875,1.0810625553131104,0.9339439868927002,-1.810816764831543
1683935586318139100,0.67613916015625,0.41796523332595825,0.7165989875793457,-2.173826217651367
1683935586328180000,0.686179931640625,0.5788311958312988,0.8655937910079956,-1.4918785095214844
1683935586338220800,0.696220703125,1.5770639181137085,0.9947264194488525,0.00560760498046875
1683935586348261600,0.70626171875,0.5414630174636841,0.7318476438522339,-1.626039981842041
1683935586358302700,0.716302734375,-0.006154775619506836,1.0172570943832397,-1.9624032974243164
1683935586368343600,0.726343505859375,-2.0634407997131348,0.8766859769821167,-2.443307876586914
1683935586378384400,0.73638427734375,-3.785641670227051,0.6883752346038818,-2.6052160263061523
1683935586388425200,0.74642529296875,-3.0964713096618652,0.41178226470947266,-2.2183780670166016
1683935586398466300,0.75646630859375,-0.8025425672531128,-0.41659021377563477,-1.5617561340332031
1683935586408507100,0.766507080078125,0.5725049376487732,-1.274838924407959,-1.4034862518310547
1683935586418548000,0.7765478515625,1.3026807308197021,-1.8898632526397705,-1.0123319625854492
1683935586428589000,0.786589111328125,1.6837525367736816,-2.1549072265625,-0.45136070251464844
1683935586438630000,0.7966298828125,0.9101377725601196,-2.360396385192871,-0.1466846466064453
1683935586448670700,0.806670654296875,-0.30153489112854004,-2.1349616050720215,0.08056926727294922
1683935586458711600,0.816711669921875,-0.7357869744300842,-1.344559907913208,0.5257177352905273
1683935586468752400,0.82675244140625,-0.7808827757835388,-1.11861252784729,0.9337053298950195
1683935586478793500,0.83679345703125,-0.765020489692688,-0.5686228275299072,0.09754562377929688
1683935586488834300,0.846834228515625,-0.7604702115058899,-0.3812904357910156,-0.24201583862304688
1683935586498875100,0.856875244140625,-0.6863806843757629,-1.1768808364868164,0.5163822174072266
1683935586508916000,0.866916015625,0.008873462677001953,-2.008458137512207,1.2265253067016602
1683935586518957000,0.87695703125,0.4546319246292114,-1.7954936027526855,1.7751598358154297
1683935586528998000,0.886997802734375,0.48961466550827026,-1.5284309387207031,2.0947837829589844
1683935586539038700,0.897038818359375,0.3504545986652374,-1.3932814598083496,1.7153844833374023
1683935586549079600,0.90707958984375,-0.08956146240234375,-1.4098105430603027,1.3593168258666992
1683935586559120600,0.91712060546875,-0.543367862701416,-1.171126365661621,1.3404130935668945
1683935586569161500,0.927161376953125,-1.1922073364257812,-0.8054618835449219,1.415069580078125
1683935586579202300,0.937202392578125,-1.3568532466888428,-0.2027730941772461,1.227315902709961
1683935586589243100,0.9472431640625,-0.23476284742355347,-0.9141998291015625,-0.027881622314453125
1683935586599284000,0.957283935546875,0.27471667528152466,0.2789907455444336,-0.2232203483581543
1683935586609325000,0.967324951171875,0.13104987144470215,0.6988215446472168,0.3253307342529297
1683935586619366000,0.977365966796875,-0.24728238582611084,0.7733397483825684,1.2629752159118652
1683935586629406700,0.98740673828125,0.23078125715255737,0.738807201385498,0.8230352401733398
1683935586639447800,0.99744775390625,0.833310067653656,1.0676703453063965,0.27350902557373047
1683935586649488600,1.007488525390625,0.6918874382972717,1.390836238861084,0.9377584457397461
1683935586659529500,1.017529541015625,0.5596196055412292,1.442857265472412,2.304734706878662
1683935586669570300,1.0275703125,0.5323659777641296,1.471597671508789,3.249732494354248
1683935586679611100,1.037611083984375,0.5976516604423523,1.311784267425537,4.807703971862793
1683935586689652200,1.04765234375,0.44759994745254517,1.222973346710205,4.540963649749756
1683935586699693000,1.057693115234375,0.11985337734222412,1.28175687789917,2.1893134117126465
1683935586709734000,1.06773388671875,-0.25747501850128174,-0.41059350967407227,1.1957616806030273
1683935586719774700,1.077774658203125,-0.050127506256103516,1.491833209991455,-0.8144307136535645
1683935586729815800,1.08781591796875,0.1845712661743164,-1.3423619270324707,-1.1516175270080566
1683935586739856600,1.097856689453125,0.2626835107803345,0.16187000274658203,-1.9673123359680176
1683935586749897500,1.1078974609375,0.4240313768386841,1.6630916595458984,-1.5903868675231934
1683935586759938300,1.117938232421875,0.5704854726791382,-1.0065522193908691,-1.2525067329406738
1683935586769979400,1.1279794921875,0.6244933009147644,-0.8029141426086426,-1.2805438041687012
1683935586780020200,1.138020263671875,1.5012916326522827,-2.9645347595214844,1.479231357574463
1683935586790061000,1.14806103515625,2.6467607021331787,1.2549328804016113,-0.2783527374267578
1683935586800102000,1.158101806640625,2.0215096473693848,-0.17737722396850586,0.8897528648376465
1683935586810142700,1.168142822265625,1.5488805770874023,-1.3361577987670898,1.647078514099121
1683935586820183800,1.178183837890625,1.4021484851837158,-1.3145132064819336,1.6611337661743164
1683935586830224600,1.188224609375,0.7146920561790466,-1.3763470649719238,1.7138824462890625
1683935586840265500,1.198265380859375,-0.2388291358947754,-1.4941163063049316,2.0465402603149414
1683935586850306300,1.208306396484375,-1.3146204948425293,-1.0321121215820312,2.514192581176758
1683935586860347400,1.218347412109375,-2.2008132934570312,-0.740532398223877,2.8871936798095703
1683935586870388200,1.22838818359375,-3.0349936485290527,-0.17743444442749023,3.169677257537842
1683935586880429000,1.238428955078125,-3.0825390815734863,0.919426441192627,2.1834845542907715
1683935586890470000,1.248469970703125,-2.5644099712371826,-0.39693546295166016,1.0530409812927246
1683935586900511000,1.258510986328125,-1.5150156021118164,-1.254967212677002,1.0827713012695312
1683935586910551800,1.2685517578125,-1.2054678201675415,-2.0489797592163086,0.6231746673583984
1683935586920592600,1.278592529296875,0.03682965040206909,-2.1019234657287598,2.7753353118896484
1683935586930633500,1.288633544921875,-0.9182078838348389,-0.9420385360717773,-0.1240839958190918
1683935586940674600,1.298674560546875,-1.115154504776001,1.054372787475586,0.5230884552001953
1683935586950715400,1.30871533203125,-0.12762978672981262,2.422797203063965,-0.17253780364990234
1683935586960756200,1.318756103515625,-0.0388941764831543,2.309617519378662,-1.1574792861938477
1683935586970797000,1.328797119140625,0.28620645403862,1.4877967834472656,-1.9682731628417969
1683935586980838100,1.338838134765625,0.548252284526825,0.9283885955810547,-2.5121893882751465
1683935586990879000,1.34887890625,1.7241711616516113,0.6809439659118652,-2.289505958557129
1683935587000919800,1.358919921875,2.9535508155822754,0.7248654365539551,-2.496454954147339
1683935587010960600,1.368960693359375,4.012691020965576,0.9276189804077148,-3.256441831588745
1683935587021001500,1.37900146484375,4.764275550842285,0.8227729797363281,-3.634047031402588
1683935587031042600,1.38904248046875,4.507786273956299,0.8300662040710449,-3.270815849304199
1683935587041083400,1.39908349609375,3.5779314041137695,0.6196503639221191,-2.131859540939331
1683935587051124200,1.409124267578125,2.87807559967041,0.2927393913269043,-1.2390713691711426
1683935587061165000,1.4191650390625,1.8481407165527344,0.7812514305114746,-0.34558773040771484
1683935587071206100,1.4292060546875,1.4228565692901611,0.9204211235046387,-0.3506340980529785
1683935587081247000,1.4392470703125,1.2333855628967285,0.8777427673339844,-0.5620975494384766
1683935587091287800,1.449287841796875,1.218098759651184,0.6262807846069336,-0.9326024055480957
1683935587101328600,1.45932861328125,1.209119439125061,0.40776538848876953,-1.1356744766235352
1683935587111369700,1.46936962890625,0.888899028301239,0.16405296325683594,-1.217583179473877
1683935587121410600,1.47941064453125,0.43998992443084717,-0.24961566925048828,-1.2751579284667969
1683935587131451400,1.489451416015625,-0.2246694564819336,-0.3715353012084961,-1.3119678497314453
1683935587141492200,1.4994921875,-1.777459740638733,0.06269121170043945,-1.033432960510254
1683935587151533300,1.509533203125,-6.284811496734619,-0.555023193359375,-1.2472023963928223
1683935587161574100,1.51957421875,-8.390475273132324,-2.1442904472351074,-1.5937151908874512
1683935587171615000,1.529614990234375,-5.401520729064941,-1.6195201873779297,-0.015381813049316406
1683935587181655800,1.53965576171875,-0.7942390441894531,0.16701507568359375,0.5377769470214844
1683935587191697000,1.54969677734375,3.066023349761963,0.9130430221557617,0.04253053665161133
1683935587201737700,1.55973779296875,2.220207691192627,-0.9692058563232422,0.07822036743164062
1683935587211778600,1.569778564453125,1.0405912399291992,-1.6637930870056152,0.006863117218017578
1683935587221819400,1.5798193359375,-2.6889281272888184,-2.1192398071289062,1.0996108055114746
1683935587231860200,1.589860107421875,-3.9878787994384766,-0.6564459800720215,2.0286431312561035
1683935587241901300,1.5999013671875,-2.1420981884002686,0.7732601165771484,1.1919798851013184
1683935587251942100,1.609942138671875,-0.17942285537719727,0.7988295555114746,0.5019803047180176
1683935587261983000,1.61998291015625,1.7685251235961914,1.8016266822814941,0.7115707397460938
1683935587272023800,1.63002392578125,2.3417677879333496,1.721644401550293,1.3170166015625
1683935587282065000,1.64006494140625,0.8068995475769043,-2.036466598510742,2.549386978149414
1683935587292105700,1.650105712890625,0.27091482281684875,-3.4490861892700195,2.3832411766052246
1683935587302146600,1.660146484375,-0.9353655576705933,-3.1367244720458984,2.060551166534424
1683935587312187400,1.6701875,-1.7205066680908203,-1.7433514595031738,1.9187922477722168
1683935587322228500,1.680228515625,-0.08930587768554688,-0.5121097564697266,4.541104793548584
1683935587332269300,1.690269287109375,0.3954698145389557,-0.838991641998291,4.695839881896973
1683935587342310100,1.70031005859375,-0.3254639506340027,-1.5441265106201172,4.240447521209717
1683935587352351000,1.71035107421875,-0.7116129994392395,-1.6614370346069336,1.8258590698242188
1683935587362392000,1.72039208984375,-0.6472287774085999,-2.306171417236328,-0.7302155494689941
1683935587372433000,1.730432861328125,0.1277140974998474,-2.146115303039551,-1.5936505794525146
1683935587382473700,1.7404736328125,0.24508953094482422,-1.4590063095092773,-3.8685989379882812
1683935587392514600,1.7505146484375,0.2639763355255127,-0.9975862503051758,-5.38076114654541
1683935587402555400,1.760555419921875,0.32412540912628174,0.961665153503418,-6.026852607727051
1683935587412596500,1.770596435546875,0.20004749298095703,2.3585410118103027,-6.240939140319824
1683935587422637300,1.78063720703125,0.25845062732696533,2.4907288551330566,-5.4418816566467285
1683935587432678100,1.79067822265625,0.571013331413269,1.5665550231933594,-3.6498866081237793
1683935587442719000,1.800718994140625,0.7569712996482849,0.897763729095459,-2.0331838130950928
1683935587452760000,1.810760009765625,1.0723124742507935,0.8328075408935547,-1.1974081993103027
1683935587462801000,1.82080078125,1.5959429740905762,1.0533943176269531,-1.0626988410949707
1683935587472841700,1.830841796875,2.0615808963775635,0.6402249336242676,-1.1464567184448242
1683935587482882600,1.840882568359375,2.3474888801574707,-0.29210472106933594,-1.1106328964233398
1683935587492923600,1.850923583984375,2.198890447616577,-1.0843544006347656,-1.3234519958496094
1683935587502964500,1.860964599609375,1.7398864030838013,-1.1195802688598633,-1.6754045486450195
1683935587513005300,1.87100537109375,1.3041892051696777,-0.6059474945068359,-1.8422024250030518
1683935587523046100,1.881046142578125,0.6177701950073242,0.21797609329223633,-1.7605619430541992
1683935587533087200,1.891087158203125,0.17068219184875488,1.1294093132019043,-1.5841560363769531
1683935587543128000,1.901128173828125,-0.36434149742126465,1.7001924514770508,-1.3576116561889648
1683935587553169000,1.9111689453125,-1.4918394088745117,0.07468891143798828,-1.758674144744873
1683935587563209700,1.921209716796875,-2.533998489379883,-1.4244880676269531,-1.3340530395507812
1683935587573250800,1.931250732421875,-2.72243595123291,-1.3318443298339844,-1.0140180587768555
1683935587583291600,1.941291748046875,-3.049081802368164,-0.9697480201721191,0.20609617233276367
1683935587593332500,1.95133251953125,-3.80155086517334,-1.644911766052246,1.5494327545166016
1683935587603373300,1.961373291015625,-2.408803939819336,-0.907099723815918,1.5475425720214844
1683935587613414100,1.9714140625,-0.9421694278717041,-0.8051037788391113,1.9834403991699219
1683935587623455200,1.981455322265625,0.3727470636367798,-0.7261815071105957,2.409804344177246
1683935587633496000,1.99149609375,1.8865344524383545,0.5254836082458496,3.4313302040100098
1683935587643537000,2.001536865234375,1.4675922393798828,0.19409418106079102,1.3230476379394531
1683935587653577700,2.01157763671875,0.7538936138153076,0.4762845039367676,-0.5724716186523438
1683935587663618800,2.021618896484375,0.12104392051696777,0.6811542510986328,-1.3614020347595215
1683935587673659600,2.03165966796875,-0.46876001358032227,0.510228157043457,-1.364931583404541
1683935587683700500,2.041700439453125,-0.6242971420288086,0.1564493179321289,-0.9268765449523926
1683935587693741300,2.0517412109375,-0.5302186012268066,-0.2332296371459961,-0.5106449127197266
1683935587703782400,2.061782470703125,-0.5137546062469482,-0.6861691474914551,-0.1904621124267578
1683935587713823200,2.0718232421875,-0.28854942321777344,-0.05087995529174805,0.4035220146179199
1683935587723864000,2.081864013671875,0.016573786735534668,0.9171290397644043,0.8315801620483398
1683935587733905000,2.09190478515625,0.08989310264587402,1.2266483306884766,0.6335635185241699
1683935587743946000,2.101946044921875,-0.07013571262359619,1.8411216735839844,0.04013824462890625
1683935587753986800,2.11198681640625,-0.35502195358276367,2.6727347373962402,-0.49924516677856445
1683935587764027600,2.122027587890625,-0.5394957065582275,3.0596346855163574,-1.5017623901367188
1683935587774068500,2.132068359375,-0.7997348308563232,3.4788599014282227,-2.9165008068084717
1683935587784109600,2.142109619140625,-0.821508526802063,3.444484233856201,-3.692514419555664
1683935587794150400,2.152150390625,0.06275665760040283,5.038815975189209,-3.4717140197753906
1683935587804191200,2.162191162109375,0.534510612487793,3.0067267417907715,-3.3494763374328613
1683935587814232000,2.172232177734375,0.8949567079544067,0.7057814598083496,-2.8944735527038574
1683935587824273000,2.18227294921875,1.1525366306304932,-0.7221479415893555,-2.3732800483703613
1683935587834314000,2.19231396484375,0.8951147794723511,-1.4922456741333008,-1.3754315376281738
1683935587844354800,2.202354736328125,-0.07590436935424805,-2.47735595703125,-0.5311150550842285
1683935587854395600,2.212395751953125,-0.9072277545928955,-2.6284523010253906,0.016026020050048828
1683935587864436500,2.2224365234375,-1.2754732370376587,-0.8751554489135742,1.7947978973388672
1683935587874477600,2.2324775390625,-1.387908697128296,-0.745060920715332,2.112518310546875
1683935587884518400,2.242518310546875,-0.8652962446212769,-1.0460634231567383,1.7251341342926025
1683935587894559200,2.252559326171875,-0.21609854698181152,-0.3521385192871094,1.3488943576812744
1683935587904600000,2.26260009765625,0.17837274074554443,0.2859325408935547,1.213771104812622
1683935587914641000,2.272640869140625,0.24377870559692383,0.607182502746582,0.952991247177124
1683935587924682000,2.282681884765625,0.005174756050109863,1.7669243812561035,0.00457310676574707
1683935587934722800,2.292722900390625,-0.40235602855682373,2.9198455810546875,-0.894770622253418
1683935587944763600,2.302763671875,-0.7233281135559082,3.1794848442077637,-1.3585026264190674
1683935587954804700,2.3128046875,-0.6589223146438599,3.245321273803711,-1.5647886991500854
1683935587964845600,2.322845458984375,-0.460559606552124,4.9337382316589355,-1.4952515363693237
1683935587974886400,2.332886474609375,-1.8624672889709473,4.709966659545898,-1.037013292312622
1683935587984927200,2.34292724609375,-2.8270044326782227,0.9935722351074219,-0.009990215301513672
1683935587994968300,2.35296826171875,-1.098599910736084,0.4231128692626953,1.1868374347686768
1683935588005009200,2.363009033203125,-1.1030213832855225,-3.4763498306274414,0.8308639526367188
1683935588015050000,2.373050048828125,-0.34876561164855957,-5.641729354858398,1.2845394611358643
1683935588025090800,2.3830908203125,0.08972620964050293,-6.720680236816406,1.2818174362182617
1683935588035131600,2.393131591796875,0.6747374534606934,-7.705385208129883,1.3633863925933838
1683935588045172700,2.4031728515625,1.6520037651062012,-7.5800018310546875,1.6732444763183594
1683935588055213600,2.413213623046875,1.8694167137145996,-5.368193626403809,1.1395225524902344
1683935588065254400,2.42325439453125,0.9830389022827148,-0.7442045211791992,0.8876152038574219
1683935588075295200,2.433295166015625,0.7286944389343262,3.4991369247436523,1.029170274734497
1683935588085336300,2.44333642578125,0.9099667072296143,1.0596790313720703,1.0880539417266846
1683935588095377200,2.453377197265625,1.3695189952850342,-0.43883609771728516,0.7584707736968994
1683935588105418000,2.46341796875,3.064847230911255,-1.6950368881225586,0.35157227516174316
1683935588115458800,2.473458740234375,2.1926827430725098,-3.5409889221191406,0.10350751876831055
1683935588125499600,2.483499755859375,1.8461488485336304,-1.776383399963379,-0.42826008796691895
1683935588135540700,2.493540771484375,0.9555299282073975,-6.417546272277832,-0.18455171585083008
1683935588145581600,2.50358154296875,-0.6795392036437988,-7.178561210632324,-0.32334399223327637
1683935588155622400,2.513622314453125,-1.6947400569915771,-4.479425430297852,-1.495004653930664
1683935588165663200,2.523663330078125,-2.932720899581909,-2.485536575317383,-2.648263692855835
1683935588175704300,2.533704345703125,-3.4720189571380615,-0.6455717086791992,-3.8710227012634277
1683935588185745200,2.5437451171875,-3.7038540840148926,-0.6760568618774414,-4.377377510070801
1683935588195786000,2.553785888671875,-2.2054901123046875,1.913548469543457,-3.1926114559173584
1683935588205827000,2.5638271484375,-1.4779510498046875,3.283109188079834,-2.9350392818450928
1683935588215868000,2.573867919921875,-0.4812736511230469,4.231866359710693,-2.351893663406372
1683935588225908700,2.58390869140625,0.2711780071258545,4.245032787322998,-1.716559886932373
1683935588235949600,2.593949462890625,0.5391581058502197,3.401517868041992,-1.1715366840362549
1683935588245990400,2.603990478515625,0.4726598262786865,2.386380195617676,-0.6791813373565674
1683935588256031500,2.614031494140625,0.512037992477417,1.7469606399536133,-0.21868419647216797
1683935588266072300,2.624072265625,0.8835544586181641,1.4133377075195312,0.2349708080291748
1683935588276113200,2.634113037109375,1.2648355960845947,1.3068780899047852,0.6334578990936279
1683935588286154000,2.644154052734375,1.379936933517456,1.2855868339538574,1.0929152965545654
1683935588296195000,2.654195068359375,1.1638375520706177,1.0631904602050781,1.4645140171051025
1683935588306236000,2.66423583984375,0.768446683883667,0.5550975799560547,1.4923474788665771
1683935588316276700,2.67427685546875,0.19841456413269043,0.007110595703125,1.2423112392425537
1683935588326317600,2.684317626953125,-0.39243125915527344,-0.6634292602539062,0.9024691581726074
1683935588336358700,2.694358642578125,-0.8821389675140381,-1.4739189147949219,0.23817062377929688
1683935588346399500,2.7043994140625,-0.9549317359924316,-0.9071435928344727,0.29707980155944824
1683935588356440300,2.7144404296875,-0.9150564670562744,0.07073783874511719,0.9978158473968506
1683935588366481200,2.724481201171875,-0.7238061428070068,0.49575328826904297,1.5590808391571045
1683935588376522000,2.73452197265625,-0.550926685333252,0.6445350646972656,1.7771763801574707
1683935588386563000,2.74456298828125,-0.34285688400268555,0.33667755126953125,1.5316572189331055
1683935588396604000,2.75460400390625,-0.24457788467407227,-0.055500030517578125,0.9853448867797852
1683935588406644700,2.764644775390625,-0.24087309837341309,-0.22484493255615234,0.32671284675598145
1683935588416685800,2.774685791015625,-0.12468385696411133,-0.3392019271850586,-0.21586370468139648
1683935588426726700,2.7847265625,-0.0013797283172607422,-0.37869930267333984,-0.5998272895812988
1683935588436767500,2.794767578125,0.0660405158996582,-0.2250804901123047,-0.8184735774993896
1683935588446808300,2.804808349609375,0.0813131332397461,-0.04105377197265625,-1.0405054092407227
1683935588456849200,2.81484912109375,-0.022710800170898438,0.10550403594970703,-1.1429238319396973
1683935588466890200,2.82489013671875,-0.22054505348205566,0.1923999786376953,-1.0549757480621338
1683935588476931000,2.83493115234375,-0.45909595489501953,0.21324634552001953,-0.7678554058074951
1683935588486972000,2.844971923828125,-0.6889023780822754,0.21770095825195312,-0.4465610980987549
1683935588497012700,2.8550126953125,-0.848031759262085,0.2642707824707031,-0.07656097412109375
1683935588507053800,2.8650537109375,-0.8960433006286621,0.3281383514404297,0.2557506561279297
1683935588517094700,2.8750947265625,-0.6526706218719482,0.4237356185913086,0.4572920799255371
1683935588527135500,2.885135498046875,-0.37031102180480957,0.5749187469482422,0.5149087905883789
1683935588537176300,2.89517626953125,-0.18796014785766602,0.6379899978637695,0.5342144966125488
1683935588547217400,2.905217529296875,-0.14458847045898438,0.4604377746582031,0.5647149085998535
1683935588557258200,2.91525830078125,-0.29021668434143066,0.20798778533935547,0.6498403549194336
1683935588567299000,2.925299072265625,-0.6556363105773926,-0.06313228607177734,0.5994281768798828
1683935588577340000,2.93533984375,-1.0436391830444336,-0.4605541229248047,0.3084583282470703
1683935588587380700,2.945380615234375,-1.4483000040054321,-0.5194816589355469,0.21037054061889648
1683935588597421800,2.955421875,-1.7116676568984985,-0.7319231033325195,0.13520145416259766
1683935588607462700,2.965462646484375,-2.2747397422790527,-1.0864295959472656,-0.06452083587646484
1683935588617503500,2.97550341796875,-2.7696008682250977,-1.40277099609375,0.023053646087646484
1683935588627544600,2.985544677734375,-2.744804620742798,-1.6181364059448242,0.40172338485717773
1683935588637585400,2.99558544921875,-2.02520751953125,-1.4403953552246094,0.8914132118225098
1683935588647626200,3.005626220703125,-1.1020560264587402,-1.0961065292358398,1.0525660514831543
1683935588657667000,3.0156669921875,-0.3649042844772339,-0.574885368347168,1.078953742980957
1683935588667708200,3.025708251953125,0.03568851947784424,0.08311080932617188,0.8448796272277832
1683935588677749000,3.0357490234375,0.34833598136901855,0.47766685485839844,0.6787428855895996
1683935588687789800,3.045789794921875,0.6436303853988647,0.7382392883300781,0.382321834564209
1683935588697830700,3.05583056640625,0.8594168424606323,0.9458017349243164,-0.14049482345581055
1683935588707871500,3.06587158203125,1.0504302978515625,0.989621639251709,-0.5285439491271973
1683935588717912600,3.07591259765625,1.1200170516967773,0.8299856185913086,-0.6378672122955322
1683935588727953400,3.085953369140625,0.9945428371429443,0.5848827362060547,-0.6584980487823486
1683935588737994200,3.095994140625,0.6610735654830933,0.36960506439208984,-0.6340057849884033
1683935588748035000,3.10603515625,0.15896499156951904,0.1509380340576172,-0.4581131935119629
1683935588758076200,3.116076171875,-0.2925060987472534,0.046039581298828125,-0.2522764205932617
1683935588768117000,3.126116943359375,-0.47691357135772705,0.04307746887207031,-0.21652555465698242
1683935588778157800,3.13615771484375,-0.22563564777374268,0.04940509796142578,-0.30915212631225586
1683935588788198700,3.14619873046875,0.28289711475372314,-0.10631370544433594,-0.43658971786499023
1683935588798239700,3.15623974609375,0.7353134751319885,-0.2543001174926758,-0.5185725688934326
1683935588808280600,3.166280517578125,1.0758252143859863,-0.3758716583251953,-0.5585780143737793
1683935588818321400,3.1763212890625,1.2876769304275513,-0.3596057891845703,-0.5747013092041016
1683935588828362200,3.1863623046875,1.4144606590270996,-0.3426799774169922,-0.5777571201324463
1683935588838403300,3.1964033203125,1.4329856634140015,-0.24701499938964844,-0.5092272758483887
1683935588848444200,3.206444091796875,1.3268263339996338,-0.1616954803466797,-0.47055578231811523
1683935588858485000,3.216485107421875,1.1649675369262695,-0.03436756134033203,-0.42150020599365234
1683935588868525800,3.22652587890625,0.9749498963356018,0.1085805892944336,-0.36224937438964844
1683935588878567000,3.23656689453125,0.7511722445487976,0.26935768127441406,-0.2883319854736328
1683935588888607700,3.246607666015625,0.38406795263290405,0.4120149612426758,-0.19257164001464844
1683935588898648600,3.256648681640625,-0.02122265100479126,0.40478038787841797,0.08908224105834961
1683935588908689400,3.266689453125,-0.4533016085624695,0.3237133026123047,0.4191765785217285
1683935588918730500,3.27673046875,-0.8340545892715454,0.2958106994628906,0.5837864875793457
1683935588928771300,3.286771240234375,-0.8828057646751404,0.20212745666503906,0.6659135818481445
1683935588938812200,3.296812255859375,-0.46649661660194397,0.15083789825439453,0.5523438453674316
1683935588948853000,3.30685302734375,0.23084920644760132,0.08975505828857422,0.39948225021362305
1683935588958893800,3.316893798828125,0.914279580116272,0.009637832641601562,0.18378543853759766
1683935588968935000,3.326934814453125,1.3686772584915161,-0.10341072082519531,-0.003562450408935547
1683935588978975700,3.336975830078125,1.5902585983276367,-0.1033477783203125,-0.10752058029174805
1683935588989016600,3.3470166015625,1.67557692527771,-0.14577293395996094,-0.12181615829467773
1683935588999057400,3.357057373046875,1.6402640342712402,-0.09475326538085938,-0.14297723770141602
1683935589009098500,3.367098388671875,1.5026872158050537,-0.014973640441894531,-0.1806502342224121
1683935589019139300,3.377139404296875,1.2819783687591553,0.023847579956054688,-0.0638265609741211
1683935589029180200,3.38718017578125,0.9963874816894531,0.011701583862304688,0.03651905059814453
1683935589039221000,3.397220947265625,0.6734728813171387,-0.01818084716796875,0.1081686019897461
1683935589049262000,3.407261962890625,0.3932630717754364,-0.04914283752441406,0.1132197380065918
1683935589059303000,3.417302978515625,0.21001426875591278,-0.06672191619873047,-0.047817230224609375
1683935589069343700,3.42734375,0.1230463832616806,-0.17569351196289062,-0.16135787963867188
1683935589079384600,3.437384521484375,0.10267141461372375,-0.21554946899414062,-0.26764345169067383
1683935589089425700,3.44742578125,0.10083145648241043,-0.2362203598022461,-0.34706735610961914
1683935589099466500,3.457466552734375,0.10052434355020523,-0.2996845245361328,-0.39965176582336426
1683935589109507300,3.46750732421875,0.08966712653636932,-0.34120750427246094,-0.4753913879394531
1683935589119548200,3.477548095703125,0.09333449602127075,-0.29868125915527344,-0.4689340591430664
1683935589129589200,3.48758935546875,0.14708927273750305,-0.2774477005004883,-0.4450263977050781
1683935589139630000,3.497630126953125,0.23078320920467377,-0.22727394104003906,-0.3988161087036133
1683935589149671000,3.5076708984375,0.29691082239151,-0.21742725372314453,-0.25627803802490234
1683935589159711700,3.517711669921875,0.36547598242759705,-0.16658687591552734,-0.11313676834106445
1683935589169752800,3.5277529296875,0.3945408761501312,-0.117889404296875,0.05908918380737305
1683935589179793700,3.537793701171875,0.4115893244743347,-0.08332157135009766,0.1765432357788086
1683935589189834500,3.54783447265625,0.4288172721862793,0.016017913818359375,0.2991828918457031
1683935589199875300,3.557875244140625,0.4626789093017578,0.09627819061279297,0.37662267684936523
1683935589209916200,3.567916259765625,0.45775341987609863,0.25112152099609375,0.34795618057250977
1683935589219957200,3.577957275390625,0.49000415205955505,0.33248233795166016,0.37856626510620117
1683935589229998000,3.587998046875,0.5252516269683838,0.33037757873535156,0.4765801429748535
1683935589240039000,3.598038818359375,0.4957549273967743,0.4071006774902344,0.46703195571899414
1683935589250079700,3.608079833984375,0.47286325693130493,0.4143819808959961,0.56268310546875
1683935589260120800,3.618120849609375,0.3754252791404724,0.3523387908935547,0.6102838516235352
1683935589270161700,3.62816162109375,0.33947354555130005,0.325775146484375,0.6162652969360352
1683935589280202500,3.638202392578125,0.3194359540939331,0.23651790618896484,0.5302281379699707
1683935589290243600,3.64824365234375,0.2941936254501343,0.13976383209228516,0.38603878021240234
1683935589300284400,3.658284423828125,0.331146776676178,0.06186962127685547,0.18633604049682617
1683935589310325200,3.6683251953125,0.3443906307220459,-0.037482261657714844,0.005932807922363281
1683935589320366000,3.678365966796875,0.3458872437477112,-0.08858394622802734,-0.1591501235961914
1683935589330407000,3.688406982421875,0.33777695894241333,-0.14159393310546875,-0.22512149810791016
1683935589340448000,3.698447998046875,0.3100738525390625,-0.17257308959960938,-0.3114480972290039
1683935589350488800,3.70848876953125,0.22217845916748047,-0.1861400604248047,-0.33403730392456055
1683935589360529700,3.71852978515625,0.14379632472991943,-0.13943767547607422,-0.30278563499450684
1683935589370570500,3.728570556640625,0.0635530948638916,-0.12331771850585938,-0.23693013191223145
1683935589380611600,3.738611572265625,0.015327692031860352,-0.08275699615478516,-0.14373397827148438
1683935589390652400,3.74865234375,-0.0007107257843017578,-0.01786327362060547,-0.06636857986450195
1683935589400693200,3.758693359375,-0.008328795433044434,0.044915199279785156,0.014023303985595703
1683935589410734000,3.768734130859375,0.04262280464172363,0.1030893325805664,0.09720325469970703
1683935589420775200,3.778775146484375,0.12597352266311646,0.14501380920410156,0.12404966354370117
1683935589430816000,3.78881591796875,0.18246394395828247,0.18424701690673828,0.2147994041442871
1683935589440856800,3.79885693359375,0.1909812092781067,0.1831502914428711,0.27895069122314453
1683935589450897700,3.808897705078125,0.20404577255249023,0.18950843811035156,0.33821630477905273
1683935589460938800,3.818938720703125,0.19290995597839355,0.23848438262939453,0.4468498229980469
1683935589470979600,3.8289794921875,0.16924577951431274,0.2890949249267578,0.49998950958251953
1683935589481020400,3.8390205078125,0.1397266387939453,0.29427242279052734,0.5270204544067383
1683935589491061200,3.849061279296875,0.05751770734786987,0.29023170471191406,0.6063737869262695
1683935589501102300,3.859102294921875,-0.07655900716781616,0.3219165802001953,0.6313991546630859
1683935589511143200,3.86914306640625,-0.18357789516448975,0.2966423034667969,0.7577142715454102
1683935589521184000,3.87918408203125,-0.27525758743286133,0.33524131774902344,0.7076935768127441
1683935589531224800,3.889224853515625,-0.3178580701351166,0.3330678939819336,0.7359700202941895
1683935589541266000,3.899265869140625,-0.3345181345939636,0.34485435485839844,0.6500821113586426
1683935589551306800,3.909306640625,-0.3573080599308014,0.2903308868408203,0.602320671081543
1683935589561347600,3.91934765625,-0.34825563430786133,0.30990123748779297,0.5010638236999512
1683935589571388400,3.929388427734375,-0.35367438197135925,0.34833621978759766,0.3948488235473633
1683935589581429500,3.939429443359375,-0.3344568908214569,0.3581886291503906,0.35922861099243164
1683935589591470300,3.94947021484375,-0.28181225061416626,0.26221275329589844,0.3247334957122803
1683935589601511200,3.95951123046875,-0.2480291724205017,0.215423583984375,0.2424335479736328
1683935589611552000,3.969552001953125,-0.21600067615509033,0.1771392822265625,0.21703076362609863
1683935589621593000,3.979593017578125,-0.18044322729110718,0.1424694061279297,0.2521054744720459
1683935589631634000,3.989634033203125,-0.17916357517242432,0.12542057037353516,0.2547461986541748
1683935589641674800,3.9996748046875,-0.15302062034606934,0.14686870574951172,0.30558109283447266
1683935589651715600,4.009715576171875,-0.10301417112350464,0.20843124389648438,0.37312841415405273
1683935589661756400,4.01975634765625,-0.07505559921264648,0.21959209442138672,0.4563765525817871
1683935589671797500,4.029797607421875,-0.038040220737457275,0.26590538024902344,0.5337495803833008
1683935589681838300,4.03983837890625,0.005646049976348877,0.3373575210571289,0.6359007358551025
1683935589691879200,4.049879150390625,0.03270798921585083,0.44309139251708984,0.7202880382537842
1683935589701920300,4.059920166015625,0.062479496002197266,0.4955329895019531,0.8439090251922607
1683935589711961000,4.069961181640625,0.0527576208114624,0.4884672164916992,0.9918262958526611
1683935589722002000,4.080001953125,0.1337909698486328,0.4011831283569336,1.157651662826538
1683935589732042800,4.090042724609375,0.2196558713912964,0.3763275146484375,1.2681403160095215
1683935589742083800,4.100083740234375,0.2894272804260254,0.33307933807373047,1.3294808864593506
1683935589752124700,4.110124755859375,0.38062745332717896,0.28076839447021484,1.5158181190490723
1683935589762165500,4.12016552734375,0.5113975405693054,0.18889522552490234,1.620178461074829
1683935589772206300,4.130206298828125,0.5677734613418579,0.10762977600097656,1.7053585052490234
1683935589782247400,4.140247314453125,0.6042495965957642,0.07379341125488281,1.8808448314666748
1683935589792288300,4.150288330078125,0.5873441696166992,-0.14728641510009766,2.0938453674316406
1683935589802329000,4.1603291015625,0.5509878993034363,-0.4114341735839844,2.209028959274292
1683935589812370000,4.170369873046875,0.46304041147232056,-0.6165618896484375,2.2824368476867676
1683935589822410800,4.18041064453125,0.33700859546661377,-0.8099250793457031,2.332613945007324
1683935589832451800,4.190451904296875,0.21495765447616577,-0.9078779220581055,2.240114450454712
1683935589842492700,4.20049267578125,0.10415506362915039,-0.9442386627197266,2.09568452835083
1683935589852533500,4.210533447265625,-0.007917940616607666,-0.9605751037597656,1.9023845195770264
1683935589862574300,4.22057421875,-0.1034541130065918,-0.9117498397827148,1.555077314376831
1683935589872615400,4.230615478515625,-0.256492555141449,-0.8547029495239258,1.0869109630584717
1683935589882656300,4.24065625,-0.5127560496330261,-0.8148946762084961,0.5937964916229248
1683935589892697000,4.250697021484375,-0.8051638007164001,-0.7366752624511719,0.058704376220703125
1683935589902738000,4.260738037109375,-1.2077057361602783,-0.6244478225708008,-0.47893643379211426
1683935589912779000,4.270779052734375,-1.5797314643859863,-0.50921630859375,-0.9192368984222412
1683935589922819800,4.28081982421875,-1.8855960369110107,-0.36486339569091797,-1.1828546524047852
1683935589932860700,4.290860595703125,-2.170772075653076,-0.19403553009033203,-1.4343996047973633
1683935589942901500,4.300901611328125,-2.302147150039673,-0.03267955780029297,-1.5510101318359375
1683935589952942600,4.310942626953125,-2.2013304233551025,0.10447216033935547,-1.39605712890625
1683935589962983400,4.3209833984375,-1.9147260189056396,0.26729393005371094,-0.9729940891265869
1683935589973024300,4.331024169921875,-1.3755242824554443,0.5555000305175781,-0.37302446365356445
1683935589983065000,4.341065185546875,-0.7344624996185303,0.9923372268676758,-0.003843069076538086
1683935589993106200,4.351106201171875,0.030422121286392212,1.177748680114746,0.4093315601348877
1683935590003147000,4.36114697265625,0.5101205110549927,1.2550444602966309,0.5940501689910889
1683935590013187800,4.371187744140625,0.5937513113021851,1.1887707710266113,0.6737008094787598
1683935590023228700,4.381228759765625,0.4247164726257324,1.0605363845825195,0.6606540679931641
1683935590033269800,4.391269775390625,0.14880341291427612,0.7390241622924805,0.7120096683502197
1683935590043310600,4.401310546875,-0.052516818046569824,0.3248462677001953,0.611778736114502
1683935590053351400,4.411351318359375,-0.1846388876438141,-0.0692596435546875,0.36307716369628906
1683935590063392300,4.421392333984375,-0.2897307276725769,-0.35713672637939453,0.03140830993652344
1683935590073433300,4.431433349609375,-0.31112825870513916,-0.6106119155883789,-0.30823230743408203
1683935590083474200,4.44147412109375,-0.17601025104522705,-0.7893733978271484,-0.6004376411437988
1683935590093515000,4.451514892578125,0.12207579612731934,-0.9171524047851562,-0.9344425201416016
1683935590103555800,4.461555908203125,0.48476219177246094,-0.9000186920166016,-1.3003795146942139
1683935590113597000,4.471596923828125,0.8744997978210449,-1.111811637878418,-1.3918533325195312
1683935590123637800,4.4816376953125,1.1350822448730469,-1.27593994140625,-1.4293382167816162
1683935590133678600,4.4916787109375,1.3460744619369507,-1.3498497009277344,-1.4766945838928223
1683935590143719400,4.501719482421875,1.5529274940490723,-1.3091487884521484,-1.4790840148925781
1683935590153760500,4.511760498046875,1.8146933317184448,-1.2263202667236328,-1.4591646194458008
1683935590163801300,4.52180126953125,1.9597384929656982,-1.0086784362792969,-1.3318071365356445
1683935590173842200,4.53184228515625,1.8405544757843018,-0.7409744262695312,-1.1128220558166504
1683935590183883000,4.541883056640625,1.6234004497528076,-0.4754371643066406,-0.8738958835601807
1683935590193924000,4.551924072265625,1.2310545444488525,-0.19141483306884766,-0.5395214557647705
1683935590203965000,4.56196484375,0.8507663011550903,0.09061431884765625,-0.23726701736450195
1683935590214005800,4.572005859375,0.673457145690918,0.3275318145751953,-0.13512468338012695
1683935590224046600,4.582046630859375,0.6994756460189819,0.5680866241455078,-0.19629573822021484
1683935590234087700,4.592087646484375,0.8589674234390259,0.5086936950683594,-0.10719633102416992
1683935590244128500,4.60212841796875,0.9264160394668579,0.3602256774902344,-0.24593114852905273
1683935590254169300,4.61216943359375,1.0489041805267334,0.24593353271484375,-0.6089568138122559
1683935590264210200,4.622210205078125,1.108020544052124,0.23613452911376953,-1.011528491973877
1683935590274251300,4.632251220703125,1.139319896697998,0.2661409378051758,-1.340291976928711
1683935590284292000,4.6422919921875,1.213027000427246,0.32327747344970703,-1.5735292434692383
1683935590294333000,4.6523330078125,1.2698630094528198,0.34002685546875,-1.7840299606323242
1683935590304373800,4.662373779296875,1.2995882034301758,0.3255586624145508,-1.9027466773986816
1683935590314414600,4.67241455078125,1.2758713960647583,0.24327659606933594,-1.8659236431121826
1683935590324455700,4.68245556640625,1.2177064418792725,0.09719562530517578,-1.7988059520721436
1683935590334496500,4.69249658203125,1.243979573249817,-0.026964187622070312,-1.7300434112548828
1683935590344537300,4.702537353515625,1.2476433515548706,-0.18656539916992188,-1.6402275562286377
1683935590354578400,4.712578369140625,1.1813173294067383,-0.25962162017822266,-1.5362446308135986
1683935590364619300,4.722619384765625,1.0448079109191895,-0.35149192810058594,-1.4446601867675781
1683935590374660000,4.73266015625,0.7497119903564453,-0.49585437774658203,-1.2800703048706055
1683935590384701000,4.742700927734375,0.3568880558013916,-0.6306076049804688,-1.1858134269714355
1683935590394742000,4.752741943359375,-0.15034937858581543,-0.7896728515625,-1.0111863613128662
1683935590404782800,4.762782958984375,-0.6042435169219971,-0.9567461013793945,-0.8564400672912598
1683935590414823700,4.77282373046875,-0.9647696018218994,-1.1057329177856445,-0.7545452117919922
1683935590424864500,4.782864501953125,-1.2428652048110962,-1.1962852478027344,-0.6240425109863281
1683935590434905600,4.792905517578125,-1.3902456760406494,-1.1954574584960938,-0.5225996971130371
1683935590444946400,4.802946533203125,-1.2532042264938354,-1.0865364074707031,-0.47405385971069336
1683935590454987300,4.8129873046875,-0.9165358543395996,-0.9453125,-0.4467768669128418
1683935590465028000,4.823028076171875,-0.5595698356628418,-0.7832937240600586,-0.509918212890625
1683935590475069200,4.833069091796875,-0.279679536819458,-0.6483335494995117,-0.4777684211730957
1683935590485110000,4.843110107421875,-0.0688631534576416,-0.5426206588745117,-0.45615386962890625
1683935590495150800,4.85315087890625,0.09544610977172852,-0.4463224411010742,-0.5353412628173828
1683935590505191700,4.863191650390625,0.2004326581954956,-0.3832406997680664,-0.5219950675964355
1683935590515232500,4.873232421875,0.2607252597808838,-0.3414011001586914,-0.5931215286254883
1683935590525273600,4.883273681640625,0.301497220993042,-0.2986288070678711,-0.8902535438537598
1683935590535314400,4.893314453125,0.23128509521484375,-0.2713937759399414,-1.1299405097961426
1683935590545355300,4.903355224609375,0.17818570137023926,-0.24524688720703125,-1.2925679683685303
1683935590555396000,4.91339599609375,0.15457606315612793,-0.2747077941894531,-1.403733730316162
1683935590565437200,4.923437255859375,0.21212279796600342,-0.32543087005615234,-1.3909950256347656
1683935590575478000,4.93347802734375,0.26367413997650146,-0.3755788803100586,-1.2593836784362793
1683935590585518800,4.943518798828125,0.3378177881240845,-0.23200702667236328,-1.0455372333526611
1683935590595560000,4.953559814453125,0.27765703201293945,0.008715629577636719,-0.817108154296875
1683935590605600800,4.963600830078125,0.24474942684173584,0.18740463256835938,-0.4373002052307129
1683935590615641600,4.9736416015625,0.15694141387939453,0.19358158111572266,-0.1398310661315918
1683935590625682400,4.983682373046875,0.12068557739257812,0.20421123504638672,0.05927610397338867
1683935590635723500,4.9937236328125,0.18859350681304932,0.18757057189941406,0.1738109588623047
1683935590645764400,5.003764404296875,0.27447497844696045,0.009268760681152344,0.22801828384399414
1683935590655805200,5.01380517578125,0.2022477388381958,-0.11174964904785156,0.20618677139282227
1683935590665846000,5.023845947265625,0.03918313980102539,0.041495323181152344,0.34047698974609375
1683935590675886800,5.033886962890625,0.017693042755126953,0.40557241439819336,0.32006025314331055
1683935590685928000,5.043927978515625,0.0020987987518310547,0.9627809524536133,0.2961907386779785
1683935590695968800,5.05396875,-0.17573881149291992,1.2988457679748535,0.2556118965148926
1683935590706009600,5.064009521484375,-0.08635091781616211,1.3426804542541504,0.36464881896972656
1683935590716050400,5.074050537109375,0.19441628456115723,1.168907642364502,0.4582557678222656
1683935590726091500,5.084091552734375,0.5564612150192261,0.8318080902099609,0.45046281814575195
1683935590736132400,5.09413232421875,0.8489894866943359,0.49890565872192383,0.20665311813354492
1683935590746173200,5.104173095703125,0.9439231157302856,0.37874364852905273,-0.02265644073486328
1683935590756214000,5.114214111328125,0.630661129951477,0.07170677185058594,-0.26361799240112305
1683935590766255000,5.124255126953125,0.18514370918273926,-0.16024208068847656,-0.27924108505249023
1683935590776296000,5.1342958984375,-0.11714506149291992,-0.0905313491821289,-0.3065023422241211
1683935590786336800,5.144336669921875,-0.2736542224884033,0.23161840438842773,-0.27222204208374023
1683935590796377900,5.1543779296875,-0.3848639726638794,0.47889184951782227,0.0020418167114257812
1683935590806418700,5.164418701171875,-0.2634838819503784,0.4983510971069336,0.3700747489929199
1683935590816459500,5.17445947265625,-0.0366976261138916,0.4844999313354492,0.4909853935241699
1683935590826500400,5.184500244140625,0.18724322319030762,0.5246338844299316,0.33235692977905273
1683935590836541400,5.19454150390625,0.3456941843032837,0.4128246307373047,0.04304170608520508
1683935590846582300,5.204582275390625,0.4720405340194702,0.028162002563476562,-0.422727108001709
1683935590856623000,5.214623046875,0.4737049341201782,-0.579742431640625,-0.9979557991027832
1683935590866664000,5.224663818359375,0.3326526880264282,-1.3362245559692383,-1.5500471591949463
1683935590876705000,5.234705078125,-0.07931768894195557,-2.188018798828125,-1.9344666004180908
1683935590886745900,5.244745849609375,-0.5937455892562866,-3.0232057571411133,-2.131776809692383
1683935590896786700,5.25478662109375,-1.115919589996338,-3.728562355041504,-2.1753861904144287
1683935590906827500,5.26482763671875,-1.55417799949646,-4.067004203796387,-2.2270212173461914
1683935590916868400,5.274868408203125,-1.4821544885635376,-4.2072296142578125,-1.9010798931121826
1683935590926909400,5.284909423828125,-1.1134071350097656,-3.86667537689209,-1.54227876663208
1683935590936950300,5.2949501953125,-0.575098991394043,-2.7651758193969727,-1.4240808486938477
1683935590946991000,5.3049912109375,-0.00857245922088623,-1.074697494506836,-1.5091254711151123
1683935590957032000,5.315031982421875,0.6830518245697021,0.16467761993408203,-1.3542475700378418
1683935590967073000,5.325072998046875,1.2074034214019775,0.9803128242492676,-1.2135388851165771
1683935590977113900,5.33511376953125,1.4786641597747803,1.4590578079223633,-1.092179536819458
1683935590987154700,5.34515478515625,1.5795601606369019,1.7546014785766602,-1.0550932884216309
1683935590997195800,5.35519580078125,1.5613398551940918,1.7716526985168457,-0.8212027549743652
1683935591007236600,5.365236572265625,1.515708327293396,1.4988017082214355,-0.37503767013549805
1683935591017277400,5.37527734375,1.3903313875198364,0.9177045822143555,0.19168996810913086
1683935591027318300,5.385318359375,1.2877165079116821,0.3342857360839844,0.6821489334106445
1683935591037359400,5.395359375,1.2190030813217163,0.035330772399902344,0.842984676361084
1683935591047400200,5.405400146484375,1.0757551193237305,-0.0317535400390625,0.7045183181762695
1683935591057441000,5.41544091796875,0.9263906478881836,-0.08997249603271484,0.6482281684875488
1683935591067481900,5.42548193359375,0.754050612449646,-0.10922527313232422,0.6085896492004395
1683935591077523000,5.43552294921875,0.6709985136985779,-0.1760854721069336,0.5059566497802734
1683935591087563800,5.445563720703125,0.7061827182769775,-0.1735095977783203,0.3877706527709961
1683935591097604600,5.4556044921875,0.8252970576286316,-0.1997232437133789,0.27483034133911133
1683935591107645400,5.4656455078125,0.9763141870498657,-0.21378612518310547,0.06435155868530273
1683935591117686500,5.4756865234375,1.1041690111160278,-0.1885671615600586,-0.15879201889038086
1683935591127727400,5.485727294921875,1.2519779205322266,-0.1882486343383789,-0.39911556243896484
1683935591137768200,5.495768310546875,1.317450761795044,-0.18618488311767578,-0.5871286392211914
1683935591147809000,5.50580908203125,1.3499761819839478,-0.22063636779785156,-0.7184631824493408
1683935591157849900,5.515849853515625,1.3716530799865723,-0.16255855560302734,-0.8528931140899658
1683935591167891000,5.525890869140625,1.4264380931854248,-0.1314401626586914,-0.9637260437011719
1683935591177931800,5.535931884765625,1.5362067222595215,-0.1128225326538086,-0.9839787483215332
1683935591187972600,5.54597265625,1.6069414615631104,-0.1374969482421875,-0.9685239791870117
1683935591198013400,5.556013427734375,1.7229204177856445,-0.1527385711669922,-0.9056580066680908
1683935591208054500,5.566054443359375,1.7934374809265137,-0.1799640655517578,-0.8840146064758301
1683935591218095400,5.576095458984375,1.8053655624389648,-0.18085956573486328,-0.8414242267608643
1683935591228136200,5.58613623046875,1.8137052059173584,-0.2200613021850586,-0.8425707817077637
1683935591238177300,5.59617724609375,1.8353831768035889,-0.26403236389160156,-0.9159092903137207
1683935591248218000,5.606218017578125,1.8177106380462646,-0.28882598876953125,-0.9632043838500977
1683935591258259000,5.616259033203125,1.7534713745117188,-0.3993196487426758,-1.031766653060913
1683935591268299800,5.6262998046875,1.6668150424957275,-0.5017499923706055,-1.0585684776306152
1683935591278340900,5.6363408203125,1.5072999000549316,-0.4790029525756836,-1.0912127494812012
1683935591288381700,5.646381591796875,1.2390077114105225,-0.5561456680297852,-0.9629690647125244
1683935591298422500,5.656422607421875,0.9635279178619385,-0.4155454635620117,-0.8321008682250977
1683935591308463400,5.66646337890625,0.7286975383758545,-0.2941780090332031,-0.6171619892120361
1683935591318504400,5.67650439453125,0.6214045286178589,-0.1946573257446289,-0.31386280059814453
1683935591328545300,5.686545166015625,0.6127010583877563,-0.0884542465209961,-0.061215877532958984
1683935591338586000,5.696586181640625,0.6551531553268433,0.060131072998046875,0.11433553695678711
1683935591348627000,5.706626953125,0.7314167618751526,0.1576862335205078,0.23161745071411133
1683935591358668000,5.71666796875,0.8522887825965881,0.23030471801757812,0.3187088966369629
1683935591368708900,5.726708984375,0.903380811214447,0.1587066650390625,0.34940195083618164
1683935591378749700,5.736749755859375,0.92074054479599,0.09635448455810547,0.32900285720825195
1683935591388790500,5.74679052734375,0.9481707811355591,0.031579017639160156,0.23189973831176758
1683935591398831600,5.75683154296875,0.983497142791748,0.045754432678222656,0.0514826774597168
1683935591408872400,5.76687255859375,0.9851816892623901,-0.0188751220703125,-0.11396503448486328
1683935591418913300,5.776913330078125,0.952189564704895,-0.1023397445678711,-0.2786545753479004
1683935591428954000,5.7869541015625,0.87449711561203,-0.18296337127685547,-0.4447312355041504
1683935591438995200,5.7969951171875,0.7748473286628723,-0.2606353759765625,-0.547508716583252
1683935591449036000,5.8070361328125,0.6816797256469727,-0.3616065979003906,-0.6109578609466553
1683935591459076900,5.817076904296875,0.631400465965271,-0.37106990814208984,-0.5871734619140625
1683935591469117700,5.82711767578125,0.6272929906845093,-0.38732147216796875,-0.48862218856811523
1683935591479158800,5.83715869140625,0.5696062445640564,-0.358154296875,-0.3615574836730957
1683935591489199600,5.84719970703125,0.49701207876205444,-0.26941680908203125,-0.3208346366882324
1683935591499240400,5.857240478515625,0.5253934860229492,-0.2217082977294922,-0.3426980972290039
1683935591509281300,5.86728125,0.6007685661315918,-0.1505718231201172,-0.33177614212036133
1683935591519322400,5.877322265625,0.7154378294944763,-0.12048816680908203,-0.3023948669433594
1683935591529363200,5.88736328125,0.798414945602417,-0.1170358657836914,-0.3405594825744629
1683935591539404000,5.897404052734375,0.8280173540115356,-0.1542959213256836,-0.36208391189575195
1683935591549444900,5.90744482421875,0.8028852939605713,-0.18409252166748047,-0.4416813850402832
1683935591559486000,5.91748583984375,0.7896875739097595,-0.18741798400878906,-0.5196394920349121
1683935591569526800,5.92752685546875,0.7682784795761108,-0.19523334503173828,-0.5887777805328369
1683935591579567600,5.937567626953125,0.7213324308395386,-0.18853282928466797,-0.6561694145202637
1683935591589608400,5.9476083984375,0.6851524114608765,-0.17688465118408203,-0.6322381496429443
1683935591599649500,5.9576494140625,0.6406465768814087,-0.15330982208251953,-0.6244351863861084
1683935591609690400,5.9676904296875,0.634932816028595,-0.15093421936035156,-0.6041779518127441
1683935591619731200,5.977731201171875,0.6438782215118408,-0.17186832427978516,-0.4800879955291748
1683935591629772300,5.987772216796875,0.6036496162414551,-0.18289756774902344,-0.3342013359069824
1683935591639813000,5.997813232421875,0.5525500774383545,-0.16315650939941406,-0.20485448837280273
1683935591649854000,6.00785400390625,0.4814020097255707,-0.12261295318603516,-0.12717628479003906
1683935591659894800,6.017894775390625,0.43091151118278503,-0.09460163116455078,-0.06980657577514648
1683935591669935600,6.027935546875,0.373093843460083,-0.04840564727783203,-0.032666683197021484
1683935591679976700,6.037976806640625,0.367533802986145,-0.05736827850341797,0.02674245834350586
1683935591690017500,6.048017578125,0.35923758149147034,-0.04529571533203125,0.06083822250366211
1683935591700058400,6.058058349609375,0.38057321310043335,-0.000804901123046875,0.08884525299072266
1683935591710099200,6.06809912109375,0.4161539375782013,0.005023002624511719,0.061676025390625
1683935591720140300,6.078140380859375,0.43934303522109985,0.057674407958984375,-0.05717945098876953
1683935591730181000,6.08818115234375,0.4949120283126831,0.083526611328125,-0.05165719985961914
1683935591740222000,6.098221923828125,0.5685083866119385,0.059528350830078125,-0.07915210723876953
1683935591750262800,6.1082626953125,0.5847845673561096,0.0641469955444336,-0.05450010299682617
1683935591760303900,6.118303955078125,0.5988993644714355,0.07806015014648438,-0.011568069458007812
1683935591770344700,6.1283447265625,0.5064956545829773,0.05170249938964844,0.000058650970458984375
1683935591780385500,6.138385498046875,0.4095633029937744,0.11753654479980469,0.02096271514892578
1683935591790426400,6.14842626953125,0.2914921045303345,0.16094493865966797,-0.0174102783203125
1683935591800467500,6.158467529296875,0.19587546586990356,0.10221481323242188,0.026981830596923828
1683935591810508300,6.16850830078125,0.10489720106124878,-0.009791374206542969,0.07033634185791016
1683935591820549000,6.178549072265625,0.08552330732345581,-0.03746509552001953,0.06342744827270508
1683935591830590000,6.18858984375,0.11850857734680176,0.0013875961303710938,0.01185464859008789
1683935591840631000,6.198631103515625,0.19792169332504272,0.03257465362548828,-0.0014138221740722656
1683935591850671900,6.208671875,0.25390034914016724,0.03025054931640625,-0.021784305572509766
1683935591860712700,6.218712646484375,0.26216620206832886,-0.03569507598876953,-0.09384965896606445
1683935591870753800,6.22875390625,0.2507208585739136,-0.1146554946899414,-0.09161090850830078
1683935591880794600,6.238794677734375,0.18377894163131714,-0.1755838394165039,-0.1499195098876953
1683935591890835500,6.24883544921875,0.13030517101287842,-0.17164039611816406,-0.2087540626525879
1683935591900876300,6.258876220703125,0.10289102792739868,-0.16986846923828125,-0.2165508270263672
1683935591910917400,6.26891748046875,0.06730610132217407,-0.15378379821777344,-0.22858095169067383
1683935591920958200,6.278958251953125,0.024682462215423584,-0.16597270965576172,-0.19071531295776367
1683935591930999000,6.2889990234375,0.008396565914154053,-0.21063899993896484,-0.1061100959777832
1683935591941039900,6.299039794921875,0.05293393135070801,-0.17419147491455078,-0.11428308486938477
1683935591951081000,6.3090810546875,0.15666455030441284,-0.10035133361816406,-0.11940574645996094
1683935591961121800,6.319121826171875,0.28948646783828735,-0.03228473663330078,-0.058197021484375
1683935591971162600,6.32916259765625,0.37007516622543335,0.05596160888671875,-0.007071018218994141
1683935591981203500,6.339203369140625,0.35690730810165405,0.05085182189941406,0.06433629989624023
1683935591991244300,6.349244384765625,0.3134886622428894,0.050423622131347656,0.11782360076904297
1683935592001285400,6.359285400390625,0.26702308654785156,0.02644634246826172,0.11847066879272461
1683935592011326200,6.369326171875,0.26971012353897095,0.047606468200683594,0.13778305053710938
1683935592021367000,6.379366943359375,0.29711443185806274,0.042494773864746094,0.18010330200195312
1683935592031407900,6.389407958984375,0.36961978673934937,0.06802749633789062,0.24741411209106445
1683935592041449000,6.399448974609375,0.4273216724395752,0.1024312973022461,0.2920970916748047
1683935592051489800,6.40948974609375,0.4675673246383667,0.1078786849975586,0.29338836669921875
1683935592061530600,6.419530517578125,0.5207821130752563,0.15070438385009766,0.27783203125
1683935592071571700,6.42957177734375,0.5583516955375671,0.16440105438232422,0.24814939498901367
1683935592081612500,6.439612548828125,0.5735953450202942,0.1658802032470703,0.27742528915405273
1683935592091653400,6.4496533203125,0.5131770372390747,0.12004375457763672,0.2586984634399414
1683935592101694200,6.459694091796875,0.4234795570373535,0.10551643371582031,0.19538259506225586
1683935592111735300,6.4697353515625,0.3544158339500427,0.07716941833496094,0.15440607070922852
1683935592121776000,6.479776123046875,0.31010955572128296,0.056464195251464844,0.1166834831237793
1683935592131817000,6.48981689453125,0.31161069869995117,0.02691173553466797,0.06589889526367188
1683935592141857800,6.49985791015625,0.25754815340042114,-0.025453567504882812,0.07284116744995117
1683935592151899000,6.50989892578125,0.2387840747833252,-0.04140186309814453,0.044666290283203125
1683935592161939700,6.519939697265625,0.25512129068374634,-0.035736083984375,0.040627479553222656
1683935592171980500,6.52998046875,0.32735902070999146,-0.034827232360839844,0.07419157028198242
1683935592182021400,6.540021484375,0.4024714231491089,-0.0034151077270507812,0.06446313858032227
1683935592192062500,6.5500625,0.4158313274383545,-0.04336357116699219,0.05911588668823242
1683935592202103300,6.560103271484375,0.44250720739364624,-0.0664529800415039,0.055727481842041016
1683935592212144000,6.57014404296875,0.4250859022140503,-0.07764911651611328,0.004950523376464844
1683935592222185000,6.58018505859375,0.45624321699142456,-0.0912485122680664,-0.13005971908569336
1683935592232226000,6.59022607421875,0.4865473806858063,-0.07657814025878906,-0.2161083221435547
1683935592242267000,6.600266845703125,0.4531345069408417,-0.10468482971191406,-0.3316774368286133
1683935592252307700,6.6103076171875,0.3779946267604828,-0.13468647003173828,-0.40059733390808105
1683935592262348500,6.6203486328125,0.2871638238430023,-0.14061260223388672,-0.4470231533050537
1683935592272389600,6.6303896484375,0.17612135410308838,-0.14398860931396484,-0.49707913398742676
1683935592282430500,6.640430419921875,0.12101748585700989,-0.1612548828125,-0.48230624198913574
1683935592292471300,6.65047119140625,0.043963611125946045,-0.18030357360839844,-0.4836747646331787
1683935592302512400,6.660512451171875,-0.009228646755218506,-0.1585712432861328,-0.49121570587158203
1683935592312553200,6.67055322265625,-0.015255600214004517,-0.09898567199707031,-0.464555025100708
1683935592322594000,6.680593994140625,0.011149793863296509,-0.06565570831298828,-0.42055463790893555
1683935592332635000,6.690634765625,0.08616051077842712,0.019588470458984375,-0.3358485698699951
1683935592342676000,6.700676025390625,0.18111124634742737,0.016829490661621094,-0.14317727088928223
1683935592352716800,6.710716796875,0.2723245620727539,0.08024120330810547,0.07728910446166992
1683935592362757600,6.720757568359375,0.3407604992389679,0.13071155548095703,0.29382801055908203
1683935592372798500,6.730798583984375,0.3744394779205322,0.2131185531616211,0.416959285736084
1683935592382839300,6.74083935546875,0.3802572786808014,0.26099491119384766,0.5424313545227051
1683935592392880400,6.75088037109375,0.38853999972343445,0.30538272857666016,0.6275773048400879
1683935592402921200,6.760921142578125,0.43612655997276306,0.36283016204833984,0.6142778396606445
1683935592412962000,6.770962158203125,0.46267521381378174,0.3624420166015625,0.6100139617919922
1683935592423003000,6.7810029296875,0.48218411207199097,0.3403301239013672,0.6001367568969727
1683935592433044000,6.7910439453125,0.454281210899353,0.2849559783935547,0.525576114654541
1683935592443084800,6.801084716796875,0.3608173429965973,0.21331787109375,0.3779029846191406
1683935592453125600,6.811125732421875,0.2786101996898651,0.15155029296875,0.24769353866577148
1683935592463166500,6.82116650390625,0.16101892292499542,0.05722618103027344,0.04776811599731445
1683935592473207600,6.83120751953125,0.04276859760284424,-0.05733013153076172,-0.1383206844329834
1683935592483248400,6.841248291015625,-0.06805507093667984,-0.1469583511352539,-0.3223719596862793
1683935592493289200,6.851289306640625,-0.17582255601882935,-0.2589454650878906,-0.5298435688018799
1683935592503330300,6.861330322265625,-0.2543701231479645,-0.34794044494628906,-0.707982063293457
1683935592513371100,6.87137109375,-0.3251543343067169,-0.4235963821411133,-0.833383321762085
1683935592523412000,6.881411865234375,-0.381366491317749,-0.47422313690185547,-0.9748454093933105
1683935592533452800,6.891452880859375,-0.3738175630569458,-0.5425910949707031,-1.0378403663635254
1683935592543494000,6.901493896484375,-0.35568028688430786,-0.5777759552001953,-1.0623018741607666
1683935592553534700,6.91153466796875,-0.32115933299064636,-0.6270332336425781,-1.078871726989746
1683935592563575600,6.921575439453125,-0.23899398744106293,-0.6784496307373047,-1.0685374736785889
1683935592573616400,6.931616455078125,-0.20765185356140137,-0.662745475769043,-1.071889877319336
1683935592583657500,6.941657470703125,-0.18448635935783386,-0.5608243942260742,-1.064636468887329
1683935592593698300,6.9516982421875,-0.15795382857322693,-0.4801168441772461,-1.041452169418335
1683935592603739100,6.9617392578125,-0.10696840286254883,-0.43944358825683594,-0.9684326648712158
1683935592613780000,6.971780029296875,-0.021784842014312744,-0.36693859100341797,-0.8883593082427979
1683935592623821000,6.981821044921875,0.10037696361541748,-0.35094356536865234,-0.755556583404541
1683935592633862000,6.99186181640625,0.21632301807403564,-0.3603506088256836,-0.6299839019775391
1683935592643902700,7.00190283203125,0.2971689701080322,-0.26625823974609375,-0.5548481941223145
1683935592653943600,7.011943603515625,0.34224578738212585,-0.22688961029052734,-0.454437255859375
1683935592663984600,7.021984619140625,0.3698660135269165,-0.18508052825927734,-0.372570276260376
1683935592674025500,7.032025390625,0.3479478657245636,-0.17428970336914062,-0.32375264167785645
1683935592684066300,7.04206640625,0.29968300461769104,-0.21125411987304688,-0.27488279342651367
1683935592694107400,7.052107421875,0.18442916870117188,-0.29352664947509766,-0.18798065185546875
1683935592704148200,7.062148193359375,0.08625304698944092,-0.4378376007080078,-0.08733630180358887
1683935592714189000,7.07218896484375,-0.046750664710998535,-0.4888591766357422,-0.06856107711791992
1683935592724230000,7.08222998046875,-0.16116845607757568,-0.5971460342407227,-0.018781423568725586
1683935592734271000,7.09227099609375,-0.28979140520095825,-0.695612907409668,0.012079715728759766
1683935592744311800,7.102311767578125,-0.4728859066963196,-0.7293014526367188,-0.004376411437988281
1683935592754352600,7.1123525390625,-0.7097349762916565,-0.7486019134521484,-0.10627508163452148
1683935592764393500,7.1223935546875,-0.9252631664276123,-0.6367454528808594,-0.22917795181274414
1683935592774434600,7.1324345703125,-1.0364840030670166,-0.4469032287597656,-0.3613088130950928
1683935592784475400,7.142475341796875,-0.9752732515335083,-0.2677888870239258,-0.45235323905944824
1683935592794516200,7.15251611328125,-0.8828284740447998,-0.19269466400146484,-0.43100810050964355
1683935592804557000,7.16255712890625,-0.8704383373260498,-0.11130809783935547,-0.4142923355102539
1683935592814598100,7.17259814453125,-0.9395486116409302,-0.0688791275024414,-0.3902757167816162
1683935592824639000,7.182638916015625,-1.0239405632019043,-0.01754474639892578,-0.3615458011627197
1683935592834679800,7.1926796875,-1.1766809225082397,0.033031463623046875,-0.2846367359161377
1683935592844720600,7.202720703125,-1.3057329654693604,0.08976078033447266,-0.21375155448913574
1683935592854761700,7.21276171875,-1.4240100383758545,0.19085216522216797,-0.3317122459411621
1683935592864802600,7.222802490234375,-0.9626412391662598,0.2812633514404297,-0.07232475280761719
1683935592874843400,7.232843505859375,-0.6356298923492432,0.3175992965698242,0.0621638298034668
1683935592884884200,7.24288427734375,-0.5977586507797241,0.25681209564208984,0.13987350463867188
1683935592894925300,7.25292529296875,-0.681929349899292,0.2806692123413086,0.14153051376342773
1683935592904966100,7.262966064453125,-0.4307260513305664,0.26747894287109375,0.19631743431091309
1683935592915007000,7.273007080078125,0.1476283073425293,0.34200286865234375,0.4494452476501465
1683935592925048000,7.283048095703125,0.7372493743896484,0.3109130859375,0.7085983753204346
1683935592935089000,7.2930888671875,1.1319599151611328,0.25815486907958984,0.8656222820281982
1683935592945129700,7.303129638671875,1.2509911060333252,0.3224821090698242,0.8587093353271484
1683935592955170600,7.313170654296875,1.1318588256835938,0.4225120544433594,0.7676348686218262
1683935592965211600,7.323211669921875,0.7748684883117676,0.49339962005615234,0.5619239807128906
1683935592975252500,7.33325244140625,0.2834048271179199,0.6322717666625977,0.41060972213745117
1683935592985293300,7.343293212890625,-0.18477082252502441,0.8236942291259766,0.3889286518096924
1683935592995334100,7.353334228515625,-0.4239656925201416,1.0218768119812012,0.4364354610443115
1683935593005375200,7.363375244140625,-0.40987467765808105,1.1579833030700684,0.5222077369689941
1683935593015416000,7.373416015625,-0.30259251594543457,1.1991848945617676,0.6652088165283203
1683935593025457000,7.383456787109375,-0.1450355052947998,1.218069076538086,0.6889374256134033
1683935593035497700,7.393497802734375,0.049416303634643555,1.2081499099731445,0.7065491676330566
1683935593045538800,7.403538818359375,0.21101760864257812,1.0791845321655273,0.7188105583190918
1683935593055579600,7.41357958984375,0.3544187545776367,0.9201130867004395,0.7217698097229004
1683935593065620500,7.423620361328125,0.4091029167175293,0.7694730758666992,0.6212742328643799
1683935593075661300,7.433661376953125,0.4049217700958252,0.6754255294799805,0.43836188316345215
1683935593085702400,7.443702392578125,0.3647801876068115,0.5426692962646484,0.2895653247833252
1683935593095743200,7.4537431640625,0.35925865173339844,0.41687488555908203,0.11396503448486328
1683935593105784000,7.4637841796875,0.23118877410888672,0.31011390686035156,-0.15940356254577637
1683935593115825000,7.473824951171875,0.05807352066040039,0.1914682388305664,-0.5580861568450928
1683935593125866000,7.483865966796875,-0.06926822662353516,0.1494007110595703,-0.8810961246490479
1683935593135906800,7.49390673828125,-0.12426304817199707,0.18148326873779297,-1.0795536041259766
1683935593145947600,7.50394775390625,-0.19479584693908691,0.2354288101196289,-1.199338436126709
1683935593155988500,7.513988525390625,-0.39748549461364746,0.2387380599975586,-0.9438047409057617
1683935593166029600,7.524029541015625,-0.49845218658447266,0.2903022766113281,-0.614708423614502
1683935593176070400,7.5340703125,-0.5575892925262451,0.3339576721191406,-0.2800471782684326
1683935593186111200,7.544111328125,-0.6257309913635254,0.3502225875854492,0.08913946151733398
1683935593196152000,7.554152099609375,-0.6187329292297363,0.3869953155517578,0.385847806930542
1683935593206193200,7.564193115234375,-0.6113226413726807,0.39435482025146484,0.6440103054046631
1683935593216234000,7.57423388671875,-0.5586395263671875,0.3366985321044922,0.8995504379272461
1683935593226274800,7.58427490234375,-0.5689008235931396,0.24794769287109375,1.0716142654418945
1683935593236315600,7.594315673828125,-0.51595139503479,0.16199588775634766,1.1489908695220947
1683935593246356700,7.604356689453125,-0.419158935546875,0.11947059631347656,1.1271626949310303
1683935593256397600,7.6143974609375,-0.3499281406402588,0.1057291030883789,1.0204765796661377
1683935593266438400,7.6244384765625,-0.31015801429748535,0.13991641998291016,0.8440721035003662
1683935593276479200,7.634479248046875,-0.24262762069702148,0.20770931243896484,0.6866917610168457
1683935593286520300,7.644520263671875,-0.21934008598327637,0.332763671875,0.6337358951568604
1683935593296561200,7.65456103515625,-0.19362711906433105,0.40736961364746094,0.5787506103515625
1683935593306602000,7.66460205078125,-0.16752886772155762,0.4914722442626953,0.5658619403839111
1683935593316643000,7.67464306640625,-0.20005178451538086,0.5182552337646484,0.581873893737793
1683935593326684000,7.684683837890625,-0.23452210426330566,0.4422893524169922,0.5945422649383545
1683935593336724700,7.694724853515625,-0.2757134437561035,0.33298301696777344,0.6155197620391846
1683935593346765600,7.704765625,-0.3205227851867676,0.21907711029052734,0.6309792995452881
1683935593356806700,7.714806640625,-0.3463611602783203,0.21770286560058594,0.6802246570587158
1683935593366847500,7.724847412109375,-0.4091770648956299,0.24017906188964844,0.6208813190460205
1683935593376888300,7.734888427734375,-0.5097124576568604,0.33631229400634766,0.6017868518829346
1683935593386929200,7.74492919921875,-0.6060442924499512,0.4051189422607422,0.5509347915649414
1683935593396970200,7.75497021484375,-0.6596055030822754,0.43676185607910156,0.47739243507385254
1683935593407011000,7.765010986328125,-0.635361909866333,0.43367671966552734,0.42121148109436035
1683935593417052000,7.775052001953125,-0.5303504467010498,0.48473262786865234,0.2842388153076172
1683935593427092700,7.7850927734375,-0.35636401176452637,0.5452394485473633,0.13875484466552734
1683935593437133800,7.7951337890625,-0.12627077102661133,0.601567268371582,-0.04272580146789551
1683935593447174700,7.805174560546875,0.1482868194580078,0.5801792144775391,-0.2323746681213379
1683935593457215500,7.815215576171875,0.3772730827331543,0.5294475555419922,-0.3139653205871582
1683935593467256300,7.82525634765625,0.5496048927307129,0.49489688873291016,-0.4088411331176758
1683935593477297400,7.83529736328125,0.5512146949768066,0.5479602813720703,-0.30930352210998535
1683935593487338200,7.845338134765625,0.5166501998901367,0.5329818725585938,-0.22619867324829102
1683935593497379000,7.855379150390625,0.37720370292663574,0.48304080963134766,-0.06723976135253906
1683935593507420000,7.865419921875,0.13394618034362793,0.4546928405761719,0.14927935600280762
1683935593517461000,7.8754609375,-0.10041999816894531,0.3803396224975586,0.31908321380615234
1683935593527501800,7.885501708984375,-0.3384060859680176,0.2429647445678711,0.5125656127929688
1683935593537542700,7.895542724609375,-0.5820014476776123,0.1307811737060547,0.6050472259521484
1683935593547583700,7.905583740234375,-0.8625576496124268,-0.04720020294189453,0.597827672958374
1683935593557624600,7.91562451171875,-0.9587938785552979,-0.16140460968017578,0.27833008766174316
1683935593567665400,7.92566552734375,-0.8505203723907471,-0.22743988037109375,-0.14664387702941895
1683935593577706200,7.935706298828125,-0.5275437831878662,-0.2470264434814453,-0.40462493896484375
1683935593587747300,7.945747314453125,-0.24849605560302734,-0.2804841995239258,-0.46792030334472656
1683935593597788200,7.9557880859375,0.10916709899902344,-0.3665294647216797,-0.5096659660339355
1683935593607829000,7.9658291015625,0.48035144805908203,-0.38570594787597656,-0.47846198081970215
1683935593617869800,7.975869873046875,0.7615038156509399,-0.43126964569091797,-0.4090099334716797
1683935593627911000,7.985910888671875,0.9918427467346191,-0.438446044921875,-0.34325122833251953
1683935593637951700,7.99595166015625,1.1112892627716064,-0.3326234817504883,-0.3563220500946045
1683935593647992600,8.00599267578125,1.0029077529907227,-0.23799896240234375,-0.4092702865600586
1683935593658033400,8.016033447265626,0.8036131858825684,-0.1594409942626953,-0.4327974319458008
1683935593668074500,8.026074462890625,0.6593202352523804,-0.054065704345703125,-0.4940836429595947
1683935593678115300,8.036115234375,0.6097729206085205,0.013249397277832031,-0.5081424713134766
1683935593688156200,8.04615625,0.5459537506103516,0.11885452270507812,-0.5214738845825195
1683935593698197000,8.056197021484374,0.426501989364624,0.08829975128173828,-0.5248126983642578
1683935593708238000,8.066238037109375,0.1944127082824707,0.09611988067626953,-0.5658993721008301
1683935593718279000,8.07627880859375,-0.09563326835632324,0.04130268096923828,-0.44411468505859375
1683935593728319700,8.08631982421875,-0.27885937690734863,-0.045599937438964844,-0.3748643398284912
1683935593738360800,8.09636083984375,-0.35358405113220215,-0.21711349487304688,-0.3738224506378174
1683935593748401700,8.106401611328126,-0.2430819272994995,-0.29337596893310547,-0.4632842540740967
1683935593758442500,8.1164423828125,-0.01782989501953125,-0.3716392517089844,-0.6319835186004639
1683935593768483300,8.1264833984375,0.17068159580230713,-0.3938312530517578,-0.8426964282989502
1683935593778524400,8.1365244140625,0.30380964279174805,-0.31464195251464844,-1.0329492092132568
1683935593788565200,8.146565185546875,0.1892002820968628,-0.21129322052001953,-1.1247856616973877
1683935593798606000,8.156606201171876,-0.047820448875427246,-0.010316848754882812,-1.169523000717163
1683935593808647200,8.166647216796875,-0.3176581859588623,0.07495975494384766,-1.117987871170044
1683935593818688000,8.17668798828125,-0.22054624557495117,-0.12721633911132812,-1.0516178607940674
1683935593828728800,8.186728759765625,0.3238837718963623,-0.6103878021240234,-0.9073104858398438
1683935593838769700,8.196769775390624,0.5599034428596497,-1.0719985961914062,-0.7700984477996826
1683935593848810800,8.206810791015625,0.26974642276763916,-1.186997413635254,-0.6484537124633789
1683935593858851600,8.2168515625,-0.2748868465423584,-1.0000324249267578,-0.2739572525024414
1683935593868892400,8.226892333984376,-1.5308341979980469,-0.6886491775512695,0.29787349700927734
1683935593878933200,8.236933349609375,-3.000244379043579,-0.24936485290527344,0.8161234855651855
1683935593888974300,8.246974365234376,-3.741936683654785,-0.18962383270263672,1.4462857246398926
1683935593899015200,8.25701513671875,-2.4638819694519043,-0.5259838104248047,1.3164563179016113
1683935593909056000,8.267055908203124,-0.4085814952850342,-0.8529424667358398,0.6969680786132812
1683935593919096800,8.277096923828125,0.8317542672157288,-0.9759798049926758,0.1719226837158203
1683935593929138000,8.287137939453125,1.2184126377105713,-0.7932195663452148,-0.5200991630554199
1683935593939178800,8.2971787109375,1.1658222675323486,-0.4935436248779297,-1.0096149444580078
1683935593949219600,8.307219482421875,0.5552225708961487,-0.2502479553222656,-1.3536863327026367
1683935593959260700,8.3172607421875,-0.38268256187438965,-0.14275550842285156,-1.2787535190582275
1683935593969301500,8.327301513671875,-1.1032193899154663,-0.03828620910644531,-0.8695797920227051
1683935593979342300,8.33734228515625,-1.1621630191802979,0.06746482849121094,-0.5062971115112305
1683935593989383200,8.347383056640625,-0.6831257343292236,0.055129051208496094,-0.2515697479248047
1683935593999424300,8.35742431640625,-0.10185885429382324,0.015413284301757812,-0.09334516525268555
1683935594009465000,8.367465087890626,0.08659100532531738,0.027921676635742188,-0.0975961685180664
1683935594019506000,8.377505859375,-0.06261944770812988,0.1089334487915039,-0.31787824630737305
1683935594029546800,8.387546630859376,-0.24951410293579102,0.1289539337158203,-0.7517714500427246
1683935594039587800,8.397587890625,-0.2092735767364502,0.011903762817382812,-1.2538869380950928
1683935594049628700,8.407628662109374,-0.0037115812301635742,-0.12215900421142578,-1.4715638160705566
1683935594059669500,8.41766943359375,0.18286144733428955,-0.2112712860107422,-1.5456137657165527
1683935594069710300,8.42771044921875,0.23865807056427002,-0.2512550354003906,-1.4850871562957764
1683935594079751400,8.43775146484375,0.16639363765716553,-0.2952127456665039,-1.2840609550476074
1683935594089792300,8.447792236328125,0.07959842681884766,-0.3841257095336914,-1.0437164306640625
1683935594099833000,8.4578330078125,0.13904881477355957,-0.44872093200683594,-0.7307238578796387
1683935594109874000,8.4678740234375,0.18474054336547852,-0.4435911178588867,-0.43811750411987305
1683935594119915000,8.4779150390625,0.13157188892364502,-0.40267372131347656,-0.18057823181152344
1683935594129955800,8.487955810546875,0.06932425498962402,-0.24044227600097656,-0.0037674903869628906
1683935594139996700,8.49799658203125,0.10178172588348389,-0.1030569076538086,0.05425739288330078
1683935594150037500,8.50803759765625,0.12916135787963867,-0.007321357727050781,0.03429603576660156
1683935594160078600,8.51807861328125,0.11551904678344727,0.008519172668457031,0.05084848403930664
1683935594170119400,8.528119384765626,0.031572818756103516,0.0067157745361328125,0.03429460525512695
1683935594180160300,8.53816015625,-0.04670059680938721,-0.010104179382324219,0.020755290985107422
1683935594190201300,8.548201416015624,-0.18347346782684326,-0.032225608825683594,-0.04435014724731445
1683935594200242200,8.5582421875,-0.29158151149749756,-0.035729408264160156,-0.08891534805297852
1683935594210283000,8.568282958984375,-0.4038335084915161,0.0009374618530273438,-0.16036462783813477
1683935594220323800,8.57832373046875,-0.49054133892059326,-0.03206443786621094,-0.16260957717895508
1683935594230365000,8.588364990234375,-0.5978654623031616,-0.039048194885253906,-0.1575460433959961
1683935594240405800,8.59840576171875,-0.6832993030548096,-0.02957630157470703,-0.22820806503295898
1683935594250446600,8.608446533203125,-0.6692357063293457,-0.017871856689453125,-0.2711358070373535
1683935594260487400,8.6184873046875,-0.6350750923156738,-0.03735542297363281,-0.30793285369873047
1683935594270528500,8.628528564453125,-0.6487864255905151,-0.10256767272949219,-0.24152135848999023
1683935594280569300,8.6385693359375,-0.6703567504882812,-0.20173072814941406,-0.19225788116455078
1683935594290610200,8.648610107421876,-0.6546131372451782,-0.28947925567626953,-0.15552616119384766
1683935594300651000,8.658651123046875,-0.6054370403289795,-0.3322763442993164,-0.16717815399169922
1683935594310692000,8.668692138671876,-0.4699723720550537,-0.39435672760009766,-0.22451162338256836
1683935594320733000,8.67873291015625,-0.34516048431396484,-0.41788196563720703,-0.38649749755859375
1683935594330773800,8.688773681640624,-0.17099106311798096,-0.4217643737792969,-0.539994478225708
1683935594340814600,8.698814697265625,0.009947419166564941,-0.3914651870727539,-0.6652622222900391
1683935594350855700,8.708855712890625,0.1210869550704956,-0.28884124755859375,-0.6954987049102783
1683935594360896500,8.718896484375,0.17826831340789795,-0.19066810607910156,-0.6339967250823975
1683935594370937300,8.728937255859375,0.24237418174743652,-0.13068389892578125,-0.46054601669311523
1683935594380978400,8.738978515625,0.23844420909881592,-0.1258392333984375,-0.22176742553710938
1683935594391019300,8.749019287109375,0.18766069412231445,-0.17615699768066406,-0.011464595794677734
1683935594401060000,8.75906005859375,0.08321571350097656,-0.30284881591796875,0.13971710205078125
1683935594411101200,8.76910107421875,-0.00942087173461914,-0.38095664978027344,0.12589406967163086
1683935594421142000,8.77914208984375,-0.06889426708221436,-0.3879833221435547,0.06693410873413086
1683935594431182800,8.789182861328126,-0.08569991588592529,-0.34703540802001953,-0.12154388427734375
1683935594441223700,8.7992236328125,-0.09281587600708008,-0.22840023040771484,-0.30550575256347656
1683935594451264800,8.8092646484375,-0.09151804447174072,-0.17938613891601562,-0.4658966064453125
1683935594461305600,8.8193056640625,-0.09272003173828125,-0.1588754653930664,-0.621734619140625
1683935594471346400,8.829346435546874,-0.0921783447265625,-0.20392513275146484,-0.7399897575378418
1683935594481387300,8.83938720703125,-0.09806346893310547,-0.2427968978881836,-0.8074309825897217
1683935594491428400,8.849428466796875,-0.13241863250732422,-0.25424671173095703,-0.8578178882598877
1683935594501469200,8.85946923828125,-0.1381220817565918,-0.22707080841064453,-0.8703873157501221
1683935594511510000,8.869510009765625,-0.1571134328842163,-0.18567466735839844,-0.8458905220031738
1683935594521550800,8.87955078125,-0.13626599311828613,-0.1116952896118164,-0.8321020603179932
1683935594531592000,8.889592041015625,-0.11566901206970215,-0.045897483825683594,-0.8078339099884033
1683935594541632800,8.8996328125,-0.05764663219451904,0.06337356567382812,-0.7290763854980469
1683935594551673600,8.909673583984375,-0.03153705596923828,0.08061027526855469,-0.5793278217315674
1683935594561714400,8.91971435546875,-0.03263962268829346,0.0632467269897461,-0.39426374435424805
1683935594571755500,8.929755615234376,-0.1054995059967041,-0.028693199157714844,-0.16165709495544434
1683935594581796400,8.93979638671875,-0.21373403072357178,-0.10965538024902344,0.10015439987182617
1683935594591837200,8.949837158203126,-0.2770043611526489,-0.13276958465576172,0.34339284896850586
1683935594601878300,8.959878173828125,-0.22201108932495117,-0.09592342376708984,0.46117448806762695
1683935594611919000,8.969919189453124,-0.09481978416442871,-0.0013093948364257812,0.4880681037902832
1683935594621960000,8.9799599609375,0.048256754875183105,0.07561206817626953,0.4976315498352051
1683935594632000800,8.990000732421874,0.11321163177490234,0.11412811279296875,0.4624314308166504
1683935594642041900,9.000041748046876,0.11459267139434814,0.1591663360595703,0.42049407958984375
1683935594652082700,9.010082763671875,0.01764500141143799,0.13726234436035156,0.35301876068115234
1683935594662123500,9.02012353515625,-0.12711024284362793,0.1103830337524414,0.34044885635375977
1683935594672164400,9.030164306640625,-0.25900769233703613,0.07369613647460938,0.3959999084472656
1683935594682205400,9.040205322265624,-0.36167824268341064,0.0813741683959961,0.4618387222290039
1683935594692246300,9.050246337890625,-0.38907837867736816,0.1419696807861328,0.6127071380615234
1683935594702287000,9.060287109375,-0.39008378982543945,0.1908740997314453,0.7242679595947266
1683935594712328200,9.070328125,-0.33977675437927246,0.25190067291259766,0.8560299873352051
1683935594722369000,9.080369140625,-0.3007124662399292,0.3180513381958008,0.8833050727844238
1683935594732409900,9.090409912109376,-0.27278292179107666,0.3777189254760742,0.8648777008056641
1683935594742450700,9.10045068359375,-0.20193588733673096,0.4145956039428711,0.8439316749572754
1683935594752491800,9.11049169921875,-0.12714016437530518,0.4290657043457031,0.7708425521850586
1683935594762532600,9.12053271484375,0.006989717483520508,0.4548969268798828,0.6162843704223633
1683935594772573400,9.130573486328124,0.12991690635681152,0.46659183502197266,0.41043853759765625
1683935594782614500,9.140614501953126,0.21985363960266113,0.47425174713134766,0.26998376846313477
1683935594792655400,9.1506552734375,0.22600460052490234,0.447418212890625,0.12349891662597656
1683935594802696200,9.1606962890625,0.23334431648254395,0.4266023635864258,0.004390239715576172
1683935594812737000,9.170737060546875,0.18223369121551514,0.3786296844482422,-0.09906196594238281
1683935594822778000,9.180778076171874,0.11850547790527344,0.2795677185058594,-0.1442556381225586
1683935594832819000,9.19081884765625,0.08241868019104004,0.2362356185913086,-0.17790794372558594
1683935594842859800,9.20085986328125,0.09042000770568848,0.15332603454589844,-0.14098119735717773
1683935594852900600,9.210900634765625,0.13905715942382812,0.1623554229736328,-0.12667322158813477
1683935594862941700,9.220941650390625,0.19557666778564453,0.10211753845214844,-0.13928794860839844
1683935594872982500,9.230982421875,0.17189764976501465,0.05382823944091797,-0.11525774002075195
1683935594883023400,9.2410234375,0.12317800521850586,0.0690317153930664,-0.0978851318359375
1683935594893064200,9.251064208984374,0.06223249435424805,0.1464395523071289,-0.03542327880859375
1683935594903105300,9.261105224609375,-0.07494449615478516,0.18340396881103516,0.06678342819213867
1683935594913146000,9.27114599609375,-0.18888497352600098,0.18735408782958984,0.1847996711730957
1683935594923187000,9.28118701171875,-0.2490396499633789,0.21045494079589844,0.29699277877807617
1683935594933227800,9.291227783203125,-0.18474793434143066,0.2596435546875,0.43604278564453125
1683935594943268900,9.301268798828126,-0.11087322235107422,0.3159952163696289,0.5657219886779785
1683935594953309700,9.311309814453125,-0.05535268783569336,0.4151773452758789,0.58251953125
1683935594963350500,9.3213505859375,-0.051354169845581055,0.5166330337524414,0.6108317375183105
1683935594973391400,9.331391357421875,-0.18002104759216309,0.4833946228027344,0.6428570747375488
1683935594983432400,9.341432373046874,-0.33211803436279297,0.37346458435058594,0.7200326919555664
1683935594993473300,9.351473388671875,-0.4155857563018799,0.14031696319580078,0.820162296295166
1683935595003514400,9.361514404296875,-0.5767455101013184,-0.007420539855957031,0.9103713035583496
1683935595013555200,9.37155517578125,-0.7709689140319824,0.027227401733398438,0.8903303146362305
1683935595023596000,9.381595947265625,-0.7665884494781494,0.1937084197998047,0.8977317810058594
1683935595033636900,9.391636962890624,-0.6986775398254395,0.38385009765625,0.8037176132202148
1683935595043678000,9.401677978515625,-0.6895897388458252,0.5219316482543945,0.7765250205993652
1683935595053718800,9.41171875,-0.65769362449646,0.6158552169799805,0.6599464416503906
1683935595063759600,9.421759521484375,-0.4530038833618164,0.6926722526550293,0.5244569778442383
1683935595073800400,9.431800537109375,-0.20288777351379395,0.7982540130615234,0.30273914337158203
1683935595083841500,9.441841552734376,0.043099164962768555,0.8478412628173828,0.12576913833618164
1683935595093882400,9.45188232421875,0.18092036247253418,0.788485050201416,-0.06578302383422852
1683935595103923200,9.461923095703124,0.21038126945495605,0.6789388656616211,-0.25414133071899414
1683935595113964000,9.471964111328125,0.25592100620269775,0.46175193786621094,-0.4687538146972656
1683935595124005000,9.482005126953124,0.24655354022979736,0.1652660369873047,-0.6585159301757812
1683935595134046000,9.4920458984375,0.25584709644317627,-0.03431415557861328,-0.886246919631958
1683935595144086800,9.502086669921875,0.2951012849807739,-0.19924354553222656,-1.0254547595977783
1683935595154127600,9.512127685546876,0.30497097969055176,-0.3251523971557617,-1.1452972888946533
1683935595164168700,9.522168701171875,0.31648480892181396,-0.34697628021240234,-1.1849722862243652
1683935595174209500,9.53220947265625,0.2770991325378418,-0.3608999252319336,-1.1265008449554443
1683935595184250400,9.54225048828125,0.16905367374420166,-0.42458152770996094,-1.0905587673187256
1683935595194291200,9.552291259765624,0.08076286315917969,-0.5859518051147461,-0.8756375312805176
1683935595204332300,9.562332275390625,-0.1486821174621582,-0.8760528564453125,-0.6366791725158691
1683935595214373000,9.572373046875,-0.36227190494537354,-1.1947317123413086,-0.3221733570098877
1683935595224414000,9.5824140625,-0.6780937910079956,-1.4833087921142578,-0.01129007339477539
1683935595234455000,9.592455078125,-1.0768080949783325,-1.604771614074707,0.3153657913208008
1683935595244496000,9.602495849609374,-1.335742473602295,-1.3569602966308594,0.38997364044189453
1683935595254536700,9.61253662109375,-1.5577203035354614,-1.047379493713379,0.7630066871643066
1683935595264577800,9.622577880859374,-1.7381649017333984,-0.30057621002197266,1.2044353485107422
1683935595274618600,9.63261865234375,-1.5772804021835327,0.5305070877075195,1.5171656608581543
1683935595284659500,9.642659423828125,-1.0422717332839966,1.0304632186889648,1.750953197479248
1683935595294700300,9.6527001953125,-0.35349273681640625,1.2343273162841797,1.8108620643615723
1683935595304741400,9.662741455078125,0.3234708309173584,1.201131820678711,1.6114826202392578
1683935595314782200,9.6727822265625,0.8151561617851257,1.016122817993164,1.2245793342590332
1683935595324823000,9.682822998046875,1.1914403438568115,0.6805887222290039,0.6982464790344238
1683935595334864000,9.69286376953125,1.360734462738037,0.3149700164794922,0.24514055252075195
1683935595344905000,9.702905029296875,1.3473085165023804,-0.08040714263916016,-0.12379980087280273
1683935595354945800,9.71294580078125,1.1038587093353271,-0.3765850067138672,-0.4366269111633301
1683935595364986600,9.722986572265626,0.6492814421653748,-0.578704833984375,-0.6405868530273438
1683935595375027500,9.73302734375,0.056775808334350586,-0.7207927703857422,-0.6647319793701172
1683935595385068500,9.743068603515624,-0.509738564491272,-0.6932582855224609,-0.6359903812408447
1683935595395109400,9.753109375,-0.900233268737793,-0.5559606552124023,-0.5701494216918945
1683935595405150200,9.763150146484374,-0.9048962593078613,-0.3469982147216797,-0.4611845016479492
1683935595415191300,9.77319140625,-0.6139575242996216,-0.15239524841308594,-0.3254575729370117
1683935595425232100,9.783232177734375,-0.1700398325920105,-0.03629016876220703,-0.2702665328979492
1683935595435273000,9.79327294921875,0.1732175350189209,0.05673980712890625,-0.24054837226867676
1683935595445314000,9.80331396484375,0.40128177404403687,0.12917232513427734,-0.20104193687438965
1683935595455355000,9.81335498046875,0.48139292001724243,0.0853891372680664,-0.18831920623779297
1683935595465395700,9.823395751953125,0.4679962396621704,-0.026841163635253906,-0.17200970649719238
1683935595475436500,9.8334365234375,0.3948374390602112,-0.07855224609375,-0.18341612815856934
1683935595485477600,9.8434775390625,0.35580962896347046,-0.09399890899658203,-0.12963080406188965
1683935595495518500,9.8535185546875,0.37590092420578003,-0.09969329833984375,-0.15654611587524414
1683935595505559300,9.863559326171876,0.5229662656784058,-0.07703495025634766,-0.0522303581237793
1683935595515600100,9.87360009765625,0.7296746969223022,0.019288063049316406,-0.043913841247558594
1683935595525641200,9.88364111328125,0.9421663284301758,0.11737728118896484,-0.029010295867919922
1683935595535682000,9.89368212890625,1.0652254819869995,0.10250377655029297,-0.008013248443603516
1683935595545723000,9.903722900390624,1.096975326538086,0.1254119873046875,0.030835628509521484
1683935595555763700,9.913763671875,1.0147067308425903,0.1500253677368164,0.0656437873840332
1683935595565804800,9.9238046875,0.8279964923858643,0.1856393814086914,0.07698297500610352
1683935595575845600,9.933845703125,0.5979505777359009,0.1387166976928711,0.10985088348388672
1683935595585886500,9.943886474609375,0.30530083179473877,-0.021703720092773438,0.13089847564697266
1683935595595927600,9.953927490234374,-0.05405314266681671,-0.12351036071777344,0.09244585037231445
1683935595605968400,9.963968505859375,-0.3188316822052002,-0.2291860580444336,-0.039196014404296875
1683935595616009200,9.97400927734375,-0.5073780417442322,-0.3860588073730469,-0.3226470947265625
1683935595626050300,9.98405029296875,-0.5502174496650696,-0.5121688842773438,-0.5748865604400635
1683935595636091100,9.994091064453125,-0.4778343737125397,-0.6165809631347656,-0.7688231468200684
1683935595646132000,10.004132080078126,-0.28678104281425476,-0.7181529998779297,-0.8684022426605225
1683935595656172800,10.0141728515625,-0.09676157683134079,-0.7473249435424805,-0.9115633964538574
1683935595666214000,10.0242138671875,0.046733349561691284,-0.6180553436279297,-0.9958770275115967
1683935595676254700,10.034254638671875,0.21111007034778595,-0.5168800354003906,-0.9322929382324219
1683935595686295600,10.044295654296874,0.34046095609664917,-0.3387422561645508,-0.888554573059082
1683935595696336400,10.05433642578125,0.44161728024482727,-0.20821285247802734,-0.7838442325592041
1683935595706377500,10.06437744140625,0.5379135012626648,-0.10870838165283203,-0.6379599571228027
1683935595716418300,10.074418212890626,0.6501650810241699,-0.045014381408691406,-0.53713059425354
1683935595726459100,10.084459228515625,0.7607967853546143,-0.026739120483398438,-0.36927342414855957
1683935595736500000,10.0945,0.8196641206741333,0.03444480895996094,-0.3044118881225586
1683935595746541000,10.104541015625,0.8803269267082214,-0.05267524719238281,-0.1967768669128418
1683935595756582000,10.114581787109374,0.9329612255096436,0.010713577270507812,-0.21616268157958984
1683935595766622700,10.124622802734375,0.8953996896743774,-0.026764869689941406,-0.21942615509033203
1683935595776663800,10.134663818359375,0.8678383231163025,-0.06454181671142578,-0.23279833793640137
1683935595786704600,10.14470458984375,0.7882698774337769,-0.14112472534179688,-0.26881885528564453
1683935595796745500,10.154745361328125,0.6809324026107788,-0.22793960571289062,-0.3564774990081787
1683935595806786300,10.164786376953124,0.5775923728942871,-0.3079862594604492,-0.48793792724609375
1683935595816827400,10.174827392578125,0.4719446301460266,-0.38822364807128906,-0.5671448707580566
1683935595826868200,10.1848681640625,0.37927109003067017,-0.39205169677734375,-0.6679716110229492
1683935595836909000,10.194908935546875,0.34804946184158325,-0.3672962188720703,-0.6946702003479004
1683935595846950100,10.2049501953125,0.2972944378852844,-0.3472766876220703,-0.7211287021636963
1683935595856991000,10.214990966796876,0.2897357940673828,-0.34375953674316406,-0.7088916301727295
1683935595867031800,10.22503173828125,0.3018673062324524,-0.2993154525756836,-0.634131908416748
1683935595877072600,10.23507275390625,0.3430778980255127,-0.2426595687866211,-0.5876803398132324
1683935595887113700,10.24511376953125,0.39335697889328003,-0.21449947357177734,-0.5074648857116699
1683935595897154600,10.255154541015624,0.4426618814468384,-0.15742206573486328,-0.4173436164855957
1683935595907195400,10.2651953125,0.5003552436828613,-0.20535945892333984,-0.22446131706237793
1683935595917236500,10.275236572265625,0.587558388710022,-0.10974407196044922,-0.14409232139587402
1683935595927277300,10.28527734375,0.6490679979324341,-0.04540061950683594,-0.04727458953857422
1683935595937318100,10.295318115234375,0.687436044216156,-0.000423431396484375,0.0513453483581543
1683935595947359000,10.30535888671875,0.7454045414924622,0.04414558410644531,0.12510323524475098
1683935595957400000,10.315400146484375,0.7488086223602295,0.08587646484375,0.15726375579833984
1683935595967441000,10.32544091796875,0.7121179103851318,-0.061676025390625,0.2358841896057129
1683935595977481700,10.335481689453125,0.6965659260749817,-0.006443023681640625,0.21761465072631836
1683935595987522600,10.3455224609375,0.6822306513786316,-0.011702537536621094,0.17192316055297852
1683935595997563600,10.355563720703126,0.6647133827209473,-0.04381847381591797,0.12998533248901367
1683935596007604500,10.3656044921875,0.6420813798904419,-0.035780906677246094,0.020243167877197266
1683935596017645300,10.375645263671874,0.6001341938972473,-0.0974264144897461,-0.06852865219116211
1683935596027686400,10.385686279296875,0.5435482263565063,-0.163848876953125,-0.1357893943786621
1683935596037727200,10.395727294921874,0.5083086490631104,-0.2181854248046875,-0.19564461708068848
1683935596047768000,10.40576806640625,0.44745033979415894,-0.2340526580810547,-0.27901530265808105
1683935596057809200,10.41580908203125,0.4118809103965759,-0.25688743591308594,-0.27367305755615234
1683935596067850000,10.42585009765625,0.3900728225708008,-0.24839305877685547,-0.2848796844482422
1683935596077890800,10.435890869140625,0.37929701805114746,-0.24924278259277344,-0.295825719833374
1683935596087931600,10.445931640625,0.36758166551589966,-0.2377462387084961,-0.3132936954498291
1683935596097972700,10.45597265625,0.3974449038505554,-0.21639060974121094,-0.2585306167602539
1683935596108013600,10.466013671875,0.43096625804901123,-0.17558002471923828,-0.2264089584350586
1683935596118054400,10.476054443359375,0.44760870933532715,-0.12345504760742188,-0.1896500587463379
1683935596128095200,10.48609521484375,0.4381498694419861,-0.06715965270996094,-0.17397308349609375
1683935596138136300,10.49613623046875,0.40522265434265137,-0.03036212921142578,-0.15322566032409668
1683935596148177200,10.50617724609375,0.3985503911972046,-0.005615234375,-0.09437179565429688
1683935596158218000,10.516218017578124,0.39164239168167114,-0.011509895324707031,-0.08267736434936523
1683935596168259000,10.526259033203125,0.3678067922592163,-0.028730392456054688,-0.02555227279663086
1683935596178300000,10.5362998046875,0.33691102266311646,0.02289867401123047,-0.03691244125366211
1683935596188340700,10.5463408203125,0.30175745487213135,0.043265342712402344,-0.04054737091064453
1683935596198381600,10.556381591796875,0.2721840739250183,0.03284740447998047,0.0173797607421875
1683935596208422700,10.566422607421876,0.20847785472869873,0.04870414733886719,-0.01482248306274414
1683935596218463500,10.57646337890625,0.1839134693145752,-0.013438224792480469,0.009821414947509766
1683935596228504300,10.58650439453125,0.14324724674224854,-0.05589485168457031,0.05721902847290039
1683935596238545400,10.59654541015625,0.11777734756469727,-0.10022830963134766,0.07027578353881836
1683935596248586200,10.606586181640624,0.05592966079711914,-0.12771892547607422,-0.002658367156982422
1683935596258627000,10.616626953125,0.015038251876831055,-0.17608642578125,-0.1173405647277832
1683935596268668000,10.62666796875,-0.021584689617156982,-0.17408084869384766,-0.19011402130126953
1683935596278709000,10.636708984375,0.00676727294921875,-0.15070343017578125,-0.2072610855102539
1683935596288749800,10.646749755859375,0.07285332679748535,-0.12977981567382812,-0.10591673851013184
1683935596298790700,10.656790771484374,0.11712646484375,-0.08568191528320312,0.04066610336303711
1683935596308831700,10.666831787109375,0.15182757377624512,-0.05413055419921875,0.06450223922729492
1683935596318872600,10.67687255859375,0.16062390804290771,-0.006318092346191406,0.1049489974975586
1683935596328913400,10.686913330078125,0.20967912673950195,0.07613945007324219,0.12136507034301758
1683935596338954200,10.696954345703125,0.25360536575317383,0.1339426040649414,0.08147048950195312
1683935596348995300,10.706995361328126,0.32270050048828125,0.1533374786376953,0.07803535461425781
1683935596359036200,10.7170361328125,0.3477112054824829,0.16088008880615234,0.13888263702392578
1683935596369077000,10.727076904296876,0.3714897632598877,0.12159538269042969,0.15737438201904297
1683935596379117800,10.737117919921875,0.38646841049194336,0.1042032241821289,0.24427223205566406
1683935596389159000,10.747158935546874,0.41387462615966797,0.12457942962646484,0.28495359420776367
1683935596399199700,10.75719970703125,0.4065380096435547,0.10422420501708984,0.32685232162475586
1683935596409240600,10.767240478515625,0.3859633207321167,0.08123207092285156,0.2964968681335449
1683935596419281700,10.77728173828125,0.3269120454788208,0.03203773498535156,0.26076745986938477
1683935596429322500,10.787322509765625,0.2424372434616089,-0.021646499633789062,0.16798877716064453
1683935596439363300,10.79736328125,0.16884338855743408,-0.1219472885131836,0.03110980987548828
1683935596449404400,10.807404296875,0.06618821620941162,-0.15705394744873047,-0.16014337539672852
1683935596459445200,10.8174453125,0.005834698677062988,-0.1843423843383789,-0.2914917469024658
1683935596469486000,10.827486083984375,-0.05208718776702881,-0.2225170135498047,-0.3377087116241455
1683935596479527000,10.83752685546875,-0.06733572483062744,-0.25008201599121094,-0.31885623931884766
1683935596489568000,10.847568115234376,-0.03382682800292969,-0.17541027069091797,-0.2948150634765625
1683935596499608800,10.85760888671875,0.0027881860733032227,-0.17450237274169922,-0.1575329303741455
1683935596509649700,10.867649658203124,0.0771026611328125,-0.0133819580078125,-0.03888702392578125
1683935596519690800,10.877690673828125,0.13916289806365967,0.06727981567382812,0.08916234970092773
1683935596529731600,10.887731689453124,0.1725696325302124,0.09212684631347656,0.23303937911987305
1683935596539772400,10.8977724609375,0.19594037532806396,0.15149974822998047,0.27014875411987305
1683935596549813200,10.907813232421875,0.17436707019805908,0.023616790771484375,0.3577690124511719
1683935596559854300,10.917854248046876,0.17654180526733398,0.04138374328613281,0.326077938079834
1683935596569895200,10.927895263671875,0.16556155681610107,0.07287120819091797,0.25267457962036133
1683935596579936000,10.93793603515625,0.1466975212097168,0.0662221908569336,0.1926589012145996
1683935596589976800,10.947976806640625,0.13239514827728271,0.07405757904052734,0.11546564102172852
1683935596600018000,10.958017822265624,0.13177359104156494,0.060652732849121094,0.09171104431152344
1683935596610058800,10.968058837890625,0.13748955726623535,0.1650838851928711,0.03773927688598633
1683935596620099600,10.978099609375,0.07054293155670166,-0.0781717300415039,0.11665010452270508
1683935596630140700,10.988140625,0.05167031288146973,-0.023027420043945312,0.06494808197021484
1683935596640181500,10.998181396484375,0.004485130310058594,-0.034725189208984375,0.018908023834228516
1683935596650222300,11.008222412109374,-0.02714228630065918,-0.02960968017578125,-0.038012027740478516
1683935596660263400,11.018263427734375,-0.03840816020965576,-0.06910514831542969,-0.09382486343383789
1683935596670304300,11.02830419921875,-0.04648280143737793,-0.07953929901123047,-0.0991201400756836
1683935596680345000,11.038344970703125,-0.011821508407592773,-0.10131549835205078,-0.13444805145263672
1683935596690386000,11.048385986328125,-0.0012006759643554688,-0.08973121643066406,-0.13381290435791016
1683935596700427000,11.058427001953126,0.011633992195129395,-0.0641622543334961,-0.14249849319458008
1683935596710467800,11.0684677734375,0.014952301979064941,-0.06958770751953125,-0.13215923309326172
1683935596720508700,11.0785087890625,0.018262386322021484,-0.08666801452636719,-0.15020132064819336
1683935596730549800,11.0885498046875,0.012108206748962402,-0.06347465515136719,-0.15388202667236328
1683935596740590600,11.098590576171874,-0.003187894821166992,-0.06418609619140625,-0.19752073287963867
1683935596750631400,11.10863134765625,0.00559234619140625,-0.062470436096191406,-0.2050638198852539
1683935596760672300,11.11867236328125,0.028495430946350098,-0.09132194519042969,-0.19589924812316895
1683935596770713300,11.12871337890625,0.0252455472946167,-0.09842491149902344,-0.2079329490661621
1683935596780754200,11.138754150390625,0.048087120056152344,-0.10531902313232422,-0.19370818138122559
1683935596790795000,11.148794921875,0.05416405200958252,-0.09078693389892578,-0.19595813751220703
1683935596800835800,11.1588359375,0.07920825481414795,-0.08343505859375,-0.18383574485778809
1683935596810877000,11.168876953125,0.08052051067352295,-0.08547210693359375,-0.19047856330871582
1683935596820917800,11.178917724609375,0.09616851806640625,-0.08726692199707031,-0.20603656768798828
1683935596830958600,11.18895849609375,0.10696375370025635,-0.0912332534790039,-0.1951284408569336
1683935596840999700,11.198999755859376,0.12223935127258301,-0.11629104614257812,-0.1372358798980713
1683935596851040500,11.20904052734375,0.12307882308959961,-0.11730003356933594,-0.14836335182189941
1683935596861081300,11.219081298828126,0.10990798473358154,-0.08765220642089844,-0.16161036491394043
1683935596871122400,11.229122314453125,0.10206723213195801,-0.060851097106933594,-0.16060996055603027
1683935596881163300,11.239163330078124,0.07600903511047363,-0.060352325439453125,-0.11493468284606934
1683935596891204000,11.2492041015625,0.07658231258392334,-0.06459903717041016,-0.06309652328491211
1683935596901245000,11.259244873046875,0.07733511924743652,-0.08527946472167969,-0.005157947540283203
1683935596911286000,11.2692861328125,0.04768550395965576,-0.08925819396972656,-0.009713172912597656
1683935596921326800,11.279326904296875,0.04046046733856201,-0.05091094970703125,-0.014646053314208984
1683935596931367700,11.28936767578125,0.03431427478790283,-0.020211219787597656,-0.07848238945007324
1683935596941408800,11.29940869140625,0.057205915451049805,-0.027619361877441406,-0.07770895957946777
1683935596951449600,11.30944970703125,0.0588231086730957,-0.07258415222167969,-0.055852413177490234
1683935596961490400,11.319490478515625,0.05334830284118652,-0.05326366424560547,-0.03676009178161621
1683935596971531300,11.32953125,0.08788406848907471,-0.05548858642578125,-0.029794692993164062
1683935596981572400,11.339572265625,0.09647417068481445,-0.02715301513671875,0.026184558868408203
1683935596991613200,11.34961328125,0.1340484619140625,-0.01591014862060547,0.06186485290527344
1683935597001654000,11.359654052734374,0.15531110763549805,0.009065628051757812,0.08924341201782227
1683935597011695000,11.369695068359375,0.188423752784729,0.007521629333496094,0.06146812438964844
1683935597021736000,11.37973583984375,0.20870602130889893,0.031670570373535156,0.052623748779296875
1683935597031776800,11.38977685546875,0.19007563591003418,0.03406238555908203,0.03202629089355469
1683935597041817900,11.39981787109375,0.176538348197937,0.027016639709472656,0.040062904357910156
1683935597051858700,11.409858642578126,0.1523125171661377,-0.015215873718261719,0.11134672164916992
1683935597061899500,11.4198994140625,0.15700340270996094,-0.023744583129882812,0.12733173370361328
1683935597071940400,11.4299404296875,0.18275690078735352,-0.036948204040527344,0.16873741149902344
1683935597081981400,11.4399814453125,0.17036700248718262,-0.01941680908203125,0.07745075225830078
1683935597092022300,11.450022216796874,0.1998685598373413,0.016577720642089844,0.0583195686340332
1683935597102063000,11.46006298828125,0.17136293649673462,0.06120109558105469,-0.05010676383972168
1683935597112104200,11.470104248046875,0.15951979160308838,0.060263633728027344,-0.09327816963195801
1683935597122145000,11.48014501953125,0.09902578592300415,0.047496795654296875,-0.14544105529785156
1683935597132185900,11.490185791015625,0.052813053131103516,0.006717681884765625,-0.22762775421142578
1683935597142226700,11.500226806640624,0.03044205904006958,-0.07085418701171875,-0.28960251808166504
1683935597152267800,11.510267822265625,0.024438560009002686,-0.16568660736083984,-0.3550386428833008
1683935597162308600,11.52030859375,0.06932055950164795,-0.23023223876953125,-0.43041110038757324
1683935597172349400,11.530349365234375,0.1118132472038269,-0.24134349822998047,-0.4986710548400879
1683935597182390500,11.540390625,0.14240211248397827,-0.2303457260131836,-0.5100810527801514
1683935597192431400,11.550431396484376,0.17783057689666748,-0.15991687774658203,-0.46317625045776367
1683935597202472200,11.56047216796875,0.19931864738464355,-0.1251659393310547,-0.32823729515075684
1683935597212513000,11.570512939453126,0.22101080417633057,-0.07603073120117188,-0.17721009254455566
1683935597222554000,11.58055419921875,0.26433807611465454,-0.02946949005126953,0.11852788925170898
1683935597232595000,11.590594970703124,0.32453906536102295,0.09188556671142578,0.3414609432220459
1683935597242635800,11.6006357421875,0.3826850652694702,0.15481853485107422,0.5065832138061523
1683935597252676900,11.6106767578125,0.41011279821395874,0.24013233184814453,0.6168177127838135
1683935597262717700,11.6207177734375,0.4463697075843811,0.31196117401123047,0.7387869358062744
1683935597272758500,11.630758544921875,0.42484623193740845,0.35163402557373047,0.7616009712219238
1683935597282799600,11.640799560546874,0.4147709608078003,0.34093666076660156,0.7953836917877197
1683935597292840400,11.65084033203125,0.36719512939453125,0.3749828338623047,0.8188748359680176
1683935597302881300,11.66088134765625,0.3679194450378418,0.3965749740600586,0.8464117050170898
1683935597312922000,11.670922119140625,0.3624299168586731,0.3800525665283203,0.8614287376403809
1683935597322963200,11.680963134765625,0.4030044674873352,0.4673194885253906,0.864130973815918
1683935597333004000,11.691004150390626,0.4601929783821106,0.47991466522216797,0.8591461181640625
1683935597343044900,11.701044921875,0.4739164113998413,0.43767833709716797,0.8697652816772461
1683935597353086000,11.7110859375,0.4721766710281372,0.3955364227294922,0.8179020881652832
1683935597363126800,11.721126708984375,0.4457581043243408,0.31580638885498047,0.6692490577697754
1683935597373167600,11.731167724609374,0.3846157193183899,0.24399185180664062,0.5055923461914062
1683935597383208400,11.74120849609375,0.34681177139282227,0.18488311767578125,0.3534212112426758
1683935597393249500,11.75124951171875,0.30647093057632446,0.10780143737792969,0.21045589447021484
1683935597403290400,11.761290283203126,0.3077632784843445,0.0341644287109375,0.08591604232788086
1683935597413331200,11.771331298828125,0.3088700771331787,-0.03616523742675781,-0.022877216339111328
1683935597423372300,11.781372314453124,0.3226611614227295,-0.0632925033569336,-0.1562044620513916
1683935597433413000,11.7914130859375,0.3221982717514038,-0.057305335998535156,-0.30877161026000977
1683935597443454000,11.801453857421874,0.2846319079399109,-0.039722442626953125,-0.4233527183532715
1683935597453495000,11.8114951171875,0.264480859041214,-0.03159523010253906,-0.45539188385009766
1683935597463535900,11.821535888671875,0.23339778184890747,0.0028371810913085938,-0.4671003818511963
1683935597473576700,11.83157666015625,0.21671470999717712,-0.042758941650390625,-0.36702728271484375
1683935597483617500,11.841617431640625,0.2692747712135315,-0.03779315948486328,-0.20226168632507324
1683935597493658600,11.85165869140625,0.3549281656742096,0.014477729797363281,-0.09634637832641602
1683935597503699500,11.861699462890625,0.4890666902065277,0.07786178588867188,0.03407621383666992
1683935597513740300,11.871740234375,0.6055073738098145,0.15423011779785156,0.11049652099609375
1683935597523781400,11.881781494140625,0.7298556566238403,0.2595787048339844,0.16408777236938477
1683935597533822200,11.891822265625,0.7741109728813171,0.3060932159423828,0.20664119720458984
1683935597543863000,11.901863037109376,0.7867953777313232,0.30640602111816406,0.2569293975830078
1683935597553903900,11.91190380859375,0.7294113039970398,0.28946685791015625,0.2745943069458008
1683935597563945000,11.921945068359374,0.5904749631881714,0.27193546295166016,0.25279903411865234
1683935597573985800,11.93198583984375,0.4061736464500427,0.31256103515625,0.10478544235229492
1683935597584026600,11.942026611328124,0.17284834384918213,0.29966259002685547,-0.04982900619506836
1683935597594067700,11.952067626953125,-0.09570125490427017,0.23627567291259766,-0.1737959384918213
1683935597604108500,11.962108642578125,-0.3589225709438324,0.13736915588378906,-0.3477315902709961
1683935597614149400,11.9721494140625,-0.6097756624221802,0.0014009475708007812,-0.5703940391540527
1683935597624190500,11.9821904296875,-0.8820430040359497,-0.0720062255859375,-0.7936575412750244
1683935597634231300,11.992231201171874,-1.1288409233093262,-0.17327404022216797,-1.0437321662902832
1683935597644272000,12.002272216796875,-1.3621126413345337,-0.29625988006591797,-1.244048833847046
1683935597654313000,12.01231298828125,-1.5712488889694214,-0.41156482696533203,-1.4171679019927979
1683935597664354000,12.02235400390625,-1.6049044132232666,-0.5160684585571289,-1.4731724262237549
1683935597674395000,12.032394775390625,-1.492767095565796,-0.5971231460571289,-1.5419976711273193
1683935597684435700,12.042435791015626,-1.2052698135375977,-0.5846586227416992,-1.5904405117034912
1683935597694476800,12.052476806640625,-0.8498363494873047,-0.5385160446166992,-1.4341771602630615
1683935597704517600,12.062517578125,-0.47601351141929626,-0.47095775604248047,-1.267364740371704
1683935597714558500,12.072558349609375,-0.14070536196231842,-0.35114383697509766,-0.9802534580230713
1683935597724599300,12.082599365234374,0.18581676483154297,-0.2514057159423828,-0.5980076789855957
1683935597734640400,12.092640380859375,0.45435550808906555,-0.12929630279541016,-0.2987332344055176
1683935597744681200,12.10268115234375,0.6780674457550049,-0.0010852813720703125,-0.24373292922973633
1683935597754722000,12.11272216796875,0.9203085899353027,0.08974647521972656,0.029413700103759766
1683935597764763100,12.12276318359375,1.105863094329834,0.31104564666748047,0.36299562454223633
1683935597774804000,12.132803955078124,1.2378700971603394,0.4439849853515625,0.641779899597168
1683935597784844800,12.1428447265625,1.2453298568725586,0.6247949600219727,0.729306697845459
1683935597794886000,12.152885986328124,1.1927766799926758,0.7221660614013672,0.7502915859222412
1683935597804926700,12.1629267578125,1.0454392433166504,0.7984819412231445,0.6902685165405273
1683935597814967600,12.172967529296875,0.8016843795776367,0.7893896102905273,0.5920016765594482
1683935597825008600,12.183008544921876,0.4674791097640991,0.6998825073242188,0.447939395904541
1683935597835049500,12.193049560546875,0.12625432014465332,0.5325469970703125,0.3033430576324463
1683935597845090300,12.20309033203125,-0.24700617790222168,0.3784933090209961,0.09909176826477051
1683935597855131100,12.213131103515625,-0.5869401097297668,0.1710796356201172,-0.12042927742004395
1683935597865172200,12.223172119140624,-0.9439164996147156,-0.12772655487060547,-0.28246569633483887
1683935597875213000,12.233213134765625,-1.2118632793426514,-0.3313922882080078,-0.45993518829345703
1683935597885254000,12.24325390625,-1.3982067108154297,-0.40160083770751953,-0.6009113788604736
1683935597895295000,12.253294921875,-1.5117764472961426,-0.5340900421142578,-0.753943681716919
1683935597905335800,12.263335693359375,-1.4664151668548584,-0.6544170379638672,-0.8632485866546631
1683935597915376600,12.273376708984374,-1.3118386268615723,-0.7268314361572266,-0.9409825801849365
1683935597925417500,12.28341748046875,-1.0489733219146729,-0.770329475402832,-1.0229122638702393
1683935597935458600,12.29345849609375,-0.8066527843475342,-0.6915378570556641,-1.0112390518188477
1683935597945499400,12.30349951171875,-0.5363197326660156,-0.6790761947631836,-1.056844711303711
1683935597955540200,12.313540283203125,-0.3632885217666626,-0.6009349822998047,-1.078307867050171
1683935597965581300,12.323581298828126,-0.19650042057037354,-0.545384407043457,-1.0736048221588135
1683935597975622100,12.3336220703125,-0.09647643566131592,-0.45491695404052734,-1.0262539386749268
1683935597985663000,12.3436630859375,-0.12464308738708496,-0.4512958526611328,-1.0077970027923584
1683935597995703800,12.353703857421875,-0.19577360153198242,-0.3914041519165039,-0.9112582206726074
1683935598005745000,12.363744873046874,-0.31225550174713135,-0.39996337890625,-0.79197096824646
1683935598015785700,12.37378564453125,-0.507076621055603,-0.3386106491088867,-0.7381582260131836
1683935598025826800,12.383826904296875,-0.6218788623809814,-0.35396862030029297,-0.5210342407226562
1683935598035867600,12.39386767578125,-0.7385969161987305,-0.3537607192993164,-0.350344181060791
1683935598045908500,12.403908447265625,-0.8143806457519531,-0.34807300567626953,-0.24608159065246582
1683935598055949300,12.41394921875,-0.9527498483657837,-0.3752174377441406,-0.2967705726623535
1683935598065990400,12.423990478515625,-1.0876442193984985,-0.4640989303588867,-0.2570304870605469
1683935598076031200,12.43403125,-1.2604761123657227,-0.5147075653076172,-0.22619867324829102
1683935598086072000,12.444072021484375,-1.3765825033187866,-0.5938434600830078,-0.311659574508667
1683935598096113200,12.454113037109375,-1.4356904029846191,-0.6577081680297852,-0.4621303081512451
1683935598106154000,12.464154052734376,-1.4537988901138306,-0.7650766372680664,-0.7166147232055664
1683935598116194800,12.47419482421875,-1.4000049829483032,-0.8338937759399414,-0.8440303802490234
1683935598126235600,12.484235595703124,-1.329079031944275,-0.8642158508300781,-0.9018421173095703
