time,seconds_elapsed,z,y,x
1683935696116067000,0.034067138671875,0,0,0
1683935696126108200,0.044108154296875,0.08693504333496094,0.07676315307617188,0.30011439323425293
1683935696136149000,0.05414892578125,0.09578990936279297,0.16843748092651367,0.3305521011352539
1683935696146190000,0.064190185546875,0.009177207946777344,-0.08686399459838867,0.5715827941894531
1683935696156231200,0.074231201171875,0.019263267517089844,0.003863811492919922,0.34345388412475586
1683935696166272000,0.08427197265625,-0.06528091430664062,-0.007579326629638672,-0.029094457626342773
1683935696176313000,0.09431298828125,-0.14230918884277344,-0.3675103187561035,0.12585663795471191
1683935696186354000,0.10435400390625,-0.2013225555419922,-0.10836124420166016,-0.022655010223388672
1683935696196395000,0.11439501953125,-0.2690887451171875,0.5385231971740723,-0.34386372566223145
1683935696206436000,0.12443603515625,-0.02254486083984375,-1.3174657821655273,0.461899995803833
1683935696216477200,0.134477294921875,0.9928007125854492,0.08423519134521484,0.04395723342895508
1683935696226518000,0.14451806640625,1.0500812530517578,0.6546788215637207,0.06604623794555664
1683935696236559000,0.15455908203125,0.9114627838134766,0.3407912254333496,0.1067960262298584
1683935696246600000,0.164599853515625,-0.32478809356689453,-0.2901172637939453,0.04374098777770996
1683935696256641000,0.17464111328125,-1.1092033386230469,-0.2078261375427246,-0.7175562381744385
1683935696266682000,0.18468212890625,-1.3072566986083984,0.13395452499389648,-0.7286701202392578
1683935696276723000,0.194722900390625,-0.7181234359741211,-0.21743059158325195,-1.6849901676177979
1683935696286764000,0.204763916015625,-0.19701814651489258,0.6271896362304688,-1.4762669801712036
1683935696296805000,0.21480517578125,0.9153223037719727,-0.13622283935546875,-0.6977424621582031
1683935696306846000,0.224845947265625,1.2758617401123047,0.21672821044921875,-0.5958900451660156
1683935696316887000,0.234886962890625,0.7828264236450195,-0.4921531677246094,-0.446941614151001
1683935696326928100,0.24492822265625,-0.04095172882080078,-1.1683554649353027,-0.0503690242767334
1683935696336969000,0.254968994140625,-0.3776521682739258,0.993809700012207,-1.4348418712615967
1683935696347010000,0.265010009765625,-0.5936994552612305,-0.21700620651245117,-0.6701593399047852
1683935696357051100,0.275051025390625,0.06955528259277344,-1.0284795761108398,0.26195335388183594
1683935696367092000,0.285092041015625,-0.01770782470703125,-0.17984437942504883,-0.20903968811035156
1683935696377133000,0.295133056640625,0.08801651000976562,0.8524188995361328,-0.28017401695251465
1683935696387174100,0.305174072265625,-0.7395343780517578,0.3851327896118164,0.13977408409118652
1683935696397215000,0.315215087890625,-0.6735024452209473,0.45001840591430664,-0.06920361518859863
1683935696407256000,0.325256103515625,-0.7426242828369141,0.3417024612426758,1.0679428577423096
1683935696417297200,0.335297119140625,-0.16276884078979492,1.0165324211120605,2.236398935317993
1683935696427338000,0.345337890625,-1.3152637481689453,0.731330394744873,0.5467393398284912
1683935696437379000,0.355379150390625,0.44985485076904297,0.1285085678100586,0.4075958728790283
1683935696447420200,0.365420166015625,0.2449321746826172,0.43358659744262695,-0.1025547981262207
1683935696457461000,0.3754609375,0.02025318145751953,0.5880780220031738,-0.4689483642578125
1683935696467502000,0.385502197265625,0.09101676940917969,0.47569799423217773,-0.20099115371704102
1683935696477543200,0.395543212890625,0.49301624298095703,0.5872840881347656,-0.3553006649017334
1683935696487584000,0.405583984375,0.3429536819458008,0.11653470993041992,-0.37315821647644043
1683935696497625000,0.415625,-0.24487066268920898,0.4962277412414551,0.056504249572753906
1683935696507666000,0.425666015625,-0.7676115036010742,0.787285327911377,0.1210179328918457
1683935696517707000,0.43570703125,-0.8476848602294922,0.38535356521606445,0.4328322410583496
1683935696527748000,0.445748046875,-0.7327418327331543,0.3894786834716797,0.6334571838378906
1683935696537789000,0.455788818359375,-0.749300479888916,0.6347050666809082,0.564690113067627
1683935696547830000,0.465830078125,-1.1022930145263672,0.6177473068237305,0.8169927597045898
1683935696557871000,0.47587109375,-3.422276020050049,0.05808687210083008,2.0020108222961426
1683935696567912000,0.485911865234375,-4.466181755065918,0.7400274276733398,1.5552825927734375
1683935696577953000,0.495953125,-2.876852035522461,0.9248411655426025,1.4962959289550781
1683935696587994000,0.505994140625,-1.1715435981750488,0.46072912216186523,0.8989453315734863
1683935696598035000,0.516034912109375,-0.3084831237792969,-0.05764436721801758,0.4071788787841797
1683935696608076000,0.526075927734375,-0.1156148910522461,-0.20317697525024414,0.02810382843017578
1683935696618117000,0.5361171875,-0.32656145095825195,-0.20369577407836914,-0.3847391605377197
1683935696628158000,0.546157958984375,0.19133758544921875,-0.33065319061279297,-0.5882463455200195
1683935696638199000,0.556198974609375,0.6551804542541504,-0.5584254264831543,-0.9505620002746582
1683935696648240000,0.566240234375,0.8866119384765625,-0.7769584655761719,-1.3274989128112793
1683935696658281000,0.576281005859375,0.6525993347167969,-0.5445303916931152,-0.8488740921020508
1683935696668322000,0.586322021484375,0.2823662757873535,-0.33292531967163086,-0.8277091979980469
1683935696678363100,0.596363037109375,0.3163480758666992,-0.17607402801513672,-0.8188259601593018
1683935696688404000,0.606404052734375,0.47751712799072266,0.5718486309051514,-1.4235820770263672
1683935696698445000,0.616445068359375,0.5918941497802734,-0.7234649658203125,-0.9199306964874268
1683935696708486100,0.626486083984375,1.17409086227417,-0.2659173011779785,-1.0569758415222168
1683935696718527000,0.63652685546875,0.7306509017944336,0.6691074371337891,-1.4846582412719727
1683935696728568000,0.646568115234375,0.10008859634399414,-0.3366570472717285,-0.5713014602661133
1683935696738609200,0.656609130859375,0.2776460647583008,0.23249149322509766,-1.328935146331787
1683935696748650000,0.66664990234375,-1.9242706298828125,-0.050778865814208984,-1.4732115268707275
1683935696758691000,0.676691162109375,-3.5852112770080566,0.1501760482788086,-1.039163589477539
1683935696768732200,0.686732177734375,0.9493885040283203,0.8306577205657959,-0.389981746673584
1683935696778773000,0.69677294921875,-1.2395086288452148,0.2135930061340332,-1.7988286018371582
1683935696788814000,0.70681396484375,1.0826425552368164,0.5036752223968506,-1.3583984375
1683935696798855000,0.71685498046875,3.525757312774658,1.2099201679229736,-1.1019506454467773
1683935696808896000,0.72689599609375,4.352393627166748,2.0143604278564453,0.7455506324768066
1683935696818937000,0.73693701171875,4.643054962158203,1.9635554552078247,1.6628594398498535
1683935696828978200,0.746978271484375,1.8485193252563477,1.0448276996612549,0.19374847412109375
1683935696839019000,0.75701904296875,0.5963563919067383,0.6606833934783936,-1.314610481262207
1683935696849060000,0.76706005859375,0.36937379837036133,0.49561524391174316,-0.17190885543823242
1683935696859101200,0.77710107421875,-4.110507011413574,1.287266731262207,-0.6305723190307617
1683935696869142000,0.78714208984375,-5.937291622161865,2.157064914703369,-1.964951515197754
1683935696879183000,0.79718310546875,-4.7134318351745605,2.6754019260406494,-1.3468217849731445
1683935696889224000,0.807223876953125,-2.667916774749756,2.559548854827881,-0.0306854248046875
1683935696899265000,0.81726513671875,-0.8240313529968262,2.050748825073242,1.3215007781982422
1683935696909306000,0.82730615234375,-0.19711589813232422,1.6708073616027832,2.167721748352051
1683935696919347000,0.837346923828125,-0.3139810562133789,1.3698840141296387,1.3493022918701172
1683935696929388000,0.847387939453125,0.014287948608398438,0.5006811618804932,0.3351736068725586
1683935696939429000,0.85742919921875,0.5576169490814209,-0.4147682189941406,-0.42107391357421875
1683935696949470200,0.86747021484375,1.611708641052246,-0.8858046531677246,-1.4960684776306152
1683935696959511000,0.877510986328125,2.3091466426849365,-1.3516829013824463,-2.2858190536499023
1683935696969552100,0.88755224609375,2.356703042984009,-1.6356217861175537,-2.3172998428344727
1683935696979593200,0.89759326171875,2.1194398403167725,-1.646117925643921,-2.753847122192383
1683935696989634000,0.907634033203125,1.5816004276275635,-1.5524230003356934,-2.730454921722412
1683935696999675100,0.917675048828125,0.6093080043792725,-1.02201509475708,-2.9193649291992188
1683935697009716000,0.927716064453125,-0.21065211296081543,-0.8038840293884277,-2.652340888977051
1683935697019757000,0.937757080078125,-0.4027442932128906,-0.513155460357666,-2.3120899200439453
1683935697029798100,0.947798095703125,-0.6348265409469604,-0.6625149250030518,-1.3053321838378906
1683935697039839000,0.9578388671875,-0.9811990857124329,0.007471561431884766,-0.8545465469360352
1683935697049880000,0.967880126953125,-1.3292293548583984,0.6952599287033081,-0.8482694625854492
1683935697059921200,0.977921142578125,-1.0980169773101807,0.5920476913452148,-0.16338634490966797
1683935697069962200,0.987962158203125,-0.1419123411178589,1.0461280345916748,-0.4523916244506836
1683935697080003000,0.998003173828125,0.6463637351989746,1.2404308319091797,-1.8442788124084473
1683935697090044200,1.008044189453125,0.9281874895095825,-0.3501098155975342,-1.8742237091064453
1683935697100085000,1.0180849609375,1.43623685836792,0.3492004871368408,-1.4015731811523438
1683935697110126000,1.0281259765625,0.9796152710914612,0.22220182418823242,-1.7243785858154297
1683935697120167200,1.038167236328125,0.32107406854629517,-0.12018990516662598,-1.481776237487793
1683935697130208000,1.0482080078125,-0.018434107303619385,0.07942867279052734,-1.3936052322387695
1683935697140249000,1.0582490234375,-0.129522442817688,0.013027191162109375,-0.9775018692016602
1683935697150290200,1.068290283203125,-0.13328009843826294,-0.4617345333099365,0.1519298553466797
1683935697160331000,1.0783310546875,-0.4086894690990448,-0.7659931182861328,0.6261749267578125
1683935697170372000,1.0883720703125,-0.5180488228797913,-0.8720345497131348,0.9630908966064453
1683935697180413200,1.0984130859375,-1.347768783569336,-0.31075286865234375,2.637293815612793
1683935697190454300,1.108454345703125,-1.5919411182403564,0.18011021614074707,3.856501579284668
1683935697200495000,1.1184951171875,-0.8650035262107849,-0.18300557136535645,4.971277236938477
1683935697210536200,1.1285361328125,-0.06406130641698837,-0.6942543983459473,4.16957950592041
1683935697220577000,1.138576904296875,0.00531371682882309,-1.3994777202606201,2.1261444091796875
1683935697230618000,1.1486181640625,-0.31114497780799866,-1.7979605197906494,0.010626792907714844
1683935697240659200,1.1586591796875,-1.0624542236328125,-2.282047986984253,-1.0494651794433594
1683935697250700000,1.168699951171875,-0.22335600852966309,-0.9789659976959229,-1.89628267288208
1683935697260741000,1.1787412109375,0.5528886914253235,0.14419126510620117,-2.3435416221618652
1683935697270782200,1.1887822265625,1.0262173414230347,-0.5799899101257324,-0.8585052490234375
1683935697280823000,1.198822998046875,0.8733950257301331,-0.7547297477722168,-0.19074440002441406
1683935697290864000,1.208864013671875,0.7152974605560303,-0.3610982894897461,0.4188346862792969
1683935697300905200,1.2189052734375,0.42697572708129883,-0.21663618087768555,0.7906742095947266
1683935697310946300,1.2289462890625,0.19006715714931488,-0.04342842102050781,1.0049400329589844
1683935697320987100,1.238987060546875,-0.1804724633693695,-0.29898786544799805,1.0559501647949219
1683935697331028200,1.2490283203125,-0.4828447699546814,-0.515998363494873,0.6438188552856445
1683935697341069300,1.2590693359375,-0.24900595843791962,0.03696489334106445,-0.8615169525146484
1683935697351110100,1.269110107421875,-0.013066336512565613,-0.0826711654663086,-1.436002254486084
1683935697361151200,1.279151123046875,0.39720070362091064,-0.6062307357788086,-0.06685161590576172
1683935697371192000,1.289192138671875,0.9910690188407898,-0.48299694061279297,1.2507905960083008
1683935697381233200,1.299233154296875,1.4784350395202637,-0.3445706367492676,2.8045663833618164
1683935697391274200,1.309274169921875,0.5751408338546753,-1.3744983673095703,5.207052230834961
1683935697401315000,1.319315185546875,0.43450021743774414,0.014164447784423828,2.255528450012207
1683935697411356200,1.329356201171875,0.8400980234146118,0.9049472808837891,0.2953948974609375
1683935697421397200,1.339397216796875,0.17246897518634796,-0.7922782897949219,0.9827241897583008
1683935697431438300,1.349438232421875,1.2507448196411133,-0.8187851905822754,1.1938962936401367
1683935697441479200,1.359479248046875,0.25388723611831665,-0.2935023307800293,0.6422004699707031
1683935697451520300,1.369520263671875,-1.205190896987915,-1.011523723602295,3.4182329177856445
1683935697461561300,1.379561279296875,0.0647781491279602,-0.38671064376831055,-0.1952829360961914
1683935697471602200,1.389602294921875,0.4649629592895508,1.1770048141479492,-1.3383641242980957
1683935697481643300,1.399643310546875,0.10189998149871826,1.2651314735412598,-0.9475870132446289
1683935697491684400,1.409684326171875,-0.4364747405052185,-0.6651196479797363,0.3828620910644531
1683935697501725200,1.41972509765625,-0.7201310992240906,-1.1275720596313477,0.10191822052001953
1683935697511766300,1.429766357421875,-0.0018112659454345703,-0.24840974807739258,-0.5952901840209961
1683935697521807000,1.43980712890625,1.3315984010696411,0.8388333320617676,-0.1239328384399414
1683935697531848200,1.44984814453125,1.5501028299331665,1.385425090789795,-0.1028127670288086
1683935697541889300,1.45988916015625,1.7035776376724243,1.405045986175537,0.32477664947509766
1683935697551930400,1.469930419921875,1.4961626529693604,1.3885893821716309,-0.043908119201660156
1683935697561971200,1.47997119140625,1.1946543455123901,0.9471416473388672,-0.5170149803161621
1683935697572012300,1.49001220703125,0.5645476579666138,0.30279111862182617,-0.8903532028198242
1683935697582053400,1.500053466796875,-0.04602879285812378,0.06888532638549805,-1.0749435424804688
1683935697592094200,1.51009423828125,-0.245480015873909,0.1207880973815918,-1.0115861892700195
1683935697602135300,1.52013525390625,0.03893619775772095,0.2448873519897461,-1.2072453498840332
1683935697612176400,1.53017626953125,0.4898710548877716,0.4688410758972168,-1.364027976989746
1683935697622217200,1.54021728515625,0.6680319309234619,0.9811949729919434,-1.3276028633117676
1683935697632258300,1.55025830078125,0.7101037502288818,1.5021190643310547,-0.6924667358398438
1683935697642299400,1.56029931640625,0.6956705451011658,1.685556411743164,-0.18263530731201172
1683935697652340200,1.57034033203125,0.5481230020523071,1.8550300598144531,-0.1714005470275879
1683935697662381300,1.58038134765625,0.6183377504348755,1.935807228088379,-0.3310117721557617
1683935697672422400,1.59042236328125,0.6381444931030273,1.9215850830078125,-0.6098508834838867
1683935697682463200,1.600463134765625,0.5193209648132324,1.8844413757324219,-0.9570088386535645
1683935697692504300,1.61050439453125,0.07662810385227203,1.9159069061279297,-1.5268030166625977
1683935697702545400,1.62054541015625,-0.5095010995864868,1.688539981842041,-2.4149136543273926
1683935697712586200,1.630586181640625,-0.6719397902488708,1.9767980575561523,-2.2700929641723633
1683935697722627300,1.64062744140625,-0.46592509746551514,1.357703685760498,-1.4555492401123047
1683935697732668400,1.65066845703125,-0.1593317985534668,0.4914698600769043,0.11227130889892578
1683935697742709200,1.660709228515625,-0.18439680337905884,0.6362733840942383,1.0964422225952148
1683935697752750300,1.670750244140625,-0.16818839311599731,0.08968257904052734,1.7235188484191895
1683935697762791400,1.68079150390625,0.07592630386352539,-0.012552738189697266,2.35994815826416
1683935697772832300,1.690832275390625,0.30253279209136963,-0.5080699920654297,2.3955225944519043
1683935697782873300,1.700873291015625,0.740348219871521,-0.33812570571899414,2.082172393798828
1683935697792914400,1.71091455078125,1.249295711517334,0.7360081672668457,1.7340126037597656
1683935697802955500,1.72095556640625,1.3760944604873657,-0.5296015739440918,1.9243979454040527
1683935697812996400,1.730996337890625,1.1728405952453613,-1.3792061805725098,1.5985307693481445
1683935697823037400,1.741037353515625,1.3457832336425781,-0.5389876365661621,0.8381142616271973
1683935697833078300,1.751078369140625,1.3861730098724365,0.10123920440673828,-0.5131382942199707
1683935697843119400,1.761119384765625,1.0422145128250122,0.2558889389038086,-1.3614072799682617
1683935697853160400,1.771160400390625,0.38457533717155457,0.11214971542358398,-1.9276480674743652
1683935697863201300,1.781201171875,-0.041394591331481934,-0.2861514091491699,-1.4012584686279297
1683935697873242400,1.791242431640625,-0.3035051226615906,0.005486965179443359,-0.9594998359680176
1683935697883283500,1.801283447265625,-0.45964258909225464,-0.2138209342956543,0.16327714920043945
1683935697893324300,1.81132421875,-0.35347163677215576,-0.23795652389526367,1.5703411102294922
1683935697903365400,1.821365478515625,-0.34258317947387695,-0.5597519874572754,2.6551156044006348
1683935697913406500,1.831406494140625,-0.007201671600341797,-1.9642720222473145,4.466398239135742
1683935697923447600,1.841447509765625,0.5700318217277527,-1.4051647186279297,4.159754276275635
1683935697933488400,1.85148828125,0.8590631484985352,0.5663509368896484,1.8882412910461426
1683935697943529500,1.861529541015625,0.5971229076385498,0.1698164939880371,2.258498191833496
1683935697953570600,1.871570556640625,0.268265962600708,-0.687901496887207,3.0512852668762207
1683935697963611400,1.881611328125,0.09265804290771484,-0.745048999786377,2.5465855598449707
1683935697973652500,1.891652587890625,-0.44937431812286377,-0.2665414810180664,1.1466059684753418
1683935697983693600,1.901693603515625,-1.0784127712249756,-1.8079991340637207,-0.09265422821044922
1683935697993734400,1.911734375,-0.9827775955200195,-2.3126673698425293,-0.28435659408569336
1683935698003775500,1.921775390625,-1.1366630792617798,-1.7070932388305664,-0.6688618659973145
1683935698013816600,1.931816650390625,-1.8296149969100952,-1.87359619140625,-0.7157187461853027
1683935698023857400,1.941857421875,-2.1871161460876465,-1.1360692977905273,-0.7163400650024414
1683935698033898500,1.9518984375,-1.7899706363677979,0.2621455192565918,-0.7017407417297363
1683935698043939600,1.961939697265625,-1.041231393814087,-0.9230241775512695,0.8268675804138184
1683935698053980400,1.97198046875,-1.0032663345336914,-0.9442381858825684,0.5762147903442383
1683935698064021500,1.982021484375,-0.47617435455322266,-0.5814189910888672,0.1877574920654297
1683935698074062600,1.9920625,-0.8730400204658508,-1.70428466796875,-0.42316532135009766
1683935698084103400,2.002103515625,-0.7283498644828796,-0.939356803894043,-2.0856661796569824
1683935698094144500,2.01214453125,-0.020895838737487793,-1.8327436447143555,-1.6588363647460938
1683935698104185600,2.022185546875,-0.07885664701461792,-1.138108253479004,-2.091248035430908
1683935698114226400,2.032226318359375,0.13891112804412842,0.7859492301940918,-2.8656773567199707
1683935698124267500,2.042267578125,1.0085163116455078,0.8809342384338379,-1.674321174621582
1683935698134308600,2.05230859375,0.8887220621109009,1.0393400192260742,-0.7766175270080566
1683935698144349400,2.062349365234375,0.7195861339569092,1.9225702285766602,-1.494926929473877
1683935698154390500,2.072390625,0.10316359996795654,1.3416013717651367,-1.6973857879638672
1683935698164431600,2.082431640625,-0.2388765811920166,0.5854072570800781,-2.6590182781219482
1683935698174472700,2.09247265625,-0.2137305736541748,-0.17559576034545898,-2.469111204147339
1683935698184513500,2.102513427734375,0.029152989387512207,-0.8183493614196777,-1.6538944244384766
1683935698194554600,2.1125546875,0.43066537380218506,-0.9291386604309082,-1.0897655487060547
1683935698204595700,2.122595703125,0.7274355888366699,-0.9922795295715332,-0.9101018905639648
1683935698214636500,2.132636474609375,0.7534490823745728,-1.1959147453308105,-0.6619415283203125
1683935698224677600,2.142677734375,0.7059006690979004,-1.2129993438720703,-0.40660953521728516
1683935698234718700,2.15271875,0.45980560779571533,-0.876927375793457,-0.3608694076538086
1683935698244759600,2.162759521484375,0.21472525596618652,-0.5697808265686035,-0.5287318229675293
1683935698254800600,2.172800537109375,0.20700037479400635,-0.40445995330810547,-0.9138264656066895
1683935698264841700,2.182841796875,0.03047788143157959,-0.15297889709472656,-1.1884617805480957
1683935698274882600,2.192882568359375,0.01585102081298828,0.049837589263916016,-1.302778720855713
1683935698284923600,2.202923583984375,0.23971331119537354,0.022338390350341797,-1.7030272483825684
1683935698294964700,2.21296484375,0.06456077098846436,0.3052821159362793,-1.8979716300964355
1683935698305005600,2.223005615234375,0.2062528133392334,0.19873523712158203,-1.9871039390563965
1683935698315046700,2.233046630859375,0.3829612731933594,-0.03295421600341797,-1.8455777168273926
1683935698325087700,2.243087646484375,0.3429962396621704,-0.2391376495361328,-1.590928554534912
1683935698335128600,2.253128662109375,0.2025054693222046,-0.5351691246032715,-1.3724732398986816
1683935698345169700,2.263169677734375,0.08478820323944092,-1.0860133171081543,-1.0424237251281738
1683935698355210800,2.273210693359375,0.048439741134643555,-0.9392619132995605,-0.7719755172729492
1683935698365251600,2.28325146484375,0.09264779090881348,-0.6719040870666504,-0.48030757904052734
1683935698375292700,2.293292724609375,-0.060453176498413086,-0.0899052619934082,-0.3510570526123047
1683935698385333800,2.303333740234375,-0.27564096450805664,0.5459427833557129,-0.35284996032714844
1683935698395374600,2.31337451171875,-0.31357860565185547,0.7696752548217773,-0.301300048828125
1683935698405415700,2.323415771484375,-0.3601996898651123,0.4494056701660156,-0.06640911102294922
1683935698415456800,2.333456787109375,-0.6268892288208008,0.18713951110839844,0.3335127830505371
1683935698425497900,2.343497802734375,-0.6227262020111084,-0.15965700149536133,0.20200634002685547
1683935698435538700,2.35353857421875,-0.4980478286743164,-0.0995779037475586,0.36731719970703125
1683935698445579800,2.363579833984375,-0.47266721725463867,-0.16138410568237305,0.20003032684326172
1683935698455620900,2.373620849609375,-0.4175395965576172,0.24217796325683594,0.46184444427490234
1683935698465661700,2.38366162109375,-0.5459015369415283,0.6112642288208008,-0.0257415771484375
1683935698475702800,2.393702880859375,-0.6729931831359863,0.6922006607055664,-0.5963644981384277
1683935698485743900,2.403743896484375,-0.6932783126831055,1.3700485229492188,-1.662607192993164
1683935698495784700,2.41378466796875,-0.5419950485229492,1.6709156036376953,-2.0385990142822266
1683935698505825800,2.42382568359375,-0.551915168762207,1.807197093963623,-2.399592161178589
1683935698515867000,2.433866943359375,-0.21085476875305176,1.7990236282348633,-2.8816628456115723
1683935698525908000,2.443907958984375,-0.3171043395996094,1.1964459419250488,-2.880232095718384
1683935698535948800,2.45394873046875,-0.62274169921875,0.20034170150756836,-2.4340949058532715
1683935698545990000,2.463989990234375,-0.33608198165893555,-0.38135290145874023,-1.693850040435791
1683935698556031000,2.474031005859375,0.26304173469543457,-0.45793962478637695,-0.8491673469543457
1683935698566071800,2.48407177734375,0.7064461708068848,-0.3930230140686035,0.12552833557128906
1683935698576113000,2.49411279296875,0.6030166149139404,0.11079835891723633,0.6486353874206543
1683935698586154000,2.504154052734375,0.46419334411621094,0.2425065040588379,1.1188807487487793
1683935698596194800,2.51419482421875,0.18613243103027344,0.0765533447265625,1.3325285911560059
1683935698606236000,2.52423583984375,-0.010187149047851562,-0.3866891860961914,1.530029296875
1683935698616277000,2.534277099609375,-0.31423091888427734,-0.7807226181030273,1.889427661895752
1683935698626317800,2.54431787109375,-0.9037775993347168,-0.8907370567321777,1.857572078704834
1683935698636359000,2.55435888671875,-1.5300929546356201,-0.5533742904663086,1.3135390281677246
1683935698646400000,2.56439990234375,-2.052032470703125,-0.5007200241088867,-0.25591373443603516
1683935698656440800,2.57444091796875,-1.7626335620880127,-0.38419246673583984,-1.6353497505187988
1683935698666482000,2.58448193359375,-0.896986722946167,-0.21939945220947266,-1.647428274154663
1683935698676523000,2.59452294921875,-0.060306549072265625,0.9780001640319824,-2.066185474395752
1683935698686564000,2.604564208984375,0.9955892562866211,2.487882137298584,-0.821570873260498
1683935698696605000,2.61460498046875,0.7452905178070068,2.785311222076416,-0.19083356857299805
1683935698706646000,2.62464599609375,0.203629732131958,2.4209775924682617,-0.5470395088195801
1683935698716687000,2.63468701171875,-0.30854177474975586,1.1380815505981445,-0.41927099227905273
1683935698726728000,2.64472802734375,-0.5388612747192383,0.38498783111572266,-0.42240142822265625
1683935698736769000,2.65476904296875,-0.2414531707763672,-0.2981576919555664,0.19792890548706055
1683935698746810000,2.66481005859375,-0.004629850387573242,-0.5065116882324219,0.7033162117004395
1683935698756851000,2.674850830078125,-0.011679649353027344,-0.520878791809082,0.9534988403320312
1683935698766892000,2.68489208984375,-0.09692168235778809,-0.1803750991821289,0.8757991790771484
1683935698776933000,2.69493310546875,-0.061154842376708984,0.24688434600830078,0.4330167770385742
1683935698786974000,2.704973876953125,-0.03639411926269531,0.2870502471923828,0.5377039909362793
1683935698797015000,2.71501513671875,-0.09562849998474121,0.2360696792602539,0.8347980976104736
1683935698807056100,2.72505615234375,-0.28395724296569824,1.1437559127807617,-0.39024949073791504
1683935698817097000,2.735096923828125,-0.15688705444335938,1.321258544921875,-0.7017154693603516
1683935698827138000,2.745137939453125,-0.20354294776916504,2.176609992980957,-1.591905117034912
1683935698837179100,2.75517919921875,-0.256685733795166,2.2316455841064453,-1.5176887512207031
1683935698847220200,2.76522021484375,-0.26958131790161133,2.1026511192321777,-1.4878069162368774
1683935698857261000,2.775260986328125,-0.21100068092346191,1.7279863357543945,-1.6065117120742798
1683935698867302100,2.78530224609375,-0.3638794422149658,1.225667953491211,-1.830710768699646
1683935698877343200,2.79534326171875,-0.3731880187988281,1.0662097930908203,-1.6956590414047241
1683935698887384000,2.805384033203125,-0.3817918300628662,1.7232885360717773,-1.6876565217971802
1683935698897425200,2.815425048828125,-0.4054737091064453,0.8600177764892578,-0.9723503589630127
1683935698907466200,2.82546630859375,-0.8222062587738037,0.6653518676757812,-1.153209924697876
1683935698917507000,2.835507080078125,-0.9589114189147949,-0.3918571472167969,-0.21575665473937988
1683935698927548200,2.845548095703125,-1.0061867237091064,-1.0724239349365234,0.6833505630493164
1683935698937589200,2.85558935546875,-1.4328415393829346,-3.545475959777832,1.7411041259765625
1683935698947630000,2.865630126953125,-1.3107080459594727,-2.3678359985351562,2.545358180999756
1683935698957671200,2.875671142578125,-1.704657793045044,-2.4676151275634766,2.8129100799560547
1683935698967712300,2.885712158203125,-1.7452733516693115,-2.297968864440918,2.3049275875091553
1683935698977753300,2.89575341796875,-1.9308357238769531,-2.3646841049194336,1.2799427509307861
1683935698987794200,2.905794189453125,-1.886704921722412,-2.950084686279297,0.7434440851211548
1683935698997835300,2.915835205078125,-1.7401056289672852,-3.0957565307617188,0.4258871078491211
1683935699007876400,2.92587646484375,-1.6380269527435303,-2.6454601287841797,1.0202622413635254
1683935699017917200,2.935917236328125,-1.3064854145050049,-1.915705680847168,0.98015296459198
1683935699027958300,2.945958251953125,-0.8720839023590088,-1.698080062866211,0.5324069261550903
1683935699037999400,2.955999267578125,-0.3514285087585449,-2.04107666015625,-0.26734691858291626
1683935699048040200,2.966040283203125,0.018404006958007812,-1.7846956253051758,-0.9470266699790955
1683935699058081300,2.976081298828125,0.18259644508361816,-1.5426702499389648,-1.520580530166626
1683935699068122400,2.986122314453125,0.32686877250671387,-1.158228874206543,-1.7509284019470215
1683935699078163200,2.9961630859375,0.6281650066375732,-0.5957117080688477,-1.9652469158172607
1683935699088204300,3.006204345703125,1.242756724357605,-0.28348636627197266,-1.7247122526168823
1683935699098245400,3.016245361328125,1.445910096168518,-0.09218692779541016,-1.226270079612732
1683935699108286500,3.026286376953125,1.2284563779830933,-0.4510335922241211,-1.45559561252594
1683935699118327300,3.036327392578125,1.090920090675354,-0.5769720077514648,-1.857853651046753
1683935699128368400,3.046368408203125,1.0164381265640259,-0.5744352340698242,-2.169999837875366
1683935699138409500,3.056409423828125,0.9933651685714722,-0.4401283264160156,-2.2183659076690674
1683935699148450300,3.0664501953125,0.9716569185256958,-0.12982177734375,-2.1594350337982178
1683935699158491400,3.076491455078125,1.043735146522522,0.15552425384521484,-2.0827102661132812
1683935699168532500,3.086532470703125,1.1002540588378906,0.47074222564697266,-2.001556634902954
1683935699178573300,3.0965732421875,1.0833091735839844,0.7175235748291016,-1.9746125936508179
1683935699188614400,3.106614501953125,1.0894880294799805,0.7745943069458008,-2.026005744934082
1683935699198655500,3.116655517578125,1.0807337760925293,0.8461780548095703,-2.0663580894470215
1683935699208696600,3.126696533203125,1.0579049587249756,0.8702659606933594,-1.9761587381362915
1683935699218737400,3.1367373046875,1.1310045719146729,0.9141368865966797,-1.668975830078125
1683935699228778500,3.146778564453125,1.480949878692627,1.5319595336914062,-1.367038369178772
1683935699238819600,3.156819580078125,1.3477938175201416,0.8270044326782227,-0.4878351092338562
1683935699248860400,3.1668603515625,1.4595342874526978,0.4585714340209961,0.12383270263671875
1683935699258901500,3.176901611328125,1.8869708776474,0.6393146514892578,0.6675753593444824
1683935699268942600,3.186942626953125,2.1530799865722656,0.8283843994140625,1.0125101804733276
1683935699278983700,3.196983642578125,2.0012834072113037,0.8183889389038086,1.0198479890823364
1683935699289024500,3.2070244140625,1.8928380012512207,0.7462997436523438,0.9768384695053101
1683935699299065600,3.217065673828125,1.6429661512374878,0.5619926452636719,0.9039931297302246
1683935699309106700,3.227106689453125,1.3661894798278809,0.15807533264160156,0.7657911777496338
1683935699319147500,3.2371474609375,1.1639419794082642,-0.07078075408935547,0.8047448396682739
1683935699329188600,3.247188720703125,1.0282254219055176,-0.38515377044677734,0.9445943832397461
1683935699339229700,3.257229736328125,0.9578266143798828,-0.7319564819335938,1.0047963857650757
1683935699349270500,3.2672705078125,1.0114680528640747,-0.8117542266845703,1.0667073726654053
1683935699359311600,3.2773115234375,1.1234959363937378,-0.7004814147949219,1.120500922203064
1683935699369352700,3.287352783203125,1.1180856227874756,-0.5121555328369141,1.0057063102722168
1683935699379393800,3.297393798828125,1.0243228673934937,0.1814718246459961,1.0591365098953247
1683935699389434600,3.3074345703125,0.9234951734542847,0.5942325592041016,0.7739598751068115
1683935699399475700,3.317475830078125,0.5338223576545715,1.5646800994873047,0.39053773880004883
1683935699409516800,3.327516845703125,-0.17135241627693176,3.0841636657714844,0.2550501823425293
1683935699419557600,3.3375576171875,-0.9934049248695374,4.211820125579834,0.5032610893249512
1683935699429598700,3.3475986328125,-1.4331094026565552,3.388664722442627,1.2594342231750488
1683935699439639800,3.357639892578125,-1.3595325946807861,2.220839023590088,1.586225986480713
1683935699449680600,3.3676806640625,-1.1547181606292725,1.199951171875,1.5954794883728027
1683935699459721700,3.3777216796875,-1.0104066133499146,0.4685802459716797,1.3895058631896973
1683935699469762800,3.3877626953125,-0.5535205602645874,0.008227348327636719,1.0982825756072998
1683935699479804000,3.397803955078125,-0.27900171279907227,-0.6689338684082031,0.7037332057952881
1683935699489844700,3.4078447265625,0.28201115131378174,-1.07611083984375,1.04655122756958
1683935699499885800,3.4178857421875,1.1419792175292969,-1.1131353378295898,1.6495354175567627
1683935699509927000,3.427927001953125,1.8753834962844849,-0.6515159606933594,2.0078306198120117
1683935699519967700,3.4379677734375,2.180419445037842,-0.7796001434326172,2.18503999710083
1683935699530008800,3.4480087890625,2.5490596294403076,-1.0260505676269531,2.5134944915771484
1683935699540050000,3.4580498046875,2.8697195053100586,-0.16974353790283203,3.0836076736450195
1683935699550090800,3.4680908203125,2.5916786193847656,0.8989048004150391,3.372144937515259
1683935699560131800,3.4781318359375,1.7878497838974,0.48762989044189453,3.130711555480957
1683935699570173000,3.4881728515625,0.6345186233520508,-0.8773612976074219,1.8834266662597656
1683935699580213800,3.4982138671875,-0.4186725318431854,-1.6555595397949219,0.18430161476135254
1683935699590254800,3.5082548828125,-1.2275612354278564,-1.8985748291015625,-1.351217269897461
1683935699600296000,3.5182958984375,-1.8353734016418457,-1.8036079406738281,-2.7695491313934326
1683935699610337000,3.5283369140625,-2.418034076690674,-2.2294445037841797,-3.3996081352233887
1683935699620377900,3.5383779296875,-2.740841865539551,-2.2172470092773438,-4.370001792907715
1683935699630419000,3.5484189453125,-2.5006520748138428,-2.0719757080078125,-5.147970199584961
1683935699640460000,3.5584599609375,-2.0601725578308105,-1.5281705856323242,-5.539981842041016
1683935699650500900,3.5685009765625,-1.3086029291152954,-0.868800163269043,-4.972415924072266
1683935699660542000,3.5785419921875,-0.6063644886016846,-0.5697975158691406,-4.0706787109375
1683935699670583000,3.5885830078125,-0.17203786969184875,-0.5772304534912109,-3.0137948989868164
1683935699680623900,3.598623779296875,0.04474921524524689,-0.7478704452514648,-2.0716123580932617
1683935699690665000,3.6086650390625,0.18695323169231415,-1.0004911422729492,-1.272723913192749
1683935699700706000,3.6187060546875,0.27352410554885864,-1.385880470275879,-0.6695388555526733
1683935699710747100,3.6287470703125,0.29708871245384216,-1.5488080978393555,-0.2453552484512329
1683935699720788000,3.6387880859375,0.41926324367523193,-1.3757123947143555,0.003946781158447266
1683935699730829000,3.6488291015625,0.5750090479850769,-1.1253061294555664,0.2476050853729248
1683935699740870100,3.6588701171875,0.6285191774368286,-0.7787542343139648,0.5618768930435181
1683935699750911000,3.668910888671875,0.6045390367507935,-0.34601783752441406,0.7182760238647461
1683935699760952000,3.6789521484375,1.0216346979141235,0.9341869354248047,1.0444310903549194
1683935699770993200,3.6889931640625,0.9220997095108032,1.761850357055664,1.7082270383834839
1683935699781034200,3.6990341796875,0.5035303831100464,1.887904167175293,2.611332416534424
1683935699791075000,3.709074951171875,0.2949221730232239,1.8965692520141602,3.4557712078094482
1683935699801116200,3.7191162109375,0.15001048147678375,1.767683982849121,4.166540145874023
1683935699811157200,3.7291572265625,-0.010023653507232666,1.5316381454467773,4.586477279663086
1683935699821198300,3.7391982421875,-0.25286865234375,1.196986198425293,4.782055377960205
1683935699831239200,3.7492392578125,-0.556047260761261,0.8243494033813477,4.637356758117676
1683935699841280300,3.7592802734375,-0.8388422727584839,0.5074138641357422,4.115874290466309
1683935699851321300,3.7693212890625,-1.187687873840332,0.11776924133300781,3.5610060691833496
1683935699861362200,3.779362060546875,-1.3075556755065918,-0.1383800506591797,3.028364658355713
1683935699871403300,3.7894033203125,-0.9044243693351746,0.19912052154541016,2.869788408279419
1683935699881444400,3.7994443359375,-0.6161616444587708,0.24947452545166016,2.8509163856506348
1683935699891485200,3.809485107421875,-0.37936100363731384,0.17073535919189453,2.862595558166504
1683935699901526300,3.8195263671875,-0.27936726808547974,0.24021244049072266,2.548787832260132
1683935699911567400,3.8295673828125,-0.22630827128887177,0.19966602325439453,2.1489739418029785
1683935699921608200,3.839608154296875,-0.2717946469783783,0.0016241073608398438,1.7455121278762817
1683935699931649300,3.849649169921875,-0.3137665092945099,-0.043160438537597656,1.4443745613098145
1683935699941690400,3.8596904296875,-0.2584303617477417,-0.2694587707519531,1.2313566207885742
1683935699951731500,3.8697314453125,-0.17990602552890778,-0.571772575378418,0.9751624464988708
1683935699961772300,3.879772216796875,-0.11057707667350769,-0.8567972183227539,0.8364134430885315
1683935699971813400,3.8898134765625,-0.027524761855602264,-1.0433740615844727,0.6817537546157837
1683935699981854500,3.8998544921875,0.006958082318305969,-1.3036231994628906,0.4937053620815277
1683935699991895300,3.909895263671875,0.12622106075286865,-1.4796905517578125,0.3546487092971802
1683935700001936400,3.919936279296875,0.12073811888694763,-1.5501937866210938,0.19728299975395203
1683935700011977500,3.9299775390625,0.062305621802806854,-1.5081233978271484,0.2193688452243805
1683935700022018300,3.940018310546875,0.028493817895650864,-1.2558908462524414,0.3732180595397949
1683935700032059400,3.950059326171875,0.12791459262371063,-1.1714591979980469,0.6211302280426025
1683935700042100500,3.9601005859375,0.2175220549106598,-1.0969171524047852,0.8518500924110413
1683935700052141600,3.9701416015625,0.16026130318641663,-0.9272556304931641,1.0196971893310547
1683935700062182400,3.980182373046875,-0.12212252616882324,-0.7224369049072266,1.0122547149658203
1683935700072223500,3.990223388671875,-0.44071274995803833,-0.6067132949829102,0.9431780576705933
1683935700082264600,4.0002646484375,-0.7162764668464661,-0.3339052200317383,0.7031545639038086
1683935700092305700,4.0103056640625,-1.007232904434204,-0.14089393615722656,0.5537643432617188
1683935700102346500,4.020346435546875,-1.196912407875061,0.22318363189697266,0.273396372795105
1683935700112387600,4.0303876953125,-1.3950278759002686,0.5429039001464844,0.052556633949279785
1683935700122428700,4.0404287109375,-1.6968029737472534,0.9067001342773438,-0.22268006205558777
1683935700132469500,4.050469482421875,-1.93340265750885,1.1830015182495117,-0.5436996817588806
1683935700142510600,4.060510498046875,-2.1211540699005127,1.34783935546875,-0.7880805134773254
1683935700152551700,4.0705517578125,-2.1500630378723145,1.4940929412841797,-0.9304711222648621
1683935700162592500,4.080592529296875,-2.0390267372131348,1.344161033630371,-0.8011429905891418
1683935700172633600,4.090633544921875,-1.8352599143981934,1.1249914169311523,-0.6047350168228149
1683935700182674700,4.1006748046875,-1.4104530811309814,0.7647237777709961,-0.5214107632637024
1683935700192715800,4.1107158203125,-0.9288672208786011,0.1492757797241211,-0.6199793219566345
1683935700202756600,4.120756591796875,-0.5976154804229736,-0.28089237213134766,-0.8684407472610474
1683935700212797700,4.130797607421875,-0.46216779947280884,-0.5137901306152344,-1.3135483264923096
1683935700222838800,4.1408388671875,-0.3307678699493408,-0.6330175399780273,-1.6369189023971558
1683935700232879600,4.150879638671875,-0.20474869012832642,-0.8918924331665039,-1.7044777870178223
1683935700242920700,4.160920654296875,-0.014555096626281738,-1.4306364059448242,-1.6697337627410889
1683935700252961800,4.1709619140625,0.3662438988685608,-1.9707574844360352,-1.5851492881774902
1683935700263002600,4.181002685546875,0.7740207314491272,-2.16745662689209,-1.4651944637298584
1683935700273043700,4.191043701171875,1.2502416372299194,-2.240006446838379,-1.3344191312789917
1683935700283084800,4.201084716796875,1.51118004322052,-2.096602439880371,-1.123006820678711
1683935700293126000,4.2111259765625,1.702798843383789,-1.5552072525024414,-0.8307610750198364
1683935700303166700,4.221166748046875,1.659182071685791,-0.8913726806640625,-0.5210498571395874
1683935700313207800,4.231207763671875,1.3806178569793701,-0.3261575698852539,-0.18996763229370117
1683935700323249000,4.241248779296875,0.9470084309577942,0.08367156982421875,0.016507387161254883
1683935700333290000,4.2512900390625,0.5530929565429688,0.4776897430419922,0.23048269748687744
1683935700343330800,4.261330810546875,0.26475274562835693,0.7411870956420898,0.3196403980255127
1683935700353372000,4.271371826171875,0.24180984497070312,0.9986362457275391,0.1629999876022339
1683935700363413000,4.2814130859375,0.3103930950164795,1.2190170288085938,-0.178108811378479
1683935700373453800,4.291453857421875,0.3383673429489136,1.3476152420043945,-0.3957479000091553
1683935700383495000,4.301494873046875,0.32218146324157715,1.4298200607299805,-0.5529533624649048
1683935700393536000,4.311535888671875,0.3120807409286499,1.3626670837402344,-0.5901676416397095
1683935700403576800,4.321576904296875,0.3752858638763428,1.2706012725830078,-0.7681282758712769
1683935700413618000,4.331617919921875,0.4293522834777832,0.9726476669311523,-0.9222704172134399
1683935700423659000,4.341658935546875,0.437109112739563,0.6132354736328125,-1.1573814153671265
1683935700433700000,4.3517001953125,0.4325435161590576,0.3361930847167969,-1.4082207679748535
1683935700443741000,4.361740966796875,0.42005693912506104,0.1678295135498047,-1.6048856973648071
1683935700453782000,4.371781982421875,0.2995431423187256,0.07447242736816406,-1.6642484664916992
1683935700463823000,4.381822998046875,0.12650644779205322,0.08247852325439453,-1.6164650917053223
1683935700473864200,4.3918642578125,-0.047617554664611816,0.06316661834716797,-1.513303279876709
1683935700483905000,4.401905029296875,-0.21152329444885254,0.11966133117675781,-1.423351526260376
1683935700493946000,4.411946044921875,-0.31218409538269043,0.15355300903320312,-1.2066518068313599
1683935700503987200,4.4219873046875,-0.31681346893310547,0.13793182373046875,-0.9406791925430298
1683935700514028000,4.432028076171875,-0.2803661823272705,-0.06084632873535156,-0.8714566230773926
1683935700524069000,4.442069091796875,-0.3479342460632324,-0.2441120147705078,-0.6530156135559082
1683935700534110200,4.452110107421875,-0.4068565368652344,-0.12645244598388672,-0.2059779167175293
1683935700544151300,4.4621513671875,-0.33657658100128174,0.11598396301269531,0.12371492385864258
1683935700554192100,4.472192138671875,-0.1987360715866089,0.31301212310791016,0.23386144638061523
1683935700564233200,4.482233154296875,-0.03425014019012451,0.4390268325805664,0.06160759925842285
1683935700574274300,4.4922744140625,0.08051300048828125,0.6505031585693359,-0.38690900802612305
1683935700584315100,4.502315185546875,0.247910737991333,0.941131591796875,-0.8728048801422119
1683935700594356200,4.512356201171875,0.3305506706237793,1.0199155807495117,-1.1871927976608276
1683935700604397300,4.522397216796875,0.43069934844970703,0.9832468032836914,-1.3442209959030151
1683935700614438100,4.532438232421875,0.5084825754165649,0.9730758666992188,-1.4312399625778198
1683935700624479200,4.542479248046875,0.5682203769683838,1.0071516036987305,-1.3751245737075806
1683935700634520300,4.552520263671875,0.5147075653076172,1.064335823059082,-1.2119728326797485
1683935700644561400,4.5625615234375,0.45574450492858887,1.1369705200195312,-0.9290776252746582
1683935700654602200,4.572602294921875,0.37814080715179443,1.078237533569336,-0.48903441429138184
1683935700664643300,4.582643310546875,0.3096562623977661,1.0018033981323242,0.0757133960723877
1683935700674684400,4.592684326171875,0.20474517345428467,0.9091033935546875,0.6364750862121582
1683935700684725500,4.6027255859375,0.01572108268737793,0.7878093719482422,1.0359766483306885
1683935700694766300,4.612766357421875,-0.25931715965270996,0.57330322265625,1.4071898460388184
1683935700704807400,4.622807373046875,-0.5716190338134766,0.3608236312866211,1.7838854789733887
1683935700714848500,4.6328486328125,-0.7241051197052002,0.2811861038208008,2.0039594173431396
1683935700724889300,4.642889404296875,-0.8585827350616455,0.1548013687133789,2.156622886657715
1683935700734930400,4.652930419921875,-0.9938973188400269,0.060072898864746094,2.2996835708618164
1683935700744971500,4.662971435546875,-1.271770715713501,-0.03241729736328125,2.3771708011627197
1683935700755012600,4.6730126953125,-1.491052269935608,-0.11116313934326172,2.462367296218872
1683935700765053400,4.683053466796875,-1.541490912437439,-0.19269943237304688,2.2205538749694824
1683935700775094500,4.693094482421875,-1.3807892799377441,-0.29030609130859375,1.869840145111084
1683935700785135600,4.703135498046875,-1.2751290798187256,-0.33124542236328125,1.5320680141448975
1683935700795176400,4.713176513671875,-1.3002355098724365,-0.31219959259033203,1.0716314315795898
1683935700805217500,4.723217529296875,-1.4587504863739014,-0.1677999496459961,0.5735514163970947
1683935700815258600,4.733258544921875,-1.6049634218215942,0.054863929748535156,0.2204275131225586
1683935700825299500,4.743299560546875,-1.5411949157714844,0.3944387435913086,-0.18198418617248535
1683935700835340500,4.753340576171875,-1.2411365509033203,0.42825984954833984,-0.41468048095703125
1683935700845381600,4.763381591796875,-0.8878231048583984,0.3600130081176758,-0.5943155288696289
1683935700855422700,4.773422607421875,-0.5731408596038818,0.29259681701660156,-0.7821780443191528
1683935700865463600,4.783463623046875,-0.336173415184021,0.10152053833007812,-0.8516049385070801
1683935700875504600,4.793504638671875,-0.2469942569732666,-0.23732376098632812,-0.9206494092941284
1683935700885545700,4.803545654296875,-0.36151647567749023,-0.5978813171386719,-0.9534211158752441
1683935700895586800,4.8135869140625,-0.6749171018600464,-1.0022859573364258,-1.012386441230774
1683935700905627600,4.823627685546875,-1.3399009704589844,-1.5754127502441406,-1.0720490217208862
1683935700915668700,4.833668701171875,-2.390134334564209,-2.3653793334960938,-1.1300522089004517
1683935700925709800,4.843709716796875,-3.3186051845550537,-3.3464088439941406,-0.6929183006286621
1683935700935750700,4.853750732421875,-3.4067726135253906,-3.9099063873291016,0.29280900955200195
1683935700945791700,4.863791748046875,-2.244692087173462,-3.672562599182129,1.3924288749694824
1683935700955832800,4.873832763671875,-0.5568605661392212,-2.7167272567749023,2.07586407661438
1683935700965874000,4.8838740234375,1.1435935497283936,-1.5278863906860352,2.313760280609131
1683935700975914800,4.893914794921875,2.392246723175049,-0.5310564041137695,2.138010025024414
1683935700985955800,4.903955810546875,2.805663824081421,0.20069122314453125,1.4748300313949585
1683935700995997000,4.913996826171875,2.755377769470215,0.8523845672607422,0.6451681852340698
1683935701006038000,4.9240380859375,2.5382089614868164,1.4482965469360352,-0.21164405345916748
1683935701016078800,4.934078857421875,2.3215322494506836,1.8571319580078125,-0.8860195875167847
1683935701026120000,4.944119873046875,2.103036642074585,2.0122885704040527,-1.345329999923706
1683935701036161000,4.9541611328125,1.8813557624816895,2.011903762817383,-1.5804286003112793
1683935701046201900,4.964201904296875,1.6430562734603882,1.9588985443115234,-1.7928483486175537
1683935701056243000,4.974242919921875,1.3704743385314941,1.8224740028381348,-2.100236654281616
1683935701066284000,4.984283935546875,0.9929822087287903,1.4361238479614258,-2.3113367557525635
1683935701076324900,4.994324951171875,0.5765449404716492,0.8199892044067383,-2.473288059234619
1683935701086366000,5.004365966796875,0.023548603057861328,0.09880542755126953,-2.5117075443267822
1683935701096407000,5.014406982421875,-0.48661738634109497,-0.4146385192871094,-2.4453389644622803
1683935701106448100,5.0244482421875,-0.7015820741653442,-0.5853586196899414,-2.2644150257110596
1683935701116489000,5.034489013671875,-0.5205867886543274,-0.5294370651245117,-2.0858819484710693
1683935701126530000,5.044530029296875,-0.13387787342071533,-0.5175342559814453,-1.9219622611999512
1683935701136571100,5.054571044921875,0.41916516423225403,-0.4204883575439453,-1.789570927619934
1683935701146612200,5.0646123046875,0.9881920218467712,-0.45330142974853516,-1.698592185974121
1683935701156653000,5.074653076171875,1.4088793992996216,-0.42711353302001953,-1.5589659214019775
1683935701166694100,5.084694091796875,1.566352128982544,-0.3779897689819336,-1.5039781332015991
1683935701176735200,5.0947353515625,1.6025354862213135,-0.2888832092285156,-1.5583802461624146
1683935701186776000,5.104776123046875,1.705204963684082,-0.14966964721679688,-1.6120030879974365
1683935701196817200,5.114817138671875,1.8274519443511963,-0.08922863006591797,-1.445427656173706
1683935701206858200,5.124858154296875,1.8786362409591675,-0.11249828338623047,-1.1363883018493652
1683935701216899000,5.134899169921875,1.8418471813201904,-0.1432933807373047,-0.7932663559913635
1683935701226940200,5.144940185546875,1.7773582935333252,-0.036022186279296875,-0.5837600827217102
1683935701236981200,5.154981201171875,1.6646782159805298,0.11128997802734375,-0.4886730909347534
1683935701247022300,5.165022216796875,1.5098685026168823,0.1888713836669922,-0.4005814790725708
1683935701257063200,5.175063232421875,1.3069103956222534,0.23509502410888672,-0.333021879196167
1683935701267104300,5.185104248046875,1.0467591285705566,0.14722919464111328,-0.24554657936096191
1683935701277145300,5.195145263671875,0.790184497833252,0.061446189880371094,-0.20383310317993164
1683935701287186400,5.2051865234375,0.5658016204833984,0.006337165832519531,-0.1929556131362915
1683935701297227300,5.215227294921875,0.3782459795475006,-0.04184436798095703,-0.2609984874725342
1683935701307268400,5.225268310546875,0.22881358861923218,-0.061217308044433594,-0.3117944002151489
1683935701317309400,5.235309326171875,0.11322537064552307,0.005840301513671875,-0.354894757270813
1683935701327350300,5.245350341796875,0.008135337382555008,0.08525943756103516,-0.35816800594329834
1683935701337391400,5.255391357421875,-0.07388835400342941,0.19376754760742188,-0.30954623222351074
1683935701347432400,5.265432373046875,-0.16043923795223236,0.288238525390625,-0.15239405632019043
1683935701357473500,5.2754736328125,-0.2243718057870865,0.34708213806152344,0.030771851539611816
1683935701367514400,5.285514404296875,-0.24559646844863892,0.21492671966552734,0.3382638692855835
1683935701377555500,5.295555419921875,-0.1910056322813034,0.12119579315185547,0.6405361890792847
1683935701387596500,5.305596435546875,-0.048148006200790405,0.16101646423339844,0.8585702180862427
1683935701397637400,5.315637451171875,0.0939769446849823,0.19537734985351562,0.9576627016067505
1683935701407678500,5.325678466796875,0.20911461114883423,0.20995426177978516,0.9856948852539062
1683935701417719600,5.335719482421875,0.2863939702510834,0.1953268051147461,0.9960728883743286
1683935701427760600,5.3457607421875,0.29910385608673096,0.14928340911865234,0.9514769315719604
1683935701437801500,5.355801513671875,0.2428155094385147,0.060013771057128906,0.9145879745483398
1683935701447842600,5.365842529296875,0.21587415039539337,-0.0006504058837890625,0.8645553588867188
1683935701457883600,5.375883544921875,0.14225393533706665,-0.023192405700683594,0.777828574180603
1683935701467924700,5.3859248046875,0.05672392249107361,0.016191482543945312,0.6902189254760742
1683935701477965600,5.395965576171875,-0.030005842447280884,0.026680946350097656,0.5757992267608643
1683935701488006700,5.406006591796875,-0.09316030144691467,-0.013186454772949219,0.40045225620269775
1683935701498047700,5.4160478515625,-0.1496691256761551,0.009113311767578125,0.21109580993652344
1683935701508088600,5.426088623046875,-0.17833924293518066,-0.016256332397460938,0.06914353370666504
1683935701518129700,5.436129638671875,-0.22235801815986633,-0.04135608673095703,-0.015343070030212402
1683935701528170800,5.446170654296875,-0.26974236965179443,0.036586761474609375,-0.09409433603286743
1683935701538211800,5.4562119140625,-0.32953357696533203,0.09079837799072266,-0.08306282758712769
1683935701548252700,5.466252685546875,-0.34166502952575684,0.1715412139892578,-0.053477942943573
1683935701558293800,5.476293701171875,-0.35846784710884094,0.2405862808227539,0.09319764375686646
1683935701568334800,5.4863349609375,-0.3243616223335266,0.25969505310058594,0.3084002137184143
1683935701578376000,5.4963759765625,-0.25579923391342163,0.2766399383544922,0.5574422478675842
1683935701588416800,5.506416748046875,-0.1245126724243164,0.3079853057861328,0.8172732591629028
1683935701598457900,5.516457763671875,-0.007614314556121826,0.3964967727661133,1.0715863704681396
1683935701608499000,5.5264990234375,0.10450956225395203,0.4821796417236328,1.2465229034423828
1683935701618539800,5.536539794921875,0.18335583806037903,0.5076618194580078,1.45296311378479
1683935701628580900,5.546580810546875,0.27366599440574646,0.4969921112060547,1.5906782150268555
1683935701638622000,5.5566220703125,0.32165011763572693,0.3834228515625,1.6798865795135498
1683935701648662800,5.566662841796875,0.34585681557655334,0.19115257263183594,1.748089075088501
1683935701658704000,5.576703857421875,0.3790580630302429,0.0732564926147461,1.872836709022522
1683935701668745000,5.586744873046875,0.39234811067581177,0.041484832763671875,1.9942432641983032
1683935701678786000,5.5967861328125,0.3903335928916931,-0.016646385192871094,2.0497024059295654
1683935701688827000,5.606826904296875,0.3607868254184723,-0.017496109008789062,2.098844289779663
1683935701698868000,5.616867919921875,0.3053698241710663,-0.011414527893066406,2.0429835319519043
1683935701708909000,5.626908935546875,0.17401248216629028,0.039671897888183594,1.9149364233016968
1683935701718950100,5.6369501953125,0.02302640676498413,0.09838294982910156,1.5044052600860596
1683935701728991000,5.646990966796875,-0.10489851236343384,0.0995168685913086,1.0236924886703491
1683935701739032000,5.657031982421875,-0.17347675561904907,0.053702354431152344,0.6718463897705078
1683935701749073200,5.6670732421875,-0.196816548705101,0.05598640441894531,0.43190616369247437
1683935701759114000,5.677114013671875,-0.17747701704502106,-0.047473907470703125,0.3016691207885742
1683935701769155000,5.687155029296875,-0.0958406925201416,-0.3161964416503906,0.2673094570636749
1683935701779196200,5.697196044921875,-0.014163613319396973,-0.6839065551757812,0.2625039517879486
1683935701789237200,5.7072373046875,0.06600815057754517,-0.929142951965332,0.4086208641529083
1683935701799278000,5.717278076171875,0.10519871115684509,-0.9253664016723633,0.4801774322986603
1683935701809319200,5.727319091796875,0.10477243363857269,-0.7161149978637695,0.5554548501968384
1683935701819360300,5.7373603515625,0.13087567687034607,-0.6649284362792969,0.7605617046356201
1683935701829401300,5.7474013671875,0.14438354969024658,-0.654545783996582,1.0782893896102905
1683935701839442200,5.757442138671875,0.14396220445632935,-0.5799026489257812,1.36262845993042
1683935701849483300,5.767483154296875,0.1018625795841217,-0.4913158416748047,1.6293704509735107
1683935701859524400,5.7775244140625,0.047492846846580505,-0.5416316986083984,1.8961067199707031
1683935701869565200,5.787565185546875,0.02798476815223694,-0.5776023864746094,2.0047314167022705
1683935701879606300,5.797606201171875,0.09259999543428421,-0.6136178970336914,2.2731802463531494
1683935701889647400,5.8076474609375,0.17000947892665863,-0.8240852355957031,2.5893592834472656
1683935701899688400,5.8176884765625,0.27181029319763184,-0.9268426895141602,2.777954339981079
1683935701909729300,5.827729248046875,0.3164372444152832,-1.0224990844726562,2.810328722000122
1683935701919770400,5.837770263671875,0.2380330115556717,-0.927241325378418,2.4715118408203125
1683935701929811500,5.8478115234375,0.07223299145698547,-0.9186305999755859,1.8898289203643799
1683935701939852500,5.8578525390625,-0.06118790805339813,-0.7863779067993164,1.3355408906936646
1683935701949893400,5.867893310546875,-0.2671351730823517,-0.4234352111816406,0.7390607595443726
1683935701959934500,5.8779345703125,-0.42323732376098633,0.09304428100585938,0.20865187048912048
1683935701969975600,5.8879755859375,-0.5586749911308289,0.6191797256469727,-0.2751538157463074
1683935701980016400,5.898016357421875,-0.5755236744880676,1.154714584350586,-0.662459135055542
1683935701990057500,5.908057373046875,-0.6121785044670105,1.5512781143188477,-0.9953018426895142
1683935702000098600,5.9180986328125,-0.5945333242416382,1.7779264450073242,-1.32029128074646
1683935702010139600,5.9281396484375,-0.6705893278121948,1.7443313598632812,-1.6143112182617188
1683935702020180500,5.938180419921875,-0.8608106374740601,1.39410400390625,-1.8125569820404053
1683935702030221600,5.9482216796875,-1.212153434753418,1.0080642700195312,-1.8723509311676025
1683935702040262700,5.9582626953125,-1.7290347814559937,0.6057529449462891,-1.6331764459609985
1683935702050303700,5.9683037109375,-2.3996167182922363,0.17957687377929688,-1.2274901866912842
1683935702060344600,5.978344482421875,-2.852937698364258,-0.21884822845458984,-0.8866808414459229
1683935702070385700,5.9883857421875,-2.6314001083374023,-0.5375919342041016,-0.8288517594337463
1683935702080426800,5.9984267578125,-1.6651161909103394,-0.6165590286254883,-1.0226726531982422
1683935702090467600,6.008467529296875,-0.4190407395362854,-0.5963802337646484,-1.2194048166275024
1683935702100508700,6.0185087890625,0.40324509143829346,-0.7297582626342773,-1.199399709701538
1683935702110549800,6.0285498046875,0.6561541557312012,-1.147383689880371,-1.0560775995254517
1683935702120590800,6.0385908203125,0.7013577222824097,-1.4996566772460938,-0.9322100281715393
1683935702130631700,6.048631591796875,0.8463415503501892,-1.6836299896240234,-0.759566605091095
1683935702140672800,6.0586728515625,1.2264083623886108,-1.686894416809082,-0.6190959215164185
1683935702150713900,6.0687138671875,1.6638860702514648,-1.4729089736938477,-0.47403085231781006
1683935702160755000,6.0787548828125,2.0601425170898438,-1.1728906631469727,-0.2794797420501709
1683935702170795800,6.088795654296875,2.314476728439331,-0.8276081085205078,-0.09884417057037354
1683935702180836900,6.0988369140625,2.463610887527466,-0.47552967071533203,0.003137350082397461
1683935702190878000,6.1088779296875,2.4586055278778076,-0.13611984252929688,0.06486892700195312
1683935702200918800,6.118918701171875,2.354527235031128,0.2139883041381836,0.03736543655395508
1683935702210960000,6.1289599609375,2.1308212280273438,0.569401741027832,-0.050281405448913574
1683935702221001000,6.1390009765625,1.826480507850647,0.8006782531738281,-0.12048530578613281
1683935702231042000,6.1490419921875,1.4260854721069336,1.008275032043457,-0.17225253582000732
1683935702241083000,6.159082763671875,1.0495269298553467,1.0964031219482422,-0.22285306453704834
1683935702251124000,6.1691240234375,0.8200466632843018,1.019181251525879,-0.20210683345794678
1683935702261165000,6.1791650390625,0.6300729513168335,0.8312387466430664,-0.3488703966140747
1683935702271206100,6.1892060546875,0.4469693899154663,0.6665334701538086,-0.5685997009277344
1683935702281247000,6.1992470703125,0.2650097608566284,0.5874967575073242,-0.8464899063110352
1683935702291288000,6.2092880859375,0.15275228023529053,0.5013303756713867,-1.0963269472122192
1683935702301329200,6.2193291015625,0.11329507827758789,0.37018585205078125,-1.2653474807739258
1683935702311370000,6.229369873046875,0.1321568489074707,0.18212127685546875,-1.3203253746032715
1683935702321411000,6.2394111328125,0.13351523876190186,0.09459400177001953,-1.3420193195343018
1683935702331452200,6.2494521484375,0.08082783222198486,-0.000514984130859375,-1.2830008268356323
1683935702341493200,6.2594931640625,-0.020425796508789062,-0.14190292358398438,-1.087087869644165
1683935702351534000,6.2695341796875,-0.1274164915084839,-0.2722969055175781,-0.993201732635498
1683935702361575200,6.2795751953125,-0.17358219623565674,-0.26009273529052734,-0.915477991104126
1683935702371616300,6.2896162109375,-0.1856917142868042,-0.2771434783935547,-0.7986836433410645
1683935702381657300,6.2996572265625,-0.13531720638275146,-0.25385284423828125,-0.5716160535812378
1683935702391698200,6.3096982421875,-0.12291741371154785,-0.30707359313964844,-0.35899853706359863
1683935702401739300,6.3197392578125,-0.2268916368484497,-0.3841705322265625,0.024132728576660156
1683935702411780400,6.3297802734375,-0.34509479999542236,-0.32303905487060547,0.37294769287109375
1683935702421821200,6.3398212890625,-0.44310033321380615,-0.12638473510742188,0.5905601978302002
1683935702431862300,6.3498623046875,-0.4960874319076538,0.09832000732421875,0.6063435077667236
1683935702441903400,6.3599033203125,-0.5094114542007446,0.4304208755493164,0.4177701473236084
1683935702451944400,6.3699443359375,-0.5056912899017334,0.6650190353393555,-0.09017586708068848
1683935702461985300,6.3799853515625,-0.5761584043502808,0.6617155075073242,-0.4807918071746826
1683935702472026400,6.3900263671875,-0.4045952558517456,0.6648588180541992,-0.49699878692626953
1683935702482067500,6.4000673828125,-0.08919668197631836,0.6079425811767578,-0.3890986442565918
1683935702492108500,6.410108642578125,0.2806973457336426,0.5491008758544922,-0.2021186351776123
1683935702502149400,6.4201494140625,0.5646225214004517,0.6582164764404297,-0.0019359588623046875
1683935702512190500,6.4301904296875,0.6842411756515503,0.7144689559936523,0.2700831890106201
1683935702522231600,6.4402314453125,0.6855486035346985,0.6019248962402344,0.7059228420257568
1683935702532272400,6.4502724609375,0.8056871891021729,0.3003273010253906,1.1557559967041016
1683935702542313500,6.4603134765625,1.0773276090621948,0.07198143005371094,1.3573987483978271
1683935702552354600,6.4703544921875,1.233552098274231,-0.07319355010986328,1.372351884841919
1683935702562395600,6.480395751953125,1.0235955715179443,-0.17033672332763672,1.52174973487854
1683935702572436500,6.4904365234375,0.6152192950248718,-0.2031698226928711,1.7051262855529785
1683935702582477600,6.5004775390625,0.012066960334777832,-0.2809638977050781,1.8373863697052002
1683935702592518700,6.5105185546875,-0.49914419651031494,-0.2590608596801758,1.556635856628418
1683935702602559500,6.5205595703125,-0.5163923501968384,-0.30271148681640625,0.9057645797729492
1683935702612600600,6.5306005859375,0.00587773323059082,-0.4612274169921875,0.16725587844848633
1683935702622641700,6.5406416015625,0.6197044253349304,-0.7254819869995117,-0.6411929130554199
1683935702632682800,6.550682861328125,0.9966933727264404,-1.0645294189453125,-1.3671542406082153
1683935702642723800,6.560723876953125,1.1801352500915527,-1.3380765914916992,-2.1322853565216064
1683935702652764700,6.5707646484375,0.8700752854347229,-1.4168729782104492,-3.2432007789611816
1683935702662805800,6.5808056640625,0.09896373748779297,-1.2716865539550781,-4.642469882965088
1683935702672846800,6.590846923828125,-0.8043091297149658,-1.1835479736328125,-5.76540470123291
1683935702682887700,6.6008876953125,-1.4637703895568848,-0.9296512603759766,-6.260482311248779
1683935702692928800,6.6109287109375,-1.613572120666504,-0.7379083633422852,-6.141512870788574
1683935702702969900,6.620969970703125,-1.3255712985992432,-0.6480321884155273,-5.460267543792725
1683935702713011000,6.631010986328125,-0.6332623958587646,-0.7930727005004883,-4.5730414390563965
1683935702723051800,6.6410517578125,0.09013664722442627,-1.044388771057129,-3.843733310699463
1683935702733092900,6.6510927734375,0.5925939083099365,-1.1413841247558594,-3.3743841648101807
1683935702743134000,6.661134033203125,0.7076177597045898,-0.9074068069458008,-3.039738416671753
1683935702753175000,6.671175048828125,0.6836037635803223,-0.8332529067993164,-2.570927619934082
1683935702763216000,6.6812158203125,0.662544310092926,-1.041102409362793,-1.9164360761642456
1683935702773257000,6.691257080078125,0.6277444362640381,-1.3180265426635742,-0.7765136957168579
1683935702783298000,6.701298095703125,0.6714128851890564,-0.9595880508422852,0.2447373867034912
1683935702793339000,6.7113388671875,0.679928719997406,-0.4311227798461914,0.963658332824707
1683935702803380000,6.7213798828125,0.8211542367935181,0.14911937713623047,1.4921382665634155
1683935702813421000,6.731421142578125,1.1671762466430664,0.6682653427124023,1.7803605794906616
1683935702823462100,6.741462158203125,1.582920789718628,1.0933856964111328,1.925417423248291
1683935702833503000,6.7515029296875,1.9516470432281494,1.4329376220703125,1.9845554828643799
1683935702843544000,6.7615439453125,2.101288318634033,1.666712760925293,1.9501123428344727
1683935702853585200,6.771585205078125,1.9499964714050293,1.6016645431518555,1.9295023679733276
1683935702863626200,6.781626220703125,1.53592848777771,1.142319679260254,1.7716460227966309
1683935702873667000,6.7916669921875,1.0458723306655884,0.4751596450805664,1.619314432144165
1683935702883708200,6.801708251953125,0.6303364038467407,-0.18500041961669922,1.3720660209655762
1683935702893749200,6.811749267578125,0.3065127730369568,-0.8002452850341797,1.085098147392273
1683935702903790300,6.821790283203125,0.11987948417663574,-0.9860429763793945,0.6856338977813721
1683935702913831200,6.8318310546875,0.06460398435592651,-0.8048124313354492,0.27515482902526855
1683935702923872300,6.841872314453125,0.10978549718856812,-0.3452920913696289,0.03913247585296631
1683935702933913300,6.851913330078125,0.2449011206626892,0.14333438873291016,-0.06585443019866943
1683935702943954200,6.8619541015625,0.39977914094924927,0.5056467056274414,-0.16760241985321045
1683935702953995300,6.871995361328125,0.5568053722381592,0.6823024749755859,-0.2919818162918091
1683935702964036400,6.882036376953125,0.6718108057975769,0.6690874099731445,-0.4190126657485962
1683935702974077400,6.892077392578125,0.7847728133201599,0.4929962158203125,-0.5321255326271057
1683935702984118300,6.9021181640625,0.8963510394096375,0.2024974822998047,-0.6350463628768921
1683935702994159400,6.912159423828125,1.0021233558654785,-0.061046600341796875,-0.7334867119789124
1683935703004200400,6.922200439453125,1.1113207340240479,-0.21873855590820312,-0.7917197942733765
1683935703014241500,6.932241455078125,1.1816480159759521,-0.23262882232666016,-0.8008794784545898
1683935703024282400,6.942282470703125,1.2347809076309204,-0.11275672912597656,-0.7772894501686096
1683935703034323500,6.952323486328125,1.3024721145629883,-0.0005350112915039062,-0.7385192513465881
1683935703044364500,6.962364501953125,1.3516196012496948,0.07784080505371094,-0.6468586325645447
1683935703054405400,6.9724052734375,1.4289894104003906,-0.008785247802734375,-0.446078896522522
1683935703064446500,6.982446533203125,1.5428082942962646,-0.16689014434814453,-0.1866910457611084
1683935703074487600,6.992487548828125,1.6845779418945312,-0.2695884704589844,-0.06610774993896484
1683935703084528600,7.002528564453125,1.8304104804992676,-0.26662731170654297,0.05708193778991699
1683935703094569700,7.01256982421875,1.9295846223831177,-0.17249679565429688,0.19278264045715332
1683935703104610600,7.022610595703125,1.9615278244018555,0.029205322265625,0.26917481422424316
1683935703114651600,7.032651611328125,1.897035837173462,0.15878772735595703,0.36133408546447754
1683935703124692700,7.042692626953125,1.8030624389648438,0.20660400390625,0.41819441318511963
1683935703134733600,7.052733642578125,1.6742197275161743,0.10830497741699219,0.4499239921569824
1683935703144774700,7.062774658203125,1.5776739120483398,0.010066032409667969,0.3911299705505371
1683935703154815700,7.072815673828125,1.5069465637207031,-0.04973888397216797,0.3429940938949585
1683935703164856800,7.08285693359375,1.4364216327667236,-0.10694313049316406,0.24341261386871338
1683935703174897700,7.092897705078125,1.3012655973434448,-0.1066427230834961,0.12369418144226074
1683935703184938800,7.102938720703125,1.1437597274780273,-0.1302785873413086,-0.006206512451171875
1683935703194979800,7.112979736328125,0.975877046585083,-0.11581707000732422,-0.1339443325996399
1683935703205021000,7.12302099609375,0.806149959564209,-0.15176963806152344,-0.27130866050720215
1683935703215061800,7.133061767578125,0.6918781995773315,-0.14246845245361328,-0.31067484617233276
1683935703225102800,7.143102783203125,0.5057287216186523,-0.10226058959960938,-0.39491426944732666
1683935703235144000,7.15314404296875,0.3292243480682373,-0.10280609130859375,-0.3799362778663635
1683935703245184800,7.163184814453125,0.10888366401195526,-0.09623146057128906,-0.251198410987854
1683935703255225900,7.173225830078125,-0.09074047207832336,-0.14947891235351562,-0.08792155981063843
1683935703265267000,7.183266845703125,-0.23565001785755157,-0.24814128875732422,0.1451040506362915
1683935703275308000,7.19330810546875,-0.34046316146850586,-0.35394287109375,0.3658576011657715
1683935703285348900,7.203348876953125,-0.3014184534549713,-0.3665943145751953,0.523562490940094
1683935703295390000,7.213389892578125,-0.16914881765842438,-0.18842697143554688,0.5414484739303589
1683935703305431000,7.22343115234375,0.03143879771232605,-0.037270545959472656,0.4527892470359802
1683935703315472100,7.23347216796875,0.2556413412094116,0.041588783264160156,0.3200114369392395
1683935703325513000,7.243512939453125,0.49379169940948486,0.07225227355957031,0.2437220811843872
1683935703335554000,7.253553955078125,0.6619160771369934,0.03341388702392578,0.20497757196426392
1683935703345595100,7.26359521484375,0.8130913376808167,-0.010202407836914062,0.14671564102172852
1683935703355636200,7.27363623046875,0.8864400386810303,-0.04902076721191406,0.1428210735321045
1683935703365677000,7.283677001953125,0.9599349498748779,-0.04957866668701172,0.10008406639099121
1683935703375718100,7.29371826171875,1.0331432819366455,0.004773139953613281,0.023396015167236328
1683935703385759200,7.30375927734375,1.0874229669570923,0.018403053283691406,-0.0414389967918396
1683935703395800000,7.313800048828125,1.125501275062561,0.055891990661621094,-0.08486729860305786
1683935703405841200,7.323841064453125,1.1496788263320923,0.0909280776977539,-0.19763463735580444
1683935703415882200,7.33388232421875,1.2163890600204468,0.053546905517578125,-0.22773772478103638
1683935703425923300,7.34392333984375,1.2446386814117432,-0.044341087341308594,-0.2832087278366089
1683935703435964400,7.35396435546875,1.2207828760147095,-0.15455341339111328,-0.28503143787384033
1683935703446005200,7.364005126953125,1.176048994064331,-0.22973060607910156,-0.2263709306716919
1683935703456046300,7.37404638671875,1.0963960886001587,-0.19980812072753906,-0.13855654001235962
1683935703466087400,7.38408740234375,0.9287703037261963,-0.12547683715820312,0.02912372350692749
1683935703476128300,7.394128173828125,0.7653380036354065,-0.08998298645019531,0.14277762174606323
1683935703486169300,7.40416943359375,0.6002970337867737,-0.057453155517578125,0.2709754705429077
1683935703496210400,7.41421044921875,0.47243499755859375,-0.08910655975341797,0.33773940801620483
1683935703506251500,7.42425146484375,0.3533077538013458,-0.11329364776611328,0.38601982593536377
1683935703516292600,7.434292724609375,0.2901323437690735,-0.1136770248413086,0.2770792841911316
1683935703526333400,7.44433349609375,0.22614100575447083,-0.05289649963378906,0.08515685796737671
1683935703536374500,7.45437451171875,0.20229806005954742,-0.033115386962890625,-0.07906514406204224
1683935703546415600,7.46441552734375,0.22549837827682495,-0.013614654541015625,-0.17332309484481812
1683935703556456400,7.47445654296875,0.26643866300582886,-0.03912639617919922,-0.22701025009155273
1683935703566497500,7.48449755859375,0.37288156151771545,-0.052356719970703125,-0.2663596272468567
1683935703576538600,7.49453857421875,0.4929048418998718,-0.060532569885253906,-0.2278575897216797
1683935703586579700,7.504579833984375,0.6113869547843933,-0.0025615692138671875,-0.1367509961128235
1683935703596620500,7.51462060546875,0.6904424428939819,0.035681724548339844,-0.038921356201171875
1683935703606661600,7.52466162109375,0.7825559377670288,0.0733194351196289,0.07451099157333374
1683935703616702700,7.53470263671875,0.8356309533119202,0.0773763656616211,0.18179088830947876
1683935703626743600,7.54474365234375,0.8879362344741821,0.09314727783203125,0.2547758221626282
1683935703636784600,7.55478466796875,0.9062231779098511,0.07806396484375,0.32219088077545166
1683935703646825700,7.56482568359375,0.9050024747848511,0.07738208770751953,0.3700719475746155
1683935703656866800,7.57486669921875,0.8939820528030396,0.09084892272949219,0.45977944135665894
1683935703666908000,7.584907958984375,0.8523237705230713,0.08996295928955078,0.4845568537712097
1683935703676948700,7.59494873046875,0.8187786936759949,0.07491779327392578,0.5181263089179993
1683935703686989800,7.60498974609375,0.777179479598999,0.04354381561279297,0.5646501183509827
1683935703697031000,7.615031005859375,0.7160757780075073,0.031411170959472656,0.6097372770309448
1683935703707071700,7.62507177734375,0.6806662082672119,-0.0018186569213867188,0.6040886044502258
1683935703717112800,7.63511279296875,0.644490122795105,0.0007238388061523438,0.5935171246528625
1683935703727154000,7.64515380859375,0.6305238008499146,0.05026721954345703,0.5526461005210876
1683935703737195000,7.655195068359375,0.6383380889892578,0.035353660583496094,0.5758510828018188
1683935703747235800,7.66523583984375,0.6558593511581421,0.0723104476928711,0.5926529765129089
1683935703757277000,7.67527685546875,0.6092438697814941,0.14147663116455078,0.5326225757598877
1683935703767318000,7.685318115234375,0.5370166301727295,0.14817428588867188,0.5102611780166626
1683935703777359000,7.695359130859375,0.5013119578361511,0.1782245635986328,0.4760769009590149
1683935703787400000,7.70539990234375,0.4503752887248993,0.1417713165283203,0.42588573694229126
1683935703797441000,7.71544091796875,0.34229418635368347,0.08913898468017578,0.5142074227333069
1683935703807482000,7.725482177734375,0.2620225250720978,0.1546611785888672,0.44199705123901367
1683935703817523200,7.735523193359375,0.24432042241096497,0.18569087982177734,0.3630128502845764
1683935703827564000,7.74556396484375,0.284901887178421,0.20398426055908203,0.3196907043457031
1683935703837605000,7.755605224609375,0.3315814435482025,0.23101329803466797,0.2714596390724182
1683935703847646200,7.765646240234375,0.347105473279953,0.2031850814819336,0.23272621631622314
1683935703857687000,7.77568701171875,0.3633178174495697,0.20625782012939453,0.19134819507598877
1683935703867728100,7.78572802734375,0.3533969819545746,0.17624282836914062,0.19681507349014282
1683935703877769200,7.795769287109375,0.3221800625324249,0.160858154296875,0.17339283227920532
1683935703887810300,7.805810302734375,0.24695491790771484,0.18810653686523438,0.1734601855278015
1683935703897851400,7.815851318359375,0.1372634768486023,0.17463302612304688,0.23066622018814087
1683935703907892200,7.825892333984375,0.011423945426940918,0.21041107177734375,0.20938169956207275
1683935703917933300,7.835933349609375,-0.12122941017150879,0.16040325164794922,0.20468926429748535
1683935703927974400,7.845974365234375,-0.17003458738327026,0.059073448181152344,0.2113780975341797
1683935703938015200,7.85601513671875,-0.3220840096473694,-0.06692218780517578,0.2568701505661011
1683935703948056300,7.866056396484375,-0.47125744819641113,-0.21003246307373047,0.264587938785553
1683935703958097400,7.876097412109375,-0.7234642505645752,-0.3229255676269531,0.29856276512145996
1683935703968138500,7.886138427734375,-0.9602117538452148,-0.42164039611816406,0.38024795055389404
1683935703978179600,7.8961796875,-1.2003813982009888,-0.4157133102416992,0.3697167634963989
1683935703988220400,7.906220458984375,-1.4729691743850708,-0.42027854919433594,0.4348407983779907
1683935703998261500,7.916261474609375,-1.6728681325912476,-0.4858064651489258,0.5469139814376831
1683935704008302600,7.926302490234375,-1.7006505727767944,-0.5025444030761719,0.6419899463653564
1683935704018343400,7.936343505859375,-1.6140503883361816,-0.5114974975585938,0.7263600826263428
1683935704028384500,7.946384521484375,-1.3824880123138428,-0.5650424957275391,0.8480184078216553
1683935704038425600,7.956425537109375,-1.1567374467849731,-0.6817378997802734,0.8678070306777954
1683935704048466700,7.966466796875,-0.9640445709228516,-0.6820812225341797,0.9565666913986206
1683935704058507500,7.976507568359375,-0.7952288389205933,-0.7121353149414062,0.991051197052002
1683935704068548600,7.986548583984375,-0.6558215618133545,-0.6382980346679688,0.9405856132507324
1683935704078589700,7.996589599609375,-0.551870584487915,-0.5470800399780273,0.8504798412322998
1683935704088630800,8.006630859375,-0.44159090518951416,-0.4005279541015625,0.7380424737930298
1683935704098671600,8.016671630859374,-0.26302945613861084,-0.27278709411621094,0.5872594118118286
1683935704108712700,8.026712646484375,0.006234645843505859,-0.1444244384765625,0.49434077739715576
1683935704118753800,8.03675390625,0.3158227205276489,0.0018177032470703125,0.3878723382949829
1683935704128795000,8.046794921875,0.5787726640701294,0.09509086608886719,0.3064584732055664
1683935704138835700,8.056835693359375,0.8210839033126831,0.1721944808959961,0.15736711025238037
1683935704148876800,8.066876708984376,0.9793870449066162,0.16212940216064453,0.09661006927490234
1683935704158918000,8.07691796875,1.0937539339065552,0.08471012115478516,0.000491023063659668
1683935704168959000,8.086958984375,1.172284483909607,-0.06929397583007812,-0.1490635871887207
1683935704178999800,8.096999755859375,1.252748966217041,-0.09419441223144531,-0.39992451667785645
1683935704189041000,8.107041015625,1.4603630304336548,-0.035305023193359375,-0.6754542589187622
1683935704199082000,8.11708203125,1.7123191356658936,0.010046005249023438,-0.8881924152374268
1683935704209123000,8.127123046875,1.9705678224563599,0.052145957946777344,-0.9856579303741455
1683935704219164000,8.137163818359374,2.200538158416748,0.09588909149169922,-0.9836335182189941
1683935704229205000,8.147205078125,2.3238258361816406,0.10975837707519531,-0.9843944311141968
1683935704239246000,8.15724609375,2.3898355960845947,0.04754638671875,-0.9829933643341064
1683935704249287200,8.167287109375,2.359126091003418,-0.04612159729003906,-0.9509800672531128
1683935704259328000,8.177327880859375,2.1953728199005127,-0.0619049072265625,-1.0058951377868652
1683935704269369000,8.187369140625,1.9668309688568115,-0.1102457046508789,-1.0161219835281372
1683935704279410200,8.19741015625,1.6649658679962158,-0.11015510559082031,-1.0598698854446411
1683935704289451300,8.207451171875,1.3074626922607422,0.012411117553710938,-1.0936154127120972
1683935704299492000,8.2174921875,1.026515007019043,0.046723365783691406,-1.0683848857879639
1683935704309533200,8.227533203125,0.682878851890564,0.07808780670166016,-1.0567549467086792
1683935704319574300,8.23757421875,0.4117894172668457,0.17965221405029297,-0.8868885040283203
1683935704329615400,8.247615478515625,0.05079507827758789,0.17354297637939453,-0.689002513885498
1683935704339656200,8.25765625,-0.3349449634552002,0.135498046875,-0.2882208824157715
1683935704349697300,8.267697265625,-0.7097959518432617,0.10102653503417969,-0.0013437271118164062
1683935704359738400,8.27773828125,-0.960181474685669,0.08228302001953125,0.02759099006652832
1683935704369779500,8.287779541015626,-1.0320947170257568,0.01978302001953125,-0.2181248664855957
1683935704379820300,8.2978203125,-0.806644082069397,-0.09296417236328125,-0.54317307472229
1683935704389861400,8.307861328125,-0.5159592628479004,-0.26215553283691406,-1.0509105920791626
1683935704399902500,8.31790234375,-0.20030510425567627,-0.4340238571166992,-1.4469367265701294
1683935704409943300,8.327943359375,0.1106100082397461,-0.5193309783935547,-1.8057162761688232
1683935704419984400,8.337984375,0.36335909366607666,-0.575169563293457,-1.9438209533691406
1683935704430025500,8.348025390625,0.4357866048812866,-0.5296831130981445,-2.078507661819458
1683935704440066600,8.358066650390626,0.3893730640411377,-0.47603416442871094,-2.0914366245269775
1683935704450107600,8.368107666015625,0.23435330390930176,-0.4287271499633789,-2.048956871032715
1683935704460148500,8.3781484375,0.04787290096282959,-0.3639812469482422,-1.9574153423309326
1683935704470189600,8.388189453125,-0.07950067520141602,-0.2673053741455078,-1.908523440361023
1683935704480230700,8.398230712890625,-0.1640632152557373,-0.16730308532714844,-1.8562535047531128
1683935704490271700,8.408271728515626,-0.14622128009796143,-0.07582473754882812,-1.7239742279052734
1683935704500312600,8.4183125,-0.07510817050933838,0.009629249572753906,-1.60057532787323
1683935704510353700,8.428353759765624,0.024050116539001465,0.08667564392089844,-1.486677885055542
1683935704520394800,8.438394775390625,0.1661086082458496,0.1435232162475586,-1.3732091188430786
1683935704530435600,8.448435546875,0.34188127517700195,0.18262672424316406,-1.2467708587646484
1683935704540476700,8.4584765625,0.48966193199157715,0.24696063995361328,-1.0416858196258545
1683935704550517800,8.468517822265625,0.6537587642669678,0.2479705810546875,-0.7830386161804199
1683935704560558800,8.478558837890626,0.7790135145187378,0.25480175018310547,-0.5029363632202148
1683935704570600000,8.488599853515625,0.8297240734100342,0.22650814056396484,-0.197645902633667
1683935704580640800,8.498640869140624,0.8348816633224487,0.19398784637451172,0.04378700256347656
1683935704590681900,8.508681884765625,0.7617478966712952,0.1282672882080078,0.268634557723999
1683935704600723000,8.518722900390625,0.6522541046142578,0.08397388458251953,0.4405643939971924
1683935704610764000,8.528763916015626,0.4751986265182495,0.020066261291503906,0.5859062671661377
1683935704620804900,8.538804931640625,0.35916972160339355,-0.02286815643310547,0.6768093109130859
1683935704630846000,8.548845947265624,0.304659366607666,-0.008849143981933594,0.6665909290313721
1683935704640887000,8.558886962890625,0.29484105110168457,-0.08361244201660156,0.6417272090911865
1683935704650928000,8.56892822265625,0.32690632343292236,-0.13969039916992188,0.639625072479248
1683935704660969000,8.578968994140626,0.35213756561279297,-0.17491531372070312,0.6640496253967285
1683935704671010000,8.589010009765625,0.3817552328109741,-0.14878082275390625,0.6667301654815674
1683935704681051100,8.599051025390626,0.30014538764953613,-0.16867733001708984,0.6169388294219971
1683935704691092200,8.60909228515625,0.1920783519744873,-0.1841869354248047,0.6077735424041748
1683935704701133000,8.619133056640624,0.08334946632385254,-0.30024051666259766,0.5033242702484131
1683935704711174100,8.629174072265625,0.07712268829345703,-0.33222198486328125,0.30078673362731934
1683935704721215200,8.63921533203125,0.17757320404052734,-0.25093650817871094,0.13628435134887695
1683935704731256300,8.64925634765625,0.37407684326171875,-0.015076637268066406,-0.049706220626831055
1683935704741297200,8.659297119140625,0.5701029300689697,0.3184700012207031,-0.16896820068359375
1683935704751338200,8.669338134765624,0.617607831954956,0.6421384811401367,-0.137481689453125
1683935704761379300,8.67937939453125,0.5119613409042358,0.8551158905029297,-0.04454684257507324
1683935704771420400,8.68942041015625,0.35184645652770996,0.868657112121582,0.07307815551757812
1683935704781461200,8.699461181640626,0.14875441789627075,0.80694580078125,0.15485835075378418
1683935704791502300,8.70950244140625,-0.046515822410583496,0.653106689453125,0.14989423751831055
1683935704801543400,8.71954345703125,-0.1526625156402588,0.39292240142822266,0.17273378372192383
1683935704811584500,8.72958447265625,-0.16102087497711182,0.08188152313232422,0.2670247554779053
1683935704821625300,8.739625244140624,-0.0816352367401123,-0.08139896392822266,0.3738126754760742
1683935704831666400,8.74966650390625,0.07194125652313232,-0.26943111419677734,0.51920485496521
1683935704841707500,8.75970751953125,0.29745763540267944,-0.4660930633544922,0.5794410705566406
1683935704851748600,8.76974853515625,0.4949606657028198,-0.9540061950683594,0.6254611015319824
1683935704861789400,8.77978955078125,0.6717745065689087,-1.9362783432006836,0.6226308345794678
1683935704871830500,8.78983056640625,0.6695203185081482,-3.0700197219848633,0.35868382453918457
1683935704881871600,8.79987158203125,0.421582967042923,-3.785952568054199,-0.02550029754638672
1683935704891912700,8.80991259765625,-0.24814796447753906,-4.222024917602539,-0.3413856029510498
1683935704901953500,8.81995361328125,-1.8788707256317139,-4.485649108886719,-0.7547663450241089
1683935704911994600,8.82999462890625,-4.278794765472412,-4.08640193939209,-1.4277328252792358
1683935704922035700,8.84003564453125,-4.6025071144104,-2.5571727752685547,-1.559304118156433
1683935704932076800,8.850076904296875,-2.1951406002044678,-0.31058502197265625,-1.5100197792053223
1683935704942117600,8.86011767578125,0.25441092252731323,1.3887195587158203,-1.4900954961776733
1683935704952158700,8.87015869140625,1.5214970111846924,2.1860766410827637,-1.6714766025543213
1683935704962199800,8.88019970703125,1.8552782535552979,2.450251579284668,-1.7088812589645386
1683935704972241000,8.890240966796876,1.763516902923584,2.3707733154296875,-1.653894066810608
1683935704982281700,8.90028173828125,1.5495336055755615,2.0174336433410645,-1.5055575370788574
1683935704992322800,8.91032275390625,1.2411328554153442,1.3090934753417969,-1.3354476690292358
1683935705002364000,8.920364013671875,0.9320027232170105,0.4562253952026367,-1.1751947402954102
1683935705012405000,8.930405029296875,0.7926955819129944,-0.1253948211669922,-1.119849681854248
1683935705022445800,8.94044580078125,0.8429867029190063,-0.37154388427734375,-1.210357427597046
1683935705032487000,8.95048681640625,0.9664507508277893,-0.40913867950439453,-1.3150391578674316
1683935705042528000,8.960528076171874,1.1105777025222778,-0.37677478790283203,-1.201280117034912
1683935705052569000,8.970569091796875,1.279057264328003,-0.28891754150390625,-0.9268611669540405
1683935705062610000,8.98060986328125,1.4208439588546753,-0.0694894790649414,-0.5229262113571167
1683935705072651000,8.990651123046876,1.5061123371124268,0.058487892150878906,-0.16859769821166992
1683935705082692000,9.000692138671875,1.522407054901123,0.21661853790283203,-0.08002758026123047
1683935705092733200,9.010733154296876,1.4920406341552734,0.35222911834716797,-0.09784674644470215
1683935705102774300,9.020774169921875,1.441871166229248,0.3100767135620117,-0.23163318634033203
1683935705112815000,9.030815185546874,1.2995271682739258,0.15460491180419922,-0.3721745014190674
1683935705122856200,9.040856201171875,1.0487531423568726,-0.01689624786376953,-0.5527267456054688
1683935705132897300,9.050897216796875,0.8252129554748535,-0.06127452850341797,-0.9178075194358826
1683935705142938400,9.0609384765625,0.7110818028450012,-0.14531326293945312,-1.3651177883148193
1683935705152979200,9.070979248046875,0.7093976736068726,-0.19884777069091797,-1.7363280057907104
1683935705163020300,9.081020263671874,0.7483818531036377,-0.2095947265625,-2.00006365776062
1683935705173061400,9.091061279296875,0.8209793567657471,-0.23495101928710938,-2.131094217300415
1683935705183102500,9.1011025390625,0.8817269206047058,-0.28688812255859375,-2.2280821800231934
1683935705193143300,9.111143310546876,1.0141680240631104,-0.21701622009277344,-2.3063206672668457
1683935705203184400,9.121184326171875,1.2099483013153076,-0.10635757446289062,-2.339545726776123
1683935705213225500,9.1312255859375,1.3714594841003418,-0.07885456085205078,-2.2572920322418213
1683935705223266600,9.1412666015625,1.4596322774887085,-0.06018352508544922,-2.042954444885254
1683935705233307400,9.151307373046874,1.493729829788208,-0.03603649139404297,-1.7973039150238037
1683935705243348500,9.161348388671875,1.460395336151123,-0.008871078491210938,-1.5154540538787842
1683935705253389600,9.1713896484375,1.4348418712615967,-0.03138256072998047,-1.1978554725646973
1683935705263430700,9.1814306640625,1.4130936861038208,-0.020050048828125,-0.9384591579437256
1683935705273471500,9.191471435546875,1.3854420185089111,0.012979507446289062,-0.6542496681213379
1683935705283512600,9.2015126953125,1.3414828777313232,0.04376411437988281,-0.48880696296691895
1683935705293553700,9.2115537109375,1.256835699081421,0.09143829345703125,-0.32948029041290283
1683935705303594800,9.2215947265625,1.1721911430358887,0.10338115692138672,-0.18589568138122559
1683935705313635600,9.231635498046876,1.0345442295074463,0.1537160873413086,-0.07702255249023438
1683935705323676700,9.2416767578125,0.9346513748168945,0.1778430938720703,0.021166682243347168
1683935705333717800,9.2517177734375,0.8107888102531433,0.15423965454101562,0.1108313798904419
1683935705343758800,9.2617587890625,0.6971153020858765,0.1665172576904297,0.16791141033172607
1683935705353799700,9.271799560546874,0.5563561320304871,0.2121429443359375,0.18538272380828857
1683935705363840800,9.2818408203125,0.43266940116882324,0.16434955596923828,0.22971224784851074
1683935705373881900,9.2918818359375,0.33935049176216125,0.11638832092285156,0.25240790843963623
1683935705383923000,9.3019228515625,0.2657288908958435,0.06101417541503906,0.276847243309021
1683935705393963800,9.3119638671875,0.27697184681892395,0.0029878616333007812,0.3144594430923462
1683935705404004900,9.3220048828125,0.3107396960258484,-0.024196624755859375,0.33186185359954834
1683935705414046000,9.3320458984375,0.3689507246017456,0.01285552978515625,0.3314993381500244
1683935705424087000,9.342087158203125,0.41302502155303955,-0.02202320098876953,0.3428236246109009
1683935705434128100,9.352128173828126,0.4636422395706177,-0.023584365844726562,0.39172840118408203
1683935705444169000,9.3621689453125,0.5152849555015564,-0.011066436767578125,0.3866584897041321
1683935705454210000,9.3722099609375,0.5269764065742493,-0.05144500732421875,0.39373451471328735
1683935705464251100,9.382251220703125,0.5297228097915649,-0.08248710632324219,0.3745666742324829
1683935705474292200,9.392292236328124,0.5188589692115784,-0.08268928527832031,0.28640007972717285
1683935705484333000,9.4023330078125,0.49185216426849365,-0.08550643920898438,0.1704273819923401
1683935705494374100,9.4123740234375,0.4346122443675995,-0.11237239837646484,0.07013821601867676
1683935705504415200,9.422415283203126,0.43831896781921387,-0.053282737731933594,-0.08045309782028198
1683935705514456300,9.432456298828125,0.4288063049316406,-0.05882549285888672,-0.17534351348876953
1683935705524497200,9.4424970703125,0.44167566299438477,-0.011788368225097656,-0.24295449256896973
1683935705534538200,9.452538330078125,0.44781693816185,-0.005400657653808594,-0.26847946643829346
1683935705544579300,9.462579345703125,0.4780428111553192,0.024956703186035156,-0.30640748143196106
1683935705554620400,9.472620361328126,0.45375856757164,0.060143470764160156,-0.2941969931125641
1683935705564661200,9.4826611328125,0.44742661714553833,0.12640953063964844,-0.22475051879882812
1683935705574702300,9.492702392578124,0.43087583780288696,0.15920066833496094,-0.17928028106689453
1683935705584743400,9.502743408203125,0.4330913722515106,0.18009185791015625,-0.07627660036087036
1683935705594784500,9.512784423828125,0.4497154951095581,0.16521930694580078,0.04830479621887207
1683935705604825300,9.522825439453126,0.526560366153717,0.16476154327392578,0.23440641164779663
1683935705614866400,9.532866455078125,0.5798444151878357,0.1714630126953125,0.3762505054473877
1683935705624907500,9.542907470703126,0.66949063539505,0.18284988403320312,0.5518401265144348
1683935705634948600,9.552948486328125,0.7380512952804565,0.16064834594726562,0.6862664818763733
1683935705644989400,9.562989501953124,0.8117331266403198,0.10965824127197266,0.8860085010528564
1683935705655030500,9.573030517578125,0.8569896221160889,0.027551651000976562,1.0072591304779053
1683935705665071600,9.583071533203125,0.906639575958252,-0.0664825439453125,1.0790047645568848
1683935705675112700,9.59311279296875,0.9476432204246521,-0.036285400390625,1.1110599040985107
1683935705685153800,9.60315380859375,0.9861490726470947,0.01276397705078125,1.1656262874603271
1683935705695194600,9.613194580078124,1.0182311534881592,0.10303783416748047,1.1335420608520508
1683935705705235700,9.623235595703125,1.007788896560669,0.24117088317871094,1.1736090183258057
1683935705715276800,9.63327685546875,0.9600071310997009,0.1908702850341797,1.2466394901275635
1683935705725318000,9.64331787109375,0.8687748312950134,0.08942604064941406,1.1713345050811768
1683935705735358700,9.653358642578125,0.7990509867668152,0.010737419128417969,0.9992072582244873
1683935705745399800,9.66339990234375,0.753699779510498,-0.09022140502929688,0.8520674705505371
1683935705755441000,9.67344091796875,0.725867748260498,-0.2789621353149414,0.7847707271575928
1683935705765482000,9.68348193359375,0.7050616145133972,-0.48106861114501953,0.7599680423736572
1683935705775523000,9.693523193359376,0.6756349205970764,-0.6822319030761719,0.7640578746795654
1683935705785564000,9.70356396484375,0.6110158562660217,-0.7648200988769531,0.818261981010437
1683935705795605000,9.71360498046875,0.4920460879802704,-0.8602819442749023,0.8019677400588989
1683935705805646000,9.72364599609375,0.3769565522670746,-1.0083484649658203,0.854961633682251
1683935705815687200,9.733687255859374,0.2436043620109558,-1.1680660247802734,0.9798108339309692
1683935705825728000,9.74372802734375,0.12679937481880188,-1.2215614318847656,1.1537268161773682
1683935705835769000,9.75376904296875,0.09382035583257675,-1.2390327453613281,1.3078511953353882
1683935705845810200,9.76381005859375,0.10624261200428009,-1.294240951538086,1.4527943134307861
1683935705855851300,9.773851318359375,0.1826092153787613,-1.3255596160888672,1.5206712484359741
1683935705865892000,9.78389208984375,0.25110775232315063,-1.3360309600830078,1.5049035549163818
1683935705875933200,9.79393310546875,0.30110812187194824,-1.2469348907470703,1.3095118999481201
1683935705885974300,9.803974365234374,0.23155300319194794,-1.0225858688354492,0.9827941656112671
1683935705896015400,9.814015380859376,0.15758554637432098,-0.7515764236450195,0.6516970992088318
1683935705906056200,9.82405615234375,0.08271017670631409,-0.32416439056396484,0.3375663161277771
1683935705916097300,9.83409716796875,-0.004988968372344971,0.16125202178955078,-0.06650131940841675
1683935705926138400,9.844138427734375,-0.17585745453834534,0.5419635772705078,-0.43536892533302307
1683935705936179500,9.854179443359374,-0.42106571793556213,0.7607126235961914,-0.7525030970573425
1683935705946220500,9.864220458984375,-0.7350471019744873,0.9180002212524414,-1.1198230981826782
1683935705956261400,9.874261474609375,-1.2074329853057861,1.061589241027832,-1.5094633102416992
1683935705966302500,9.884302490234376,-1.9226152896881104,1.2631072998046875,-1.859604835510254
1683935705976343600,9.894343505859375,-3.0267744064331055,1.4600839614868164,-2.073359966278076
1683935705986384400,9.90438427734375,-4.443392276763916,1.5084552764892578,-1.916664481163025
1683935705996425500,9.914425537109375,-5.242265701293945,1.2636823654174805,-1.3176178932189941
1683935706006466600,9.924466552734375,-4.552266597747803,0.9110651016235352,-0.8055882453918457
1683935706016507600,9.934507568359376,-2.3997325897216797,0.5445766448974609,-1.0885066986083984
1683935706026548700,9.944548828125,-0.607519805431366,0.03496837615966797,-1.534519910812378
1683935706036589600,9.954589599609376,0.6834511756896973,-0.5106134414672852,-1.8805322647094727
1683935706046630700,9.964630615234375,1.4697626829147339,-0.8638887405395508,-2.219348669052124
1683935706056671700,9.974671630859374,1.9091455936431885,-1.1624412536621094,-2.428546905517578
1683935706066712800,9.984712890625,2.156665563583374,-1.342386245727539,-2.5339159965515137
1683935706076753700,9.994753662109375,2.323896646499634,-1.4111824035644531,-2.5737504959106445
1683935706086794800,10.004794677734376,2.3293285369873047,-1.3891725540161133,-2.540811061859131
1683935706096835800,10.0148359375,2.243060350418091,-1.2672300338745117,-2.345881700515747
1683935706106877000,10.024876953125,1.907301902770996,-1.1331024169921875,-1.9033961296081543
1683935706116918000,10.03491796875,1.4063730239868164,-0.9122228622436523,-1.354374885559082
1683935706126958800,10.044958740234375,0.9006949067115784,-0.5942773818969727,-0.8489316701889038
1683935706137000000,10.055,0.5343315601348877,-0.31653690338134766,-0.42873454093933105
1683935706147041000,10.065041015625,0.26134979724884033,-0.04163837432861328,-0.14203834533691406
1683935706157082000,10.07508203125,0.1383291482925415,0.2104949951171875,0.04862785339355469
1683935706167123000,10.085123046875,0.17425429821014404,0.4850893020629883,0.16211414337158203
1683935706177164000,10.0951640625,0.18000352382659912,0.7152881622314453,0.14728665351867676
1683935706187205000,10.105205078125,0.10216379165649414,0.9827632904052734,0.11948990821838379
1683935706197246200,10.11524609375,-0.04493379592895508,1.1082696914672852,0.09342384338378906
1683935706207287300,10.125287353515626,-0.24266719818115234,1.1968317031860352,0.004772663116455078
1683935706217328000,10.135328125,-0.424092173576355,1.2409343719482422,-0.09328103065490723
1683935706227369200,10.145369140625,-0.5804630517959595,1.2185068130493164,-0.26946043968200684
1683935706237410300,10.155410400390625,-0.5470809936523438,1.2130050659179688,-0.6022742986679077
1683935706247451400,10.165451416015625,-0.3412299156188965,0.9953727722167969,-1.0449587106704712
1683935706257492200,10.1754921875,-0.09108400344848633,0.6747016906738281,-1.5422298908233643
1683935706267533300,10.185533203125,0.17434227466583252,0.46039676666259766,-1.9216971397399902
1683935706277574400,10.195574462890624,0.34643858671188354,0.24577999114990234,-2.210258960723877
1683935706287615500,10.205615478515625,0.3864903450012207,0.14580059051513672,-2.407477617263794
1683935706297656300,10.21565625,0.27575165033340454,0.17196941375732422,-2.4711854457855225
1683935706307697400,10.225697509765626,-0.013858556747436523,0.14186573028564453,-2.391896963119507
1683935706317738500,10.235738525390625,-0.31849706172943115,0.09298515319824219,-2.2561001777648926
1683935706327779600,10.245779541015626,-0.6002438068389893,0.04904460906982422,-2.025470733642578
1683935706337820700,10.255820556640625,-0.8666034936904907,-0.0136566162109375,-1.7368218898773193
1683935706347861500,10.265861572265624,-1.1071819067001343,-0.06903266906738281,-1.3014079332351685
1683935706357902600,10.275902587890625,-1.259026288986206,-0.14876461029052734,-0.8541874885559082
1683935706367943700,10.285943603515625,-1.3489577770233154,-0.24139118194580078,-0.38674068450927734
1683935706377984800,10.29598486328125,-1.1929417848587036,-0.24187469482421875,-0.1175379753112793
1683935706388025600,10.306025634765625,-0.7048704624176025,-0.18286705017089844,-0.138350248336792
1683935706398066700,10.316066650390624,-0.3927959203720093,-0.23350238800048828,-0.23295378684997559
1683935706408107800,10.326107666015625,-0.664991021156311,-0.2729310989379883,-0.03568720817565918
1683935706418148900,10.33614892578125,-0.7965948581695557,-0.07229328155517578,-0.24150514602661133
1683935706428189700,10.346189697265626,-0.6378682851791382,0.19738483428955078,-0.7035138607025146
1683935706438230800,10.356230712890625,-0.33295202255249023,0.39156246185302734,-1.0452626943588257
1683935706448272000,10.36627197265625,-0.06633782386779785,0.5225362777709961,-1.141085147857666
1683935706458313000,10.37631298828125,0.10097265243530273,0.5541343688964844,-1.0416569709777832
1683935706468354000,10.38635400390625,0.23520100116729736,0.5960988998413086,-0.8589284420013428
1683935706478395000,10.396394775390625,0.4256630539894104,0.65093994140625,-0.6840734481811523
1683935706488436000,10.40643603515625,0.6610212326049805,0.6593103408813477,-0.48314356803894043
1683935706498477000,10.41647705078125,0.8550996780395508,0.7100458145141602,-0.2646291255950928
1683935706508518100,10.42651806640625,0.94023597240448,0.6908054351806641,-0.03502345085144043
1683935706518559200,10.436559326171874,1.0007779598236084,0.6872777938842773,0.2521686553955078
1683935706528600000,10.44660009765625,0.9778046011924744,0.6631832122802734,0.49679112434387207
1683935706538641200,10.45664111328125,0.7958048582077026,0.572993278503418,0.6688568592071533
1683935706548682200,10.46668212890625,0.4929250478744507,0.47622203826904297,0.7934951782226562
1683935706558723300,10.476723388671875,0.07153975963592529,0.37694263458251953,0.9887897968292236
1683935706568764400,10.486764404296874,-0.23728275299072266,0.33185863494873047,1.180161476135254
1683935706578805200,10.49680517578125,-0.3913935422897339,0.34018516540527344,1.453134298324585
1683935706588846300,10.506846435546874,-0.3188692331314087,0.3920011520385742,1.7195162773132324
1683935706598887400,10.516887451171876,-0.19633615016937256,0.46353912353515625,1.8345921039581299
1683935706608928500,10.526928466796875,-0.13282132148742676,0.4812278747558594,1.732978343963623
1683935706618969300,10.53696923828125,-0.09454500675201416,0.32399940490722656,1.3805193901062012
1683935706629010400,10.547010498046875,0.0421069860458374,0.1052846908569336,0.8531849384307861
1683935706639051500,10.557051513671874,0.18958377838134766,-0.0902252197265625,0.2964017391204834
1683935706649092600,10.567092529296875,0.1479116678237915,-0.20201683044433594,-0.16907620429992676
1683935706659133700,10.5771337890625,-0.14905905723571777,-0.26107120513916016,-0.4454045295715332
1683935706669174500,10.587174560546876,-0.5887995958328247,-0.3395528793334961,-0.514244556427002
1683935706679215600,10.597215576171875,-1.084673285484314,-0.44999122619628906,-0.576662540435791
1683935706689256700,10.607256591796874,-1.4902188777923584,-0.6193351745605469,-0.6569435596466064
1683935706699297800,10.6172978515625,-1.741392970085144,-0.8957090377807617,-0.7479038238525391
1683935706709338600,10.627338623046874,-1.7273941040039062,-1.2597579956054688,-0.8347314596176147
1683935706719379700,10.637379638671876,-1.4819194078445435,-1.758535385131836,-0.9139585494995117
1683935706729420800,10.6474208984375,-1.112061858177185,-2.152338981628418,-0.9801075458526611
1683935706739462000,10.6574619140625,-0.6968151330947876,-2.2790536880493164,-1.0124096870422363
1683935706749502700,10.667502685546875,-0.48727869987487793,-2.226059913635254,-1.0422933101654053
1683935706759543800,10.677543701171874,-0.4753556251525879,-2.0925588607788086,-1.1133713722229004
1683935706769585000,10.6875849609375,-0.6318100690841675,-1.7764520645141602,-1.21519136428833
1683935706779626000,10.6976259765625,-0.80370032787323,-1.395456314086914,-1.3035897016525269
1683935706789667000,10.7076669921875,-0.7769503593444824,-0.8851652145385742,-1.2618358135223389
1683935706799708000,10.7177080078125,-0.4765303134918213,-0.3625202178955078,-1.127426266670227
1683935706809749000,10.7277490234375,0.023577570915222168,0.0677499771118164,-0.898701548576355
1683935706819790000,10.7377900390625,0.45731472969055176,0.3202362060546875,-0.6833498477935791
1683935706829831200,10.7478310546875,0.7555892467498779,0.5461521148681641,-0.5896680355072021
1683935706839872000,10.7578720703125,0.9049156904220581,0.7958087921142578,-0.4840346574783325
1683935706849913000,10.7679130859375,1.0793180465698242,1.1357297897338867,-0.3752288818359375
1683935706859954200,10.7779541015625,1.2554596662521362,1.2715673446655273,-0.20738768577575684
1683935706869995300,10.787995361328125,1.4038563966751099,1.112844467163086,-0.06834304332733154
1683935706880036400,10.798036376953124,1.4893730878829956,0.820368766784668,0.03964519500732422
1683935706890077200,10.8080771484375,1.4541828632354736,0.5000209808349609,-0.042137861251831055
1683935706900118300,10.8181181640625,1.2788259983062744,0.2333984375,-0.20117676258087158
1683935706910159400,10.828159423828126,1.0083940029144287,0.0869903564453125,-0.4324222803115845
1683935706920200400,10.838200439453125,0.7127262353897095,0.1317577362060547,-0.7820374965667725
1683935706930241500,10.848241455078124,0.4872699975967407,0.10911369323730469,-1.071134090423584
1683935706940282400,10.858282470703125,0.36043471097946167,0.08854961395263672,-1.305351972579956
1683935706950323500,10.868323486328125,0.34693819284439087,0.14196491241455078,-1.4950876235961914
1683935706960364500,10.878364501953126,0.3959593176841736,0.20015335083007812,-1.5558111667633057
1683935706970405600,10.888405517578125,0.4420914649963379,0.3230581283569336,-1.4844160079956055
1683935706980446700,10.89844677734375,0.4226541221141815,0.26716041564941406,-1.3780258893966675
1683935706990487600,10.908487548828125,0.3558099865913391,0.14729976654052734,-1.0830823183059692
1683935707000528600,10.918528564453124,0.3075305223464966,0.03256702423095703,-0.8480365872383118
1683935707010569700,10.92856982421875,0.2411879301071167,0.07566070556640625,-0.7236536741256714
1683935707020610800,10.93861083984375,0.15720245242118835,0.06819438934326172,-0.6340831518173218
1683935707030651600,10.948651611328126,0.08028441667556763,0.01483917236328125,-0.5681377649307251
1683935707040692700,10.958692626953125,-0.036708682775497437,0.004029273986816406,-0.5996330976486206
1683935707050733800,10.96873388671875,-0.11010870337486267,0.09759998321533203,-0.5374374389648438
1683935707060775000,10.97877490234375,-0.18623363971710205,0.05140972137451172,-0.4687601327896118
1683935707070815700,10.988815673828125,-0.20708060264587402,0.04245567321777344,-0.4680436849594116
1683935707080856800,10.99885693359375,-0.20272713899612427,-0.0988149642944336,-0.5637049674987793
1683935707090898000,11.00889794921875,-0.18293040990829468,-0.13788604736328125,-0.6549501419067383
1683935707100939000,11.01893896484375,-0.14109554886817932,-0.1250591278076172,-0.7751813530921936
1683935707110980000,11.02897998046875,-0.08034928143024445,-0.07227325439453125,-0.9645054340362549
1683935707121021000,11.03902099609375,-0.017394602298736572,-0.06548023223876953,-1.1004308462142944
1683935707131062000,11.04906201171875,0.059396013617515564,-0.10915279388427734,-1.2346038818359375
1683935707141103000,11.05910302734375,0.2027796059846878,-0.13849735260009766,-1.3446329832077026
1683935707151144200,11.069144287109374,0.371520459651947,-0.09850215911865234,-1.4134812355041504
1683935707161185300,11.079185302734375,0.4857693016529083,0.0058536529541015625,-1.4033348560333252
1683935707171226000,11.08922607421875,0.5876864194869995,0.11460685729980469,-1.3673561811447144
1683935707181267200,11.09926708984375,0.7457488179206848,0.09874725341796875,-1.3557376861572266
1683935707191308300,11.109308349609375,0.8809278011322021,0.08512115478515625,-1.342323899269104
1683935707201349400,11.119349365234376,1.074738621711731,0.08090019226074219,-1.3487544059753418
1683935707211390500,11.129390380859375,1.240167498588562,0.062206268310546875,-1.3156309127807617
1683935707221431300,11.139431396484374,1.3864972591400146,0.10797882080078125,-1.3790754079818726
1683935707231472400,11.149472412109375,1.478780746459961,0.10594463348388672,-1.435705542564392
1683935707241513500,11.159513427734375,1.5264818668365479,0.04442119598388672,-1.520574688911438
1683935707251554600,11.169554443359376,1.4659442901611328,-0.07159137725830078,-1.5733106136322021
1683935707261595400,11.179595458984375,1.379363775253296,-0.1511240005493164,-1.6506010293960571
1683935707271636500,11.189636474609374,1.2603228092193604,-0.16548919677734375,-1.6726551055908203
1683935707281677600,11.199677490234375,1.1715425252914429,-0.1888580322265625,-1.679888367652893
1683935707291718700,11.20971875,1.0804216861724854,-0.17583656311035156,-1.6434569358825684
1683935707301759700,11.219759765625,1.0065873861312866,-0.15275859832763672,-1.5893737077713013
1683935707311800800,11.22980078125,0.9337480068206787,-0.14839839935302734,-1.4751224517822266
1683935707321841700,11.239841552734376,0.8145990371704102,-0.12699222564697266,-1.3371326923370361
1683935707331882800,11.2498828125,0.7072708606719971,-0.07673263549804688,-1.1830623149871826
1683935707341923800,11.259923828125,0.5622881650924683,-0.043173789978027344,-0.99204421043396
1683935707351965000,11.26996484375,0.4517832100391388,0.0047283172607421875,-0.7954630255699158
1683935707362005800,11.280005859375,0.3329734802246094,0.028684616088867188,-0.6199125051498413
1683935707372046800,11.290046875,0.2778942883014679,0.014316558837890625,-0.4039804935455322
1683935707382088000,11.300087890625,0.20601975917816162,0.04516887664794922,-0.17501986026763916
1683935707392129000,11.31012890625,0.17565637826919556,0.06852436065673828,0.0018082857131958008
1683935707402169900,11.320169921875,0.12512344121932983,0.06292724609375,0.16239774227142334
1683935707412211000,11.3302109375,0.11170265078544617,0.03812408447265625,0.2716364860534668
1683935707422252000,11.340251953125,0.09838821738958359,0.042052268981933594,0.36634624004364014
1683935707432293000,11.350293212890625,0.09631923586130142,0.022162437438964844,0.4421952962875366
1683935707442334200,11.360334228515624,0.05273125320672989,-0.04305744171142578,0.5656086206436157
1683935707452375300,11.370375244140625,0.03933440148830414,-0.034140586853027344,0.6046959161758423
1683935707462416100,11.380416015625,0.027088269591331482,-0.046814918518066406,0.5237438678741455
1683935707472457200,11.390457275390625,0.015750065445899963,-0.05005168914794922,0.43478167057037354
1683935707482498300,11.400498291015625,0.03143508732318878,0.0061550140380859375,0.25337183475494385
1683935707492539400,11.410539306640626,0.019171088933944702,-0.02158355712890625,0.032607197761535645
1683935707502580200,11.420580322265625,0.03405642509460449,-0.030178070068359375,-0.18071556091308594
1683935707512621300,11.430621337890624,0.047445788979530334,-0.05062389373779297,-0.3453100919723511
1683935707522662400,11.440662353515625,0.08570210635662079,-0.04460334777832031,-0.4654949903488159
1683935707532703500,11.450703369140625,0.11533577740192413,-0.06701946258544922,-0.5621790885925293
1683935707542744600,11.46074462890625,0.15115301311016083,-0.04129791259765625,-0.5703216195106506
1683935707552785400,11.470785400390625,0.23158970475196838,-0.06547069549560547,-0.466185986995697
1683935707562826500,11.480826416015624,0.2964746356010437,-0.029613494873046875,-0.35301095247268677
1683935707572867600,11.49086767578125,0.3524762988090515,0.011119842529296875,-0.2790095806121826
1683935707582908700,11.50090869140625,0.3833584487438202,0.06861591339111328,-0.16797268390655518
1683935707592949800,11.51094970703125,0.4399929344654083,0.0901956558227539,-0.13057470321655273
1683935707602990600,11.520990478515625,0.4936220049858093,0.13567638397216797,-0.07080340385437012
1683935707613031700,11.53103173828125,0.5150776505470276,0.1213998794555664,0.03995025157928467
1683935707623072800,11.54107275390625,0.5543990135192871,0.1023101806640625,0.1121816635131836
1683935707633113900,11.55111376953125,0.5878345370292664,0.11421680450439453,0.21506130695343018
1683935707643155000,11.561155029296875,0.642249345779419,0.05671119689941406,0.2623542547225952
1683935707653195800,11.57119580078125,0.6749897599220276,-0.010356903076171875,0.3375983238220215
1683935707663236900,11.58123681640625,0.7265563011169434,0.010972023010253906,0.4147505760192871
1683935707673278000,11.59127783203125,0.7845855355262756,0.027327537536621094,0.46753180027008057
1683935707683319000,11.601319091796874,0.8364748954772949,0.06020927429199219,0.49121761322021484
1683935707693360000,11.611360107421875,0.8840875625610352,0.0905008316040039,0.4909374713897705
1683935707703401000,11.62140087890625,0.9149651527404785,0.10627555847167969,0.5408197641372681
1683935707713442000,11.631442138671876,0.9291147589683533,0.09321212768554688,0.5927165746688843
1683935707723483100,11.641483154296875,0.9122219681739807,0.0704660415649414,0.651124119758606
1683935707733524200,11.651524169921874,0.8740273118019104,0.10970592498779297,0.713645875453949
1683935707743565300,11.6615654296875,0.8034981489181519,0.1300811767578125,0.7738950252532959
1683935707753606100,11.671606201171874,0.7514331936836243,0.14525127410888672,0.8299370408058167
1683935707763647200,11.681647216796875,0.729781448841095,0.17880916595458984,0.895753800868988
1683935707773688300,11.691688232421875,0.7033629417419434,0.19512367248535156,0.940767765045166
1683935707783729400,11.7017294921875,0.7014647722244263,0.18502330780029297,1.0218651294708252
1683935707793770500,11.7117705078125,0.7011839151382446,0.19126319885253906,1.1313490867614746
1683935707803811300,11.721811279296874,0.7476146817207336,0.17813587188720703,1.2186238765716553
1683935707813852400,11.731852294921875,0.811053454875946,0.025896072387695312,1.2676236629486084
1683935707823893500,11.7418935546875,0.8609850406646729,-0.0911855697631836,1.300640344619751
1683935707833934600,11.7519345703125,0.8943445682525635,-0.1454172134399414,1.31196928024292
1683935707843975700,11.7619755859375,0.9011658430099487,-0.0343017578125,1.3632607460021973
1683935707854016500,11.7720166015625,0.844660758972168,0.14523696899414062,1.3724684715270996
1683935707864057600,11.7820576171875,0.7803690433502197,0.31913185119628906,1.2277991771697998
1683935707874098700,11.7920986328125,0.6956737041473389,0.4145355224609375,1.0459222793579102
1683935707884139800,11.802139892578126,0.6210518479347229,0.34098148345947266,0.8359400033950806
1683935707894180900,11.812180908203125,0.5505335927009583,0.24030017852783203,0.5717966556549072
1683935707904221700,11.8222216796875,0.4886471629142761,0.09420585632324219,0.3939591646194458
1683935707914262800,11.8322626953125,0.4648531973361969,-0.01645374298095703,0.19254279136657715
1683935707924304000,11.842303955078124,0.4181235432624817,-0.14400672912597656,0.009861350059509277
1683935707934345000,11.852344970703125,0.39194750785827637,-0.38230037689208984,-0.07958698272705078
1683935707944385800,11.8623857421875,0.36122727394104004,-0.585820198059082,-0.17158520221710205
1683935707954427000,11.872427001953126,0.3083844482898712,-0.6467885971069336,-0.308316171169281
1683935707964468000,11.882468017578125,0.24543562531471252,-0.5627155303955078,-0.44153332710266113
1683935707974509000,11.892509033203124,0.13455429673194885,-0.38782405853271484,-0.5364625453948975
1683935707984550100,11.902550048828125,-0.0018321871757507324,-0.3096599578857422,-0.7277612090110779
1683935707994591200,11.91259130859375,-0.3256988227367401,-0.2772226333618164,-0.9512298107147217
1683935708004632000,11.922632080078126,-0.8590138554573059,-0.16519641876220703,-1.1055657863616943
1683935708014673200,11.932673095703125,-1.70087468624115,-0.0966329574584961,-1.2231868505477905
1683935708024714200,11.94271435546875,-3.0681188106536865,-0.08339309692382812,-1.1969748735427856
1683935708034755300,11.95275537109375,-4.417521953582764,-0.09912681579589844,-0.9059144258499146
1683935708044796200,11.962796142578124,-4.9621052742004395,-0.05100727081298828,-0.535232663154602
1683935708054837200,11.972837158203125,-4.216093063354492,0.10318851470947266,-0.43817877769470215
1683935708064878300,11.98287841796875,-2.9332613945007324,0.07619857788085938,-0.5951271057128906
1683935708074919400,11.99291943359375,-1.7090541124343872,-0.04551887512207031,-0.7567975521087646
1683935708084960500,12.00296044921875,-0.7553401589393616,-0.05344867706298828,-0.932400643825531
1683935708095001600,12.013001708984374,-0.058540403842926025,0.03851509094238281,-1.076449990272522
1683935708105042400,12.02304248046875,0.3971140384674072,0.14966297149658203,-1.0427827835083008
1683935708115083500,12.03308349609375,0.654771089553833,0.2446002960205078,-1.0034247636795044
1683935708125124600,12.04312451171875,0.7445501685142517,0.2853126525878906,-0.8895997405052185
1683935708135165700,12.053165771484375,0.6837688684463501,0.3269014358520508,-0.7741992473602295
1683935708145206500,12.06320654296875,0.4608660340309143,0.41948986053466797,-0.6774529814720154
1683935708155247600,12.07324755859375,0.13276821374893188,0.46003150939941406,-0.5907576680183411
1683935708165288700,12.083288818359375,-0.3019182085990906,0.4888334274291992,-0.4504786729812622
1683935708175329800,12.093329833984376,-0.7327491641044617,0.5126142501831055,-0.30910277366638184
1683935708185371000,12.103370849609375,-1.1373910903930664,0.5595951080322266,-0.12053143978118896
1683935708195412000,12.113411865234376,-1.3013190031051636,0.5170764923095703,0.07243132591247559
1683935708205452800,12.123452880859375,-1.252605676651001,0.4353923797607422,0.1963428258895874
1683935708215494000,12.133493896484374,-1.002112627029419,0.27449703216552734,0.2595634460449219
1683935708225535000,12.143534912109375,-0.6944592595100403,0.05933570861816406,0.2735675573348999
1683935708235576000,12.153576171875,-0.33712172508239746,-0.13509273529052734,0.3213084936141968
1683935708245617200,12.1636171875,-0.0945553183555603,-0.19166851043701172,0.3354071378707886
1683935708255658000,12.173657958984375,0.004569709300994873,-0.15159034729003906,0.34543490409851074
1683935708265699000,12.183698974609374,0.07446885108947754,-0.12074947357177734,0.3709385395050049
1683935708275740200,12.193740234375,-0.009354174137115479,-0.047066688537597656,0.37487101554870605
1683935708285781200,12.20378125,-0.22646582126617432,0.1359720230102539,0.34965407848358154
1683935708295822300,12.213822265625,-0.47823482751846313,0.19637775421142578,0.3910648822784424
1683935708305863200,12.22386328125,-0.7388695478439331,0.2565765380859375,0.409879207611084
1683935708315904300,12.233904296875,-0.9905105829238892,0.27618885040283203,0.45806002616882324
1683935708325945300,12.2439453125,-1.1278629302978516,0.2766704559326172,0.48343729972839355
1683935708335986400,12.253986328125,-1.1577303409576416,0.25552940368652344,0.5341544151306152
1683935708346027500,12.264027587890626,-1.1411986351013184,0.2009143829345703,0.5173695087432861
1683935708356068400,12.274068359375,-1.1827285289764404,0.1438770294189453,0.5331673622131348
1683935708366109400,12.284109375,-1.2958705425262451,0.06983184814453125,0.4321877956390381
1683935708376150500,12.294150634765625,-1.4181029796600342,0.06708812713623047,0.23806190490722656
1683935708386191600,12.304191650390624,-1.3995146751403809,0.12843036651611328,-0.02004265785217285
1683935708396232700,12.314232666015625,-1.27754807472229,0.22756481170654297,-0.29167628288269043
1683935708406273800,12.324273681640625,-1.0754592418670654,0.22115516662597656,-0.5865870714187622
1683935708416314600,12.334314697265626,-0.9648851752281189,0.15726947784423828,-0.7736564874649048
1683935708426355700,12.344355712890625,-0.8432711958885193,0.05047607421875,-0.9722309112548828
1683935708436396800,12.354396728515624,-0.7770989537239075,-0.020028114318847656,-1.0616532564163208
1683935708446438000,12.36443798828125,-0.7657308578491211,-0.058829307556152344,-1.0386286973953247
1683935708456478700,12.374478759765625,-0.7667250633239746,-0.09952926635742188,-0.9660978317260742
1683935708466519800,12.384519775390626,-0.7286227941513062,-0.0013141632080078125,-0.8614745140075684
1683935708476561000,12.394560791015625,-0.7074492573738098,0.07776832580566406,-0.7778892517089844
1683935708486602000,12.40460205078125,-0.7201100587844849,0.20453453063964844,-0.6893744468688965
1683935708496643000,12.41464306640625,-0.8019256591796875,0.2951469421386719,-0.6273857355117798
1683935708506684200,12.42468408203125,-0.8968496322631836,0.29225730895996094,-0.5873410701751709
1683935708516725000,12.43472509765625,-1.0004371404647827,0.24869728088378906,-0.6188116073608398
1683935708526766000,12.44476611328125,-1.1057969331741333,0.23637104034423828,-0.6849738359451294
1683935708536807200,12.45480712890625,-1.223043441772461,0.20770263671875,-0.6867544651031494
1683935708546848300,12.46484814453125,-1.2484052181243896,0.2009754180908203,-0.5931735038757324
1683935708556889300,12.474889404296874,-1.2155437469482422,0.22322845458984375,-0.4931952953338623
1683935708566930200,12.48493017578125,-1.1158525943756104,0.26485443115234375,-0.39887166023254395
1683935708576971300,12.49497119140625,-0.9722409248352051,0.2875947952270508,-0.2578151226043701
1683935708587012400,12.505012451171876,-0.8341847658157349,0.2652454376220703,-0.13950896263122559
1683935708597053400,12.515053466796875,-0.7295277118682861,0.3341083526611328,-0.0892181396484375
1683935708607094500,12.525094482421874,-0.6448637247085571,0.4007091522216797,-0.00937199592590332
1683935708617135600,12.535135498046875,-0.6278896331787109,0.43152332305908203,0.06617093086242676
