time,seconds_elapsed,z,y,x
1684109028606213400,0.04721337890625,0,0,0
1684109028616254500,0.05725439453125,0.056661128997802734,0.08552932739257812,0.08722543716430664
1684109028626295800,0.0672958984375,-0.04609823226928711,0.1409285068511963,0.10481071472167969
1684109028636337200,0.077337158203125,0.01879739761352539,0.06753897666931152,0.007786750793457031
1684109028646378200,0.087378173828125,0.1111593246459961,-0.009323835372924805,-0.09681367874145508
1684109028656419600,0.097419677734375,0.010243415832519531,-0.02549600601196289,-0.22283601760864258
1684109028666461000,0.1074609375,0.004834651947021484,-0.02558112144470215,-0.16958856582641602
1684109028676502000,0.117501953125,0.0912771224975586,-0.07504153251647949,-0.1736612319946289
1684109028686543400,0.12754345703125,0.10061788558959961,-0.10418486595153809,-0.19849157333374023
1684109028696584400,0.13758447265625,0.11033010482788086,-0.05928206443786621,-0.10697364807128906
1684109028706625800,0.147625732421875,-0.23003387451171875,0.08870410919189453,-0.2046198844909668
1684109028716667100,0.157667236328125,-0.3601226806640625,0.21782970428466797,-0.275362491607666
1684109028726708200,0.167708251953125,-0.18476104736328125,0.23082876205444336,-0.3013033866882324
1684109028736749600,0.17774951171875,0.9481968879699707,0.09115171432495117,-0.894132137298584
1684109028746791000,0.187791015625,1.4764094352722168,0.4968879222869873,-0.4383883476257324
1684109028756832000,0.19783203125,0.8334612846374512,1.3127609491348267,-0.07447671890258789
1684109028766873300,0.207873291015625,0.0773153305053711,-0.015913009643554688,0.4262423515319824
1684109028776914700,0.217914794921875,-0.09097099304199219,-0.30573058128356934,0.3116006851196289
1684109028786955800,0.227955810546875,-0.1549549102783203,-0.335343599319458,0.24901294708251953
1684109028796997000,0.2379970703125,-0.18864679336547852,-0.25704431533813477,-0.17118453979492188
1684109028807038200,0.2480380859375,-0.09046077728271484,-0.18053483963012695,-0.06565999984741211
1684109028817079600,0.25807958984375,-0.3573417663574219,-0.07609200477600098,0.07242727279663086
1684109028827121000,0.268120849609375,-0.6118588447570801,-0.02890324592590332,0.033107757568359375
1684109028837162000,0.278161865234375,-0.5300040245056152,-0.07264876365661621,-0.14163637161254883
1684109028847203300,0.288203369140625,-0.3087167739868164,-0.003124237060546875,-0.3535346984863281
1684109028857244700,0.29824462890625,-0.12378501892089844,-0.01524496078491211,-0.6301045417785645
1684109028867285800,0.30828564453125,0.2090778350830078,-0.14120912551879883,-0.7343072891235352
1684109028877327000,0.3183271484375,0.3436703681945801,-0.2567329406738281,-0.8800592422485352
1684109028887368400,0.328368408203125,0.22089529037475586,-0.313448429107666,-0.7970142364501953
1684109028897409500,0.338409423828125,-0.05354571342468262,-0.1684880256652832,-0.4651627540588379
1684109028907451000,0.348450927734375,-0.33432650566101074,0.07479381561279297,-0.37554931640625
1684109028917492000,0.358491943359375,-0.6359317302703857,0.28189754486083984,-0.5913534164428711
1684109028927533300,0.368533203125,-0.5066595077514648,0.12658047676086426,-0.7272634506225586
1684109028937574700,0.37857470703125,-0.1136927604675293,-0.25385332107543945,-0.48642539978027344
1684109028947615700,0.38861572265625,0.3264772891998291,-0.2545011043548584,-0.6633644104003906
1684109028957657000,0.398656982421875,0.3767735958099365,-0.44351720809936523,-0.4859170913696289
1684109028967698400,0.408698486328125,0.23483896255493164,-0.5532815456390381,-0.41779136657714844
1684109028977739500,0.418739501953125,-0.18879210948944092,-0.2982213497161865,-0.5081701278686523
1684109028987780900,0.42878076171875,-0.558862566947937,-0.0184018611907959,-0.3978757858276367
1684109028997822000,0.438822021484375,-1.0167046785354614,0.020741939544677734,-0.10589122772216797
1684109029007863300,0.44886328125,-1.2033716440200806,-0.010660171508789062,-0.06193828582763672
1684109029017904600,0.458904541015625,-1.2904850244522095,-0.05836820602416992,0.3073711395263672
1684109029027945700,0.46894580078125,-1.3883846998214722,0.336395263671875,-0.03755474090576172
1684109029037987000,0.478987060546875,-1.4342448711395264,0.7373964786529541,-0.34706592559814453
1684109029048028400,0.4890283203125,-1.163060188293457,0.9969089031219482,-0.5037775039672852
1684109029058069500,0.499069580078125,-0.8868390321731567,0.6538510322570801,-0.30780792236328125
1684109029068110800,0.50911083984375,-0.3772421181201935,-0.004355907440185547,-0.13734722137451172
1684109029078152200,0.519152099609375,-0.0007425504736602306,-0.1173257827758789,-0.583064079284668
1684109029088193300,0.529193359375,-0.01129210740327835,-0.04056358337402344,-1.3711662292480469
1684109029098234600,0.539234619140625,-0.36870965361595154,-0.2814769744873047,-1.530442237854004
1684109029108275700,0.549275634765625,-0.29893723130226135,-0.5813779830932617,-0.7420210838317871
1684109029118317000,0.559317138671875,0.0012479424476623535,-0.6733832359313965,-0.6735482215881348
1684109029128358400,0.5693583984375,0.004506349563598633,-0.8264098167419434,-0.6466922760009766
1684109029138399500,0.5793994140625,-0.7343873977661133,-0.9511432647705078,-0.20590591430664062
1684109029148440800,0.58944091796875,-0.9500781893730164,-0.6376528739929199,0.22666549682617188
1684109029158482000,0.59948193359375,-0.8450918793678284,-0.17773771286010742,0.2963275909423828
1684109029168523300,0.609523193359375,-0.8367996215820312,-0.05170249938964844,0.34144020080566406
1684109029178564600,0.619564697265625,-0.7009332776069641,0.22526931762695312,-0.1917119026184082
1684109029188605700,0.629605712890625,-0.5223549604415894,0.4608931541442871,-0.7616539001464844
1684109029198647000,0.63964697265625,-0.38387250900268555,0.5735831260681152,-0.8134064674377441
1684109029208688400,0.6496884765625,-0.3313242793083191,0.5239853858947754,-0.7533183097839355
1684109029218729500,0.6597294921875,-0.2662908434867859,0.27281665802001953,-0.3702387809753418
1684109029228770800,0.669770751953125,-0.031031370162963867,-0.004657745361328125,0.26582956314086914
1684109029238812000,0.67981201171875,0.20769256353378296,-0.3188915252685547,1.1899967193603516
1684109029248853200,0.689853271484375,0.2819820046424866,-0.41692304611206055,2.0014853477478027
1684109029258894600,0.69989453125,0.06533676385879517,-0.8138623237609863,3.021737575531006
1684109029268935700,0.709935791015625,0.008255958557128906,-1.0018105506896973,3.3797922134399414
1684109029278977000,0.71997705078125,-0.2051246166229248,-0.4332618713378906,2.793553352355957
1684109029289018400,0.730018310546875,-0.18155360221862793,-0.16699647903442383,1.8109350204467773
1684109029299059500,0.7400595703125,-0.38321197032928467,-0.44755125045776367,1.3046479225158691
1684109029309100800,0.750100830078125,-0.6198858022689819,-0.8441276550292969,0.8181757926940918
1684109029319142100,0.76014208984375,-0.8938384056091309,-0.882441520690918,0.03816986083984375
1684109029329183200,0.770183349609375,-0.9947441816329956,-0.9035639762878418,-0.3895258903503418
1684109029339224600,0.780224609375,-0.8994895219802856,-1.0065207481384277,-0.629401683807373
1684109029349265700,0.790265625,-0.676233172416687,-1.1474080085754395,-0.6197605133056641
1684109029359307000,0.80030712890625,-0.5540869235992432,-1.2237286567687988,-0.3135061264038086
1684109029369348400,0.810348388671875,-0.4123959541320801,-1.168257713317871,-0.0570216178894043
1684109029379389400,0.820389404296875,-0.394730806350708,-1.2331814765930176,0.20261096954345703
1684109029389430800,0.8304306640625,-0.390927791595459,-0.9607038497924805,0.281130313873291
1684109029399472000,0.84047216796875,-0.34811580181121826,-0.5774545669555664,0.25792503356933594
1684109029409513200,0.85051318359375,-0.4699103832244873,-0.7656779289245605,0.2786898612976074
1684109029419554600,0.860554443359375,-0.4762697219848633,-0.7417101860046387,0.43195438385009766
1684109029429595600,0.870595703125,-0.5124845504760742,-0.7949357032775879,0.5036053657531738
1684109029439637000,0.880636962890625,-0.6414560079574585,-0.873321533203125,0.29518556594848633
1684109029449678300,0.89067822265625,-0.48261451721191406,-0.911719799041748,0.03705549240112305
1684109029459719400,0.900719482421875,-0.4136335849761963,-0.8966183662414551,-0.5294671058654785
1684109029469760800,0.9107607421875,-0.1793503761291504,-1.0629801750183105,-0.6940436363220215
1684109029479801900,0.9208017578125,0.048546791076660156,-0.6758360862731934,-0.697758674621582
1684109029489843200,0.93084326171875,0.1149296760559082,-0.24599075317382812,-0.5455756187438965
1684109029499884500,0.940884521484375,-0.21766281127929688,-0.33496665954589844,-0.41845178604125977
1684109029509925600,0.950925537109375,-0.36066699028015137,-0.5643129348754883,-0.4384288787841797
1684109029519967000,0.960967041015625,-0.2974693775177002,-0.7187228202819824,-0.45439720153808594
1684109029530008300,0.97100830078125,-0.17838478088378906,-0.5901260375976562,-0.6930727958679199
1684109029540049400,0.98104931640625,-0.13982105255126953,-0.6323370933532715,-0.5200014114379883
1684109029550090800,0.9910908203125,-0.16779112815856934,-0.6060562133789062,-0.6021738052368164
1684109029560132000,1.001132080078125,-0.0001475811004638672,-0.5309944152832031,-0.6893453598022461
1684109029570173200,1.011173095703125,0.21889185905456543,-0.2740025520324707,-0.8929548263549805
1684109029580214500,1.021214599609375,0.23843073844909668,-0.5873956680297852,-1.0896992683410645
1684109029590255600,1.031255615234375,0.1860644817352295,-0.4630584716796875,-1.450608730316162
1684109029600297000,1.041296875,0.15915870666503906,-0.7168898582458496,-1.4008374214172363
1684109029610338000,1.051338134765625,0.2766590118408203,-0.8112101554870605,-0.8520307540893555
1684109029620379400,1.06137939453125,0.4789135456085205,-0.49845314025878906,-0.500206470489502
1684109029630420700,1.071420654296875,0.6089837551116943,-0.46599721908569336,-0.02863168716430664
1684109029640461800,1.0814619140625,0.6346609592437744,-0.35125112533569336,0.2766566276550293
1684109029650503200,1.091503173828125,0.4886002540588379,-0.39659929275512695,0.3109750747680664
1684109029660544500,1.10154443359375,0.39066004753112793,-0.4760308265686035,0.23696660995483398
1684109029670585600,1.111585693359375,0.3437917232513428,-0.4702305793762207,0.06361722946166992
1684109029680627000,1.121626953125,0.23095464706420898,-0.6560378074645996,-0.01238250732421875
1684109029690668300,1.131668212890625,0.14384770393371582,-0.6086578369140625,-0.07604169845581055
1684109029700709400,1.14170947265625,0.018088817596435547,-0.2262587547302246,0.06585979461669922
1684109029710750700,1.151750732421875,0.2309434413909912,-0.026147842407226562,0.019549846649169922
1684109029720791800,1.161791748046875,0.13839960098266602,-0.6056175231933594,-0.5958528518676758
1684109029730833200,1.171833251953125,-0.07024312019348145,-0.8631758689880371,-1.2737536430358887
1684109029740874500,1.18187451171875,-0.1601576805114746,-0.8403339385986328,-1.5451951026916504
1684109029750915600,1.19191552734375,-0.2905294895172119,-1.0297183990478516,-1.466050624847412
1684109029760957000,1.20195703125,-0.48826074600219727,-0.884028434753418,-1.354952335357666
1684109029770998000,1.211998046875,-0.6122283935546875,-0.7980709075927734,-1.2298917770385742
1684109029781039400,1.222039306640625,-0.7696866989135742,-0.7309927940368652,-1.0339398384094238
1684109029791080700,1.232080810546875,-0.9106171131134033,-0.48064756393432617,-0.9465508460998535
1684109029801121800,1.242121826171875,-0.8153634071350098,-0.4695892333984375,-0.5676722526550293
1684109029811163100,1.2521630859375,-0.45697879791259766,-0.5529470443725586,-0.08755779266357422
1684109029821204500,1.26220458984375,-0.3375222682952881,0.6615571975708008,0.5261006355285645
1684109029831245600,1.27224560546875,-0.7240710258483887,-0.4914889335632324,0.04001045227050781
1684109029841287000,1.282286865234375,-0.34798550605773926,-0.7051734924316406,0.15407419204711914
1684109029851328000,1.292327880859375,-0.34585142135620117,-0.15624761581420898,0.33109474182128906
1684109029861369300,1.302369384765625,-0.34163403511047363,-0.05112457275390625,0.32738685607910156
1684109029871410700,1.31241064453125,-0.09377121925354004,-0.18880367279052734,0.475435733795166
1684109029881451800,1.32245166015625,0.003538370132446289,-0.2942185401916504,0.8142976760864258
1684109029891493000,1.3324931640625,-0.0664832592010498,-0.06821012496948242,0.9503068923950195
1684109029901534500,1.342534423828125,-0.2135181427001953,0.1435847282409668,0.9749383926391602
1684109029911575600,1.352575439453125,-0.3860766887664795,0.22351455688476562,0.5354499816894531
1684109029921617000,1.362616943359375,-0.5899081230163574,0.251497745513916,0.0453033447265625
1684109029931658000,1.372657958984375,-0.7243306636810303,0.08013629913330078,-0.6656131744384766
1684109029941699300,1.38269921875,-0.8682243824005127,-0.0888071060180664,-1.1558103561401367
1684109029951740700,1.39274072265625,-0.7956404685974121,-0.08680248260498047,-1.3249201774597168
1684109029961781800,1.40278173828125,-0.5818653106689453,-0.0034966468811035156,-1.5114049911499023
1684109029971823000,1.412822998046875,-0.3982975482940674,0.2944173812866211,-1.5538640022277832
1684109029981864200,1.4228642578125,-0.2715456485748291,0.7109322547912598,-1.3686118125915527
1684109029991905500,1.432905517578125,-0.24930834770202637,0.45168352127075195,-0.5630011558532715
1684109030001947000,1.44294677734375,-0.1660902500152588,0.27426576614379883,-0.2299947738647461
1684109030011988000,1.452988037109375,0.07622766494750977,0.42866086959838867,-0.5042319297790527
1684109030022029300,1.463029296875,0.001150369644165039,-0.0607762336730957,-0.6100006103515625
1684109030032070700,1.473070556640625,0.0290987491607666,-0.31267261505126953,-0.6960625648498535
1684109030042111700,1.48311181640625,0.22571372985839844,0.04344606399536133,-1.2853503227233887
1684109030052153000,1.493153076171875,0.4224724769592285,0.536125659942627,-1.1474881172180176
1684109030062194200,1.503194091796875,0.6449124813079834,-0.5531415939331055,-1.0379400253295898
1684109030072235500,1.513235595703125,1.0517339706420898,-0.33936548233032227,-1.243089199066162
1684109030082276900,1.52327685546875,1.3997914791107178,0.5093207359313965,-1.5283656120300293
1684109030092318000,1.53331787109375,1.3626856803894043,0.8734655380249023,-1.7197904586791992
1684109030102359300,1.543359375,1.0210535526275635,0.5846858024597168,-1.2578344345092773
1684109030112400400,1.553400390625,0.49837374687194824,0.5013241767883301,-0.7749042510986328
1684109030122441700,1.563441650390625,-0.0030710697174072266,0.7246956825256348,-0.4325742721557617
1684109030132483000,1.573483154296875,-0.4027132987976074,0.5006523132324219,-0.28172874450683594
1684109030142524200,1.583524169921875,-0.4734501838684082,-0.040350914001464844,-0.20120763778686523
1684109030152565500,1.5935654296875,-0.21391010284423828,-0.16679143905639648,-0.3038191795349121
1684109030162606800,1.60360693359375,0.0712580680847168,-0.24364757537841797,-0.37660932540893555
1684109030172648000,1.61364794921875,0.16925859451293945,-0.041352272033691406,-0.4462161064147949
1684109030182689300,1.623689208984375,-0.10623645782470703,-0.4172043800354004,-0.4305744171142578
1684109030192730400,1.63373046875,-0.13584470748901367,-0.27576637268066406,-0.4654226303100586
1684109030202771700,1.643771728515625,-0.16589736938476562,-0.2712712287902832,-0.37604236602783203
1684109030212813000,1.65381298828125,0.022238492965698242,-0.4260869026184082,-0.34587621688842773
1684109030222854100,1.663854248046875,0.06891322135925293,-0.5374841690063477,-0.34342288970947266
1684109030232895500,1.6738955078125,-0.2035233974456787,-0.6487140655517578,-0.24622344970703125
1684109030242936800,1.683936767578125,-0.6840214729309082,-0.5284862518310547,-0.12155866622924805
1684109030252978000,1.69397802734375,-1.2227909564971924,-0.3807659149169922,0.19547748565673828
1684109030263019300,1.704019287109375,-1.4417533874511719,-0.41716861724853516,0.3928985595703125
1684109030273060400,1.714060302734375,-1.5179986953735352,-0.4261598587036133,0.24367284774780273
1684109030283101700,1.724101806640625,-1.4832861423492432,-0.530670166015625,0.30556344985961914
1684109030293143000,1.73414306640625,-1.340409278869629,-0.7138986587524414,0.4635143280029297
1684109030303184100,1.74418408203125,-1.2884995937347412,-0.768181324005127,0.4962887763977051
1684109030313225500,1.7542255859375,-1.2829654216766357,-0.9339003562927246,0.5384154319763184
1684109030323266800,1.764266845703125,-1.4431283473968506,-1.036201000213623,0.5260829925537109
1684109030333308000,1.774307861328125,-1.7460827827453613,-0.2649726867675781,0.41192007064819336
1684109030343349200,1.784349365234375,-2.5063064098358154,-0.5077896118164062,0.4377717971801758
1684109030353390300,1.794390380859375,-3.407243013381958,-0.18547916412353516,0.32574462890625
1684109030363431700,1.804431640625,-3.37882661819458,-0.8739209175109863,-0.028487205505371094
1684109030373473000,1.81447314453125,-2.484665870666504,-0.22565269470214844,-0.40223169326782227
1684109030383514000,1.82451416015625,-2.137524366378784,0.49150657653808594,-0.38877010345458984
1684109030393555500,1.834555419921875,-1.3509314060211182,0.22361469268798828,0.08459186553955078
1684109030403596500,1.844596435546875,0.22092962265014648,0.22553586959838867,-0.17104148864746094
1684109030413638000,1.854637939453125,0.5843597650527954,0.5320043563842773,-0.34991979598999023
1684109030423679200,1.86467919921875,-0.3935861587524414,-0.43317699432373047,0.020702362060546875
1684109030433720300,1.87472021484375,-0.02802300453186035,-1.3806343078613281,0.18543291091918945
1684109030443761700,1.88476171875,0.7516512870788574,-1.295989990234375,0.10348844528198242
1684109030453802800,1.894802734375,1.194227695465088,-0.8153324127197266,-0.36791133880615234
1684109030463844000,1.904843994140625,0.9053324460983276,-0.7029542922973633,-0.8003294467926025
1684109030473885400,1.914885498046875,0.5360249280929565,-0.38729286193847656,-0.9913856983184814
1684109030483926500,1.924926513671875,0.3794231414794922,-0.09595108032226562,-0.9054450988769531
1684109030493968000,1.9349677734375,0.4732825756072998,0.34709644317626953,-0.6005206108093262
1684109030504009200,1.94500927734375,0.5770506858825684,0.4911670684814453,-0.2983841896057129
1684109030514050300,1.95505029296875,0.8407851457595825,0.5403766632080078,-0.13105154037475586
1684109030524091600,1.965091552734375,1.3594655990600586,0.7328815460205078,-0.14844369888305664
1684109030534132700,1.9751328125,1.9609216451644897,0.8510017395019531,-0.22203731536865234
1684109030544174000,1.985174072265625,2.538353443145752,0.84161376953125,-0.29973530769348145
1684109030554215400,1.99521533203125,2.989841938018799,0.9649457931518555,-0.15871858596801758
1684109030564256500,2.005256591796875,3.124250888824463,0.9408745765686035,-0.09164285659790039
1684109030574297900,2.0152978515625,2.8767852783203125,1.0496397018432617,-0.03926897048950195
1684109030584339000,2.0253388671875,2.311293363571167,0.907341480255127,0.14743614196777344
1684109030594380300,2.03538037109375,1.6118520498275757,0.6954374313354492,0.20976829528808594
1684109030604421600,2.045421630859375,0.8690592050552368,0.39769554138183594,0.32455873489379883
1684109030614462700,2.055462646484375,0.19993281364440918,-0.15420246124267578,0.5722479820251465
1684109030624504000,2.065504150390625,-0.294445276260376,-0.49965858459472656,0.6553835868835449
1684109030634545400,2.07554541015625,-0.6529273390769958,-0.7829132080078125,0.661372184753418
1684109030644586500,2.08558642578125,-0.8139457702636719,-0.9154567718505859,0.3741340637207031
1684109030654627800,2.0956279296875,-0.7783238887786865,-0.8172531127929688,-0.0376286506652832
1684109030664669000,2.1056689453125,-0.5543035268783569,-0.8803577423095703,-0.5481972694396973
1684109030674710300,2.115710205078125,-0.10119807720184326,-0.6551675796508789,-1.0992796421051025
1684109030684751600,2.125751708984375,0.1583976149559021,-0.5871057510375977,-1.3741018772125244
1684109030694792700,2.135792724609375,0.5982914566993713,-0.6750516891479492,-1.3171391487121582
1684109030704834000,2.145833984375,0.9583885669708252,-0.6671419143676758,-1.0687994956970215
1684109030714875100,2.155875244140625,1.0578718185424805,-0.10895538330078125,-1.0086078643798828
1684109030724916500,2.16591650390625,0.5495224595069885,-0.6856355667114258,-0.9074814319610596
1684109030734957800,2.175957763671875,0.6068106889724731,-0.5460271835327148,-0.9865801334381104
1684109030744999000,2.1859990234375,0.5981358885765076,-0.27844810485839844,-0.9757552146911621
1684109030755040300,2.196040283203125,0.5313737392425537,-0.31061553955078125,-0.8649680614471436
1684109030765081600,2.20608154296875,0.6120150685310364,-0.2650747299194336,-0.7246203422546387
1684109030775122700,2.216122802734375,0.8535903096199036,-0.31023120880126953,-0.36653947830200195
1684109030785164000,2.2261640625,1.1814963817596436,-0.3132343292236328,-0.05373024940490723
1684109030795205000,2.236205078125,1.4950495958328247,-0.45127296447753906,0.23316645622253418
1684109030805246500,2.24624658203125,1.7356951236724854,-0.6424875259399414,0.3029634952545166
1684109030815287800,2.256287841796875,1.8495222330093384,-0.6980819702148438,0.34946608543395996
1684109030825329000,2.266328857421875,1.7555103302001953,-0.5754566192626953,0.2994205951690674
1684109030835370200,2.276370361328125,1.5371394157409668,-0.4848146438598633,0.19045090675354004
1684109030845411300,2.286411376953125,1.3228299617767334,-0.39980411529541016,0.20222687721252441
1684109030855452700,2.29645263671875,1.1522384881973267,-0.5253849029541016,0.2510342597961426
1684109030865494000,2.306493896484375,1.1315200328826904,-1.227778434753418,0.8396422863006592
1684109030875535000,2.31653515625,1.2603845596313477,-0.6592283248901367,0.6521196365356445
1684109030885576400,2.326576416015625,1.238423228263855,-0.42972469329833984,0.3515768051147461
1684109030895617800,2.33661767578125,1.1467727422714233,-0.4172353744506836,0.1781630516052246
1684109030905659000,2.346658935546875,0.9071773290634155,-0.39015865325927734,0.23252415657043457
1684109030915700200,2.3567001953125,0.6232328414916992,-0.2639493942260742,0.10795402526855469
1684109030925741300,2.3667412109375,0.38483625650405884,-0.23618316650390625,-0.09984660148620605
1684109030935782700,2.37678271484375,0.13064521551132202,0.4849987030029297,0.07832932472229004
1684109030945824000,2.386823974609375,-0.3858089745044708,0.5988712310791016,0.499434232711792
1684109030955865000,2.396864990234375,-0.49528783559799194,0.23133087158203125,0.3919186592102051
1684109030965906400,2.406906494140625,-0.1479032337665558,-0.0694122314453125,0.1742267608642578
1684109030975947500,2.416947509765625,0.2816356420516968,0.2688474655151367,0.16792917251586914
1684109030985988900,2.42698876953125,0.35185277462005615,0.24088287353515625,0.12073898315429688
1684109030996030200,2.4370302734375,0.38054394721984863,-0.37567806243896484,0.009698152542114258
1684109031006071300,2.4470712890625,0.5013685822486877,0.040721893310546875,-0.00891256332397461
1684109031016112600,2.457112548828125,0.42082417011260986,0.2157602310180664,0.03771090507507324
1684109031026154000,2.467154052734375,0.31099891662597656,-0.034890174865722656,0.10771751403808594
1684109031036195000,2.477195068359375,0.28473150730133057,0.14823532104492188,0.44755125045776367
1684109031046236400,2.487236328125,0.09649354219436646,-0.16505718231201172,0.7732479572296143
1684109031056277500,2.497277587890625,0.046169400215148926,-0.02580547332763672,1.1487023830413818
1684109031066318800,2.50731884765625,0.07304936647415161,0.3066139221191406,1.2702133655548096
1684109031076360200,2.517360107421875,0.22566643357276917,0.4885387420654297,1.394960880279541
1684109031086401300,2.5274013671875,0.4955853819847107,0.41530609130859375,1.4837543964385986
1684109031096442600,2.537442626953125,0.7836165428161621,0.3217954635620117,1.4488584995269775
1684109031106484000,2.54748388671875,1.2772109508514404,0.25671863555908203,1.409663438796997
1684109031116525000,2.557525146484375,1.5282294750213623,-0.21942424774169922,1.4092292785644531
1684109031126566400,2.56756640625,1.4708694219589233,-0.1641693115234375,1.0922446250915527
1684109031136607500,2.577607421875,1.28094482421875,0.20937156677246094,0.5923585891723633
1684109031146648800,2.58764892578125,1.0281777381896973,0.1448221206665039,0.012478113174438477
1684109031156690200,2.597690185546875,0.6613786220550537,0.014560699462890625,-0.5678722858428955
1684109031166731300,2.607731201171875,0.29693400859832764,-0.06833648681640625,-0.8316423892974854
1684109031176772600,2.617772705078125,-0.03605112433433533,-0.08988571166992188,-0.7802231311798096
1684109031186813700,2.627813720703125,-0.29007455706596375,-0.13882827758789062,-0.6992185115814209
1684109031196855000,2.63785498046875,-0.604421854019165,-0.33420372009277344,-0.6529133319854736
1684109031206896400,2.647896484375,-0.6366337537765503,-0.334259033203125,-0.5384340286254883
1684109031216937500,2.6579375,-0.54893958568573,-0.2974691390991211,-0.48585057258605957
1684109031226978800,2.667978759765625,-0.4348525404930115,-0.6010379791259766,-0.5004587173461914
1684109031237020200,2.678020263671875,-0.03157171234488487,-0.43903064727783203,-0.5154082775115967
1684109031247061200,2.688061279296875,0.13469944894313812,-0.1681509017944336,-0.7988204956054688
1684109031257102600,2.6981025390625,0.10911662876605988,0.8492155075073242,-0.547619104385376
1684109031267143700,2.708143798828125,0.403320848941803,1.911609172821045,-0.12459921836853027
1684109031277185000,2.71818505859375,0.9124871492385864,2.413142681121826,0.057825565338134766
1684109031287226400,2.728226318359375,0.8278423547744751,1.5602922439575195,0.39647531509399414
1684109031297267500,2.738267333984375,0.418584406375885,0.4748220443725586,0.5505497455596924
1684109031307308800,2.748308837890625,-0.1524374783039093,-0.8474798202514648,0.7602713108062744
1684109031317350000,2.758349853515625,-0.5714313387870789,-1.7988090515136719,0.7968623638153076
1684109031327391200,2.76839111328125,-0.8285356760025024,-2.2057008743286133,0.6028866767883301
1684109031337432600,2.7784326171875,-0.8826503753662109,-2.0633544921875,0.1538381576538086
1684109031347473700,2.7884736328125,-0.7010846734046936,-1.0434656143188477,-0.7322421073913574
1684109031357515000,2.798514892578125,-0.46510881185531616,-0.07404899597167969,-1.4220002889633179
1684109031367556400,2.808556396484375,-0.14170584082603455,0.21088409423828125,-0.982121467590332
1684109031377597400,2.818597412109375,0.09336045384407043,0.3179206848144531,-0.48506999015808105
1684109031387638800,2.828638671875,0.36135196685791016,0.33325767517089844,-0.1656322479248047
1684109031397679900,2.838679931640625,0.5499588251113892,0.28317832946777344,0.16216373443603516
1684109031407721200,2.84872119140625,0.6556648015975952,0.19820022583007812,0.3459646701812744
1684109031417762600,2.858762451171875,0.6845555901527405,0.13727760314941406,0.41492152214050293
1684109031427803600,2.8688037109375,0.6996160745620728,0.10719490051269531,0.41144347190856934
1684109031437845000,2.878844970703125,0.6815363168716431,0.06266403198242188,0.45781755447387695
1684109031447886300,2.88888623046875,0.5992043018341064,0.07308673858642578,0.5209894180297852
1684109031457927400,2.898927490234375,0.4615049660205841,-0.06719112396240234,0.5785458087921143
1684109031467968800,2.90896875,0.3967231512069702,-0.011951446533203125,0.6535084247589111
1684109031478010000,2.919010009765625,0.3287220001220703,-0.07204246520996094,0.7480692863464355
1684109031488051200,2.92905126953125,0.2817365229129791,-0.1778421401977539,0.8932197093963623
1684109031498092500,2.939092529296875,0.26885318756103516,-0.15703392028808594,0.9396519660949707
1684109031508133600,2.949133544921875,0.23785589635372162,-0.1416015625,0.977365255355835
1684109031518175000,2.959175048828125,0.1721971184015274,-0.07214832305908203,0.8765907287597656
1684109031528216000,2.969216064453125,0.14183034002780914,-0.025098800659179688,0.7214310169219971
1684109031538257400,2.97925732421875,0.12507370114326477,-0.04077625274658203,0.5984451770782471
1684109031548298800,2.989298828125,0.1398942619562149,0.003040313720703125,0.5253853797912598
1684109031558339800,2.99933984375,0.10910739004611969,-0.04648399353027344,0.47612762451171875
1684109031568381200,3.009381103515625,0.09827294945716858,-0.105560302734375,0.45992350578308105
1684109031578422500,3.019422607421875,0.07662440836429596,-0.061608314514160156,0.3251492977142334
1684109031588463600,3.029463623046875,0.06366068124771118,0.015810012817382812,0.35824108123779297
1684109031598505000,3.0395048828125,0.08286656439304352,0.17228317260742188,0.5001711845397949
1684109031608546300,3.04954638671875,-0.04744315147399902,0.13576889038085938,0.5298798084259033
1684109031618587400,3.05958740234375,-0.08797674626111984,0.14502429962158203,0.5442264080047607
1684109031628628700,3.069628662109375,-0.10562819987535477,0.3411121368408203,0.5331404209136963
1684109031638669800,3.079669921875,-0.049314118921756744,0.35812950134277344,0.6463038921356201
1684109031648711200,3.089711181640625,0.2115362286567688,0.6373920440673828,0.8256316184997559
1684109031658752500,3.09975244140625,0.2375548779964447,0.6576051712036133,0.8265933990478516
1684109031668793600,3.109793701171875,0.25279808044433594,0.6485986709594727,0.847484827041626
1684109031678835000,3.1198349609375,0.20884689688682556,0.6078271865844727,0.9110884666442871
1684109031688876000,3.1298759765625,0.086234450340271,0.40351009368896484,0.9955456256866455
1684109031698917400,3.13991748046875,0.08330514281988144,0.2270660400390625,0.9407958984375
1684109031708958700,3.149958740234375,0.11529678851366043,0.0453338623046875,0.8392975330352783
1684109031718999800,3.159999755859375,0.10152194648981094,-0.0744485855102539,0.7261228561401367
1684109031729041200,3.170041259765625,0.06559468805789948,-0.05078887939453125,0.5891180038452148
1684109031739082500,3.18008251953125,-0.00820547342300415,-0.041149139404296875,0.44228172302246094
1684109031749123600,3.19012353515625,-0.017249606549739838,0.06683635711669922,0.3030712604522705
1684109031759165000,3.2001650390625,0.03820617496967316,0.23447227478027344,0.2615089416503906
1684109031769206000,3.2102060546875,0.10260038077831268,0.3129768371582031,0.3172719478607178
1684109031779247400,3.220247314453125,0.23397313058376312,0.38797664642333984,0.3867499828338623
1684109031789288700,3.230288818359375,0.34825390577316284,0.44490718841552734,0.4236023426055908
1684109031799329800,3.240329833984375,0.5145922899246216,0.605778694152832,0.3977818489074707
1684109031809371100,3.25037109375,0.7215286493301392,0.9063711166381836,0.4916675090789795
1684109031819412500,3.26041259765625,0.9182024002075195,0.9955816268920898,0.6426272392272949
1684109031829453600,3.27045361328125,0.975503146648407,0.9493436813354492,0.8007009029388428
1684109031839495000,3.280494873046875,1.0030419826507568,0.7103796005249023,0.9760339260101318
1684109031849536300,3.290536376953125,0.9557479023933411,0.5644989013671875,0.9874906539916992
1684109031859577300,3.300577392578125,0.923101544380188,0.29373741149902344,1.0697267055511475
1684109031869618700,3.31061865234375,0.6427122354507446,-0.1018524169921875,0.9228804111480713
1684109031879659800,3.32065966796875,0.4206923246383667,-0.31378746032714844,0.7955634593963623
1684109031889701000,3.330701171875,0.47946590185165405,-0.12346076965332031,0.6578109264373779
1684109031899742500,3.340742431640625,0.4465377926826477,0.22007369995117188,0.5025672912597656
1684109031909783600,3.350783447265625,0.3041597902774811,0.3588848114013672,0.28112101554870605
1684109031919825000,3.360824951171875,0.1539362221956253,0.5322799682617188,-0.022284269332885742
1684109031929866200,3.3708662109375,0.004634968936443329,0.568140983581543,-0.22591662406921387
1684109031939907300,3.3809072265625,-0.09803061187267303,0.504389762878418,-0.4500136375427246
1684109031949948700,3.39094873046875,-0.18539489805698395,0.3028898239135742,-0.6222521066665649
1684109031959989800,3.40098974609375,-0.5023989677429199,-0.4683656692504883,-0.7898620367050171
1684109031970031000,3.411031005859375,-0.503358006477356,-0.5392026901245117,-0.9431478977203369
1684109031980072400,3.421072509765625,-0.7016822099685669,-0.6082239151000977,-1.0074862241744995
1684109031990113500,3.431113525390625,-0.5342416763305664,-0.12281608581542969,-0.8140370845794678
1684109032000155000,3.44115478515625,-0.053656771779060364,0.8252019882202148,-0.6191097497940063
1684109032010196000,3.451196044921875,0.31225812435150146,1.0679044723510742,-0.42875707149505615
1684109032020237300,3.4612373046875,0.34491294622421265,1.0771856307983398,-0.13267338275909424
1684109032030278700,3.471278564453125,0.33192944526672363,0.8387680053710938,0.14339709281921387
1684109032040319700,3.48131982421875,0.21778102219104767,0.5227174758911133,0.2381904125213623
1684109032050361000,3.491361083984375,0.02690097689628601,0.15371417999267578,0.058938026428222656
1684109032060402400,3.50140234375,-0.18082208931446075,-0.2313556671142578,-0.13653278350830078
1684109032070443500,3.511443603515625,-0.3916091322898865,-0.5720033645629883,-0.3566509485244751
1684109032080484900,3.52148486328125,-0.6014714241027832,-0.8196954727172852,-0.7617462873458862
1684109032090526200,3.531526123046875,-0.7453267574310303,-1.0075416564941406,-0.9571396112442017
1684109032100567300,3.5415673828125,-0.8739994764328003,-1.0644111633300781,-0.9355918169021606
1684109032110608600,3.551608642578125,-0.9214851260185242,-0.9650955200195312,-0.8825972080230713
1684109032120649700,3.561649658203125,-0.9546823501586914,-0.8158254623413086,-0.8399827480316162
1684109032130691000,3.571691162109375,-0.9885103106498718,-0.739018440246582,-0.7575991153717041
1684109032140732400,3.581732421875,-0.979090690612793,-0.6680583953857422,-0.6898558139801025
1684109032150773500,3.5917734375,-0.954271137714386,-0.6128129959106445,-0.652391791343689
1684109032160814800,3.60181494140625,-0.9061856269836426,-0.6164827346801758,-0.5554149150848389
1684109032170856200,3.611856201171875,-0.8552753925323486,-0.5162343978881836,-0.5689620971679688
1684109032180897300,3.621897216796875,-0.7852813601493835,-0.430755615234375,-0.677861213684082
1684109032190938600,3.631938720703125,-0.6658399105072021,-0.3425884246826172,-0.6583037376403809
1684109032200979700,3.641979736328125,-0.5094358325004578,-0.2638359069824219,-0.5447472333908081
1684109032211021000,3.65202099609375,-0.3236484229564667,-0.14975261688232422,-0.3144505023956299
1684109032221062400,3.6620625,-0.15920086205005646,-0.015320777893066406,-0.1640552282333374
1684109032231103500,3.672103515625,-0.026903584599494934,0.11061477661132812,-0.09177899360656738
1684109032241144800,3.682144775390625,0.05797135829925537,0.12794208526611328,-0.05388462543487549
1684109032251186200,3.692186279296875,0.10666416585445404,0.13977336883544922,-0.016303539276123047
1684109032261227300,3.702227294921875,0.10761018097400665,0.002941131591796875,0.08566689491271973
1684109032271268600,3.7122685546875,0.035476624965667725,-0.19144248962402344,0.2064114809036255
1684109032281310000,3.72231005859375,-0.056785792112350464,-0.3190135955810547,0.27214717864990234
1684109032291351000,3.73235107421875,-0.26867756247520447,-0.49697399139404297,0.29975318908691406
1684109032301392400,3.742392333984375,-0.5078710317611694,-0.7609968185424805,0.28970396518707275
1684109032311433500,3.75243359375,-0.7279311418533325,-0.7452869415283203,0.19842314720153809
1684109032321474800,3.762474853515625,-0.9306492209434509,-0.6366157531738281,0.09681177139282227
1684109032331516200,3.77251611328125,-1.0649526119232178,-0.5307226181030273,-0.016965270042419434
1684109032341557200,3.78255712890625,-1.1134374141693115,-0.09073066711425781,-0.22010397911071777
1684109032351598600,3.7925986328125,-1.086188554763794,0.17871952056884766,-0.3471713066101074
1684109032361640000,3.802639892578125,-1.0009996891021729,0.19893264770507812,-0.44314825534820557
1684109032371681000,3.812680908203125,-0.8767423629760742,0.22108936309814453,-0.49532270431518555
1684109032381722400,3.822722412109375,-0.7281154990196228,0.45517539978027344,-0.5438235998153687
1684109032391763500,3.832763427734375,-0.6123828291893005,0.891026496887207,-0.5305196046829224
1684109032401804800,3.8428046875,-0.5472599267959595,1.3225555419921875,-0.5314944982528687
1684109032411846100,3.85284619140625,-0.4783468246459961,1.3841400146484375,-0.49154961109161377
1684109032421887200,3.86288720703125,-0.38452470302581787,1.095414161682129,-0.36788296699523926
1684109032431928600,3.872928466796875,-0.3939204216003418,0.8032503128051758,-0.3071240186691284
1684109032441970000,3.882969970703125,-0.48173391819000244,0.4627065658569336,-0.4340987205505371
1684109032452011000,3.893010986328125,-0.5415869951248169,0.1127166748046875,-0.5642527341842651
1684109032462052400,3.90305224609375,-0.5594698190689087,-0.404144287109375,-0.5068956613540649
1684109032472093700,3.91309375,-0.4588658809661865,-0.83428955078125,-0.4411275386810303
1684109032482134800,3.923134765625,-0.21958863735198975,-1.1059036254882812,-0.3967832326889038
1684109032492176100,3.933176025390625,0.11773574352264404,-1.4335861206054688,-0.4245936870574951
1684109032502217200,3.94321728515625,0.454606831073761,-1.6423015594482422,-0.41886281967163086
1684109032512258600,3.953258544921875,0.740159273147583,-1.3670463562011719,-0.38930845260620117
1684109032522300000,3.9632998046875,0.812044620513916,-0.9120197296142578,-0.5301244258880615
1684109032532341000,3.973341064453125,0.8373355865478516,-0.34366798400878906,-0.7498873472213745
1684109032542382300,3.98338232421875,0.7815466523170471,-0.01971435546875,-0.9566675424575806
1684109032552423700,3.993423583984375,0.7211248874664307,0.14647197723388672,-1.0369914770126343
1684109032562464800,4.00346484375,0.6479679346084595,0.13825607299804688,-1.082362174987793
1684109032572506000,4.013506103515625,0.5530731678009033,0.09183692932128906,-1.1345170736312866
1684109032582547500,4.02354736328125,0.37467527389526367,0.011800765991210938,-1.1895114183425903
1684109032592588500,4.033588623046875,0.13271427154541016,-0.08077049255371094,-1.0911203622817993
1684109032602630000,4.0436298828125,-0.2597249746322632,-0.21288204193115234,-0.8656697273254395
1684109032612671000,4.0536708984375,-1.0687716007232666,-0.2494192123413086,-0.5490351915359497
1684109032622712300,4.06371240234375,-2.0086841583251953,-0.20177555084228516,0.03786945343017578
1684109032632753700,4.073753662109375,-2.3058950901031494,0.01982593536376953,0.8556888103485107
1684109032642795000,4.083794921875,-1.9772120714187622,0.28652477264404297,1.570014238357544
1684109032652836000,4.093836181640625,-1.3779804706573486,0.6184682846069336,2.140907049179077
1684109032662877400,4.10387744140625,-0.6994339227676392,0.9665021896362305,2.394775152206421
1684109032672918500,4.11391845703125,0.005552530288696289,1.056452751159668,2.2787442207336426
1684109032682960000,4.1239599609375,0.7226929664611816,1.084507942199707,2.0402991771698
1684109032693001200,4.134001220703125,1.2889037132263184,1.0266857147216797,1.6249632835388184
1684109032703042300,4.144042236328125,1.5543533563613892,0.7353487014770508,1.050870656967163
1684109032713083600,4.154083740234375,1.4307218790054321,0.40979862213134766,0.4966716766357422
1684109032723125000,4.164125,1.0190229415893555,0.2753629684448242,-0.25211477279663086
1684109032733166000,4.174166015625,0.4338275194168091,0.26741981506347656,-1.0897520780563354
1684109032743207400,4.18420751953125,-0.05028223991394043,0.17836952209472656,-1.8452694416046143
1684109032753248500,4.19424853515625,-0.3291594982147217,0.054841041564941406,-2.2514941692352295
1684109032763289900,4.204289794921875,-0.4081099033355713,-0.04031562805175781,-2.3490331172943115
1684109032773331200,4.214331298828125,-0.40293335914611816,-0.18160152435302734,-1.9969747066497803
1684109032783372300,4.224372314453125,-0.4346001148223877,-0.3438386917114258,-1.5543241500854492
1684109032793413600,4.23441357421875,-0.5108730792999268,-0.5308647155761719,-1.0759083032608032
1684109032803455000,4.244455078125,-0.6517220735549927,-0.7035865783691406,-0.542218804359436
1684109032813496000,4.25449609375,-0.8577207326889038,-0.8180408477783203,-0.1299753189086914
1684109032823537400,4.264537353515625,-1.0271153450012207,-0.8827009201049805,0.18955230712890625
1684109032833578800,4.274578857421875,-1.0966527462005615,-0.9151887893676758,0.47046494483947754
1684109032843619800,4.284619873046875,-1.0554896593093872,-0.8681297302246094,0.7246338129043579
1684109032853661200,4.2946611328125,-0.9028990268707275,-0.6265401840209961,0.8094179630279541
1684109032863702500,4.30470263671875,-0.6506195068359375,-0.3831768035888672,0.7755181789398193
1684109032873743600,4.31474365234375,-0.4317021369934082,-0.22999286651611328,0.7464206218719482
1684109032883785000,4.324784912109375,-0.2669121026992798,-0.1159524917602539,0.7988508939743042
1684109032893826300,4.334826416015625,-0.19498014450073242,0.01886463165283203,0.8563774824142456
1684109032903867400,4.344867431640625,-0.2643669843673706,0.16251182556152344,0.7224913835525513
1684109032913908700,4.35490869140625,-0.4520219564437866,0.24576091766357422,0.5590912103652954
1684109032923949800,4.36494970703125,-0.6176155805587769,0.2640514373779297,0.41114723682403564
1684109032933991200,4.3749912109375,-0.7481042146682739,0.2581453323364258,0.29885852336883545
1684109032944032500,4.385032470703125,-0.7857663631439209,0.28778934478759766,0.22249865531921387
1684109032954073600,4.395073486328125,-0.7452082633972168,0.3146333694458008,0.2604498863220215
1684109032964115000,4.405114990234375,-0.6240302324295044,0.32907867431640625,0.3024454116821289
1684109032974156300,4.41515625,-0.45338737964630127,0.35983753204345703,0.3057760000228882
1684109032984197400,4.425197265625,-0.25038623809814453,0.4020805358886719,0.32992982864379883
1684109032994238700,4.43523876953125,-0.032584547996520996,0.4582223892211914,0.32914018630981445
1684109033004280000,4.445280029296875,0.13680291175842285,0.4638652801513672,0.30553627014160156
1684109033014321200,4.455321044921875,0.23073863983154297,0.40978336334228516,0.2930079698562622
1684109033024362500,4.465362548828125,0.2274315357208252,0.32967090606689453,0.2965158224105835
1684109033034403600,4.475403564453125,0.15586817264556885,0.1877431869506836,0.3207026720046997
1684109033044445000,4.48544482421875,0.047591209411621094,0.1441335678100586,0.2940206527709961
1684109033054486300,4.495486328125,-0.08994925022125244,0.03866863250732422,0.274572491645813
1684109033064527600,4.505527587890625,-0.22564184665679932,-0.075958251953125,0.2718827724456787
1684109033074568700,4.515568603515625,-0.33306264877319336,-0.17825889587402344,0.17842793464660645
1684109033084610000,4.525610107421875,-0.40734851360321045,-0.2156820297241211,0.11662054061889648
1684109033094651100,4.535651123046875,-0.438806414604187,-0.2982330322265625,0.010244131088256836
1684109033104692500,4.5456923828125,-0.41769957542419434,-0.35657787322998047,-0.047396063804626465
1684109033114733800,4.55573388671875,-0.3535958528518677,-0.3167266845703125,-0.13738548755645752
1684109033124775000,4.56577490234375,-0.2440885305404663,-0.32929325103759766,-0.1969594955444336
1684109033134816300,4.575816162109375,-0.09886336326599121,-0.2577552795410156,-0.2938920259475708
1684109033144857600,4.585857666015625,0.00047910213470458984,-0.2383861541748047,-0.3181959390640259
1684109033154898700,4.595898681640625,0.10124671459197998,-0.19482421875,-0.32187843322753906
1684109033164940000,4.60593994140625,0.155126690864563,-0.12716197967529297,-0.3773571252822876
1684109033174981000,4.615981201171875,0.1766413450241089,-0.07368659973144531,-0.4081234931945801
1684109033185022500,4.6260224609375,0.134796142578125,-0.017698287963867188,-0.4384423494338989
1684109033195063800,4.636063720703125,0.06799960136413574,-0.023836135864257812,-0.44294166564941406
1684109033205105200,4.646105224609375,-0.002071976661682129,-0.02761363983154297,-0.43916141986846924
1684109033215146200,4.656146240234375,-0.08683896064758301,-0.045864105224609375,-0.4392540454864502
1684109033225187600,4.6661875,-0.12138354778289795,-0.006787300109863281,-0.44682347774505615
1684109033235228700,4.676228759765625,-0.14336860179901123,0.04416179656982422,-0.3915722370147705
1684109033245270000,4.68627001953125,-0.14295291900634766,0.05908489227294922,-0.2668178081512451
1684109033255311400,4.696311279296875,-0.12038838863372803,0.07627105712890625,-0.19717204570770264
1684109033265352400,4.7063525390625,-0.07740437984466553,0.08973407745361328,-0.16565632820129395
1684109033275393800,4.716393798828125,-0.039881229400634766,0.11005210876464844,-0.12752699851989746
1684109033285435100,4.72643505859375,0.008520245552062988,0.1606616973876953,-0.14427626132965088
1684109033295476200,4.736476318359375,-0.0029293298721313477,0.19392967224121094,-0.11867785453796387
1684109033305517600,4.746517578125,-0.012079238891601562,0.17015838623046875,-0.14543068408966064
1684109033315559000,4.756558837890625,-0.01629459857940674,0.15851497650146484,-0.09891760349273682
1684109033325600000,4.76660009765625,-0.05782151222229004,0.06225776672363281,-0.05795145034790039
1684109033335641300,4.776641357421875,-0.08175802230834961,0.033448219299316406,-0.03654611110687256
1684109033345682700,4.7866826171875,-0.11893510818481445,-0.0655660629272461,-0.02948617935180664
1684109033355723800,4.796723876953125,-0.16469025611877441,-0.08292484283447266,0.017461538314819336
1684109033365765000,4.80676513671875,-0.18355965614318848,-0.14949893951416016,0.058737874031066895
1684109033375806500,4.816806396484375,-0.19021320343017578,-0.17264366149902344,0.10616827011108398
1684109033385847600,4.82684765625,-0.19893240928649902,-0.17195415496826172,0.15005064010620117
1684109033395889000,4.836888916015625,-0.1814429759979248,-0.14784622192382812,0.19973480701446533
1684109033405930200,4.84693017578125,-0.18997633457183838,-0.11011600494384766,0.23399364948272705
1684109033415971300,4.856971435546875,-0.19337332248687744,-0.04959678649902344,0.25309085845947266
1684109033426012700,4.8670126953125,-0.16851627826690674,0.01926708221435547,0.2384546995162964
1684109033436054000,4.877053955078125,-0.16528916358947754,0.044531822204589844,0.24005556106567383
1684109033446095000,4.88709521484375,-0.15965557098388672,0.041031837463378906,0.21997499465942383
1684109033456136400,4.897136474609375,-0.142287015914917,0.009282112121582031,0.183465838432312
1684109033466177500,4.907177490234375,-0.13461363315582275,0.018072128295898438,0.1757727861404419
1684109033476219000,4.917218994140625,-0.11756408214569092,0.047893524169921875,0.13763785362243652
1684109033486260200,4.92726025390625,-0.08433675765991211,0.051405906677246094,0.11006128787994385
1684109033496301300,4.93730126953125,-0.07532715797424316,0.08559989929199219,0.14248931407928467
1684109033506342700,4.9473427734375,-0.07826340198516846,0.08629226684570312,0.13921618461608887
1684109033516384000,4.957384033203125,-0.08835172653198242,0.0916910171508789,0.1523991823196411
1684109033526425000,4.967425048828125,-0.0533905029296875,0.03817558288574219,0.13979315757751465
1684109033536466400,4.977466552734375,-0.05178940296173096,-0.037962913513183594,0.15129518508911133
1684109033546507800,4.9875078125,-0.03812706470489502,-0.06341361999511719,0.14397430419921875
1684109033556548900,4.997548828125,-0.06691348552703857,-0.02250385284423828,0.14646244049072266
1684109033566590200,5.007590087890625,-0.06706559658050537,0.04130363464355469,0.12785673141479492
1684109033576631600,5.017631591796875,-0.06746435165405273,0.061730384826660156,0.14026319980621338
1684109033586672600,5.027672607421875,-0.05625748634338379,0.09128284454345703,0.10078752040863037
1684109033596714000,5.0377138671875,-0.05725681781768799,0.11572265625,0.13522076606750488
1684109033606755300,5.04775537109375,-0.03485894203186035,0.1020965576171875,0.15720629692077637
1684109033616796400,5.05779638671875,-0.0483851432800293,0.07457447052001953,0.13621139526367188
1684109033626837800,5.067837646484375,-0.06896758079528809,0.049864768981933594,0.13888859748840332
1684109033636879000,5.077879150390625,-0.10802876949310303,0.013745307922363281,0.11299431324005127
1684109033646920200,5.087920166015625,-0.1393059492111206,0.004077911376953125,0.08966755867004395
1684109033656961500,5.09796142578125,-0.168182373046875,-0.0007028579711914062,0.023994803428649902
1684109033667002600,5.108002685546875,-0.24947583675384521,-0.04993724822998047,-0.019347071647644043
1684109033677044000,5.1180439453125,-0.35919058322906494,-0.10486507415771484,-0.16384398937225342
1684109033687085300,5.128085205078125,-0.3609344959259033,-0.20505237579345703,-0.20852947235107422
1684109033697126700,5.138126708984375,-0.23483693599700928,-0.23911190032958984,-0.13813209533691406
1684109033707167700,5.148167724609375,-0.0728449821472168,-0.27230072021484375,0.027501940727233887
1684109033717209000,5.158208984375,0.07016324996948242,-0.14526844024658203,0.2541104555130005
1684109033727250200,5.168250244140625,0.25659918785095215,0.06151008605957031,0.2418520450592041
1684109033737291500,5.17829150390625,0.46382367610931396,0.21274757385253906,0.11542642116546631
1684109033747332900,5.188332763671875,0.6399457454681396,0.20600032806396484,0.052475690841674805
1684109033757374200,5.198374267578125,0.8035675883293152,0.08917045593261719,0.002630949020385742
1684109033767415300,5.208415283203125,0.9117833971977234,-0.062293052673339844,0.008922100067138672
1684109033777456600,5.21845654296875,0.9210003018379211,-0.16278839111328125,0.05602383613586426
1684109033787497700,5.228497802734375,0.7620701193809509,-0.2156515121459961,0.09557437896728516
1684109033797539000,5.2385390625,0.41417062282562256,-0.22929763793945312,0.13151001930236816
1684109033807580400,5.248580322265625,-0.08015012741088867,-0.24285411834716797,0.15579724311828613
1684109033817621800,5.258621826171875,-0.581830620765686,-0.32063770294189453,0.09283769130706787
1684109033827662800,5.268662841796875,-1.0374972820281982,-0.3632850646972656,0.17898595333099365
1684109033837704200,5.2787041015625,-1.501650094985962,-0.24255943298339844,0.520408034324646
1684109033847745300,5.288745361328125,-1.754259705543518,-0.05796051025390625,0.949715256690979
1684109033857786600,5.29878662109375,-1.7192951440811157,0.0600433349609375,1.2965362071990967
1684109033867828000,5.308827880859375,-1.5204836130142212,-0.11830711364746094,1.6150442361831665
1684109033877869000,5.318869140625,-1.2580188512802124,-0.2313375473022461,1.7760099172592163
1684109033887910400,5.328910400390625,-0.9898890256881714,-0.45357227325439453,1.7216383218765259
1684109033897951700,5.33895166015625,-0.790723443031311,-0.5783357620239258,1.5635796785354614
1684109033907992800,5.348992919921875,-0.7522615194320679,-0.8081684112548828,1.4126421213150024
1684109033918034200,5.3590341796875,-0.9350476264953613,-1.0210256576538086,1.4752726554870605
1684109033928075500,5.369075439453125,-1.2683476209640503,-1.1292457580566406,1.5381855964660645
1684109033938116600,5.37911669921875,-1.5516300201416016,-0.9838075637817383,1.56403648853302
1684109033948158000,5.389157958984375,-1.55978524684906,-0.7272176742553711,1.3608558177947998
1684109033958199300,5.39919921875,-1.3290057182312012,-0.4362068176269531,0.9379262924194336
1684109033968240400,5.409240478515625,-0.9123811721801758,-0.3011360168457031,0.41805946826934814
1684109033978281700,5.41928173828125,-0.30973029136657715,-0.2632007598876953,-0.1535358428955078
1684109033988323000,5.429322998046875,0.21172046661376953,-0.23986434936523438,-0.7086575031280518
1684109033998364200,5.4393642578125,0.7199451923370361,-0.1395854949951172,-1.1169862747192383
1684109034008405500,5.449405517578125,1.1993712186813354,-0.14609622955322266,-1.3893451690673828
1684109034018446800,5.45944677734375,1.2048468589782715,-0.247802734375,-1.4474623203277588
1684109034028488000,5.469488037109375,0.7803224325180054,-0.34583091735839844,-1.3118693828582764
1684109034038529300,5.479529296875,0.3128049373626709,-0.4940814971923828,-1.3216874599456787
1684109034048570600,5.489570556640625,0.26820921897888184,-0.44832897186279297,-1.454995036125183
1684109034058611700,5.49961181640625,0.6738541126251221,-0.03457832336425781,-1.7540749311447144
1684109034068653000,5.509653076171875,0.978212833404541,0.5197553634643555,-1.9057447910308838
1684109034078694400,5.5196943359375,0.9735634326934814,0.9220075607299805,-1.9126887321472168
1684109034088735500,5.529735595703125,1.1186234951019287,0.9626903533935547,-1.875459909439087
1684109034098776800,5.53977685546875,1.4781514406204224,0.6928091049194336,-1.9729785919189453
1684109034108818200,5.549818115234375,1.904224157333374,0.47650909423828125,-2.327160358428955
1684109034118859300,5.559859375,2.1122665405273438,0.4090728759765625,-2.396150588989258
1684109034128900600,5.569900634765625,2.169558525085449,0.4823741912841797,-2.250121831893921
1684109034138942000,5.57994189453125,1.9914504289627075,0.8670587539672852,-1.8421399593353271
1684109034148983000,5.589983154296875,1.7474746704101562,0.916722297668457,-1.608667254447937
1684109034159024400,5.6000244140625,1.4061342477798462,0.9321537017822266,-1.3597573041915894
1684109034169065700,5.610065673828125,1.0787506103515625,0.8793134689331055,-1.1108125448226929
1684109034179106800,5.62010693359375,0.8501427173614502,0.7796297073364258,-0.9516822099685669
1684109034189148200,5.630148193359375,0.5723192691802979,0.7646484375,-0.7948266267776489
1684109034199189500,5.640189453125,0.20556020736694336,1.0199823379516602,-0.48293519020080566
1684109034209230600,5.650230712890625,-0.2749326229095459,1.1472358703613281,-0.04148125648498535
1684109034219272000,5.66027197265625,-0.6701319217681885,0.8853282928466797,0.41034960746765137
1684109034229313300,5.670313232421875,-0.8707404136657715,0.6294441223144531,0.7765305042266846
1684109034239354400,5.680354248046875,-0.8925559520721436,0.4837026596069336,1.0778844356536865
1684109034249395700,5.690395751953125,-0.8773765563964844,0.42296600341796875,1.294975996017456
1684109034259437000,5.70043701171875,-0.9638302326202393,0.3899240493774414,1.5449244976043701
1684109034269478100,5.71047802734375,-1.1648287773132324,0.3076000213623047,1.3674640655517578
1684109034279519500,5.72051953125,-1.1334105730056763,0.3188791275024414,0.9530296325683594
1684109034289560800,5.730560791015625,-0.8535157442092896,0.31342411041259766,0.2642209529876709
1684109034299602200,5.740602294921875,-0.5253924131393433,0.31775856018066406,-0.3009505271911621
1684109034309643300,5.750643310546875,-0.27035462856292725,0.26314640045166016,-0.6603460311889648
1684109034319684600,5.7606845703125,-0.09491336345672607,0.20020198822021484,-0.8170349597930908
1684109034329725700,5.7707255859375,-0.06793773174285889,0.1766805648803711,-0.7904047966003418
1684109034339767000,5.78076708984375,-0.09225690364837646,0.1325550079345703,-0.6760655641555786
1684109034349808400,5.790808349609375,-0.07337188720703125,0.08441352844238281,-0.5429871082305908
1684109034359849700,5.800849609375,-0.07706749439239502,0.024950027465820312,-0.3977694511413574
1684109034369890800,5.810890869140625,-0.17387747764587402,-0.07973003387451172,-0.21043026447296143
1684109034379932200,5.82093212890625,-0.28400182723999023,-0.20627593994140625,0.07165980339050293
1684109034389973200,5.83097314453125,-0.3860433101654053,-0.23327159881591797,0.4507402181625366
1684109034400014600,5.8410146484375,-0.47115254402160645,-0.24960708618164062,0.9290457963943481
1684109034410056000,5.851055908203125,-0.4727809429168701,-0.16709136962890625,1.4715145826339722
1684109034420097300,5.86109716796875,-0.3793361186981201,0.10258293151855469,1.8610743284225464
1684109034430138400,5.871138427734375,-0.252490758895874,0.46822643280029297,2.225088596343994
1684109034440179700,5.8811796875,-0.14063847064971924,0.9030542373657227,2.3916125297546387
1684109034450221000,5.891220947265625,-0.020745158195495605,1.292057991027832,2.4017446041107178
1684109034460262100,5.90126220703125,0.13771522045135498,1.6261959075927734,2.1521902084350586
1684109034470303500,5.911303466796875,0.22690176963806152,1.746689796447754,1.5704413652420044
1684109034480344800,5.9213447265625,0.34084951877593994,1.7864723205566406,0.936379075050354
1684109034490386000,5.931385986328125,0.4138902425765991,1.9136590957641602,0.4016925096511841
1684109034500427300,5.94142724609375,0.5012004375457764,1.9279279708862305,-0.032659292221069336
1684109034510468600,5.951468505859375,0.6018853783607483,1.4811649322509766,-0.2555605173110962
1684109034520509700,5.961509765625,0.6233713030815125,0.9399499893188477,-0.4327840805053711
1684109034530551000,5.971551025390625,0.6768786907196045,0.4832897186279297,-0.3513960838317871
1684109034540592400,5.98159228515625,0.5373715162277222,-0.001880645751953125,-0.2585188150405884
1684109034550633500,5.991633544921875,0.07187104225158691,-0.6378536224365234,-0.24001789093017578
1684109034560674800,6.0016748046875,-0.642585039138794,-1.4607868194580078,-0.2692602872848511
1684109034570716200,6.011716064453125,-2.290147542953491,-2.6126537322998047,-0.12137866020202637
1684109034580757200,6.02175732421875,-5.283427715301514,-3.988466262817383,0.5320307016372681
1684109034590798600,6.031798583984375,-5.081814289093018,-4.412411689758301,1.4951273202896118
1684109034600840000,6.04183984375,-2.217106342315674,-3.127732276916504,1.4837274551391602
1684109034610881000,6.051881103515625,-0.013973712921142578,-1.2215757369995117,0.7738431692123413
1684109034620922400,6.06192236328125,1.1669083833694458,0.1846475601196289,0.0421907901763916
1684109034630963700,6.071963623046875,1.6391825675964355,0.9209470748901367,-0.29907071590423584
1684109034641005000,6.082005126953125,1.542541742324829,1.3037567138671875,-0.4436129927635193
1684109034651046100,6.092046142578125,1.1209568977355957,1.4934139251708984,-0.6715545654296875
1684109034661087500,6.10208740234375,0.6340359449386597,1.5977106094360352,-1.1588003635406494
1684109034671128600,6.112128662109375,0.26091980934143066,1.6313180923461914,-1.6104629039764404
1684109034681170000,6.122169921875,0.0008034706115722656,1.4819221496582031,-1.8473176956176758
1684109034691211300,6.132211181640625,-0.1524360179901123,1.132674217224121,-1.8418028354644775
1684109034701252600,6.142252685546875,-0.3325122594833374,0.67657470703125,-1.7402396202087402
1684109034711293700,6.152293701171875,-0.5414756536483765,0.11085319519042969,-1.5894572734832764
1684109034721335000,6.1623349609375,-0.7787809371948242,-0.4501791000366211,-1.3828998804092407
1684109034731376400,6.17237646484375,-0.9570022225379944,-0.9210748672485352,-0.9898703098297119
1684109034741417500,6.18241748046875,-0.78105628490448,-1.192397117614746,-0.5325707197189331
1684109034751458800,6.192458740234375,-0.19645822048187256,-1.1449337005615234,-0.14235563576221466
1684109034761500200,6.202500244140625,0.4940679669380188,-0.9054689407348633,0.06112648546695709
1684109034771541200,6.212541259765625,1.177947759628296,-0.6218690872192383,-0.08064720034599304
1684109034781582600,6.22258251953125,1.6726088523864746,-0.3987159729003906,-0.46725890040397644
1684109034791624000,6.2326240234375,1.9442496299743652,-0.3166332244873047,-0.8159068822860718
1684109034801665000,6.2426650390625,1.9985469579696655,-0.29627323150634766,-1.041132926940918
1684109034811706400,6.252706298828125,1.8709672689437866,-0.14882850646972656,-1.1167583465576172
1684109034821747700,6.262747802734375,1.6360735893249512,0.06316471099853516,-1.0229941606521606
1684109034831788800,6.272788818359375,1.2564311027526855,0.2248058319091797,-0.807745635509491
1684109034841830100,6.282830078125,0.7863929867744446,0.34567737579345703,-0.558009147644043
1684109034851871500,6.29287158203125,0.32827192544937134,0.30167484283447266,-0.36220431327819824
1684109034861912600,6.30291259765625,-0.05059003829956055,0.23165512084960938,-0.21222183108329773
1684109034871954000,6.312953857421875,-0.28057748079299927,0.1379852294921875,-0.1838255524635315
1684109034881995300,6.322995361328125,-0.4068610668182373,0.018146514892578125,-0.3065257966518402
1684109034892036600,6.33303662109375,-0.40198683738708496,-0.011046409606933594,-0.5611262321472168
1684109034902077700,6.34307763671875,-0.33182597160339355,-0.01921558380126953,-0.8790455460548401
1684109034912119000,6.353119140625,-0.3112218976020813,-0.03736305236816406,-0.967634916305542
1684109034922160400,6.363160400390625,-0.2874740958213806,-0.09390926361083984,-0.8813778162002563
1684109034932201500,6.373201416015625,-0.23726743459701538,-0.0358428955078125,-0.8250840902328491
1684109034942242800,6.383242919921875,-0.0833706259727478,0.08630847930908203,-0.7457436323165894
1684109034952284200,6.3932841796875,0.09188437461853027,0.21015357971191406,-0.6427173614501953
1684109034962325200,6.4033251953125,0.3206084966659546,0.3236732482910156,-0.4474128484725952
1684109034972366600,6.41336669921875,0.5355033278465271,0.3672523498535156,-0.2165285050868988
1684109034982408000,6.423407958984375,0.7826238870620728,0.2839088439941406,-0.05665463209152222
1684109034992449000,6.433448974609375,0.9993351697921753,0.15534019470214844,0.08240675926208496
1684109035002490400,6.443490478515625,1.1375068426132202,0.0988616943359375,0.14559707045555115
1684109035012531700,6.45353173828125,1.2356541156768799,0.1288137435913086,0.2775934338569641
1684109035022572800,6.46357275390625,1.2164685726165771,0.14718246459960938,0.3909507393836975
1684109035032614100,6.4736142578125,1.0309910774230957,0.08231925964355469,0.4610021710395813
1684109035042655500,6.483655517578125,0.726883053779602,0.013119697570800781,0.5019738674163818
1684109035052696800,6.49369677734375,0.3904378414154053,-0.048618316650390625,0.5139804482460022
1684109035062738000,6.503738037109375,0.09777536988258362,-0.1388225555419922,0.5686182975769043
1684109035072779300,6.513779296875,-0.1730983555316925,-0.29094696044921875,0.5609667301177979
1684109035082820600,6.523820556640625,-0.4511014223098755,-0.387908935546875,0.5775598883628845
1684109035092861700,6.53386181640625,-0.6032582521438599,-0.4036407470703125,0.6045539379119873
1684109035102903000,6.543903076171875,-0.567347526550293,-0.38608837127685547,0.6730159521102905
1684109035112944400,6.5539443359375,-0.4116053581237793,-0.33527088165283203,0.6753172278404236
1684109035122985500,6.5639853515625,-0.22890010476112366,-0.2917804718017578,0.6641576886177063
1684109035133026800,6.57402685546875,-0.07125937938690186,-0.1886587142944336,0.5679267644882202
1684109035143068200,6.584068115234375,0.07184308767318726,-0.1095733642578125,0.4297651946544647
1684109035153109200,6.594109130859375,0.1927449256181717,-0.021022796630859375,0.2905938923358917
1684109035163150600,6.604150634765625,0.2607933282852173,0.000484466552734375,0.08904010057449341
1684109035173192000,6.61419189453125,0.3169540762901306,0.005169868469238281,-0.09712791442871094
1684109035183233300,6.6242333984375,0.35398170351982117,-0.021305084228515625,-0.24565571546554565
1684109035193274400,6.6342744140625,0.3907230794429779,-0.12185096740722656,-0.33741044998168945
1684109035203315700,6.644315673828125,0.386202871799469,-0.12909984588623047,-0.3797447681427002
1684109035213357000,6.654357177734375,0.3787572681903839,-0.08876514434814453,-0.39531946182250977
1684109035223398100,6.664398193359375,0.36584946513175964,-0.13702392578125,-0.2441873550415039
1684109035233439500,6.674439453125,0.3884514570236206,-0.1348705291748047,-0.028463363647460938
1684109035243480800,6.684480712890625,0.43988633155822754,-0.09899044036865234,0.044161081314086914
1684109035253522000,6.69452197265625,0.47284039855003357,-0.05343055725097656,-0.03700578212738037
1684109035263563300,6.704563232421875,0.49694716930389404,0.013504981994628906,-0.20663869380950928
1684109035273604600,6.7146044921875,0.4951178729534149,0.027570724487304688,-0.3190279006958008
1684109035283645700,6.724645751953125,0.46906334161758423,0.0032024383544921875,-0.3689633011817932
1684109035293687000,6.73468701171875,0.3559957444667816,-0.006863594055175781,-0.38153719902038574
1684109035303728400,6.744728271484375,0.24642354249954224,-0.0454559326171875,-0.3185271620750427
1684109035313769700,6.754769775390625,0.1382121741771698,-0.08365821838378906,-0.22543495893478394
1684109035323810800,6.764810791015625,0.08996593952178955,-0.09277153015136719,-0.1510424017906189
1684109035333852200,6.77485205078125,0.09465229511260986,-0.04385089874267578,-0.16661328077316284
1684109035343893200,6.784893310546875,0.1510046273469925,-0.012360572814941406,-0.13400757312774658
1684109035353934600,6.7949345703125,0.2601933181285858,0.03733253479003906,-0.047199904918670654
1684109035363976000,6.804975830078125,0.33811303973197937,0.053206443786621094,-0.011256754398345947
1684109035374017300,6.815017333984375,0.3984939754009247,0.04764270782470703,-0.03501725196838379
1684109035384058400,6.825058349609375,0.4621047079563141,0.0680837631225586,-0.032536983489990234
1684109035394099700,6.835099609375,0.4811258912086487,0.06937026977539062,-0.03235214948654175
1684109035404141000,6.84514111328125,0.4255576729774475,0.035335540771484375,0.008041918277740479
1684109035414182400,6.855182373046875,0.3582361936569214,0.018349647521972656,0.052654922008514404
1684109035424223500,6.865223388671875,0.31764480471611023,0.011075973510742188,0.09169620275497437
1684109035434264800,6.875264892578125,0.25920844078063965,0.0039272308349609375,0.07575929164886475
1684109035444306000,6.885305908203125,0.22821584343910217,-0.0643014907836914,0.11394202709197998
1684109035454347300,6.89534716796875,0.22886107861995697,-0.07957744598388672,0.10163718461990356
1684109035464388600,6.905388671875,0.22501565515995026,-0.10635757446289062,0.06574463844299316
1684109035474430000,6.915429931640625,0.21643106639385223,-0.12794971466064453,0.011229097843170166
1684109035484471000,6.925470947265625,0.21715068817138672,-0.13264083862304688,-0.07138437032699585
1684109035494512400,6.935512451171875,0.21521678566932678,-0.06423664093017578,-0.18363845348358154
1684109035504553700,6.9455537109375,0.15672308206558228,0.052451133728027344,-0.23028546571731567
1684109035514594800,6.9555947265625,0.12767107784748077,0.14360523223876953,-0.28268659114837646
1684109035524636200,6.96563623046875,0.08560589700937271,0.23319053649902344,-0.29135197401046753
1684109035534677500,6.975677490234375,0.07336212694644928,0.2835540771484375,-0.31342411041259766
1684109035544718800,6.98571875,0.09083277732133865,0.2529582977294922,-0.3014371395111084
1684109035554760000,6.995760009765625,0.1352594494819641,0.24630260467529297,-0.28616946935653687
1684109035564801300,7.00580126953125,0.19429102540016174,0.1760702133178711,-0.3028433322906494
1684109035574842600,7.015842529296875,0.2718598544597626,0.1422128677368164,-0.30630701780319214
1684109035584883700,7.0258837890625,0.3855257034301758,0.13235187530517578,-0.29901349544525146
1684109035594925000,7.035925048828125,0.48646080493927,0.1037282943725586,-0.3423570990562439
1684109035604966400,7.04596630859375,0.5693651437759399,0.1108255386352539,-0.3274528384208679
1684109035615007500,7.056007568359375,0.5892465710639954,0.13654708862304688,-0.32097893953323364
1684109035625048800,7.066048828125,0.6036753058433533,0.15939807891845703,-0.2876240015029907
1684109035635090200,7.076090087890625,0.5304414629936218,0.14174270629882812,-0.2396315336227417
1684109035645131500,7.086131591796875,0.45138582587242126,0.12192630767822266,-0.13270461559295654
1684109035655172600,7.096172607421875,0.31090205907821655,0.0929422378540039,0.03176677227020264
1684109035665214000,7.1062138671875,0.12075062096118927,-0.006198883056640625,0.25212883949279785
1684109035675255300,7.11625537109375,-0.10741131007671356,-0.10834598541259766,0.4962671101093292
1684109035685296400,7.12629638671875,-0.31506839394569397,-0.18978214263916016,0.7297070622444153
1684109035695337700,7.136337646484375,-0.5019795894622803,-0.22954559326171875,0.8785718679428101
1684109035705379000,7.146379150390625,-0.6019869446754456,-0.27772998809814453,0.9368289709091187
1684109035715420200,7.156420166015625,-0.5886259078979492,-0.2329549789428711,0.8916051983833313
1684109035725461500,7.16646142578125,-0.5184879899024963,-0.1604013442993164,0.6745883226394653
1684109035735502800,7.1765029296875,-0.4046938419342041,-0.022988319396972656,0.280361533164978
1684109035745544000,7.1865439453125,-0.2580939531326294,0.09806156158447266,-0.05874478816986084
1684109035755585300,7.196585205078125,-0.09667116403579712,0.1299428939819336,-0.38248729705810547
1684109035765626600,7.206626708984375,0.04295853525400162,0.11642742156982422,-0.6452195644378662
1684109035775668000,7.21666796875,0.15768036246299744,0.1194467544555664,-0.7956455945968628
1684109035785709000,7.226708984375,0.2421625256538391,0.12935256958007812,-0.8077448606491089
1684109035795750400,7.23675048828125,0.2444869726896286,0.16257190704345703,-0.7197811603546143
1684109035805791700,7.246791748046875,0.2110600471496582,0.2634572982788086,-0.5806775093078613
1684109035815832800,7.256832763671875,0.17638063430786133,0.2942829132080078,-0.35078656673431396
1684109035825874200,7.266874267578125,0.10177241265773773,0.24206161499023438,-0.05739462375640869
1684109035835915500,7.27691552734375,0.017320189625024796,0.12238693237304688,0.1586010456085205
1684109035845956900,7.286956787109375,-0.017675388604402542,0.0023622512817382812,0.2742992639541626
1684109035855998000,7.296998046875,-0.06335525214672089,-0.0709238052368164,0.34322595596313477
1684109035866039300,7.307039306640625,-0.07562602311372757,-0.14530658721923828,0.38476628065109253
1684109035876080600,7.31708056640625,-0.10497753322124481,-0.17600345611572266,0.37784433364868164
1684109035886122000,7.3271220703125,-0.14391222596168518,-0.15900516510009766,0.32291561365127563
1684109035896163000,7.3371630859375,-0.22463665902614594,-0.11393928527832031,0.2160598635673523
1684109035906204400,7.347204345703125,-0.3388884961605072,-0.1142740249633789,0.09596461057662964
1684109035916245800,7.357245849609375,-0.40584132075309753,-0.0886697769165039,0.005678057670593262
1684109035926286800,7.367286865234375,-0.42849811911582947,-0.044615745544433594,-0.03888159990310669
1684109035936328200,7.377328125,-0.4335283637046814,-0.0036163330078125,-0.01486659049987793
1684109035946369500,7.38736962890625,-0.4050411283969879,-0.0032863616943359375,0.020095765590667725
1684109035956410600,7.39741064453125,-0.3743577301502228,-0.014704704284667969,0.08473187685012817
1684109035966452000,7.407451904296875,-0.3578340709209442,-0.0353240966796875,0.06555181741714478
1684109035976493300,7.417493408203125,-0.30313849449157715,-0.013209342956542969,0.07465529441833496
1684109035986534400,7.427534423828125,-0.23195292055606842,0.008532524108886719,0.06231802701950073
1684109035996575700,7.43757568359375,-0.09798470884561539,0.02989673614501953,0.07852363586425781
1684109036006617000,7.4476171875,-0.015809759497642517,0.02967548370361328,-0.0016154646873474121
1684109036016658400,7.457658447265625,0.04345212131738663,0.052939414978027344,-0.05148887634277344
1684109036026699500,7.467699462890625,0.08477699756622314,0.08517646789550781,-0.0833280086517334
1684109036036740900,7.477740966796875,0.11301502585411072,0.06738662719726562,-0.07631462812423706
1684109036046782200,7.4877822265625,0.13309136033058167,0.06633472442626953,-0.07830631732940674
1684109036056823600,7.497823486328125,0.14735081791877747,0.06292438507080078,-0.07520878314971924
1684109036066864600,7.50786474609375,0.14396880567073822,0.06427669525146484,-0.041390299797058105
1684109036076906000,7.517906005859375,0.09737458825111389,0.03264617919921875,-0.017446517944335938
1684109036086947300,7.527947265625,0.025196239352226257,-0.012572288513183594,0.024859607219696045
1684109036096988400,7.537988525390625,-0.07408209890127182,-0.016991615295410156,0.02854442596435547
1684109036107029800,7.54802978515625,-0.17378000915050507,0.006918907165527344,0.02968376874923706
1684109036117071000,7.558071044921875,-0.21705514192581177,0.025734901428222656,0.011789321899414062
1684109036127112200,7.5681123046875,-0.23085811734199524,0.053650856018066406,-0.050587236881256104
1684109036137153500,7.578153564453125,-0.20639720559120178,0.07873344421386719,-0.06469643115997314
1684109036147195000,7.58819482421875,-0.17517468333244324,0.06570911407470703,-0.10189700126647949
1684109036157236200,7.598236328125,-0.12082412838935852,0.04580497741699219,-0.08393645286560059
1684109036167277300,7.60827734375,-0.1121407076716423,0.02855682373046875,-0.0494723916053772
1684109036177318700,7.618318603515625,-0.09619468450546265,0.02099323272705078,-0.03658372163772583
1684109036187360000,7.628360107421875,-0.10594064742326736,-0.035887718200683594,0.020812273025512695
1684109036197401000,7.638401123046875,-0.10795466601848602,-0.06827926635742188,0.032450079917907715
1684109036207442400,7.6484423828125,-0.11426490545272827,-0.06714057922363281,0.045823514461517334
1684109036217483800,7.65848388671875,-0.0847507119178772,-0.054218292236328125,0.00440669059753418
1684109036227525000,7.668525146484375,-0.0672580897808075,-0.050894737243652344,-0.013191699981689453
1684109036237566200,7.678566162109375,0.006423056125640869,0.011243820190429688,-0.09187978506088257
1684109036247607600,7.688607666015625,0.07378776371479034,0.06764698028564453,-0.11987310647964478
1684109036257649000,7.69864892578125,0.09466300159692764,0.08779621124267578,-0.15433675050735474
1684109036267690000,7.70868994140625,0.12873739004135132,0.12171077728271484,-0.15019744634628296
1684109036277731300,7.7187314453125,0.152125746011734,0.11501789093017578,-0.14811939001083374
1684109036287772700,7.728772705078125,0.15342643857002258,0.05662822723388672,-0.12230193614959717
1684109036297814000,7.73881396484375,0.13308027386665344,0.013329505920410156,-0.0732189416885376
1684109036307855000,7.748855224609375,0.11538520455360413,-0.015108108520507812,-0.01569145917892456
1684109036317896400,7.758896484375,0.06288138031959534,-0.035973548889160156,0.002760767936706543
1684109036327937800,7.768937744140625,0.0021107420325279236,0.0000400543212890625,-0.0171358585357666
1684109036337979000,7.778978759765625,-0.04350678622722626,0.011927604675292969,-0.029816627502441406
1684109036348020200,7.789020263671875,-0.07452642917633057,0.047161102294921875,-0.054041922092437744
1684109036358061600,7.7990615234375,-0.11661815643310547,0.05117607116699219,-0.0375746488571167
1684109036368103000,7.80910302734375,-0.1172260120511055,0.017439842224121094,-0.04012352228164673
1684109036378144000,7.81914404296875,-0.07692085206508636,-0.0016222000122070312,-0.021425485610961914
1684109036388185300,7.829185302734375,-0.029425740242004395,-0.013308525085449219,-0.05724078416824341
1684109036398226700,7.839226806640625,0.04597228020429611,0.00110626220703125,-0.08086961507797241
1684109036408268000,7.84926806640625,0.10813181102275848,0.022340774536132812,-0.1464335322380066
1684109036418309000,7.85930908203125,0.13566279411315918,0.05498218536376953,-0.20126289129257202
1684109036428350500,7.8693505859375,0.12663404643535614,0.08940792083740234,-0.20297837257385254
1684109036438391800,7.879391845703125,0.11485069990158081,0.09498405456542969,-0.15016168355941772
1684109036448433000,7.889432861328125,0.08646910637617111,0.05572509765625,-0.05096125602722168
1684109036458474200,7.89947412109375,0.060914985835552216,-0.006411552429199219,0.03705167770385742
1684109036468515600,7.909515625,0.021746888756752014,-0.04629325866699219,0.10205310583114624
1684109036478557000,7.919556884765625,0.01406533271074295,-0.03603172302246094,0.13017982244491577
1684109036488598000,7.929597900390625,0.01608775556087494,0.016473770141601562,0.11027681827545166
1684109036498639400,7.939639404296875,0.03932219743728638,0.0304412841796875,0.015312433242797852
1684109036508680700,7.9496806640625,0.03135088086128235,0.044162750244140625,-0.08024156093597412
1684109036518721800,7.9597216796875,0.01852124184370041,0.015255928039550781,-0.13858872652053833
1684109036528763100,7.96976318359375,0.003188677132129669,0.012705802917480469,-0.14386725425720215
1684109036538804500,7.979804443359375,-0.038003139197826385,-0.011013984680175781,-0.0781317949295044
1684109036548845800,7.989845703125,-0.06445794552564621,-0.034338951110839844,0.03359407186508179
1684109036558887000,7.999886962890625,-0.08545839041471481,-0.04313182830810547,0.10555368661880493
1684109036568928300,8.00992822265625,-0.09386780112981796,-0.03055858612060547,0.11939305067062378
1684109036578969600,8.019969482421875,-0.12979604303836823,-0.01815319061279297,0.11362171173095703
1684109036589011000,8.030010986328126,-0.12459353357553482,-0.0035696029663085938,0.07691508531570435
1684109036599052000,8.040052001953125,-0.10290774703025818,0.008440971374511719,0.0075691938400268555
1684109036609093400,8.05009326171875,-0.0604897141456604,-0.015062332153320312,-0.05590015649795532
1684109036619134700,8.060134765625,-0.047171011567115784,-0.0028705596923828125,-0.06403577327728271
1684109036629175800,8.07017578125,-0.027063503861427307,0.0067539215087890625,-0.0766189694404602
1684109036639217200,8.080217041015626,-0.00459367036819458,0.037384033203125,-0.05114710330963135
1684109036649258500,8.090258544921875,0.038989193737506866,0.06278228759765625,-0.05894148349761963
1684109036659299800,8.1002998046875,0.0699412077665329,0.059485435485839844,-0.045179903507232666
1684109036669341000,8.1103408203125,0.08560606837272644,0.05856513977050781,-0.09473103284835815
1684109036679382300,8.12038232421875,0.06942121684551239,0.024672508239746094,-0.10295730829238892
1684109036689423600,8.130423583984374,0.015121527016162872,0.007796287536621094,-0.0988616943359375
1684109036699464700,8.140464599609375,-0.05731140822172165,0.0029659271240234375,-0.03351181745529175
1684109036709506000,8.150506103515625,-0.1280728578567505,-0.0064830780029296875,0.037627339363098145
1684109036719547400,8.16054736328125,-0.12162594497203827,-0.036922454833984375,0.09998124837875366
1684109036729588700,8.170588623046875,-0.11472032964229584,-0.05974864959716797,0.1089087724685669
1684109036739629800,8.1806298828125,-0.05129627883434296,-0.056258201599121094,0.06071269512176514
1684109036749671200,8.190671142578125,-0.007934987545013428,-0.026907920837402344,-0.015167534351348877
1684109036759712500,8.20071240234375,-0.007941365242004395,0.030200958251953125,-0.08501976728439331
1684109036769753900,8.21075390625,0.020176976919174194,0.041606903076171875,-0.12987875938415527
1684109036779795000,8.220794921875,-0.022678613662719727,0.048081398010253906,-0.15010350942611694
1684109036789836300,8.230836181640624,-0.026929333806037903,0.054416656494140625,-0.1366857886314392
1684109036799877600,8.240877685546875,-0.014521583914756775,0.02294635772705078,-0.10430312156677246
1684109036809918700,8.250918701171875,-0.014060735702514648,0.0061130523681640625,-0.053495705127716064
1684109036819960000,8.2609599609375,-0.02058359980583191,-0.010440826416015625,-0.003512561321258545
1684109036830001400,8.27100146484375,-0.0032258033752441406,-0.0031728744506835938,-0.010962128639221191
1684109036840042800,8.281042724609375,-0.011746183037757874,-0.017202377319335938,0.028626620769500732
1684109036850083800,8.291083740234376,0.010608285665512085,-0.0097808837890625,0.024825096130371094
1684109036860125200,8.301125244140625,0.03965041786432266,-0.0071659088134765625,-0.009821176528930664
1684109036870166500,8.31116650390625,0.06089477986097336,0.016603469848632812,-0.027485668659210205
1684109036880208000,8.321207763671875,0.09555637836456299,0.0352630615234375,-0.08242344856262207
1684109036890249000,8.3312490234375,0.1035672277212143,0.03710746765136719,-0.0984426736831665
1684109036900290300,8.341290283203126,0.08553338795900345,0.02004718780517578,-0.09019666910171509
1684109036910331600,8.35133154296875,0.07937191426753998,0.007956504821777344,-0.00881803035736084
1684109036920372700,8.361372802734374,0.037910498678684235,-0.015702247619628906,0.054730236530303955
1684109036930414000,8.3714140625,0.006779186427593231,0.0034151077270507812,0.09592479467391968
1684109036940455400,8.381455322265625,0.012034982442855835,0.03635692596435547,0.06552588939666748
1684109036950496800,8.391496826171876,0.01301710307598114,0.02639007568359375,0.02357780933380127
1684109036960537900,8.401537841796875,0.039989225566387177,0.016597747802734375,-0.03896677494049072
1684109036970579200,8.4115791015625,0.07544486969709396,0.014026641845703125,-0.06267315149307251
1684109036980620500,8.42162060546875,0.06747069954872131,0.020890235900878906,-0.055018603801727295
1684109036990661600,8.43166162109375,0.061845406889915466,-0.028890609741210938,-0.03065568208694458
1684109037000703000,8.441702880859374,0.0424804612994194,-0.06844329833984375,0.033490896224975586
1684109037010744300,8.451744384765625,0.023691505193710327,-0.06731319427490234,0.1200399398803711
1684109037020785700,8.46178564453125,0.026546530425548553,-0.021448135375976562,0.1954311728477478
1684109037030826800,8.47182666015625,0.029484599828720093,0.0048675537109375,0.2007116675376892
1684109037040868000,8.4818681640625,-0.0003951936960220337,-0.06103801727294922,0.1348726749420166
1684109037050909400,8.491909423828124,-0.00822564959526062,-0.07167625427246094,0.08395969867706299
1684109037060950800,8.50195068359375,-0.017719343304634094,-0.05622577667236328,0.024178683757781982
1684109037070992000,8.511991943359375,-0.03626991808414459,-0.05280303955078125,-0.04879492521286011
1684109037081033200,8.522033203125,-0.014543861150741577,0.0070476531982421875,-0.06858432292938232
1684109037091074600,8.532074462890625,0.013626888394355774,0.08001518249511719,-0.11140608787536621
1684109037101115600,8.54211572265625,0.06697766482830048,0.10936260223388672,-0.09193933010101318
1684109037111157000,8.552156982421875,0.0841643363237381,0.13583755493164062,-0.08420050144195557
1684109037121198300,8.5621982421875,0.12240791320800781,0.05119895935058594,-0.09282034635543823
1684109037131239700,8.57223974609375,0.14584369957447052,-0.02028369903564453,-0.07980626821517944
1684109037141280800,8.58228076171875,0.13544858992099762,-0.06939983367919922,-0.0903138518333435
1684109037151322000,8.592322021484375,0.07549485564231873,-0.0682535171508789,-0.03473919630050659
1684109037161363500,8.602363525390626,0.0095929354429245,-0.07651233673095703,-0.001651763916015625
1684109037171404800,8.61240478515625,-0.012326300144195557,-0.065765380859375,0.07040733098983765
1684109037181446000,8.62244580078125,0.0018427222967147827,-0.04809379577636719,0.07007783651351929
1684109037191487200,8.6324873046875,0.003990590572357178,-0.047145843505859375,0.045592308044433594
1684109037201528600,8.642528564453125,-0.008156180381774902,-0.03206348419189453,0.06592941284179688
1684109037211569700,8.652569580078126,-0.001215413212776184,0.015746116638183594,0.045669496059417725
1684109037221611000,8.662611083984375,0.0460612028837204,0.043921470642089844,0.06101810932159424
1684109037231652400,8.67265234375,0.07879156619310379,0.06927776336669922,0.03357726335525513
1684109037241693700,8.682693603515625,0.1347481608390808,0.0683135986328125,0.0018380284309387207
1684109037251735000,8.692735107421875,0.14737583696842194,0.07911205291748047,-0.0667409896850586
1684109037261776100,8.702776123046876,0.1265338808298111,0.12030029296875,-0.13605833053588867
1684109037271817500,8.7128173828125,0.0820457711815834,0.09247875213623047,-0.219984769821167
1684109037281858800,8.72285888671875,0.023998364806175232,0.015613555908203125,-0.22628265619277954
1684109037291900200,8.732900146484376,-0.0308639258146286,-0.031783103942871094,-0.22464334964752197
1684109037301941200,8.742941162109375,-0.09893128275871277,-0.07842254638671875,-0.15671497583389282
1684109037311982600,8.752982666015624,-0.20329417288303375,-0.10076045989990234,-0.056808531284332275
1684109037322024000,8.76302392578125,-0.26535946130752563,-0.10152339935302734,0.06935995817184448
1684109037332065000,8.77306494140625,-0.2668968439102173,-0.09047222137451172,0.22583836317062378
1684109037342106400,8.7831064453125,-0.2466381937265396,-0.1148681640625,0.3530557155609131
1684109037352147700,8.793147705078125,-0.19061516225337982,-0.12703609466552734,0.45374396443367004
1684109037362189000,8.80318896484375,-0.1228083074092865,-0.1931009292602539,0.4883153438568115
1684109037372230100,8.813230224609375,-0.05056636035442352,-0.19683551788330078,0.4628523290157318
1684109037382271500,8.823271484375,0.025910422205924988,-0.19579029083251953,0.43266332149505615
1684109037392312800,8.833312744140626,0.09432470798492432,-0.1759319305419922,0.3486770689487457
1684109037402354200,8.843354248046875,0.14043819904327393,-0.13992023468017578,0.2635253369808197
1684109037412395300,8.853395263671874,0.14311537146568298,-0.10921955108642578,0.18688738346099854
1684109037422436600,8.8634365234375,0.11204259097576141,-0.1143331527709961,0.08096742630004883
1684109037432478000,8.87347802734375,0.052522554993629456,-0.11229324340820312,0.04753232002258301
1684109037442519000,8.88351904296875,-0.025473326444625854,-0.0773153305053711,0.005204319953918457
1684109037452560400,8.893560302734375,-0.08344718813896179,-0.045276641845703125,0.008338689804077148
1684109037462601700,8.903601806640625,-0.07876703143119812,-0.011435508728027344,0.04669910669326782
1684109037472643000,8.91364306640625,-0.0661105215549469,-0.032321929931640625,0.06773364543914795
1684109037482684200,8.92368408203125,-0.03156307339668274,-0.07170581817626953,0.07632547616958618
1684109037492725500,8.9337255859375,0.03155547380447388,-0.12220287322998047,0.06067997217178345
1684109037502766800,8.943766845703125,0.1010788083076477,-0.11535263061523438,0.023745059967041016
1684109037512808200,8.95380810546875,0.12701010704040527,-0.10859107971191406,-0.034250617027282715
1684109037522849300,8.963849365234376,0.16413350403308868,-0.09252452850341797,-0.10313767194747925
1684109037532890600,8.973890625,0.1603551059961319,-0.08144760131835938,-0.14474081993103027
1684109037542932000,8.983931884765624,0.12303563952445984,-0.06351375579833984,-0.2087010145187378
1684109037552973300,8.993973388671876,0.0620746910572052,-0.057659149169921875,-0.16047900915145874
1684109037563014400,9.004014404296875,0.02968725562095642,-0.04485607147216797,-0.1526031494140625
1684109037573055700,9.0140556640625,0.016368597745895386,-0.022866249084472656,-0.07859939336776733
1684109037583097000,9.02409716796875,0.04590520262718201,-0.04366779327392578,-0.05002492666244507
1684109037593138400,9.034138427734375,0.1177821010351181,-0.028886795043945312,0.009473979473114014
1684109037603179500,9.044179443359376,0.15361274778842926,-0.042724609375,0.050661325454711914
1684109037613220900,9.054220947265625,0.21039484441280365,-0.08699607849121094,0.11532729864120483
1684109037623262200,9.06426220703125,0.20542284846305847,-0.09743595123291016,0.25433266162872314
1684109037633303600,9.074303466796875,0.24348919093608856,-0.03688240051269531,0.2864179313182831
1684109037643344600,9.0843447265625,0.22262781858444214,-0.007876396179199219,0.20343226194381714
1684109037653386000,9.094385986328126,0.21409478783607483,0.02297687530517578,0.1642550826072693
1684109037663427300,9.10442724609375,0.17285269498825073,0.0014848709106445312,0.10960555076599121
1684109037673468700,9.11446875,0.10644668340682983,-0.031463623046875,0.09865087270736694
1684109037683509800,9.124509765625,0.06714582443237305,-0.0097808837890625,0.12398841977119446
1684109037693551000,9.134551025390625,0.036249756813049316,0.009093284606933594,0.12855273485183716
1684109037703592400,9.144592529296874,0.05660569667816162,0.05815410614013672,0.16419419646263123
1684109037713633800,9.1546337890625,0.11398649215698242,0.10629081726074219,0.1497577428817749
1684109037723675000,9.1646748046875,0.16778981685638428,0.11588001251220703,0.09486594796180725
1684109037733716200,9.17471630859375,0.2552815079689026,0.13939857482910156,-0.03795045614242554
1684109037743757600,9.184757568359375,0.36322492361068726,0.1578083038330078,-0.2072204351425171
1684109037753799000,9.194798828125,0.4408617913722992,0.11945819854736328,-0.42652881145477295
1684109037763840000,9.204840087890625,0.47365376353263855,0.025330543518066406,-0.6052950024604797
1684109037773881300,9.21488134765625,0.4523310661315918,-0.012978553771972656,-0.8050245642662048
1684109037783922700,9.224922607421876,0.42929643392562866,-0.015226364135742188,-0.8815174102783203
1684109037793963800,9.2349638671875,0.40266650915145874,0.015614509582519531,-0.8980541229248047
1684109037804005000,9.245005126953124,0.37781041860580444,-0.0010976791381835938,-0.8953045010566711
1684109037814046500,9.25504638671875,0.35547637939453125,-0.05993080139160156,-0.875419020652771
1684109037824087800,9.265087890625,0.34085145592689514,-0.05193519592285156,-0.8054794073104858
1684109037834129000,9.27512890625,0.3057919144630432,-0.053577423095703125,-0.6956838965415955
1684109037844170200,9.285170166015625,0.29523539543151855,-0.048218727111816406,-0.5842484831809998
1684109037854211600,9.295211669921875,0.29675155878067017,-0.059497833251953125,-0.4384195804595947
1684109037864253000,9.3052529296875,0.3360586166381836,-0.05887603759765625,-0.3084281086921692
1684109037874294300,9.315294189453125,0.37009891867637634,-0.020631790161132812,-0.18726509809494019
1684109037884335400,9.32533544921875,0.3778800368309021,0.005171775817871094,-0.05848264694213867
1684109037894376700,9.335376708984375,0.4115968644618988,0.04465198516845703,0.05874347686767578
1684109037904418000,9.34541796875,0.4093964993953705,0.12351226806640625,0.16657191514968872
1684109037914459100,9.355459228515626,0.3364655375480652,0.13519668579101562,0.24340522289276123
1684109037924500500,9.36550048828125,0.28347328305244446,0.08081817626953125,0.28034475445747375
1684109037934541800,9.375541748046874,0.19818627834320068,0.025051116943359375,0.3508788049221039
1684109037944583200,9.385583251953125,0.11891961097717285,-0.07683372497558594,0.39815065264701843
1684109037954624300,9.395624267578125,0.06229591369628906,-0.12992286682128906,0.4626436233520508
1684109037964665600,9.40566552734375,0.04977607727050781,-0.12801742553710938,0.5370425581932068
1684109037974707000,9.41570703125,0.07657361030578613,-0.13799762725830078,0.5269538164138794
1684109037984748300,9.425748291015625,0.13058596849441528,-0.11498165130615234,0.5658795833587646
1684109037994789600,9.43578955078125,0.18246495723724365,-0.04303550720214844,0.559495210647583
1684109038004830700,9.445830810546875,0.2168569266796112,0.11947059631347656,0.574873149394989
1684109038014872000,9.4558720703125,0.20919093489646912,0.21104907989501953,0.6018937230110168
1684109038024913400,9.465913330078125,0.10286951065063477,0.2635812759399414,0.6019647121429443
1684109038034954800,9.475954833984375,-0.08879631757736206,0.24245357513427734,0.5532689690589905
1684109038044995800,9.485995849609376,-0.31877821683883667,0.18416404724121094,0.47466665506362915
1684109038055037200,9.496037109375,-0.5168677568435669,0.17162609100341797,0.3593330383300781
1684109038065078500,9.50607861328125,-0.6888174414634705,0.17567062377929688,0.22193685173988342
1684109038075119600,9.51611962890625,-0.7346764802932739,0.20528030395507812,0.07962924242019653
1684109038085161000,9.526160888671875,-0.6796977519989014,-0.02727031707763672,-0.14663948118686676
1684109038095202300,9.536202392578126,-0.559577226638794,-0.004355430603027344,-0.2801879048347473
1684109038105243600,9.54624365234375,-0.40869492292404175,0.35689353942871094,-0.2663848102092743
1684109038115284700,9.55628466796875,-0.16913092136383057,0.5375995635986328,-0.3712869882583618
1684109038125326000,9.566326171875,0.024127483367919922,0.43651771545410156,-0.4144817888736725
1684109038135367400,9.576367431640625,0.1938297152519226,0.4121208190917969,-0.38808923959732056
1684109038145408800,9.58640869140625,0.2718046307563782,0.27094173431396484,-0.27279868721961975
1684109038155450000,9.5964501953125,0.22829574346542358,0.027543067932128906,-0.21169456839561462
1684109038165491200,9.6064912109375,0.1480749249458313,-0.16982746124267578,-0.27463388442993164
1684109038175532500,9.616532470703126,0.06557929515838623,-0.07275867462158203,-0.24666202068328857
1684109038185574000,9.626573974609375,-0.14666283130645752,-0.011438369750976562,-0.19530633091926575
1684109038195615000,9.636614990234374,-0.38447117805480957,-0.007384300231933594,-0.1639808714389801
1684109038205656300,9.64665625,-0.6621948480606079,-0.11562919616699219,-0.22173558175563812
1684109038215697700,9.65669775390625,-0.8490618467330933,-0.10920429229736328,-0.2865774929523468
1684109038225739000,9.666739013671876,-0.9014227390289307,-0.06730937957763672,-0.3264659643173218
1684109038235780400,9.6767802734375,-0.7956000566482544,-0.5822982788085938,-0.5466870069503784
1684109038245821400,9.686821533203124,-0.6331584453582764,-1.3302793502807617,-0.7974188327789307
1684109038255862800,9.69686279296875,-0.48364949226379395,-1.2407970428466797,-0.49835139513015747
1684109038265904000,9.706904052734375,-0.4095715284347534,-0.6120615005493164,-0.21994462609291077
1684109038275945500,9.716945556640624,-0.3274799585342407,0.23460769653320312,-0.18488410115242004
1684109038285986600,9.726986572265625,-0.22070705890655518,0.8544940948486328,0.01633414626121521
1684109038296028000,9.73702783203125,-0.030286550521850586,1.2577896118164062,0.3010282516479492
1684109038306069200,9.7470693359375,0.1306920051574707,1.5764484405517578,0.4769752621650696
1684109038316110600,9.757110595703125,0.26875096559524536,1.550471305847168,0.573075532913208
1684109038326151700,9.767151611328124,0.3208904266357422,1.1784582138061523,0.5558883547782898
1684109038336193000,9.777193115234375,0.27697253227233887,0.521087646484375,0.42286908626556396
1684109038346234400,9.787234375,0.15590882301330566,-0.024430274963378906,0.19627737998962402
1684109038356275700,9.797275634765626,-0.0586162805557251,-0.3246450424194336,-0.0014812350273132324
1684109038366316800,9.80731689453125,-0.29310619831085205,-0.41620922088623047,-0.16331735253334045
1684109038376358100,9.817358154296874,-0.5025037527084351,-0.34052276611328125,-0.2873117923736572
1684109038386399500,9.8273994140625,-0.6307464838027954,-0.069549560546875,-0.2980547547340393
1684109038396440800,9.83744091796875,-0.661137580871582,0.3030099868774414,-0.25198373198509216
1684109038406482000,9.84748193359375,-0.5590038299560547,0.5119075775146484,-0.15189142525196075
1684109038416523300,9.857523193359375,-0.42853713035583496,0.6102409362792969,-0.08588573336601257
1684109038426564600,9.867564697265625,-0.3259819746017456,0.615178108215332,-0.060596615076065063
1684109038436606000,9.87760595703125,-0.23036491870880127,0.5222539901733398,-0.03982868790626526
1684109038446647300,9.887647216796875,-0.15819227695465088,0.3699312210083008,-0.15622687339782715
1684109038456688400,9.8976884765625,-0.07523858547210693,0.12726116180419922,-0.2553415298461914
1684109038466729700,9.907729736328125,0.006761312484741211,-0.0478515625,-0.3618047535419464
1684109038476771000,9.91777099609375,0.015753626823425293,-0.11005020141601562,-0.4313810467720032
1684109038486812200,9.927812255859376,-0.05299258232116699,-0.1073141098022461,-0.45200231671333313
1684109038496853500,9.937853515625,-0.20877814292907715,-0.011186599731445312,-0.48925769329071045
1684109038506894800,9.947894775390624,-0.3956780433654785,0.22097015380859375,-0.5242697596549988
1684109038516936200,9.957936279296876,-0.5330698490142822,-0.017974853515625,-0.5850870013237
1684109038526977500,9.9679775390625,-0.6571635007858276,-0.5217094421386719,-0.6681833267211914
1684109038537018600,9.9780185546875,-0.6955134868621826,-0.9290504455566406,-0.7992383241653442
1684109038547060000,9.98806005859375,-0.6973667144775391,-0.9439706802368164,-0.9430787563323975
1684109038557101300,9.998101318359375,-0.6886817216873169,-0.9111175537109375,-1.0053589344024658
1684109038567142700,10.008142578125,-0.6994674205780029,-0.8352022171020508,-1.156254768371582
1684109038577183700,10.018183837890625,-0.7517024278640747,-0.7233781814575195,-1.261397123336792
1684109038587225000,10.02822509765625,-0.8165246248245239,-0.7309398651123047,-1.3394185304641724
1684109038597266400,10.038266357421875,-0.9196813106536865,-0.704768180847168,-1.4444265365600586
1684109038607307500,10.0483076171875,-1.0865637063980103,-0.5877599716186523,-1.466221570968628
1684109038617348900,10.058348876953126,-1.2707380056381226,-0.42334651947021484,-1.5347461700439453
1684109038627390200,10.06839013671875,-1.3685643672943115,-0.21665668487548828,-1.5122077465057373
1684109038637431600,10.078431640625,-1.3175532817840576,-0.025282859802246094,-1.3612107038497925
1684109038647473000,10.088472900390625,-1.1610385179519653,0.20565414428710938,-1.176090955734253
1684109038657514000,10.098513916015625,-0.9163275957107544,0.27307987213134766,-1.000170111656189
1684109038667555300,10.108555419921874,-0.5537054538726807,0.15853404998779297,-0.7893146276473999
1684109038677596700,10.1185966796875,-0.13881897926330566,0.013132095336914062,-0.5540504455566406
1684109038687638000,10.128637939453125,0.23678016662597656,-0.1151418685913086,-0.21470791101455688
1684109038697679000,10.13867919921875,0.5347206592559814,-0.14515018463134766,0.191999614238739
1684109038707720400,10.148720458984375,0.7338913679122925,-0.060545921325683594,0.5497744083404541
1684109038717761800,10.15876171875,0.8277037143707275,0.08094120025634766,0.8502689599990845
1684109038727803100,10.16880322265625,0.8564963340759277,0.2983560562133789,1.0334548950195312
1684109038737844500,10.178844482421875,0.821865439414978,0.4842195510864258,1.1634926795959473
1684109038747885600,10.188885498046876,0.7296919822692871,0.5600786209106445,1.2676876783370972
1684109038757927000,10.198927001953125,0.626255989074707,0.5647850036621094,1.2309268712997437
1684109038767968300,10.20896826171875,0.49367427825927734,0.513157844543457,1.020934820175171
1684109038778009300,10.21900927734375,0.4009113311767578,0.41503047943115234,0.7856128811836243
1684109038788050700,10.22905078125,0.3150899410247803,0.3038444519042969,0.6318137049674988
1684109038798092000,10.239092041015626,0.20403993129730225,0.22472095489501953,0.4505220949649811
1684109038808133400,10.24913330078125,0.10953629016876221,0.15104103088378906,0.18958008289337158
1684109038818174700,10.2591748046875,0.07947063446044922,0.12807846069335938,-0.08676773309707642
1684109038828215800,10.2692158203125,0.11067581176757812,0.13190650939941406,-0.22616228461265564
1684109038838257200,10.279257080078125,0.11926150321960449,0.1600666046142578,-0.3541949391365051
1684109038848298500,10.289298583984374,-0.0009815692901611328,0.13103675842285156,-0.3599880337715149
1684109038858339800,10.29933984375,-0.07622766494750977,0.1186981201171875,-0.35053032636642456
1684109038868381000,10.309380859375,-0.08898508548736572,0.23271465301513672,-0.3217826187610626
1684109038878422300,10.31942236328125,-0.04434549808502197,0.35341835021972656,-0.34979283809661865
1684109038888463600,10.329463623046875,-0.055201172828674316,0.4044637680053711,-0.40954476594924927
1684109038898505000,10.3395048828125,-0.1782466173171997,0.4408445358276367,-0.5291305184364319
1684109038908546300,10.34954638671875,-0.33059024810791016,0.44561290740966797,-0.4984513223171234
1684109038918587400,10.35958740234375,-0.4369387626647949,0.33983421325683594,-0.47809454798698425
1684109038928628700,10.369628662109376,-0.40244269371032715,0.2552680969238281,-0.3249782919883728
1684109038938670000,10.379670166015625,-0.3554743528366089,0.223236083984375,-0.14978086948394775
1684109038948711400,10.38971142578125,-0.36858975887298584,0.17462444305419922,0.08427771925926208
1684109038958752500,10.39975244140625,-0.3213082551956177,0.17670345306396484,0.21157169342041016
1684109038968793900,10.4097939453125,-0.1753063201904297,0.12936687469482422,0.3032692074775696
1684109038978835200,10.419835205078124,-0.10647058486938477,0.08052921295166016,0.1763233244419098
1684109038988876500,10.42987646484375,-0.34469687938690186,0.06546974182128906,0.11353808641433716
1684109038998917600,10.439917724609375,-0.6093670129776001,0.08117485046386719,0.17862850427627563
1684109039008959000,10.449958984375,-0.6750940084457397,0.0869293212890625,0.26188504695892334
1684109039019000300,10.460000244140625,-0.6212886571884155,0.011330604553222656,0.5159562826156616
1684109039029041700,10.470041748046874,-0.4658108949661255,-0.01613903045654297,0.6258342266082764
1684109039039082800,10.480082763671875,-0.2625288963317871,-0.00492095947265625,0.7062638401985168
1684109039049124000,10.4901240234375,-0.08877229690551758,0.035454750061035156,0.7600302696228027
1684109039059165400,10.50016552734375,-0.008750319480895996,0.035574913024902344,0.7685550451278687
1684109039069206800,10.510206787109375,-0.009184002876281738,0.06225109100341797,0.9203274250030518
1684109039079248100,10.520248046875,-0.10511553287506104,0.1129159927368164,0.9248910546302795
1684109039089289200,10.530289306640626,-0.22356271743774414,0.14680767059326172,0.9278667569160461
1684109039099330600,10.54033056640625,-0.3166259527206421,0.22617721557617188,0.9164578914642334
1684109039109372000,10.550371826171874,-0.33039069175720215,0.36788177490234375,0.897085428237915
1684109039119413200,10.560413330078125,-0.26874327659606934,0.3928232192993164,0.8439056277275085
1684109039129454300,10.570454345703125,-0.1947002410888672,0.3466958999633789,0.886603057384491
1684109039139495700,10.58049560546875,-0.13276028633117676,0.33477210998535156,0.8820256590843201
1684109039149537000,10.590537109375,-0.06413114070892334,0.34979248046875,0.8424116373062134
1684109039159578400,10.600578369140624,-0.012965559959411621,0.33673858642578125,0.8539565801620483
1684109039169619500,10.610619384765625,0.04239547252655029,0.2383403778076172,0.8133389949798584
1684109039179660800,10.620660888671875,0.01657700538635254,0.054737091064453125,0.8251118659973145
1684109039189702100,10.6307021484375,-0.032167911529541016,-0.08742713928222656,0.8149555325508118
1684109039199743500,10.640743408203125,-0.11308515071868896,-0.1740856170654297,0.8026670813560486
1684109039209784800,10.650784912109375,-0.23336076736450195,-0.09331226348876953,0.682153046131134
1684109039219826000,10.660825927734376,-0.3502275347709656,0.039642333984375,0.5274888277053833
1684109039229867300,10.6708671875,-0.41392725706100464,0.2006235122680664,0.24980294704437256
1684109039239908600,10.68090869140625,-0.5079036951065063,0.2126331329345703,-0.10555094480514526
1684109039249950000,10.690949951171875,-0.546779215335846,0.2159585952758789,-0.5683186650276184
1684109039259991000,10.700990966796875,-0.558347761631012,-0.014680862426757812,-0.9701064229011536
1684109039270032400,10.711032470703126,-0.6411970257759094,-0.3106708526611328,-1.3627057075500488
1684109039280073700,10.72107373046875,-0.8703904151916504,-0.44670677185058594,-1.8354014158248901
1684109039290115000,10.731114990234374,-1.172455072402954,-0.4929008483886719,-2.089489221572876
1684109039300156400,10.741156494140625,-1.4967572689056396,-0.4397449493408203,-2.0734610557556152
1684109039310197500,10.751197509765625,-1.6816527843475342,-0.3850841522216797,-1.95097017288208
1684109039320238800,10.76123876953125,-1.7851245403289795,-0.5290613174438477,-1.6284937858581543
1684109039330280200,10.7712802734375,-1.7253600358963013,-0.6987028121948242,-1.2626702785491943
1684109039340321500,10.781321533203124,-1.419545292854309,-0.6097745895385742,-1.069453239440918
1684109039350362600,10.791362548828126,-0.8414863348007202,-0.3494749069213867,-0.9446821212768555
1684109039360404000,10.801404052734375,-0.06577637791633606,-0.0688619613647461,-0.5507107377052307
1684109039370445300,10.8114453125,0.7003405690193176,0.017385482788085938,0.06825578212738037
1684109039380486700,10.821486572265625,1.4041237831115723,-0.1830883026123047,0.6312875747680664
1684109039390527700,10.83152783203125,1.959780216217041,-0.1584463119506836,0.8726549744606018
1684109039400569000,10.841569091796876,2.2102904319763184,-0.26268959045410156,1.0365782976150513
1684109039410610400,10.8516103515625,2.201992988586426,-0.44538307189941406,1.1020934581756592
1684109039420651800,10.86165185546875,1.91848886013031,-0.5153713226318359,1.1182032823562622
1684109039430693000,10.871693115234375,1.514557123184204,-0.49689674377441406,1.0620498657226562
1684109039440734200,10.881734130859375,0.9480789303779602,-0.378326416015625,0.992024838924408
1684109039450775600,10.891775634765626,0.24013856053352356,-0.3175477981567383,1.0679563283920288
1684109039460817000,10.90181689453125,-0.6777157187461853,-0.19975948333740234,1.2259435653686523
1684109039470858200,10.911858154296874,-1.6552984714508057,-0.1039419174194336,1.3481225967407227
1684109039480899300,10.9218994140625,-2.3825411796569824,0.04408454895019531,1.3103456497192383
1684109039490940700,10.931940673828125,-2.5550806522369385,0.058220863342285156,1.2319608926773071
1684109039500982000,10.94198193359375,-2.172901153564453,-0.02981853485107422,0.9925411939620972
1684109039511023400,10.9520234375,-1.4993321895599365,-0.2244405746459961,0.6562637686729431
1684109039521064400,10.962064453125,-0.8860422968864441,-0.26047706604003906,0.2458629012107849
1684109039531105800,10.972105712890626,-0.33600425720214844,-0.1434783935546875,-0.14477592706680298
1684109039541147100,10.982147216796875,0.016234740614891052,0.09711647033691406,-0.4095790982246399
1684109039551188500,10.9921884765625,0.1681322604417801,0.31267452239990234,-0.5562919974327087
1684109039561229800,11.002229736328125,0.18523503839969635,0.4817676544189453,-0.5432697534561157
1684109039571271000,11.01227099609375,0.10503494739532471,0.4972419738769531,-0.47454172372817993
1684109039581312300,11.022312255859376,-0.015256106853485107,0.4122648239135742,-0.39197421073913574
1684109039591353600,11.032353515625,-0.14242634177207947,0.26058292388916016,-0.3746682405471802
1684109039601395000,11.04239501953125,-0.20007139444351196,0.14968013763427734,-0.40926074981689453
1684109039611436000,11.05243603515625,-0.15500760078430176,0.10317420959472656,-0.3463972806930542
1684109039621477400,11.062477294921875,-0.15026459097862244,0.07555675506591797,-0.11429065465927124
1684109039631518700,11.072518798828124,-0.2332002818584442,-0.007128715515136719,0.11121892929077148
1684109039641560000,11.08256005859375,-0.3486771881580353,-0.17559814453125,0.37792518734931946
1684109039651601400,11.092601318359375,-0.4156329035758972,-0.4056510925292969,0.5388191938400269
1684109039661642500,11.102642578125,-0.4747813642024994,-0.44397830963134766,0.5942133665084839
1684109039671683800,11.112683837890625,-0.5165678262710571,-0.40809059143066406,0.6021367311477661
1684109039681725200,11.12272509765625,-0.5579421520233154,-0.2551698684692383,0.638934314250946
1684109039691766500,11.1327666015625,-0.5683899521827698,-0.1598196029663086,0.670551061630249
1684109039701807900,11.142807861328125,-0.5722616910934448,-0.040711402893066406,0.6276707053184509
1684109039711849000,11.152848876953126,-0.5506423711776733,0.03046894073486328,0.6128838062286377
1684109039721890300,11.162890380859375,-0.5221865177154541,0.09682369232177734,0.5788733959197998
1684109039731931600,11.172931640625,-0.43124115467071533,0.1679544448852539,0.5449265837669373
1684109039741973000,11.182972900390626,-0.3199148178100586,0.18420886993408203,0.5277587175369263
1684109039752014000,11.19301416015625,-0.13044407963752747,0.1982898712158203,0.5106063485145569
1684109039762055400,11.203055419921874,0.02886301279067993,0.2363576889038086,0.4945240914821625
1684109039772096800,11.2130966796875,0.19744831323623657,0.18363475799560547,0.5607688426971436
1684109039782138000,11.22313818359375,0.33535128831863403,0.18352508544921875,0.6352287530899048
1684109039792179200,11.23317919921875,0.4763617515563965,0.13786888122558594,0.7393699288368225
1684109039802220500,11.243220458984375,0.5281562805175781,0.04194068908691406,0.8585497140884399
1684109039812262000,11.253261962890624,0.5763348340988159,-0.03247356414794922,1.0064723491668701
1684109039822303200,11.26330322265625,0.5806601047515869,-0.08535289764404297,1.136976718902588
1684109039832344600,11.273344482421875,0.5708498358726501,-0.009190559387207031,1.2041176557540894
1684109039842385700,11.2833857421875,0.5668840408325195,0.023853302001953125,1.283665657043457
1684109039852427000,11.293427001953125,0.5554428696632385,0.04260826110839844,1.3061884641647339
1684109039862468400,11.30346826171875,0.5684424042701721,-0.017316818237304688,1.3027963638305664
1684109039872509700,11.313509765625,0.6060664653778076,-0.11034107208251953,1.3117578029632568
1684109039882551000,11.323551025390625,0.6341983079910278,-0.14805889129638672,1.2542829513549805
1684109039892592000,11.333592041015624,0.6613852381706238,-0.06383037567138672,1.181119680404663
1684109039902633500,11.343633544921875,0.6628924012184143,0.02733898162841797,1.1259419918060303
1684109039912674800,11.3536748046875,0.6577385067939758,0.08243560791015625,1.0457260608673096
1684109039922716200,11.363716064453126,0.6676377058029175,0.13736915588378906,0.962070882320404
1684109039932757200,11.37375732421875,0.6403843760490417,0.15869903564453125,0.8752968907356262
1684109039942798600,11.383798583984374,0.6456762552261353,0.1703624725341797,0.7669452428817749
1684109039952840000,11.39383984375,0.6073224544525146,0.08643627166748047,0.689480185508728
1684109039962881300,11.40388134765625,0.580638587474823,0.02658367156982422,0.5830289721488953
1684109039972922400,11.41392236328125,0.5370435118675232,0.000293731689453125,0.4979173541069031
1684109039982963700,11.423963623046875,0.47898221015930176,-0.030745506286621094,0.40814441442489624
1684109039993005000,11.434005126953124,0.41357994079589844,-0.011617660522460938,0.2876920700073242
1684109040003046400,11.44404638671875,0.3336625099182129,-0.028435707092285156,0.21567589044570923
1684109040013087700,11.454087646484375,0.2602376341819763,-0.11460590362548828,0.1637742817401886
1684109040023128800,11.46412890625,0.14527571201324463,-0.15301036834716797,0.09003087878227234
1684109040033170200,11.474170166015625,0.02449899911880493,-0.10321712493896484,0.0356200635433197
1684109040043211500,11.48421142578125,-0.07110792398452759,-0.03948497772216797,0.019646048545837402
1684109040053252900,11.4942529296875,-0.22963619232177734,0.01669597625732422,-0.03712475299835205
1684109040063294200,11.504294189453125,-0.3733942210674286,0.07022285461425781,-0.08956962823867798
1684109040073335300,11.514335205078124,-0.4859203100204468,0.05917930603027344,-0.07313776016235352
1684109040083376600,11.524376708984375,-0.5444786548614502,0.06661033630371094,0.0352114737033844
1684109040093418000,11.53441796875,-0.5003825426101685,0.029722213745117188,0.26059654355049133
1684109040103459300,11.544459228515626,-0.36484840512275696,-0.02241992950439453,0.4699280261993408
1684109040113500400,11.55450048828125,-0.16311252117156982,-0.06148529052734375,0.5215352177619934
1684109040123541800,11.564541748046874,0.03711193799972534,-0.10443305969238281,0.4819078743457794
1684109040133583000,11.5745830078125,0.18196123838424683,-0.09958934783935547,0.43079790472984314
1684109040143624400,11.58462451171875,0.2713735103607178,-0.10433006286621094,0.3944363296031952
1684109040153665800,11.594665771484374,0.3178161382675171,-0.04552936553955078,0.35377761721611023
1684109040163707000,11.604706787109375,0.33625465631484985,-0.08668231964111328,0.3537960648536682
1684109040173748200,11.614748291015625,0.3158875107765198,-0.13192176818847656,0.3044452369213104
1684109040183789600,11.62478955078125,0.3215290307998657,-0.14348220825195312,0.2868998646736145
1684109040193831000,11.634830810546875,0.26862961053848267,-0.08657455444335938,0.25834769010543823
1684109040203872000,11.6448720703125,0.24800753593444824,-0.04471111297607422,0.20724502205848694
1684109040213913300,11.654913330078125,0.2614874243736267,0.0035343170166015625,0.1530192494392395
1684109040223954700,11.66495458984375,0.28431564569473267,0.017966270446777344,0.08672729134559631
1684109040233996000,11.67499609375,0.3222265839576721,0.046169281005859375,0.08821368217468262
1684109040244037400,11.685037353515625,0.35549479722976685,0.052562713623046875,0.08321806788444519
1684109040254078500,11.695078369140624,0.3509482145309448,0.05869770050048828,0.11150413751602173
1684109040264119800,11.705119873046876,0.2953813076019287,0.0810842514038086,0.0947079062461853
1684109040274161200,11.7151611328125,0.25364983081817627,0.13123512268066406,0.081000417470932
1684109040284202500,11.725202392578124,0.20706772804260254,0.14042091369628906,0.10602861642837524
1684109040294243800,11.735243896484375,0.19347882270812988,0.10698127746582031,0.11251866817474365
1684109040304285000,11.745284912109375,0.13426119089126587,0.036286354064941406,0.1199459433555603
1684109040314326300,11.755326171875,0.12389212846755981,-0.03340625762939453,0.16587084531784058
1684109040324367600,11.76536767578125,0.043946266174316406,-0.05737113952636719,0.24711626768112183
1684109040334409000,11.775408935546874,-0.016940951347351074,-0.09281539916992188,0.31779807806015015
1684109040344450000,11.785449951171875,-0.07957857847213745,-0.06412124633789062,0.3657207489013672
1684109040354491400,11.795491455078125,-0.15740752220153809,-0.10881900787353516,0.42362481355667114
1684109040364532700,11.80553271484375,-0.19793355464935303,-0.12679100036621094,0.4634605050086975
1684109040374574000,11.815573974609375,-0.22211813926696777,-0.149017333984375,0.4807559847831726
1684109040384615400,11.825615478515624,-0.2272067666053772,-0.02942943572998047,0.5161983370780945
1684109040394656500,11.835656494140625,-0.20883190631866455,-0.0011053085327148438,0.5977458357810974
1684109040404697900,11.84569775390625,-0.1603919267654419,-0.0766143798828125,0.6651147603988647
1684109040414739200,11.8557392578125,-0.09920096397399902,-0.15772724151611328,0.6760315299034119
1684109040424780500,11.865780517578125,-0.04225456714630127,-0.0913839340209961,0.6508808732032776
1684109040434821600,11.875821533203125,0.07160407304763794,-0.06839752197265625,0.6939767003059387
1684109040444863000,11.885863037109376,0.1467341184616089,-0.06921768188476562,0.6669909358024597
1684109040454904300,11.895904296875,0.20906144380569458,-0.09350013732910156,0.6488951444625854
1684109040464945700,11.905945556640624,0.23224693536758423,-0.09852981567382812,0.5595803260803223
1684109040474987000,11.915987060546875,0.23985964059829712,-0.07526779174804688,0.5111503005027771
1684109040485028000,11.926028076171875,0.24568670988082886,-0.05955028533935547,0.4418831467628479
1684109040495069400,11.9360693359375,0.23271512985229492,-0.030107498168945312,0.3898696005344391
1684109040505110800,11.94611083984375,0.19843155145645142,-0.0036802291870117188,0.3454058766365051
1684109040515152100,11.956152099609374,0.11503845453262329,0.03860664367675781,0.27802908420562744
1684109040525193500,11.966193359375,0.012337744235992432,0.047095298767089844,0.21644261479377747
1684109040535234600,11.976234619140625,-0.0640028715133667,0.027093887329101562,0.21017765998840332
1684109040545276000,11.98627587890625,-0.14223533868789673,-0.0656290054321289,0.20658627152442932
1684109040555317200,11.996317138671875,-0.19876480102539062,-0.08861637115478516,0.24823816120624542
1684109040565358600,12.006358642578125,-0.2877632677555084,-0.050045013427734375,0.26795828342437744
1684109040575400000,12.01639990234375,-0.37277480959892273,-0.023860931396484375,0.2728345990180969
1684109040585441000,12.02644091796875,-0.4692631959915161,-0.0003566741943359375,0.24425189197063446
1684109040595482400,12.036482421875,-0.5056576728820801,0.034699440002441406,0.16383469104766846
1684109040605523700,12.046523681640625,-0.5158661603927612,0.012837409973144531,0.07262074947357178
1684109040615565000,12.05656494140625,-0.49822357296943665,-0.0297088623046875,-0.029014945030212402
1684109040625606100,12.066606201171876,-0.4772765040397644,0.018011093139648438,-0.11971902847290039
1684109040635647500,12.0766474609375,-0.45315009355545044,-0.012673377990722656,-0.19709694385528564
1684109040645688800,12.086688720703124,-0.39302119612693787,0.0066661834716796875,-0.22609171271324158
1684109040655730200,12.096730224609376,-0.333004891872406,-0.023698806762695312,-0.2475099265575409
1684109040665771500,12.106771484375,-0.261451780796051,-0.027602195739746094,-0.2499517798423767
1684109040675812600,12.1168125,-0.21905258297920227,-0.019643783569335938,-0.24080520868301392
1684109040685854000,12.12685400390625,-0.1419881284236908,-0.007099151611328125,-0.21089878678321838
1684109040695895300,12.136895263671875,-0.12035620212554932,0.024080276489257812,-0.17470991611480713
1684109040705936600,12.1469365234375,-0.06853938102722168,-0.01823902130126953,-0.19814348220825195
1684109040715977700,12.156977783203125,-0.03170353174209595,0.010775566101074219,-0.17896568775177002
1684109040726019000,12.16701904296875,-0.011932969093322754,-0.021886825561523438,-0.20520350337028503
1684109040736060400,12.177060302734375,0.0405195951461792,0.01898956298828125,-0.21009156107902527
1684109040746101800,12.187101806640625,0.07071161270141602,0.04034233093261719,-0.26679185032844543
1684109040756143000,12.19714306640625,0.0859420895576477,0.051886558532714844,-0.3081725835800171
1684109040766184200,12.20718408203125,0.10754919052124023,0.06790447235107422,-0.36030372977256775
1684109040776225500,12.2172255859375,0.1116325855255127,0.0671234130859375,-0.3924843966960907
1684109040786267000,12.227266845703125,0.11744356155395508,0.07101917266845703,-0.40505772829055786
1684109040796308200,12.23730810546875,0.11796802282333374,0.07009220123291016,-0.43348172307014465
1684109040806349600,12.247349609375,0.10161340236663818,0.07619762420654297,-0.4444515109062195
1684109040816390700,12.257390625,0.08524453639984131,0.0774545669555664,-0.4642312228679657
1684109040826432000,12.267431884765625,0.08543574810028076,0.10219383239746094,-0.47840049862861633
1684109040836473300,12.277473388671876,0.09735816717147827,0.09823226928710938,-0.4021499752998352
1684109040846514700,12.2875146484375,0.1090230941772461,0.08959388732910156,-0.36190247535705566
1684109040856556000,12.29755615234375,0.11807894706726074,0.08339214324951172,-0.27177631855010986
1684109040866597000,12.30759716796875,0.12675130367279053,0.02780914306640625,-0.11429333686828613
1684109040876638500,12.317638427734375,0.135093092918396,0.0060901641845703125,0.024245470762252808
1684109040886679800,12.3276796875,0.13368111848831177,-0.03172588348388672,0.11983230710029602
1684109040896721200,12.33772119140625,0.13864409923553467,-0.054782867431640625,0.1776730716228485
1684109040906762200,12.34776220703125,0.14709872007369995,-0.05157661437988281,0.1959187090396881
1684109040916803600,12.357803466796875,0.10248738527297974,-0.08611106872558594,0.16105377674102783
1684109040926845000,12.367844970703125,0.0602344274520874,-0.07770252227783203,0.07660189270973206
1684109040936886300,12.37788623046875,0.006800055503845215,-0.078826904296875,-0.025901377201080322
1684109040946927600,12.387927734375,-0.05719655752182007,-0.05636024475097656,-0.17637771368026733
1684109040956968700,12.39796875,-0.11505085229873657,0.010477066040039062,-0.2559143900871277
1684109040967010000,12.408010009765626,-0.16926440596580505,0.05500507354736328,-0.31948262453079224
