time,seconds_elapsed,z,y,x
1683931612944014000,0.03501416015625,0,0,0
1683931612954056200,0.04505615234375,-0.08202600479125977,0.18539312481880188,0.07867754995822906
1683931612964098300,0.055098388671875,-0.15116214752197266,0.2644025385379791,0.13285326957702637
1683931612974140400,0.065140380859375,-0.029923439025878906,0.35019391775131226,0.19422712922096252
1683931612984182500,0.0751826171875,0.3186178207397461,0.47463369369506836,0.14412805438041687
1683931612994224600,0.085224609375,0.7873659133911133,0.557089626789093,0.02521011233329773
1683931613004266500,0.0952666015625,1.4639253616333008,0.4634692072868347,-0.03713420033454895
1683931613014308600,0.10530859375,2.0447893142700195,0.32727715373039246,-0.10062572360038757
1683931613024350700,0.115350830078125,2.191534996032715,0.3317264914512634,-0.2035716474056244
1683931613034392800,0.125392822265625,2.100247383117676,0.01638495922088623,-0.289214164018631
1683931613044435000,0.13543505859375,1.9273252487182617,-0.10926234722137451,-0.772942066192627
1683931613054477000,0.14547705078125,1.4392213821411133,0.09359455108642578,-1.6483335494995117
1683931613064519200,0.155519287109375,0.7134065628051758,0.2516719102859497,-1.996037244796753
1683931613074561000,0.16556103515625,0.5995893478393555,0.051512718200683594,-1.8030073642730713
1683931613084603100,0.17560302734375,0.6563119888305664,0.1859898567199707,-0.8589777946472168
1683931613094645200,0.185645263671875,0.6849803924560547,0.4654233455657959,0.06247711181640625
1683931613104687400,0.195687255859375,0.8660211563110352,0.791284441947937,0.5203443765640259
1683931613114729500,0.2057294921875,0.924443244934082,1.104280710220337,0.8216187953948975
1683931613124771600,0.215771484375,1.005361557006836,1.1647603511810303,1.0193722248077393
1683931613134813700,0.225813720703125,1.4303951263427734,1.1975325345993042,1.1779210567474365
1683931613144855600,0.23585546875,1.6332464218139648,0.9012770652770996,1.3859516382217407
1683931613154897700,0.245897705078125,1.812295913696289,0.6055374145507812,1.379248857498169
1683931613164939800,0.255939697265625,1.6358623504638672,0.6869750022888184,1.1403497457504272
1683931613174982000,0.26598193359375,1.0118026733398438,0.8230001926422119,0.8905422687530518
1683931613185024000,0.27602392578125,0.022924423217773438,0.7127091884613037,0.8639893531799316
1683931613195066000,0.286066162109375,-0.8534250259399414,0.48549842834472656,0.8458608984947205
1683931613205108200,0.296108154296875,-1.8926143646240234,0.5639513731002808,0.7382951974868774
1683931613215150000,0.306150146484375,-3.161714553833008,0.8105946779251099,1.017409086227417
1683931613225192200,0.316192138671875,-3.977632999420166,1.1943933963775635,0.8524055480957031
1683931613235234300,0.326234375,-4.137381553649902,1.4492782354354858,0.5214265584945679
1683931613245276400,0.3362763671875,-3.636539936065674,1.0921136140823364,1.1718634366989136
1683931613255318500,0.346318603515625,-1.418370246887207,1.0676822662353516,0.3996924161911011
1683931613265360600,0.356360595703125,0.5597743988037109,1.3866691589355469,-0.1734752655029297
1683931613275402800,0.36640283203125,2.221623420715332,1.557510495185852,0.541496753692627
1683931613285444600,0.376444580078125,3.292398452758789,1.3184072971343994,1.8240373134613037
1683931613295486700,0.38648681640625,4.081295013427734,1.4763952493667603,2.3391408920288086
1683931613305528800,0.39652880859375,3.3429603576660156,1.8365252017974854,2.1836986541748047
1683931613315571000,0.406571044921875,2.6459436416625977,2.1677322387695312,1.8769176006317139
1683931613325613000,0.416613037109375,1.8022432327270508,0.5896587371826172,0.2662956714630127
1683931613335655200,0.4266552734375,0.666473388671875,1.924142599105835,0.6113579273223877
1683931613345697300,0.436697265625,-0.33936119079589844,2.9096765518188477,0.8854882717132568
1683931613355739100,0.4467392578125,-0.6579360961914062,2.9863181114196777,0.8049936294555664
1683931613365781200,0.45678125,-0.7283763885498047,2.3690390586853027,0.600304126739502
1683931613375823400,0.4668232421875,0.857295036315918,2.455392837524414,-0.1601865291595459
1683931613385865500,0.476865478515625,2.5593862533569336,2.3322043418884277,-0.27512311935424805
1683931613395907600,0.486907470703125,3.991572380065918,1.7150483131408691,0.33693933486938477
1683931613405949700,0.49694970703125,5.462596893310547,2.961599588394165,1.3534164428710938
1683931613415991800,0.50699169921875,4.283968925476074,1.6056337356567383,1.3797321319580078
1683931613426033700,0.51703369140625,3.9678611755371094,0.8813936710357666,3.171294689178467
1683931613436075800,0.52707568359375,2.9556808471679688,1.672710657119751,2.651458740234375
1683931613446118000,0.537117919921875,0.5418529510498047,0.8554927110671997,3.781933307647705
1683931613456160000,0.547159912109375,-1.1485481262207031,0.8212435245513916,3.6611862182617188
1683931613466202000,0.5572021484375,-2.459125518798828,1.3348933458328247,3.264285087585449
1683931613476244200,0.567244140625,-2.850748062133789,1.628857135772705,2.9944114685058594
1683931613486286300,0.577286376953125,-2.2677130699157715,1.269393801689148,2.711667537689209
1683931613496328400,0.587328369140625,-1.5679726600646973,0.5710620880126953,2.4269890785217285
1683931613506370300,0.597370361328125,-0.12737321853637695,0.20047211647033691,2.102515697479248
1683931613516412400,0.607412353515625,1.0091948509216309,0.018939971923828125,2.7768139839172363
1683931613526454500,0.61745458984375,1.411308765411377,-0.1883716583251953,2.7983927726745605
1683931613536496600,0.62749658203125,1.568929672241211,-0.6440796852111816,2.792968273162842
1683931613546538800,0.637538818359375,0.2077016830444336,-1.1672945022583008,2.9949231147766113
1683931613556580900,0.647580810546875,-1.5582361221313477,-1.3482177257537842,1.9954805374145508
1683931613566623000,0.657623046875,-13.273290634155273,-2.589138984680176,1.2898473739624023
1683931613576665000,0.6676650390625,-20.356685638427734,3.2686595916748047,-1.7335224151611328
1683931613586707000,0.67770703125,0.6102147102355957,3.2493538856506348,2.630443572998047
1683931613596749000,0.6877490234375,-1.59379243850708,-2.6335747241973877,4.816222190856934
1683931613606791200,0.697791259765625,-2.0261285305023193,-1.2548248767852783,4.066932678222656
1683931613616833300,0.707833251953125,-2.148484230041504,0.7967529296875,2.108431816101074
1683931613626875400,0.71787548828125,-1.6676583290100098,-0.330981969833374,0.9451122283935547
1683931613636917500,0.72791748046875,-0.24962329864501953,-1.4393067359924316,0.5838413238525391
1683931613646959600,0.737959716796875,-2.0111002922058105,-1.8310539722442627,1.8220882415771484
1683931613657001500,0.74800146484375,-2.6041362285614014,-0.8665528297424316,0.605137825012207
1683931613667043600,0.758043701171875,-2.30727481842041,-1.0406453609466553,0.7342662811279297
1683931613677085700,0.768085693359375,-2.1359939575195312,-1.2490859031677246,0.3636589050292969
1683931613687127800,0.7781279296875,-1.7922258377075195,-1.3447880744934082,-0.712623119354248
1683931613697170000,0.788169921875,-0.9493374824523926,-1.5784833431243896,-1.1379966735839844
1683931613707212000,0.7982119140625,-0.9235339164733887,-1.7097408771514893,-1.196676254272461
1683931613717254100,0.808254150390625,-1.4992196559906006,-1.2678956985473633,-1.667703628540039
1683931613727296300,0.818296142578125,-0.1993560791015625,-0.6180479526519775,-2.0325241088867188
1683931613737338000,0.828338134765625,1.5800013542175293,-0.8883407115936279,-0.6637091636657715
1683931613747380200,0.838380126953125,2.252157211303711,-0.9473094940185547,-0.46208667755126953
1683931613757422300,0.84842236328125,2.7719550132751465,-1.2643907070159912,-0.5600919723510742
1683931613767464400,0.85846435546875,2.087338924407959,-1.7233123779296875,-0.6293668746948242
1683931613777506600,0.868506591796875,0.5213942527770996,-2.0769124031066895,-0.9908876419067383
1683931613787548700,0.878548583984375,-0.3846406936645508,-1.216538667678833,-2.018063545227051
1683931613797590800,0.8885908203125,-1.159975290298462,-0.6684563159942627,-1.4695591926574707
1683931613807633000,0.8986328125,-1.910729169845581,0.04173874855041504,-0.794224739074707
1683931613817674800,0.9086748046875,-2.023914098739624,0.8218470811843872,-0.24051666259765625
1683931613827716900,0.918716796875,-2.202996015548706,1.8875854015350342,-0.275909423828125
1683931613837759000,0.928759033203125,-2.2257161140441895,2.035996913909912,-0.16679859161376953
1683931613847801000,0.938801025390625,-3.9424819946289062,0.18424773216247559,0.5438566207885742
1683931613857843200,0.94884326171875,-2.0469908714294434,1.1029717922210693,-0.6493473052978516
1683931613867885300,0.95888525390625,-1.9798378944396973,0.6331647634506226,-0.693079948425293
1683931613877927400,0.968927490234375,-1.4690966606140137,0.6773049831390381,-0.981114387512207
1683931613887969500,0.978969482421875,-1.6664291620254517,-0.011612176895141602,-0.12583351135253906
1683931613898011600,0.98901171875,-0.49910223484039307,-0.026267051696777344,-0.6071834564208984
1683931613908053500,0.999053466796875,-0.11680471897125244,-0.08443069458007812,-1.2133293151855469
1683931613918095600,1.009095703125,-0.6661198139190674,-0.7197520732879639,-1.2344942092895508
1683931613928137700,1.0191376953125,-0.7099144458770752,-0.6997127532958984,-1.4067630767822266
1683931613938179800,1.029179931640625,-0.2718851566314697,-0.7588539123535156,-1.6108407974243164
1683931613948222000,1.039221923828125,-0.1756455898284912,-0.9216091632843018,-1.5311431884765625
1683931613958264000,1.04926416015625,0.0886152982711792,-1.273545742034912,-1.2888545989990234
1683931613968306200,1.05930615234375,0.5643093585968018,-1.644232988357544,-1.190688133239746
1683931613978348000,1.06934814453125,0.7159538269042969,-1.7643883228302002,-1.7967443466186523
1683931613988390100,1.07939013671875,-0.044247984886169434,-1.9395036697387695,-2.3892335891723633
1683931613998432300,1.089432373046875,-0.1845911741256714,-2.08132266998291,-0.9949007034301758
1683931614008474400,1.099474365234375,-0.10030925273895264,-2.180668830871582,0.20467376708984375
1683931614018516500,1.1095166015625,0.034315407276153564,-1.997617244720459,-0.2747831344604492
1683931614028558600,1.11955859375,0.2662341594696045,-1.9771695137023926,-0.9263887405395508
1683931614038600700,1.1296005859375,0.2520298659801483,-1.9265689849853516,-1.5427865982055664
1683931614048642800,1.139642822265625,-0.4841972887516022,-1.9309375286102295,-1.2562665939331055
1683931614058685000,1.149684814453125,-1.447744369506836,-1.7118253707885742,-0.8058700561523438
1683931614068726800,1.159726806640625,-1.9718148708343506,-1.5068845748901367,-0.29049015045166016
1683931614078769000,1.169768798828125,-1.9142755270004272,-1.3412621021270752,0.187957763671875
1683931614088811000,1.17981103515625,-1.5029815435409546,-1.7235581874847412,0.8339662551879883
1683931614098853000,1.18985302734375,-1.0345638990402222,-1.7742338180541992,1.194366455078125
1683931614108895200,1.199895263671875,-0.8987991213798523,-1.5670690536499023,1.1297101974487305
1683931614118937300,1.209937255859375,-0.7297297120094299,-1.3921117782592773,0.8335952758789062
1683931614128979500,1.2199794921875,-0.626460075378418,-1.1145358085632324,0.47873878479003906
1683931614139021600,1.230021484375,-0.6885794401168823,-1.0447845458984375,0.2149953842163086
1683931614149063400,1.2400634765625,-0.8478552103042603,-1.118459701538086,-0.09975719451904297
1683931614159105500,1.25010546875,-0.7893667221069336,-1.0661320686340332,-0.7004470825195312
1683931614169147600,1.260147705078125,-0.5483309030532837,-1.0958442687988281,-1.2383522987365723
1683931614179189800,1.270189697265625,-0.4431678056716919,-1.3579044342041016,-1.0791831016540527
1683931614189231900,1.28023193359375,-0.3293701410293579,-1.3812289237976074,-0.8461208343505859
1683931614199274000,1.29027392578125,-0.4633178114891052,-1.4186596870422363,-0.0750589370727539
1683931614209316000,1.300316162109375,-0.5188174843788147,-1.2865872383117676,0.5562038421630859
1683931614219358200,1.310358154296875,-0.5064168572425842,-0.902869701385498,0.23527145385742188
1683931614229400000,1.320400146484375,-0.6250819563865662,-0.6895046234130859,0.4483661651611328
1683931614239442200,1.330442138671875,-0.5926713347434998,-0.6695270538330078,0.8747625350952148
1683931614249484300,1.340484375,-0.34101101756095886,-0.8274712562561035,0.8305988311767578
1683931614259526400,1.3505263671875,0.3664218783378601,-1.544203281402588,0.9490222930908203
1683931614269568500,1.360568603515625,0.23470427095890045,-0.8646907806396484,0.22580242156982422
1683931614279610600,1.370610595703125,-0.2591513395309448,-0.3248014450073242,-0.07749080657958984
1683931614289652700,1.38065283203125,-0.3412470817565918,-0.48368406295776367,-0.9047040939331055
1683931614299694800,1.39069482421875,-0.5047317147254944,-0.832244873046875,-0.43558597564697266
1683931614309737000,1.400737060546875,-0.6419504284858704,-0.6756296157836914,-1.2713203430175781
1683931614319778800,1.41077880859375,-0.5828445553779602,-0.7275266647338867,-0.10093307495117188
1683931614329821000,1.420821044921875,-0.394850492477417,-1.080897331237793,-1.149153709411621
1683931614339863000,1.430863037109375,-0.7097300291061401,-1.2422723770141602,-0.5166788101196289
1683931614349905200,1.4409052734375,-0.8000081777572632,-0.9285287857055664,-0.6395225524902344
1683931614359947300,1.450947265625,-0.7477259635925293,-0.7932572364807129,-0.4552764892578125
1683931614369989400,1.4609892578125,-0.6797542572021484,-0.8664360046386719,-0.5297203063964844
1683931614380031500,1.471031494140625,-0.5638004541397095,-1.0131111145019531,-0.8928256034851074
1683931614390073600,1.481073486328125,-0.41680464148521423,-1.0843348503112793,-1.2553744316101074
1683931614400115700,1.49111572265625,-0.4204939007759094,-1.1041908264160156,-1.2463836669921875
1683931614410157600,1.501157470703125,-0.5411355495452881,-1.145169734954834,-1.2707147598266602
1683931614420199700,1.51119970703125,-0.5811845064163208,-1.3867402076721191,-1.3549394607543945
1683931614430241800,1.52124169921875,-0.7454820871353149,-2.0772271156311035,-0.971531867980957
1683931614440284000,1.531283935546875,-0.8895930051803589,-1.9306974411010742,-0.5600900650024414
1683931614450326000,1.541325927734375,-0.7948952913284302,-1.308492660522461,-0.34792041778564453
1683931614460368100,1.5513681640625,-0.505730390548706,-0.7619309425354004,-0.2536182403564453
1683931614470410200,1.56141015625,-0.17322584986686707,-0.7045717239379883,-0.0663442611694336
1683931614480452400,1.571452392578125,-0.12449595332145691,-0.570615291595459,0.005335807800292969
1683931614490494500,1.581494384765625,-0.18906170129776,-0.5235319137573242,-0.23859405517578125
1683931614500536300,1.591536376953125,-0.460695743560791,-0.6496725082397461,-0.5726280212402344
1683931614510578400,1.601578369140625,-0.7276074886322021,-0.5304322242736816,-0.9281558990478516
1683931614520620500,1.61162060546875,-0.8616575002670288,-0.45737361907958984,-1.4947271347045898
1683931614530662700,1.62166259765625,-0.7615189552307129,-0.4785480499267578,-1.5014104843139648
1683931614540704800,1.631704833984375,-0.4698978662490845,-0.6308417320251465,-1.5655956268310547
1683931614550747000,1.641746826171875,-0.18794989585876465,-0.19981002807617188,-1.3660697937011719
1683931614560789000,1.6517890625,-0.48151731491088867,-0.4211444854736328,-1.2149558067321777
1683931614570831000,1.6618310546875,-0.5119922161102295,-0.5773468017578125,-0.9427947998046875
1683931614580873200,1.671873291015625,-0.7434507608413696,-0.5586051940917969,-0.646514892578125
1683931614590915000,1.6819150390625,-0.44557952880859375,-0.18150854110717773,-0.6544198989868164
1683931614600957200,1.691957275390625,-0.9311306476593018,-0.7956867218017578,-0.6635546684265137
1683931614610999300,1.701999267578125,-0.930848240852356,-1.2347006797790527,-0.9335470199584961
1683931614621041400,1.71204150390625,-0.8354624509811401,-1.5640592575073242,-0.9648370742797852
1683931614631083500,1.72208349609375,-0.6979382038116455,-1.714491844177246,-0.8626852035522461
1683931614641125600,1.732125732421875,-0.3988593816757202,-1.8716011047363281,-0.8279542922973633
1683931614651167700,1.742167724609375,-0.5132917165756226,-1.692636489868164,-0.8911304473876953
1683931614661209900,1.7522099609375,-0.0618056058883667,-0.26848745346069336,-1.447826862335205
1683931614671252000,1.762251953125,-0.6913979053497314,-0.34723424911499023,-1.4955840110778809
1683931614681293800,1.7722939453125,-0.9914968013763428,-0.1781773567199707,-1.7225804328918457
1683931614691336000,1.7823359375,-1.1308730840682983,-0.36101436614990234,-1.095961570739746
1683931614701378000,1.7923779296875,-1.098811388015747,-0.36255979537963867,-1.4714646339416504
1683931614711420200,1.802420166015625,-0.6644320487976074,-0.30794811248779297,-1.3369503021240234
1683931614721462300,1.812462158203125,-0.5540496110916138,-0.2999844551086426,-1.2990670204162598
1683931614731504400,1.82250439453125,-1.0682250261306763,-0.6453723907470703,-1.3416471481323242
1683931614741546500,1.83254638671875,-1.276538610458374,-0.9860115051269531,-0.9831027984619141
1683931614751588600,1.842588623046875,-1.213720679283142,-0.8701467514038086,-0.5004768371582031
1683931614761630700,1.852630615234375,-0.6572943925857544,-0.42079877853393555,-0.13879108428955078
1683931614771672600,1.862672607421875,0.18408429622650146,0.03863191604614258,0.2494220733642578
1683931614781714700,1.872714599609375,0.82843416929245,0.02483224868774414,0.16126775741577148
1683931614791756800,1.8827568359375,1.7358431816101074,-1.2387480735778809,0.4456820487976074
1683931614801799000,1.892798828125,1.772457242012024,-1.4312524795532227,-0.7823934555053711
1683931614811841000,1.902841064453125,1.2309049367904663,-1.1281929016113281,-1.9379959106445312
1683931614821883100,1.912883056640625,0.8382587432861328,-1.030247688293457,-2.0201258659362793
1683931614831925200,1.92292529296875,0.643964409828186,-0.14753246307373047,-2.4278178215026855
1683931614841967400,1.93296728515625,-0.8773288726806641,-0.9847507476806641,-2.2552433013916016
1683931614852009500,1.943009521484375,-1.9493391513824463,-0.8886566162109375,-1.4735026359558105
1683931614862051300,1.95305126953125,-2.1713619232177734,-0.5884227752685547,-0.48291730880737305
1683931614872093400,1.963093505859375,-1.8415485620498657,-0.9437298774719238,0.026031494140625
1683931614882135600,1.973135498046875,-1.0503721237182617,-1.4159531593322754,0.3026585578918457
1683931614892177700,1.983177734375,-0.4894845485687256,-1.3074383735656738,0.07702398300170898
1683931614902219800,1.9932197265625,-0.1083756685256958,-1.6763811111450195,-0.4897146224975586
1683931614912262000,2.003261962890625,-0.15516376495361328,-1.2925772666931152,-1.1051344871520996
1683931614922304000,2.013303955078125,-0.4693467617034912,-0.7770819664001465,-1.6365666389465332
1683931614932346000,2.02334619140625,-0.6145555973052979,-0.7016639709472656,-2.0224971771240234
1683931614942388200,2.03338818359375,-0.5258688926696777,-0.7120471000671387,-1.6715583801269531
1683931614952430000,2.04343017578125,-0.22073066234588623,-0.712801456451416,-1.0635623931884766
1683931614962472200,2.05347216796875,-0.014520049095153809,-0.5855007171630859,-0.7215137481689453
1683931614972514300,2.063514404296875,-0.0828087329864502,-0.3566155433654785,-0.9077482223510742
1683931614982556400,2.073556396484375,-0.30285632610321045,-0.3056926727294922,-1.1201324462890625
1683931614992598500,2.0835986328125,-0.6078019142150879,-0.2530241012573242,-1.153182029724121
1683931615002640600,2.093640625,0.03124701976776123,-0.7949581146240234,-0.6759305000305176
1683931615012682800,2.103682861328125,-0.08251452445983887,-1.3233261108398438,-0.5612220764160156
1683931615022724900,2.113724853515625,-0.37782442569732666,-0.4264488220214844,-0.8777551651000977
1683931615032767000,2.12376708984375,-0.43181467056274414,-0.35316038131713867,-0.9617576599121094
1683931615042808800,2.133808837890625,-0.8094867467880249,-0.46444177627563477,-1.0393338203430176
1683931615052851000,2.143850830078125,-1.0550258159637451,-0.2577066421508789,-0.9155726432800293
1683931615062893000,2.15389306640625,-1.1031115055084229,-0.16157245635986328,-1.0681562423706055
1683931615072935200,2.16393505859375,-1.540405035018921,-0.3273186683654785,-1.1139240264892578
1683931615082977300,2.173977294921875,-1.1333211660385132,-0.5789980888366699,-1.6943144798278809
1683931615093019400,2.184019287109375,-1.1277340650558472,-0.5871639251708984,-1.7158880233764648
1683931615103061500,2.1940615234375,-0.47074341773986816,-0.6942839622497559,-1.6745567321777344
1683931615113103600,2.204103515625,-0.21752965450286865,-0.049413204193115234,-1.5838932991027832
1683931615123145700,2.214145751953125,-0.7258206605911255,-0.04946565628051758,-1.187838077545166
1683931615133187600,2.2241875,-1.1435925960540771,-0.27108335494995117,-1.3171029090881348
1683931615143229700,2.234229736328125,-1.672054648399353,-0.3279385566711426,-1.5203328132629395
1683931615153271800,2.244271728515625,-1.8307074308395386,-0.43288278579711914,-1.969876766204834
1683931615163314000,2.25431396484375,-1.5667563676834106,-0.6850485801696777,-2.019473075866699
1683931615173356000,2.26435595703125,-1.282000184059143,-0.429750919342041,-1.8827228546142578
1683931615183398100,2.274398193359375,-1.1671154499053955,-0.08226346969604492,-1.691251277923584
1683931615193440300,2.284440185546875,-1.1256959438323975,-0.02583169937133789,-1.2098631858825684
1683931615203482400,2.294482421875,-1.053483247756958,0.43795347213745117,-0.675849437713623
1683931615213524500,2.3045244140625,-0.9390252828598022,0.8387761116027832,0.25230932235717773
1683931615223566600,2.314566650390625,-0.9590669870376587,0.6258721351623535,0.4115772247314453
1683931615233608700,2.324608642578125,-0.9632495641708374,0.09776830673217773,0.9313387870788574
1683931615243650600,2.334650634765625,-0.878459095954895,-0.30452919006347656,0.9091825485229492
1683931615253692700,2.344692626953125,-0.8043570518493652,-0.6305480003356934,0.6713571548461914
1683931615263734800,2.35473486328125,-0.856173038482666,-0.7525954246520996,0.4959115982055664
1683931615273777000,2.36477685546875,-0.9593251943588257,-0.6546463966369629,0.11552858352661133
1683931615283819000,2.374819091796875,-0.9409581422805786,-0.47992753982543945,-0.15754222869873047
1683931615293861000,2.384861083984375,-1.0822933912277222,-0.6589860916137695,-0.2126936912536621
1683931615303903200,2.3949033203125,-1.2753738164901733,-0.22275495529174805,-0.5235805511474609
1683931615313945300,2.4049453125,-1.6439348459243774,-0.1332998275756836,-0.8494396209716797
1683931615323987200,2.4149873046875,-1.9811627864837646,0.21439599990844727,-1.065206527709961
1683931615334029300,2.425029296875,-2.11741304397583,-0.19435358047485352,-0.429872989654541
1683931615344071400,2.435071533203125,-2.143282651901245,-1.0244250297546387,-0.23308086395263672
1683931615354113500,2.445113525390625,-1.9275786876678467,-0.6791372299194336,0.12748050689697266
1683931615364155600,2.45515576171875,-1.6457488536834717,-0.2994203567504883,0.023050785064697266
1683931615374197800,2.46519775390625,-1.408366322517395,-0.48612260818481445,0.17028045654296875
1683931615384239900,2.475239990234375,-0.5116004943847656,-0.14589691162109375,0.43259191513061523
1683931615394282000,2.485281982421875,0.40197044610977173,-0.7104206085205078,0.7763328552246094
1683931615404324000,2.495323974609375,1.1626940965652466,-0.5677042007446289,0.7649993896484375
1683931615414366000,2.505365966796875,1.6036382913589478,-0.7241983413696289,0.695706844329834
1683931615424408300,2.515408203125,1.7222694158554077,-0.8084011077880859,0.4599008560180664
1683931615434450200,2.5254501953125,1.6862382888793945,-0.901212215423584,0.5911049842834473
1683931615444492300,2.5354921875,1.9164674282073975,-0.9215993881225586,0.39058732986450195
1683931615454534400,2.545534423828125,2.3581645488739014,-0.6872034072875977,-0.09442853927612305
1683931615464576500,2.555576416015625,2.3680191040039062,-0.20837783813476562,-0.40152502059936523
1683931615474618600,2.56561865234375,2.1935553550720215,0.1872396469116211,-0.9143843650817871
1683931615484660700,2.57566064453125,1.6499696969985962,0.542107105255127,-1.3616485595703125
1683931615494702800,2.585702880859375,1.120002031326294,0.8782567977905273,-1.755448818206787
1683931615504745000,2.595744873046875,0.8769908547401428,1.2096409797668457,-2.4261269569396973
1683931615514787000,2.605787109375,1.045984148979187,1.5501713752746582,-2.486752986907959
1683931615524829000,2.615828857421875,1.5901899337768555,1.4269461631774902,-2.6290740966796875
1683931615534871000,2.62587109375,1.9572010040283203,0.5226473808288574,-2.504847526550293
1683931615544913200,2.6359130859375,1.8765748739242554,-0.512937068939209,-2.282888889312744
1683931615554955300,2.645955322265625,1.722877025604248,-1.2870903015136719,-2.3105785846710205
1683931615564997400,2.655997314453125,1.6981244087219238,-1.204474925994873,-2.181290626525879
1683931615575039500,2.66603955078125,1.3814895153045654,-0.35454607009887695,-1.9569883346557617
1683931615585081600,2.67608154296875,0.9241275787353516,0.44392824172973633,-1.6041030883789062
1683931615595123700,2.686123779296875,0.380108118057251,-0.028856277465820312,-1.4880180358886719
1683931615605165800,2.696165771484375,0.03994637727737427,-0.5819973945617676,-0.665900707244873
1683931615615208000,2.7062080078125,0.11121261119842529,-0.9126367568969727,0.725304126739502
1683931615625249800,2.716249755859375,0.3688339293003082,-0.8091301918029785,2.0292396545410156
1683931615635292000,2.7262919921875,0.31079530715942383,-0.27898359298706055,2.9214277267456055
1683931615645334000,2.736333984375,0.21245187520980835,-0.02821063995361328,2.4435648918151855
1683931615655376100,2.746376220703125,-0.14391791820526123,-0.6942439079284668,0.8371987342834473
1683931615665418200,2.756418212890625,0.002761542797088623,-1.0080304145812988,-0.5569748878479004
1683931615675460400,2.76646044921875,0.7955453395843506,-0.828794002532959,-1.9956433773040771
1683931615685502500,2.77650244140625,2.025505304336548,-0.7775306701660156,-2.1475696563720703
1683931615695544600,2.786544677734375,2.5653553009033203,-0.5834150314331055,-1.6947174072265625
1683931615705586700,2.796586669921875,2.6128289699554443,-0.9225521087646484,-1.2515544891357422
1683931615715628800,2.80662890625,2.4417991638183594,-0.692997932434082,-0.5225410461425781
1683931615725670700,2.816670654296875,2.066906452178955,-0.5292949676513672,0.25423145294189453
1683931615735712800,2.826712646484375,1.7159804105758667,1.4496746063232422,0.6140580177307129
1683931615745755000,2.8367548828125,0.9526255130767822,-0.4519319534301758,0.10050249099731445
1683931615755797000,2.846796875,1.1400411128997803,-0.5319805145263672,0.40233469009399414
1683931615765839000,2.856839111328125,0.869113564491272,-0.6211490631103516,0.1376657485961914
1683931615775881200,2.866881103515625,1.304359793663025,-1.0356578826904297,0.49067115783691406
1683931615785923300,2.87692333984375,0.9348894357681274,-0.4523754119873047,0.21599197387695312
1683931615795965400,2.88696533203125,1.2205853462219238,0.6531872749328613,0.33049964904785156
1683931615806007600,2.897007568359375,1.2054557800292969,-0.13327312469482422,0.0077667236328125
1683931615816049700,2.907049560546875,1.1295665502548218,0.32104015350341797,-0.5308465957641602
1683931615826091800,2.917091796875,0.9836745858192444,0.6617870330810547,-0.7872352600097656
1683931615836133600,2.927133544921875,0.756619930267334,0.6007595062255859,-1.0365047454833984
1683931615846175700,2.93717578125,0.5494053959846497,0.602330207824707,-1.3974895477294922
1683931615856217900,2.9472177734375,0.3101005256175995,0.8402132987976074,-1.84358811378479
1683931615866260000,2.957260009765625,0.1861637830734253,0.329193115234375,-2.306366205215454
1683931615876302000,2.967302001953125,0.10379016399383545,0.2379465103149414,-2.1519198417663574
1683931615886344200,2.97734423828125,0.09105750918388367,0.30449581146240234,-1.6509809494018555
1683931615896386300,2.98738623046875,0.10608035326004028,0.27986812591552734,-1.0134210586547852
1683931615906428400,2.997428466796875,0.6556971073150635,0.03668403625488281,-0.48006439208984375
1683931615916470300,3.00747021484375,1.3810715675354004,-0.23745059967041016,0.027465343475341797
1683931615926512400,3.017512451171875,1.5216736793518066,-0.05212879180908203,0.13221979141235352
1683931615936554500,3.027554443359375,1.4249187707901,0.026091575622558594,0.23459100723266602
1683931615946596600,3.0375966796875,1.4081364870071411,0.4550809860229492,0.18689775466918945
1683931615956638700,3.047638671875,1.1164082288742065,0.11541557312011719,0.15709233283996582
1683931615966680800,3.057680908203125,0.6336774230003357,-0.11131858825683594,0.038893938064575195
1683931615976723000,3.067722900390625,0.22838936746120453,-0.45777034759521484,-1.0478408336639404
1683931615986765000,3.07776513671875,0.10577021539211273,-0.02228832244873047,-1.7291172742843628
1683931615996807200,3.08780712890625,-0.0015210658311843872,-0.25011634826660156,-1.202829122543335
1683931616006849300,3.097849365234375,-0.10505807399749756,-0.11977291107177734,-0.5109913349151611
1683931616016891400,3.107891357421875,-0.3923776149749756,1.0396242141723633,0.5485308170318604
1683931616026933200,3.117933349609375,-0.135735422372818,0.43877410888671875,0.8876817226409912
1683931616036975400,3.127975341796875,-0.7429981231689453,0.30108070373535156,1.048839807510376
1683931616047017500,3.138017578125,-0.7841758728027344,-0.16056442260742188,0.812516450881958
1683931616057059600,3.1480595703125,-0.3980596363544464,-0.04839611053466797,0.6197090148925781
1683931616067101700,3.158101806640625,-0.7490543127059937,-1.277292251586914,0.41288113594055176
1683931616077143800,3.168143798828125,-0.6364073753356934,-1.653024673461914,0.21248364448547363
1683931616087186000,3.17818603515625,-0.07736789435148239,-1.3138456344604492,0.6077947616577148
1683931616097228000,3.18822802734375,0.4350404143333435,-0.20537281036376953,0.8321828842163086
1683931616107270100,3.198270263671875,0.08539675176143646,-0.37226200103759766,0.8777875900268555
1683931616117312300,3.208312255859375,-0.3209775388240814,-0.9124031066894531,0.639763355255127
1683931616127354400,3.218354248046875,-0.46597158908843994,-1.8709211349487305,0.44833946228027344
1683931616137396200,3.228396240234375,-0.22108788788318634,-1.1025199890136719,0.423356294631958
1683931616147438300,3.238438232421875,-0.32943594455718994,-0.06545257568359375,0.4472663402557373
1683931616157480400,3.24848046875,-0.4372004568576813,0.07647705078125,0.022849321365356445
1683931616167522600,3.2585224609375,-0.22443781793117523,0.5967617034912109,-0.16426777839660645
1683931616177564700,3.268564697265625,-0.26120325922966003,1.2030229568481445,-0.0647878646850586
1683931616187606800,3.278606689453125,-0.405545175075531,1.408029556274414,0.012113332748413086
1683931616197649000,3.28864892578125,-0.355435848236084,1.2724695205688477,0.11591196060180664
1683931616207691000,3.29869091796875,0.041968658566474915,0.22922897338867188,0.04845738410949707
1683931616217733000,3.308733154296875,-0.07800944894552231,-0.3807945251464844,0.5015325546264648
1683931616227775200,3.318775146484375,0.09193786978721619,-0.8052186965942383,0.832211971282959
1683931616237817300,3.3288173828125,0.180170938372612,-0.03730964660644531,1.7822973728179932
1683931616247859200,3.338859130859375,0.2317257672548294,-0.3829183578491211,1.9173812866210938
1683931616257901300,3.3489013671875,0.1447848677635193,-0.4074230194091797,2.118722438812256
1683931616267943400,3.358943359375,0.49785539507865906,0.2237415313720703,2.0687568187713623
1683931616277985500,3.368985595703125,0.49849560856819153,-0.012826919555664062,1.6958110332489014
1683931616288027600,3.379027587890625,1.048056960105896,0.07850360870361328,1.0993926525115967
1683931616298069800,3.38906982421875,0.9694536328315735,-0.08753490447998047,0.6429610252380371
1683931616308112000,3.39911181640625,0.8722118139266968,-0.13718414306640625,0.14997649192810059
1683931616318154000,3.409154052734375,0.5170899033546448,-0.20556068420410156,-0.2066340446472168
1683931616328196000,3.419196044921875,0.3987610936164856,-0.24411869049072266,-0.27126240730285645
1683931616338238000,3.429238037109375,0.2738479971885681,-0.38901329040527344,-0.15224170684814453
1683931616348280300,3.4392802734375,0.47675833106040955,-0.32990264892578125,-0.05641365051269531
1683931616358322200,3.449322265625,0.935758113861084,-0.4954557418823242,-0.06808805465698242
1683931616368364300,3.4593642578125,1.0683269500732422,-0.022591590881347656,0.31665492057800293
1683931616378406400,3.469406494140625,1.2808239459991455,-0.8146266937255859,0.5013711452484131
1683931616388448500,3.479448486328125,1.20867919921875,-1.701554298400879,0.5425372123718262
1683931616398490600,3.48949072265625,0.8489373922348022,-2.542630195617676,0.9286720752716064
1683931616408532700,3.49953271484375,0.6847995519638062,-2.3791980743408203,0.6670196056365967
1683931616418574800,3.509574951171875,0.569615364074707,-2.3118371963500977,-0.07367324829101562
1683931616428617000,3.519616943359375,0.6771369576454163,-1.8028926849365234,0.23424458503723145
1683931616438658800,3.529658935546875,0.30935245752334595,-0.630345344543457,0.45660972595214844
1683931616448701000,3.539700927734375,-0.2994379997253418,0.18530750274658203,0.5275306701660156
1683931616458743000,3.549742919921875,-0.7930446863174438,0.5562286376953125,0.471637487411499
1683931616468785200,3.55978515625,-1.0537300109863281,0.6790666580200195,0.4286973476409912
1683931616478827300,3.5698271484375,-1.2735785245895386,0.776219367980957,0.3093075752258301
1683931616488869400,3.579869384765625,-1.2690919637680054,1.084136962890625,-0.024365901947021484
1683931616498911500,3.589911376953125,-1.1385947465896606,0.9602775573730469,-0.2769341468811035
1683931616508953600,3.59995361328125,-0.9299708604812622,0.8429956436157227,-0.5096148252487183
1683931616518995700,3.60999560546875,-0.5316515564918518,0.9283504486083984,-0.6426279544830322
1683931616529037800,3.620037841796875,-0.37676113843917847,0.7514066696166992,-0.3991811275482178
1683931616539080000,3.630079833984375,-0.1341678500175476,0.7763175964355469,-0.3617669343948364
1683931616549121800,3.640121826171875,0.08532750606536865,0.5568866729736328,-0.2220625877380371
1683931616559164000,3.650163818359375,0.21569272875785828,0.3010883331298828,0.0005655288696289062
1683931616569206000,3.6602060546875,0.2335631251335144,-0.08032894134521484,0.019051074981689453
1683931616579248000,3.670248046875,0.305440217256546,-0.19549560546875,-0.2560689449310303
1683931616589290200,3.680290283203125,0.1822265386581421,0.6928739547729492,0.49948549270629883
1683931616599332400,3.690332275390625,-0.4411622881889343,-0.6086521148681641,-0.7036631107330322
1683931616609374500,3.70037451171875,-0.28959792852401733,-0.9763803482055664,-1.2034008502960205
1683931616619416600,3.71041650390625,-0.30596423149108887,-0.8943204879760742,-1.1468074321746826
1683931616629458700,3.720458740234375,-0.47146570682525635,-0.8288516998291016,-1.151285171508789
1683931616639500800,3.730500732421875,-0.5540124177932739,0.007488250732421875,-0.3641481399536133
1683931616649543000,3.74054296875,-0.40802645683288574,-0.5304183959960938,-1.0637770891189575
1683931616659584800,3.750584716796875,-0.27986598014831543,-0.6358575820922852,-0.6987581253051758
1683931616669627000,3.760626953125,-0.0857466459274292,-0.7922725677490234,-0.47963881492614746
1683931616679669000,3.7706689453125,0.04597783088684082,-0.9942722320556641,-0.29160547256469727
1683931616689711000,3.780711181640625,0.3427358865737915,-1.4108381271362305,-0.4192936420440674
1683931616699753200,3.790753173828125,0.7397974729537964,-1.5428047180175781,-0.6210978031158447
1683931616709795300,3.80079541015625,0.9415982961654663,-1.5678071975708008,-0.8938372135162354
1683931616719837400,3.81083740234375,1.085022211074829,-1.3884525299072266,-1.0137560367584229
1683931616729879600,3.820879638671875,0.9694209098815918,-1.291097640991211,-1.1394660472869873
1683931616739921700,3.830921630859375,0.7262872457504272,-1.211594581604004,-1.205322504043579
1683931616749963800,3.8409638671875,0.6829339265823364,-1.0329065322875977,-1.3946044445037842
1683931616760006000,3.851005859375,0.8664630651473999,-0.7564401626586914,-1.6376992464065552
1683931616770047700,3.8610478515625,1.1815338134765625,-0.42388057708740234,-1.7384899854660034
1683931616780089900,3.87108984375,1.4514522552490234,-0.08980560302734375,-1.750331163406372
1683931616790132000,3.881132080078125,1.4911879301071167,0.13712310791015625,-1.653494119644165
1683931616800174000,3.891174072265625,1.2535165548324585,0.06860160827636719,-1.5278096199035645
1683931616810216200,3.90121630859375,1.1540786027908325,0.16925621032714844,-1.5412395000457764
1683931616820258300,3.91125830078125,1.1322987079620361,0.33844852447509766,-1.656548261642456
1683931616830300400,3.921300537109375,1.039900779724121,0.3411388397216797,-1.7375891208648682
1683931616840342500,3.931342529296875,0.9240491390228271,0.31102561950683594,-1.6841187477111816
1683931616850384600,3.941384521484375,0.9294235706329346,0.29009437561035156,-1.6247684955596924
1683931616860426800,3.9514267578125,0.9157036542892456,0.41477394104003906,-1.4396460056304932
1683931616870468600,3.961468505859375,0.9415868520736694,0.9486374855041504,-1.0336740016937256
1683931616880510700,3.9715107421875,0.7455084323883057,1.2166743278503418,-0.6107118129730225
1683931616890552800,3.981552734375,0.38051700592041016,1.0461277961730957,-0.28064823150634766
1683931616900595000,3.991594970703125,0.12715864181518555,0.7417411804199219,-0.21985173225402832
1683931616910637000,4.001636962890625,0.020901918411254883,0.3923349380493164,-0.28694963455200195
1683931616920679200,4.01167919921875,0.04156756401062012,0.07281494140625,-0.21812915802001953
1683931616930721300,4.02172119140625,0.0468289852142334,-0.26615333557128906,-0.3210768699645996
1683931616940763400,4.031763427734375,0.12903714179992676,-0.5085248947143555,-0.6295070648193359
1683931616950805500,4.041805419921875,0.1633155345916748,-0.7750635147094727,-0.7690114974975586
1683931616960847600,4.05184765625,0.18174314498901367,-1.079416275024414,-0.8983497619628906
1683931616970889700,4.0618896484375,0.15323948860168457,-1.2449769973754883,-0.7769067287445068
1683931616980931600,4.071931640625,0.16833066940307617,-1.1743097305297852,-0.7950713634490967
1683931616990973700,4.0819736328125,0.18931293487548828,-1.1474342346191406,-0.8052699565887451
1683931617001015800,4.092015869140625,-0.028874874114990234,-0.8668851852416992,-0.5356626510620117
1683931617011058000,4.102057861328125,0.047516584396362305,-0.5210514068603516,-0.3891716003417969
1683931617021100000,4.11210009765625,0.40067601203918457,-0.19300174713134766,-0.35800933837890625
1683931617031142100,4.12214208984375,0.49187254905700684,0.43454504013061523,-0.33994579315185547
1683931617041184300,4.132184326171875,0.3991985321044922,0.4572319984436035,-0.1755986213684082
1683931617051226400,4.142226318359375,0.19269084930419922,0.2286834716796875,-0.14112138748168945
1683931617061268500,4.1522685546875,-0.02308487892150879,0.05434226989746094,-0.2266101837158203
1683931617071310600,4.162310546875,-0.07845282554626465,0.04902935028076172,-0.41144371032714844
1683931617081352700,4.172352783203125,0.020906925201416016,0.21657037734985352,-0.40186071395874023
1683931617091394600,4.18239453125,0.2075204849243164,0.311553955078125,-0.4097604751586914
1683931617101436700,4.192436767578125,0.43045663833618164,0.37319326400756836,-0.5716543197631836
1683931617111478800,4.202478759765625,0.6627130508422852,0.46738290786743164,-0.7076611518859863
1683931617121521000,4.21252099609375,0.7710193395614624,0.45947837829589844,-0.7914290428161621
1683931617131563000,4.22256298828125,0.6937720775604248,0.29909801483154297,-0.9109292030334473
1683931617141605000,4.232605224609375,0.6407225131988525,0.1231698989868164,-1.0515069961547852
1683931617151647200,4.242647216796875,0.6066821813583374,0.18570899963378906,-1.0734484195709229
1683931617161689300,4.252689453125,0.5416351556777954,0.216522216796875,-0.8857965469360352
1683931617171731500,4.2627314453125,0.38373684883117676,0.13909196853637695,-0.737633228302002
1683931617181773600,4.272773681640625,0.10316157341003418,0.031800270080566406,-0.47544336318969727
1683931617191815700,4.282815673828125,-0.26686549186706543,-0.0008878707885742188,-0.23102378845214844
1683931617201857500,4.292857421875,-0.5329697132110596,-0.14100360870361328,-0.018141746520996094
1683931617211899600,4.302899658203125,-0.7052769660949707,-0.23800086975097656,0.08175230026245117
1683931617221941800,4.312941650390625,-0.8062207698822021,-0.299774169921875,0.07007551193237305
1683931617231983900,4.32298388671875,-0.8386952877044678,-0.31287288665771484,0.013693809509277344
1683931617242026000,4.33302587890625,-0.7695667743682861,-0.39015865325927734,-0.12172508239746094
1683931617252068000,4.343068115234375,-0.5844025611877441,-0.4644346237182617,-0.333249568939209
1683931617262110200,4.353110107421875,-0.4073779582977295,-0.5854616165161133,-0.5494484901428223
1683931617272152300,4.36315234375,-0.235365629196167,-0.7007026672363281,-0.7115931510925293
1683931617282194400,4.3731943359375,-0.36446642875671387,-0.7437410354614258,-0.6963305473327637
1683931617292236500,4.383236572265625,-0.7200765609741211,-0.7575473785400391,-0.6376042366027832
1683931617302278400,4.3932783203125,-0.9453606605529785,-0.5978727340698242,-0.6661038398742676
1683931617312320500,4.403320556640625,-0.9767897129058838,-0.4311256408691406,-0.7571969032287598
1683931617322362600,4.413362548828125,-0.7604007720947266,-0.3567962646484375,-1.0730881690979004
1683931617332404700,4.42340478515625,-0.6056327819824219,-0.30097198486328125,-1.4134483337402344
1683931617342446800,4.43344677734375,-0.34775352478027344,-0.2600421905517578,-1.734717607498169
1683931617352489000,4.443489013671875,0.04848647117614746,-0.24139785766601562,-2.0588362216949463
1683931617362531000,4.453531005859375,0.25544822216033936,-0.3527250289916992,-2.3599495887756348
1683931617372573200,4.4635732421875,0.2663770914077759,-0.6691951751708984,-2.5078537464141846
1683931617382615300,4.473615234375,0.23314344882965088,-0.5648612976074219,-2.2972805500030518
1683931617392657200,4.4836572265625,0.12594234943389893,-0.6214513778686523,-1.9440984725952148
1683931617402699300,4.49369921875,-0.11015152931213379,-0.8815069198608398,-1.419356107711792
1683931617412741400,4.503741455078125,-0.3835364580154419,-1.3580589294433594,-0.753908634185791
1683931617422783500,4.513783447265625,-0.7795630693435669,-2.137544631958008,0.030855655670166016
1683931617432825600,4.52382568359375,-1.3007978200912476,-2.887928009033203,0.7111344337463379
1683931617442867700,4.53386767578125,-1.1545109748840332,-2.997804641723633,1.0105223655700684
1683931617452909800,4.543909912109375,-0.19613635540008545,-2.3764266967773438,1.1471681594848633
1683931617462952000,4.553951904296875,1.0323474407196045,-1.3916292190551758,1.0387353897094727
1683931617472994000,4.563994140625,1.905318260192871,-0.45061302185058594,0.8257403373718262
1683931617483036200,4.5740361328125,2.3613157272338867,0.34505319595336914,0.7319731712341309
1683931617493078300,4.584078369140625,2.534945011138916,0.912661075592041,0.5674076080322266
1683931617503120400,4.594120361328125,2.499830722808838,1.286501407623291,0.07034635543823242
1683931617513162500,4.60416259765625,2.250117778778076,1.5332989692687988,-0.4490389823913574
1683931617523204400,4.614204345703125,1.883020043373108,1.622054100036621,-0.8556990623474121
1683931617533246500,4.62424658203125,1.4942718744277954,1.3748798370361328,-0.9710836410522461
1683931617543288600,4.63428857421875,1.1301778554916382,0.7098984718322754,-0.7342629432678223
1683931617553330700,4.64433056640625,0.7703908681869507,-0.004263877868652344,-0.6057910919189453
1683931617563372800,4.654372802734375,0.5604063272476196,-0.5649642944335938,-0.8373141288757324
1683931617573415000,4.664414794921875,0.5323634147644043,-0.9233570098876953,-1.1978082656860352
1683931617583457000,4.67445703125,0.603595495223999,-1.160684585571289,-1.5624339580535889
1683931617593499100,4.6844990234375,0.6923922896385193,-1.3664255142211914,-1.6504197120666504
1683931617603541200,4.694541259765625,0.8243496417999268,-1.3569002151489258,-1.4822731018066406
1683931617613583400,4.704583251953125,0.8696866631507874,-1.0312604904174805,-1.0595591068267822
1683931617623625500,4.71462548828125,0.9133110046386719,-0.6208124160766602,-0.6990666389465332
1683931617633667300,4.724667236328125,0.966215968132019,-0.18294525146484375,-0.5827898979187012
1683931617643709400,4.73470947265625,1.1014991998672485,0.20134258270263672,-0.4590921401977539
1683931617653751600,4.74475146484375,1.342786192893982,0.43843746185302734,-0.3452615737915039
1683931617663793700,4.754793701171875,1.592620611190796,0.4462404251098633,-0.14985418319702148
1683931617673835800,4.764835693359375,1.7814890146255493,0.2939281463623047,-0.019682884216308594
1683931617683878000,4.7748779296875,1.9070806503295898,0.1854543685913086,0.03669023513793945
1683931617693920000,4.784919921875,1.88979172706604,0.1695871353149414,0.07325553894042969
1683931617703962000,4.794962158203125,1.8058428764343262,0.08896255493164062,0.23554468154907227
1683931617714004200,4.805004150390625,1.6537792682647705,0.024702072143554688,0.31432390213012695
1683931617724046300,4.81504638671875,1.4474722146987915,-0.05727577209472656,0.3635730743408203
1683931617734088200,4.825088134765625,1.199800729751587,-0.05475616455078125,0.30663347244262695
1683931617744130300,4.83513037109375,0.992513120174408,-0.02059650421142578,0.17788362503051758
1683931617754172400,4.84517236328125,0.8523656129837036,-0.00042629241943359375,0.09489774703979492
1683931617764214500,4.855214599609375,0.8249514102935791,-0.09216022491455078,0.050530433654785156
1683931617774256600,4.865256591796875,0.8305313587188721,-0.20428466796875,-0.057340145111083984
1683931617784298800,4.875298828125,0.8677430152893066,-0.24779891967773438,-0.2351851463317871
1683931617794340900,4.8853408203125,1.0013245344161987,-0.18411731719970703,-0.3391280174255371
1683931617804383000,4.895383056640625,1.130100131034851,-0.09196281433105469,-0.42638301849365234
1683931617814425000,4.905425048828125,1.2697901725769043,0.12475013732910156,-0.46961498260498047
1683931617824467000,4.915467041015625,1.3852766752243042,0.3011026382446289,-0.43981266021728516
1683931617834509300,4.92550927734375,1.4570980072021484,0.27913856506347656,-0.2637176513671875
1683931617844551200,4.93555126953125,1.5318946838378906,0.2503948211669922,-0.12785005569458008
1683931617854593300,4.94559326171875,1.549746036529541,0.25815486907958984,0.013781070709228516
1683931617864635400,4.955635498046875,1.5913127660751343,0.220947265625,0.25864648818969727
1683931617874677500,4.965677490234375,1.5915791988372803,0.14148330688476562,0.43252134323120117
1683931617884719600,4.9757197265625,1.5490283966064453,-0.048781394958496094,0.5581240653991699
1683931617894761700,4.98576171875,1.4104112386703491,-0.06064605712890625,0.6137757301330566
1683931617904803800,4.995803955078125,1.246429443359375,-0.13612079620361328,0.5464200973510742
1683931617914846000,5.005845947265625,1.1293821334838867,0.0846090316772461,0.20919513702392578
1683931617924888000,5.01588818359375,1.071929693222046,0.06832599639892578,-0.00021839141845703125
1683931617934930000,5.025929931640625,1.112285852432251,-0.10975265502929688,-0.11893558502197266
1683931617944972300,5.03597216796875,1.1517808437347412,-0.20829391479492188,-0.12384939193725586
1683931617955014100,5.04601416015625,1.214434266090393,-0.1756458282470703,-0.1028132438659668
1683931617965056300,5.05605615234375,1.22831130027771,-0.15777206420898438,-0.13730955123901367
1683931617975098400,5.066098388671875,1.150469183921814,-0.10163116455078125,-0.17633581161499023
1683931617985140500,5.076140380859375,1.046344518661499,-0.17461776733398438,-0.21301507949829102
1683931617995182600,5.0861826171875,0.9744607210159302,-0.20698165893554688,-0.2833366394042969
1683931618005224700,5.096224609375,0.8901810050010681,-0.21538162231445312,-0.4249453544616699
1683931618015266800,5.106266845703125,0.8396155834197998,-0.23309040069580078,-0.510563850402832
1683931618025309000,5.116308837890625,0.7987604141235352,-0.2981853485107422,-0.480379581451416
1683931618035351000,5.12635107421875,0.8345885276794434,-0.28441619873046875,-0.41683030128479004
1683931618045393000,5.136392822265625,0.8743578791618347,-0.3762474060058594,-0.3089144229888916
1683931618055435300,5.146435302734375,0.8575791120529175,-0.551971435546875,-0.17122173309326172
1683931618065477000,5.15647705078125,0.8370435237884521,-0.5978279113769531,-0.22145700454711914
1683931618075519200,5.166519287109375,0.7734895348548889,-0.4594402313232422,-0.1515817642211914
1683931618085561300,5.176561279296875,0.7540232539176941,-0.29346466064453125,-0.0021762847900390625
1683931618095603500,5.186603515625,0.6656721234321594,0.054274559020996094,0.04165983200073242
1683931618105645600,5.1966455078125,0.6850497722625732,0.1689319610595703,0.17862796783447266
1683931618115687700,5.206687744140625,0.7938496470451355,0.5392560958862305,0.10320138931274414
1683931618125729800,5.216729736328125,0.9497991800308228,0.6218986511230469,0.20735549926757812
1683931618135772000,5.22677197265625,1.093730092048645,0.17113685607910156,0.22031927108764648
1683931618145814000,5.23681396484375,1.2310603857040405,-0.0034971237182617188,0.20767593383789062
1683931618155856000,5.24685595703125,1.1806094646453857,-0.27556610107421875,-0.05001401901245117
1683931618165898000,5.25689794921875,1.0966547727584839,-0.5518369674682617,-0.0853114128112793
1683931618175940000,5.266940185546875,1.0709445476531982,-0.780181884765625,-0.49693942070007324
1683931618185982200,5.276982177734375,1.114896297454834,-0.7516803741455078,-0.8916182518005371
1683931618196024300,5.2870244140625,1.2149310111999512,-0.42011165618896484,-0.824988603591919
1683931618206066400,5.29706640625,1.2092591524124146,-0.2614612579345703,-0.7267823219299316
1683931618216108500,5.307108642578125,1.0719693899154663,0.2559337615966797,-0.7713534832000732
1683931618226150700,5.317150634765625,0.8778313994407654,0.8321504592895508,-0.7695026397705078
1683931618236192800,5.32719287109375,0.665728747844696,0.9242877960205078,-0.4546701908111572
1683931618246235000,5.33723486328125,0.4278654456138611,0.7826423645019531,-0.09185433387756348
1683931618256276700,5.34727685546875,0.22503206133842468,0.6802129745483398,0.013471126556396484
1683931618266318800,5.35731884765625,0.10508930683135986,0.6638307571411133,0.04052901268005371
1683931618276361000,5.36736083984375,0.10469862818717957,0.759922981262207,0.06965899467468262
1683931618286403000,5.377403076171875,0.18263529241085052,0.8172483444213867,0.14535832405090332
1683931618296445200,5.387445068359375,0.29123950004577637,0.8123903274536133,0.1667332649230957
1683931618306487300,5.3974873046875,0.3718796372413635,0.8363666534423828,0.1543900966644287
1683931618316529400,5.407529296875,0.45056164264678955,0.6678924560546875,0.21755695343017578
1683931618326571500,5.417571533203125,0.5439068675041199,0.33432483673095703,0.3959231376647949
1683931618336613600,5.427613525390625,0.6661309003829956,-0.025015830993652344,0.511206865310669
1683931618346655700,5.43765576171875,0.7426804304122925,-0.20659446716308594,0.5743439197540283
1683931618356697900,5.44769775390625,0.8526440858840942,-0.43548583984375,0.702160120010376
1683931618366739700,5.45773974609375,0.9233521223068237,-0.5230474472045898,0.6409852504730225
1683931618376781800,5.46778173828125,0.9024811387062073,-0.7010812759399414,0.5827250480651855
1683931618386824000,5.477823974609375,0.898384690284729,-0.7403173446655273,0.45517897605895996
1683931618396866000,5.487865966796875,0.8638719320297241,-0.8005285263061523,0.15106725692749023
1683931618406908200,5.497908203125,0.9232076406478882,-1.0616731643676758,0.03718280792236328
1683931618416950300,5.5079501953125,0.9754621386528015,-1.3537235260009766,-0.06255149841308594
1683931618426992400,5.517992431640625,1.0712809562683105,-1.4684486389160156,-0.22616052627563477
1683931618437034500,5.528034423828125,1.1383600234985352,-1.3852434158325195,-0.3686046600341797
1683931618447076600,5.53807666015625,1.202865481376648,-1.0632047653198242,-0.47928333282470703
1683931618457118700,5.54811865234375,1.2546252012252808,-0.7189340591430664,-0.5631389617919922
1683931618467160800,5.558160888671875,1.2049827575683594,-0.3306465148925781,-0.7029948234558105
1683931618477202700,5.56820263671875,1.1241947412490845,0.011505126953125,-0.8492543697357178
1683931618487244800,5.578244873046875,0.9718766808509827,0.2169656753540039,-0.8488035202026367
1683931618497287000,5.588286865234375,0.725749671459198,0.28835487365722656,-0.7953546047210693
1683931618507329000,5.5983291015625,0.4609765410423279,0.2525625228881836,-0.7098698616027832
1683931618517371100,5.60837109375,0.2714589834213257,0.19344139099121094,-0.537489652633667
1683931618527413200,5.618413330078125,0.17488989233970642,0.13232421875,-0.3696408271789551
1683931618537455400,5.628455322265625,0.188982754945755,0.1525135040283203,-0.171097993850708
1683931618547497500,5.63849755859375,0.2756214141845703,0.13892173767089844,-0.035614013671875
1683931618557539600,5.64853955078125,0.4009479880332947,0.1513214111328125,0.09430694580078125
1683931618567581400,5.65858154296875,0.5375005602836609,0.1419048309326172,0.20442485809326172
1683931618577623600,5.66862353515625,0.6622239947319031,0.1585369110107422,0.30684709548950195
1683931618587665700,5.678665771484375,0.771231472492218,0.21558570861816406,0.42090630531311035
1683931618597707800,5.688707763671875,0.8888691663742065,0.2533388137817383,0.49654483795166016
1683931618607750000,5.69875,0.9896042346954346,0.36261844635009766,0.5552787780761719
1683931618617792000,5.7087919921875,1.036021113395691,0.43346309661865234,0.5780415534973145
1683931618627834000,5.718834228515625,1.0319344997406006,0.42533206939697266,0.6243815422058105
1683931618637876200,5.728876220703125,0.9843153953552246,0.43619441986083984,0.6341233253479004
1683931618647918300,5.73891845703125,0.8816537857055664,0.3776683807373047,0.6026184558868408
1683931618657960400,5.74896044921875,0.7228773236274719,0.23561477661132812,0.5491847991943359
1683931618668002300,5.759002197265625,0.4912775158882141,0.08179283142089844,0.44757080078125
1683931618678044400,5.76904443359375,0.27118146419525146,-0.11736774444580078,0.3431251049041748
1683931618688086500,5.77908642578125,0.04348728060722351,-0.2426309585571289,0.2234477996826172
1683931618698128600,5.789128662109375,-0.19394776225090027,-0.2463836669921875,-0.059358835220336914
1683931618708170800,5.799170654296875,-0.4127116799354553,-0.3269538879394531,-0.2632324695587158
1683931618718212900,5.809212890625,-0.504462718963623,-0.42925453186035156,-0.3333859443664551
1683931618728255000,5.8192548828125,-0.5874854922294617,-0.44562816619873047,-0.42960023880004883
1683931618738297000,5.829297119140625,-0.5654525756835938,-0.49088478088378906,-0.472698450088501
1683931618748339200,5.839339111328125,-0.5150406956672668,-0.4599885940551758,-0.4724557399749756
1683931618758381300,5.84938134765625,-0.49187207221984863,-0.43683719635009766,-0.43152451515197754
1683931618768423400,5.85942333984375,-0.4997093677520752,-0.44078731536865234,-0.3267495632171631
1683931618778465300,5.86946533203125,-0.5922725796699524,-0.50067138671875,-0.1732008457183838
1683931618788507400,5.87950732421875,-0.6866678595542908,-0.5329675674438477,-0.028797388076782227
1683931618798549500,5.889549560546875,-0.7288485169410706,-0.47323036193847656,0.08503389358520508
1683931618808591600,5.899591552734375,-0.7742782235145569,-0.34300804138183594,0.05417037010192871
1683931618818633700,5.9096337890625,-0.8029307126998901,-0.14689254760742188,0.016223907470703125
1683931618828675800,5.91967578125,-0.735069751739502,-0.002056121826171875,0.040854692459106445
1683931618838718000,5.929718017578125,-0.5130575895309448,0.21578693389892578,0.07563543319702148
1683931618848760000,5.939760009765625,-0.2156078815460205,0.4993009567260742,0.19494390487670898
1683931618858802200,5.94980224609375,0.06619763374328613,0.6140241622924805,0.38382697105407715
1683931618868844300,5.95984423828125,0.28525710105895996,0.5888996124267578,0.5626657009124756
1683931618878886400,5.969886474609375,0.4865220785140991,0.4483795166015625,0.7000751495361328
1683931618888928300,5.97992822265625,0.7050003409385681,0.30068302154541016,0.7721354961395264
1683931618898970400,5.989970458984375,0.8231633901596069,0.07484626770019531,0.7672758102416992
1683931618909012500,6.000012451171875,0.8280589580535889,-0.13055038452148438,0.7312824726104736
1683931618919054600,6.0100546875,0.6840774416923523,-0.5187149047851562,0.7112059593200684
1683931618929096700,6.0200966796875,0.44746947288513184,-0.7574491500854492,0.6230173110961914
1683931618939138800,6.030138916015625,0.21179664134979248,-0.9835176467895508,0.51969313621521
1683931618949181000,6.040180908203125,-0.02961146831512451,-1.0353631973266602,0.4746067523956299
1683931618959223000,6.05022314453125,-0.21015548706054688,-0.8761882781982422,0.4552733898162842
1683931618969265200,6.06026513671875,-0.33632540702819824,-0.4949054718017578,0.5353744029998779
1683931618979307000,6.07030712890625,-0.2737478017807007,-0.07109642028808594,0.6783783435821533
1683931618989349000,6.08034912109375,-0.18372738361358643,0.3282146453857422,0.9255504608154297
1683931618999391200,6.09039111328125,-0.13363242149353027,0.6336040496826172,1.141066312789917
1683931619009433300,6.100433349609375,-0.019439101219177246,0.8666267395019531,1.2524948120117188
1683931619019475500,6.110475341796875,0.24008357524871826,1.0753817558288574,1.2654414176940918
1683931619029517600,6.120517578125,0.4615917205810547,1.0668067932128906,1.1671228408813477
1683931619039559700,6.1305595703125,0.6466549634933472,0.8967456817626953,1.028759479522705
1683931619049601800,6.140601806640625,0.8037731647491455,0.6567082405090332,0.8614888191223145
1683931619059644000,6.150643798828125,0.945426344871521,0.3734140396118164,0.6758327484130859
1683931619069686000,6.16068603515625,1.1352882385253906,0.30399417877197266,0.6250467300415039
1683931619079728000,6.17072802734375,1.2550725936889648,0.019634246826171875,0.3153367042541504
1683931619089770000,6.18077001953125,1.361783742904663,-0.23032379150390625,-0.003310680389404297
1683931619099812000,6.19081201171875,1.5879625082015991,-0.4280261993408203,-0.40761470794677734
1683931619109854200,6.200854248046875,1.8056973218917847,-0.5357446670532227,-0.8174679279327393
1683931619119896300,6.210896240234375,1.8706214427947998,-0.6089496612548828,-1.1101617813110352
1683931619129938400,6.2209384765625,1.620652437210083,-0.7107276916503906,-1.2390060424804688
1683931619139980500,6.23098046875,1.2337515354156494,-0.859807014465332,-1.2236254215240479
1683931619150022700,6.241022705078125,0.8026284575462341,-0.8680391311645508,-1.1697325706481934
1683931619160064800,6.251064697265625,0.3850337266921997,-0.9311389923095703,-1.0373907089233398
1683931619170107000,6.26110693359375,0.06124448776245117,-1.0493354797363281,-0.8734087944030762
1683931619180148700,6.271148681640625,-0.09375452995300293,-1.2071094512939453,-0.7855477333068848
1683931619190190800,6.28119091796875,-0.16711747646331787,-1.2240304946899414,-0.9031457901000977
1683931619200233000,6.29123291015625,-0.21164381504058838,-1.0097990036010742,-0.9491982460021973
1683931619210275000,6.301275146484375,-0.312198281288147,-0.7571210861206055,-0.9577541351318359
1683931619220317200,6.311317138671875,-0.402046799659729,-0.41988277435302734,-0.6109895706176758
1683931619230359300,6.321359375,-0.4496868848800659,-0.17989826202392578,-0.36546897888183594
1683931619240401400,6.3314013671875,-0.6151047945022583,-0.14309978485107422,-0.3197903633117676
1683931619250443500,6.341443603515625,-0.6704666614532471,-0.18005084991455078,-0.30310869216918945
1683931619260485600,6.351485595703125,-0.644359827041626,-0.10143375396728516,-0.3235149383544922
1683931619270527700,6.36152783203125,-0.5467942953109741,-0.1173715591430664,-0.3035736083984375
1683931619280569600,6.371569580078125,-0.41943204402923584,-0.18390560150146484,-0.40442800521850586
1683931619290611700,6.38161181640625,-0.24673855304718018,-0.19066619873046875,-0.465517520904541
1683931619300653800,6.39165380859375,-0.035817503929138184,-0.10441780090332031,-0.5615549087524414
1683931619310696000,6.401696044921875,0.11126536130905151,-0.06102180480957031,-0.582242488861084
1683931619320738000,6.411738037109375,0.20311599969863892,-0.041110992431640625,-0.6734638214111328
1683931619330780200,6.4217802734375,0.31093961000442505,-0.020493030548095703,-0.7464532852172852
1683931619340822300,6.431822265625,0.31318986415863037,0.027205944061279297,-0.6601772308349609
1683931619350864400,6.441864501953125,0.1285780668258667,0.058577537536621094,-0.5421953201293945
1683931619360906500,6.451906494140625,0.13806599378585815,0.12156820297241211,-0.5379371643066406
1683931619370948400,6.4619482421875,0.28309881687164307,0.1044301986694336,-0.5983119010925293
1683931619380990700,6.47199072265625,0.39658212661743164,0.06950044631958008,-0.5893468856811523
1683931619391032600,6.482032470703125,0.38729482889175415,0.05691194534301758,-0.5431008338928223
1683931619401074700,6.49207470703125,0.3602730631828308,0.018568992614746094,-0.40998125076293945
1683931619411116800,6.50211669921875,0.29623597860336304,0.026493549346923828,-0.3474540710449219
1683931619421159000,6.512158935546875,0.28348129987716675,0.059699058532714844,-0.3569369316101074
1683931619431201000,6.522200927734375,0.28859901428222656,0.07316064834594727,-0.27292490005493164
1683931619441243100,6.5322431640625,0.33616286516189575,0.08365678787231445,-0.1886897087097168
1683931619451285200,6.54228515625,0.3598476052284241,0.11289262771606445,-0.19463586807250977
1683931619461327400,6.552327392578125,0.2502914071083069,0.1415705680847168,-0.19994211196899414
1683931619471369500,6.562369384765625,0.004746735095977783,0.09969091415405273,-0.21729183197021484
1683931619481411300,6.572411376953125,-0.15688616037368774,0.06363773345947266,-0.31583547592163086
1683931619491453400,6.582453369140625,-0.08112895488739014,0.053243160247802734,-0.4492063522338867
1683931619501495600,6.59249560546875,0.21958929300308228,0.16706371307373047,-0.5932083129882812
1683931619511537700,6.60253759765625,0.40926897525787354,0.21451187133789062,-0.7377967834472656
1683931619521579800,6.612579833984375,0.5349175930023193,0.29186105728149414,-0.7916073799133301
1683931619531622000,6.622621826171875,0.5328874588012695,0.3170151710510254,-0.6937503814697266
1683931619541664000,6.6326640625,0.4785100221633911,0.3038206100463867,-0.6171717643737793
1683931619551706000,6.6427060546875,0.36543649435043335,0.22845888137817383,-0.5234975814819336
1683931619561748200,6.652748291015625,0.28955620527267456,0.16025304794311523,-0.3650383949279785
1683931619571790000,6.6627900390625,0.23371529579162598,0.0940713882446289,-0.22123479843139648
1683931619581832400,6.67283251953125,0.1476423740386963,0.0486302375793457,-0.12358808517456055
1683931619591874300,6.682874267578125,0.034699320793151855,-0.057613372802734375,-0.024428844451904297
1683931619601916400,6.69291650390625,-0.027505040168762207,-0.16782760620117188,0.02304363250732422
1683931619611958500,6.70295849609375,-0.06281888484954834,-0.2377033233642578,0.07478666305541992
1683931619622000600,6.713000732421875,-0.02888941764831543,-0.1245269775390625,0.1108851432800293
1683931619632042800,6.723042724609375,0.07319027185440063,-0.024578094482421875,0.08580684661865234
1683931619642084900,6.7330849609375,0.10176432132720947,0.08885049819946289,0.05986213684082031
1683931619652127000,6.743126953125,0.073231041431427,0.18263673782348633,0.08360004425048828
1683931619662169000,6.753169189453125,-0.0606236457824707,0.2115764617919922,0.18323087692260742
1683931619672211200,6.763211181640625,-0.2909829616546631,0.21615362167358398,0.3173699378967285
1683931619682253000,6.773253173828125,-0.5445898771286011,0.1889505386352539,0.49243736267089844
1683931619692295200,6.783295166015625,-0.6956954598426819,0.11860942840576172,0.5734162330627441
1683931619702337300,6.793337158203125,-0.7202436327934265,-0.2621002197265625,0.6659770011901855
1683931619712379400,6.80337939453125,-0.7588118314743042,-0.6036643981933594,0.6207103729248047
1683931619722421500,6.81342138671875,-0.7871570587158203,-0.7173061370849609,0.41344642639160156
1683931619732463600,6.823463623046875,-0.5703313946723938,-0.47429466247558594,0.1982097625732422
1683931619742505700,6.833505615234375,-0.10137510299682617,-0.10857486724853516,-0.0577239990234375
1683931619752547800,6.8435478515625,0.3565242290496826,-0.038992881774902344,-0.10888957977294922
1683931619762590000,6.85358984375,0.5326512455940247,-0.2799854278564453,-0.020243167877197266
1683931619772631800,6.8636318359375,0.2588159441947937,-0.7638273239135742,0.26342010498046875
1683931619782674000,6.873673828125,-0.4161912202835083,-1.3094606399536133,0.7520418167114258
1683931619792716000,6.883716064453125,-1.207118034362793,-1.6916675567626953,1.2121191024780273
1683931619802758100,6.893758056640625,-1.8054749965667725,-1.6054067611694336,1.4256057739257812
1683931619812800300,6.90380029296875,-1.9367164373397827,-0.9559993743896484,1.6498374938964844
1683931619822842400,6.91384228515625,-1.4930579662322998,-0.29695796966552734,1.972486972808838
1683931619832884500,6.923884521484375,-0.7385347485542297,0.2618722915649414,2.1445627212524414
1683931619842926600,6.933926513671875,0.02248060703277588,0.6567478179931641,2.095163345336914
1683931619852968700,6.94396875,0.6974154114723206,0.9907479286193848,1.791079044342041
1683931619863010800,6.9540107421875,1.2972781658172607,1.0546436309814453,1.1982455253601074
1683931619873052700,6.964052734375,1.80527663230896,0.783292293548584,0.4480710029602051
1683931619883094800,6.9740947265625,1.9075546264648438,0.37618541717529297,-0.2817826271057129
1683931619893137000,6.984136962890625,1.7308423519134521,-0.015493392944335938,-1.0055246353149414
1683931619903179000,6.994178955078125,1.4146387577056885,-0.24966716766357422,-1.6047616004943848
1683931619913221000,7.00422119140625,1.0360277891159058,-0.22917938232421875,-2.1506431102752686
1683931619923263200,7.01426318359375,0.6523957252502441,-0.27642154693603516,-2.4458930492401123
1683931619933305300,7.024305419921875,0.33083099126815796,-0.3254518508911133,-2.4467527866363525
1683931619943347500,7.034347412109375,0.11559462547302246,-0.3583412170410156,-2.365211248397827
1683931619953389600,7.0443896484375,0.14532476663589478,-0.3995943069458008,-2.087193727493286
1683931619963431400,7.054431396484375,0.3734882175922394,-0.4136848449707031,-1.6780343055725098
1683931619973473500,7.0644736328125,0.6783680319786072,-0.42712879180908203,-1.2198076248168945
1683931619983515600,7.074515625,0.9608492851257324,-0.4285259246826172,-0.8071389198303223
1683931619993557800,7.084557861328125,1.130353569984436,-0.36359500885009766,-0.5586133003234863
1683931620003600000,7.094599853515625,1.153165578842163,-0.28761959075927734,-0.4891934394836426
1683931620013642000,7.10464208984375,1.0585191249847412,-0.14321327209472656,-0.5463104248046875
1683931620023684000,7.11468408203125,0.9526259899139404,-0.18625736236572266,-0.5390586853027344
1683931620033726200,7.124726318359375,0.8113694190979004,-0.19666194915771484,-0.6345491409301758
1683931620043768300,7.134768310546875,0.6796801686286926,-0.16747283935546875,-0.7270820140838623
1683931620053810400,7.144810546875,0.5617669224739075,-0.1346607208251953,-0.7685041427612305
1683931620063852500,7.1548525390625,0.4820445775985718,-0.12680625915527344,-0.8301758766174316
1683931620073894400,7.164894287109375,0.4318801164627075,-0.22972488403320312,-0.7590231895446777
1683931620083936500,7.1749365234375,0.35770469903945923,-0.27546024322509766,-0.7288968563079834
1683931620093978600,7.184978515625,0.2838331162929535,-0.2183208465576172,-0.645859956741333
1683931620104020700,7.195020751953125,0.16580405831336975,-0.12077617645263672,-0.5676746368408203
1683931620114062800,7.205062744140625,0.0515933632850647,-0.06445598602294922,-0.38747501373291016
1683931620124105000,7.21510498046875,-0.01452016830444336,-0.10436058044433594,-0.18220281600952148
1683931620134147000,7.22514697265625,0.003008618950843811,-0.13017845153808594,-0.015915393829345703
1683931620144189200,7.235189208984375,0.15627405047416687,-0.15118694305419922,0.19329452514648438
1683931620154231300,7.245231201171875,0.4028094410896301,-0.07166671752929688,0.3143157958984375
1683931620164273200,7.255273193359375,0.6732989549636841,0.026819229125976562,0.3900599479675293
1683931620174315300,7.265315185546875,0.8646424412727356,0.2726726531982422,0.3312087059020996
1683931620184357400,7.275357421875,0.987978458404541,0.41911792755126953,0.23986196517944336
1683931620194399500,7.2853994140625,0.9706687927246094,0.38254642486572266,0.14893674850463867
1683931620204441600,7.295441650390625,0.9117264747619629,0.20205974578857422,0.1308908462524414
1683931620214483700,7.305483642578125,0.7964432835578918,0.1172323226928711,0.043015480041503906
1683931620224525800,7.31552587890625,0.7089756727218628,-0.058867454528808594,0.056581974029541016
1683931620234568000,7.32556787109375,0.6041083335876465,-0.20439434051513672,-0.09647035598754883
1683931620244610000,7.335610107421875,0.5336441993713379,-0.3620157241821289,-0.24057579040527344
1683931620254652000,7.34565185546875,0.4624674320220947,-0.4048299789428711,-0.43962621688842773
1683931620264694000,7.355694091796875,0.3911001980304718,-0.36883068084716797,-0.6048879623413086
1683931620274736000,7.365736083984375,0.3514082431793213,-0.40245628356933594,-0.6603846549987793
1683931620284778200,7.3757783203125,0.428497850894928,-0.4169902801513672,-0.6514334678649902
1683931620294820400,7.3858203125,0.46277713775634766,-0.4339323043823242,-0.6044125556945801
1683931620304862500,7.395862548828125,0.48477792739868164,-0.4007587432861328,-0.5887212753295898
1683931620314904600,7.405904541015625,0.47681787610054016,-0.274444580078125,-0.5585670471191406
1683931620324946700,7.41594677734375,0.4766988754272461,-0.10056591033935547,-0.5473544597625732
1683931620334988800,7.42598876953125,0.49183744192123413,-0.09655284881591797,-0.418914794921875
1683931620345031000,7.436031005859375,0.5271868109703064,-0.09728622436523438,-0.2572951316833496
1683931620355073000,7.446072998046875,0.5489122271537781,-0.08619403839111328,-0.19185972213745117
1683931620365115000,7.456114990234375,0.5971841812133789,-0.06323814392089844,-0.11474084854125977
1683931620375157000,7.466156982421875,0.6216992139816284,-0.016534805297851562,-0.08334970474243164
1683931620385199000,7.47619921875,0.6562684774398804,0.017843246459960938,-0.00960683822631836
1683931620395241200,7.4862412109375,0.660782516002655,0.054180145263671875,-0.02274322509765625
1683931620405283300,7.496283447265625,0.6637584567070007,0.05919933319091797,-0.005196571350097656
1683931620415325400,7.506325439453125,0.6907698512077332,0.040274620056152344,0.012195587158203125
1683931620425367600,7.516367431640625,0.6830238103866577,0.04232597351074219,0.07633304595947266
1683931620435409700,7.52640966796875,0.6994460821151733,0.12436866760253906,0.09470367431640625
1683931620445451800,7.53645166015625,0.6712586283683777,0.1885223388671875,0.08922004699707031
1683931620455493600,7.54649365234375,0.6185173392295837,0.19262981414794922,0.08837080001831055
1683931620465535700,7.55653564453125,0.5632988214492798,0.19187259674072266,0.0497593879699707
1683931620475577900,7.566577880859375,0.525117814540863,0.18869781494140625,-0.08719396591186523
1683931620485620000,7.576619873046875,0.49715471267700195,0.093841552734375,-0.23110008239746094
1683931620495662000,7.586662109375,0.4653501808643341,-0.04625701904296875,-0.32499217987060547
1683931620505704200,7.5967041015625,0.43627458810806274,-0.12002372741699219,-0.43523502349853516
1683931620515746300,7.606746337890625,0.37351781129837036,-0.14737987518310547,-0.5331969261169434
1683931620525788400,7.616788330078125,0.3128666281700134,-0.1573648452758789,-0.5861315727233887
1683931620535830500,7.62683056640625,0.25065743923187256,-0.15253925323486328,-0.5946760177612305
1683931620545872400,7.636872314453125,0.21663618087768555,-0.14969825744628906,-0.5786471366882324
1683931620555914500,7.64691455078125,0.23491171002388,-0.1417217254638672,-0.5855755805969238
1683931620565956600,7.65695654296875,0.2641463875770569,-0.20862293243408203,-0.504157543182373
1683931620575998700,7.666998779296875,0.28674080967903137,-0.245513916015625,-0.4439563751220703
1683931620586040800,7.677040771484375,0.32059210538864136,-0.24353313446044922,-0.33165907859802246
1683931620596083000,7.6870830078125,0.35567596554756165,-0.19638633728027344,-0.274277925491333
1683931620606125000,7.697125,0.3806353807449341,-0.116729736328125,-0.23353815078735352
1683931620616167200,7.707167236328125,0.36327219009399414,-0.1606578826904297,-0.18132972717285156
1683931620626209000,7.717208984375,0.37713623046875,-0.1732177734375,-0.11576080322265625
1683931620636251100,7.727251220703125,0.3337790071964264,-0.1904592514038086,-0.02801513671875
1683931620646293200,7.737293212890625,0.2610388994216919,-0.228912353515625,-0.019839763641357422
1683931620656335400,7.74733544921875,0.1799570620059967,-0.24808216094970703,-0.021308422088623047
1683931620666377500,7.75737744140625,0.048659831285476685,-0.2341480255126953,-0.04871559143066406
1683931620676419600,7.767419677734375,-0.0577007532119751,-0.21347904205322266,-0.052165985107421875
1683931620686461700,7.777461669921875,-0.12594836950302124,-0.16495132446289062,-0.06747674942016602
1683931620696503800,7.78750390625,-0.14757755398750305,-0.19502735137939453,-0.0006642341613769531
1683931620706546000,7.7975458984375,-0.13151317834854126,-0.1352405548095703,-0.018048763275146484
1683931620716588000,7.807588134765625,-0.06692355871200562,-0.04830360412597656,0.01833963394165039
1683931620726630100,7.817630126953125,0.0331721305847168,-0.042903900146484375,0.05362272262573242
1683931620736672000,7.827672119140625,0.16568484902381897,0.061336517333984375,0.09749364852905273
1683931620746714000,7.837714111328125,0.301405668258667,0.1378936767578125,0.20612668991088867
1683931620756756200,7.847756103515625,0.43275541067123413,0.23888015747070312,0.2816605567932129
1683931620766798300,7.85779833984375,0.548086941242218,0.201263427734375,0.3830833435058594
1683931620776840400,7.86784033203125,0.6330525875091553,0.16161632537841797,0.416018009185791
1683931620786882600,7.877882568359375,0.6915433406829834,0.1766672134399414,0.35865163803100586
1683931620796924700,7.887924560546875,0.6942729949951172,0.16063880920410156,0.34892749786376953
1683931620806966800,7.897966796875,0.6343564987182617,0.184722900390625,0.3061866760253906
1683931620817009000,7.9080087890625,0.56935054063797,0.18006038665771484,0.306485652923584
1683931620827050800,7.91805078125,0.5236444473266602,0.22710514068603516,0.30414390563964844
1683931620837092900,7.9280927734375,0.5091625452041626,0.20750904083251953,0.25493764877319336
1683931620847135000,7.938135009765625,0.47826066613197327,0.16027545928955078,0.27080249786376953
1683931620857177000,7.948177001953125,0.5038220882415771,0.1496715545654297,0.23589038848876953
1683931620867219200,7.95821923828125,0.4925217628479004,0.12070751190185547,0.3106503486633301
1683931620877261300,7.96826123046875,0.41929373145103455,0.12054634094238281,0.37972354888916016
1683931620887303400,7.978303466796875,0.37296876311302185,0.18159103393554688,0.4665083885192871
1683931620897345500,7.988345458984375,0.3635725677013397,0.3452157974243164,0.4882640838623047
1683931620907387600,7.9983876953125,0.37952345609664917,0.4450511932373047,0.5475387573242188
1683931620917429500,8.008429443359375,0.45448267459869385,0.512908935546875,0.5992255210876465
1683931620927471600,8.0184716796875,0.5037631988525391,0.5235767364501953,0.6955151557922363
1683931620937513700,8.028513671875,0.5540429949760437,0.48734092712402344,0.8237190246582031
1683931620947555800,8.038555908203126,0.6002283692359924,0.4074373245239258,0.9318203926086426
1683931620957598000,8.048597900390625,0.6554661989212036,0.3739156723022461,1.0317397117614746
1683931620967640000,8.05864013671875,0.7107974290847778,0.4021787643432617,1.1348423957824707
1683931620977682200,8.06868212890625,0.7413833141326904,0.44630908966064453,1.1795854568481445
1683931620987724300,8.078724365234375,0.7848273515701294,0.5365266799926758,1.1855063438415527
1683931620997766400,8.088766357421875,0.8248171210289001,0.6434774398803711,1.1760149002075195
1683931621007808300,8.098808349609374,0.8831239342689514,0.6250267028808594,1.2276759147644043
1683931621017850400,8.108850341796876,0.8514548540115356,0.6100559234619141,1.2092461585998535
1683931621027892500,8.118892578125,0.8154194355010986,0.6151247024536133,1.1104817390441895
1683931621037934600,8.1289345703125,0.7340354323387146,0.6329240798950195,1.0083117485046387
1683931621047976700,8.138976806640626,0.6871625781059265,0.576080322265625,0.9121212959289551
1683931621058018800,8.149018798828125,0.6241226196289062,0.5139789581298828,0.7509250640869141
1683931621068061000,8.15906103515625,0.5730317234992981,0.37344837188720703,0.5864286422729492
1683931621078103000,8.16910302734375,0.5012480020523071,0.16749000549316406,0.4444313049316406
1683931621088145200,8.179145263671876,0.4637373387813568,-0.024878501892089844,0.280362606048584
1683931621098187000,8.18918701171875,0.4531565308570862,-0.19864845275878906,0.13338804244995117
1683931621108229000,8.19922900390625,0.44077908992767334,-0.27318572998046875,-0.053742408752441406
1683931621118271200,8.209271240234376,0.42298370599746704,-0.41913890838623047,-0.142791748046875
1683931621128313300,8.219313232421875,0.40924227237701416,-0.6237773895263672,-0.20652294158935547
1683931621138355500,8.22935546875,0.3349747061729431,-0.7051000595092773,-0.2882556915283203
1683931621148397600,8.2393974609375,0.26144811511039734,-0.6677608489990234,-0.37169408798217773
1683931621158439700,8.249439697265625,0.12496393173933029,-0.586796760559082,-0.5275850296020508
1683931621168481800,8.259481689453125,-0.10179585218429565,-0.4485759735107422,-0.8366696834564209
1683931621178524000,8.26952392578125,-0.4099262058734894,-0.2820615768432617,-1.1146581172943115
1683931621188566000,8.27956591796875,-0.7589704394340515,-0.19823837280273438,-1.3732333183288574
1683931621198608100,8.289608154296875,-1.2105642557144165,-0.15441322326660156,-1.449967384338379
1683931621208650000,8.29964990234375,-1.4778878688812256,-0.21529293060302734,-1.4386582374572754
1683931621218692000,8.309692138671876,-1.4621026515960693,-0.41032886505126953,-1.2145543098449707
1683931621228734200,8.319734130859375,-1.3149182796478271,-0.6731758117675781,-0.9468481540679932
1683931621238776300,8.3297763671875,-1.0484695434570312,-0.8030586242675781,-0.738659143447876
1683931621248818400,8.339818359375,-0.7701776027679443,-0.8763790130615234,-0.6423380374908447
1683931621258860500,8.349860595703126,-0.563866913318634,-0.8406982421875,-0.6103391647338867
1683931621268902700,8.359902587890625,-0.5162354111671448,-0.8012599945068359,-0.6257143020629883
1683931621278944800,8.36994482421875,-0.6557604670524597,-0.8009166717529297,-0.6470804214477539
1683931621288987000,8.37998681640625,-0.8572694063186646,-0.7912654876708984,-0.799246072769165
1683931621299028700,8.39002880859375,-0.9311429858207703,-0.7933330535888672,-0.8535170555114746
1683931621309070800,8.40007080078125,-0.8298184871673584,-0.7714557647705078,-0.8580708503723145
1683931621319113000,8.410113037109374,-0.7230448722839355,-0.6783971786499023,-0.8690497875213623
1683931621329155000,8.420155029296875,-0.54860919713974,-0.5740842819213867,-0.9441509246826172
1683931621339197200,8.430197265625,-0.32499009370803833,-0.4721260070800781,-1.0510549545288086
1683931621349239300,8.4402392578125,-0.08147501945495605,-0.4077167510986328,-1.1433067321777344
1683931621359281400,8.450281494140626,0.1864209771156311,-0.32092952728271484,-1.1874048709869385
1683931621369323500,8.460323486328125,0.34350383281707764,-0.2548360824584961,-1.2054481506347656
1683931621379365400,8.470365478515625,0.3223875164985657,-0.24487972259521484,-1.25752854347229
1683931621389407500,8.480407470703126,-0.08434784412384033,-0.2827882766723633,-1.317011833190918
1683931621399449600,8.49044970703125,-0.6917461156845093,-0.2767467498779297,-1.375868320465088
1683931621409491700,8.50049169921875,-1.2062909603118896,-0.319915771484375,-1.4719429016113281
1683931621419533800,8.510533935546874,-1.2507659196853638,-0.2908592224121094,-1.5290510654449463
1683931621429576000,8.520575927734376,-0.6986652612686157,-0.1904134750366211,-1.549964427947998
1683931621439618000,8.5306181640625,0.015663623809814453,-0.1243886947631836,-1.4486770629882812
1683931621449660200,8.54066015625,0.6741214990615845,-0.19085693359375,-1.2008180618286133
1683931621459702300,8.550702392578126,1.065901279449463,-0.22244930267333984,-0.7133688926696777
1683931621469744000,8.560744140625,0.8937841057777405,0.011597633361816406,-0.030153751373291016
1683931621479786200,8.5707861328125,0.5653725862503052,0.33325672149658203,0.780670166015625
1683931621489828400,8.580828369140624,0.4269551634788513,0.544285774230957,1.295619010925293
1683931621499870500,8.590870361328125,0.37265169620513916,0.6378822326660156,1.4667243957519531
1683931621509912600,8.60091259765625,0.28206121921539307,0.6358070373535156,1.175489902496338
1683931621519954700,8.61095458984375,0.17333221435546875,0.4764890670776367,0.7429523468017578
1683931621529996800,8.620996826171876,0.07473421096801758,0.28537750244140625,0.24749326705932617
1683931621540039000,8.631038818359375,-0.047484755516052246,0.116607666015625,-0.43569469451904297
1683931621550081000,8.6410810546875,-0.21844184398651123,-0.016242027282714844,-1.0465474128723145
1683931621560123000,8.651122802734376,-0.403933048248291,-0.0719442367553711,-1.4869184494018555
1683931621570165000,8.6611650390625,-0.680590033531189,-0.003345489501953125,-1.6575229167938232
1683931621580207000,8.67120703125,-0.8995603322982788,0.07075214385986328,-1.4843013286590576
1683931621590249200,8.681249267578124,-0.9459946155548096,0.2342071533203125,-1.16945481300354
1683931621600291300,8.691291259765626,-0.8343031406402588,0.4589118957519531,-0.8645310401916504
1683931621610333400,8.70133349609375,-0.46204257011413574,0.5720510482788086,-0.48584413528442383
1683931621620375600,8.71137548828125,0.005093932151794434,0.5424270629882812,-0.03794097900390625
1683931621630417700,8.721417724609376,0.36265087127685547,0.2795372009277344,0.5593137741088867
1683931621640459800,8.731459716796875,0.5063086748123169,-0.21607112884521484,1.188422441482544
1683931621650501600,8.741501708984375,0.41166210174560547,-0.5334300994873047,1.7317347526550293
1683931621660543700,8.751543701171874,0.12617456912994385,-0.6638355255126953,2.1864981651306152
1683931621670585900,8.7615859375,-0.3448643684387207,-0.4680595397949219,2.57466197013855
1683931621680628000,8.7716279296875,-0.8976620435714722,0.1682109832763672,2.7232062816619873
1683931621690670000,8.781670166015624,-1.2958394289016724,1.1539835929870605,2.457723379135132
1683931621700712200,8.791712158203126,-1.4590566158294678,2.229410171508789,1.7845556735992432
1683931621710754300,8.80175439453125,-1.2766306400299072,2.130654811859131,1.2665255069732666
1683931621720796400,8.81179638671875,-0.937802791595459,1.4203295707702637,1.1950228214263916
1683931621730838500,8.821838623046874,-0.5870174169540405,1.0137972831726074,1.249147653579712
1683931621740880600,8.831880615234375,-0.3488820791244507,1.0055208206176758,0.9087469577789307
1683931621750922800,8.8419228515625,-0.25520002841949463,1.077314853668213,0.4707663059234619
1683931621760964600,8.851964599609374,-0.47457218170166016,1.0650568008422852,-0.04407215118408203
1683931621771006700,8.8620068359375,-0.8701224327087402,0.8618507385253906,-0.4118525981903076
1683931621781048800,8.872048828125,-1.0378962755203247,0.4055652618408203,-0.5608811378479004
1683931621791091000,8.882091064453125,-1.053871989250183,0.004303932189941406,-0.6065146923065186
1683931621801133000,8.892133056640626,-0.925574541091919,-0.13412094116210938,-0.7180070877075195
1683931621811175200,8.902175048828125,-0.739092230796814,0.19529438018798828,-0.902259349822998
1683931621821217300,8.91221728515625,-0.5212808847427368,0.3338890075683594,-0.7629044055938721
1683931621831259400,8.92225927734375,-0.3201373815536499,0.3176689147949219,-0.579289436340332
1683931621841301500,8.932301513671876,-0.14644765853881836,0.3001289367675781,-0.32743358612060547
1683931621851343400,8.94234326171875,0.037697792053222656,0.15479469299316406,-0.04558086395263672
1683931621861385500,8.952385498046874,0.09546756744384766,0.0894937515258789,0.22713232040405273
1683931621871427600,8.962427490234376,0.0989614725112915,0.05336189270019531,0.4727959632873535
1683931621881469700,8.9724697265625,0.0537266731262207,0.04344654083251953,0.6761350631713867
1683931621891511800,8.98251171875,-0.005817770957946777,0.06905841827392578,0.8060495853424072
1683931621901554000,8.992553955078124,-0.05748319625854492,0.06315898895263672,0.929603099822998
1683931621911596000,9.002595947265625,-0.1081695556640625,0.0758056640625,0.9843337535858154
1683931621921638100,9.01263818359375,-0.1740337610244751,0.09941291809082031,1.050771713256836
1683931621931680300,9.02268017578125,-0.25662195682525635,0.18611717224121094,1.0612361431121826
1683931621941722000,9.03272216796875,-0.2906370162963867,0.28319835662841797,1.0112242698669434
1683931621951764200,9.04276416015625,-0.2481369972229004,0.42195987701416016,0.9658336639404297
1683931621961806300,9.052806396484375,-0.22633540630340576,0.6068630218505859,1.0551834106445312
1683931621971848400,9.062848388671876,-0.23596441745758057,0.6281328201293945,0.9559135437011719
1683931621981890600,9.072890625,-0.21729004383087158,0.6887264251708984,0.8280994892120361
1683931621991932700,9.0829326171875,-0.0836935043334961,0.7572059631347656,0.89955735206604
1683931622001974800,9.092974853515624,-0.12293839454650879,0.6815700531005859,0.9703531265258789
1683931622012017000,9.103016845703126,-0.26934611797332764,0.5468673706054688,0.9905173778533936
1683931622022059000,9.11305908203125,-0.3781099319458008,0.5300827026367188,1.018357276916504
1683931622032100900,9.123100830078124,-0.4450697898864746,0.5060100555419922,1.0023531913757324
1683931622042143000,9.13314306640625,-0.48557162284851074,0.5888957977294922,0.8751211166381836
1683931622052185000,9.14318505859375,-0.5034809112548828,0.5874128341674805,0.6993303298950195
1683931622062227200,9.153227294921875,-0.5177714824676514,0.52813720703125,0.5255508422851562
1683931622072269300,9.163269287109374,-0.5704494714736938,0.4995555877685547,0.42966675758361816
1683931622082311400,9.1733115234375,-0.6778485774993896,0.501439094543457,0.3530690670013428
1683931622092353500,9.183353515625,-0.8794894218444824,0.4619760513305664,0.28310418128967285
1683931622102395600,9.193395751953124,-1.0548089742660522,0.45047855377197266,0.2582085132598877
1683931622112437800,9.203437744140626,-1.1801252365112305,0.44295310974121094,0.2955963611602783
1683931622122479600,9.213479736328125,-1.1361794471740723,0.4272947311401367,0.4813389778137207
1683931622132521700,9.223521728515625,-0.9734683632850647,0.3821249008178711,0.7299995422363281
1683931622142563800,9.233563720703126,-0.793278694152832,0.4344949722290039,0.8805537223815918
1683931622152606000,9.24360595703125,-0.5967298746109009,0.38368701934814453,0.9618785381317139
1683931622162648000,9.25364794921875,-0.44667118787765503,0.25844383239746094,1.0826630592346191
1683931622172690200,9.263690185546874,-0.3434019088745117,0.12618350982666016,1.0616235733032227
1683931622182732300,9.273732177734376,-0.31664198637008667,0.05436229705810547,0.8478968143463135
1683931622192774400,9.2837744140625,-0.39404988288879395,-0.004711151123046875,0.543093204498291
1683931622202816500,9.29381640625,-0.5564209818840027,-0.07510757446289062,0.2884237766265869
1683931622212858400,9.3038583984375,-0.6773014068603516,-0.1424703598022461,0.019728422164916992
1683931622222900500,9.313900390625,-0.713438868522644,-0.14696884155273438,-0.19330573081970215
1683931622232942600,9.323942626953125,-0.5932453274726868,-0.146270751953125,-0.3600282669067383
1683931622242984700,9.333984619140624,-0.4695426821708679,-0.08143901824951172,-0.36445093154907227
1683931622253026800,9.34402685546875,-0.36915332078933716,-0.012431144714355469,-0.24487829208374023
1683931622263069000,9.35406884765625,-0.2758598327636719,0.11920452117919922,0.05913805961608887
1683931622273111000,9.364111083984374,-0.20123320817947388,0.267303466796875,0.4304521083831787
1683931622283153200,9.374153076171876,-0.12820219993591309,0.43358612060546875,0.8293416500091553
1683931622293195300,9.3841953125,-0.08241277933120728,0.5869665145874023,1.1136691570281982
1683931622303237000,9.394237060546875,-0.05921316146850586,0.6803989410400391,1.2423954010009766
1683931622313279200,9.404279296875,0.009120404720306396,0.6466541290283203,1.203981876373291
1683931622323321300,9.4143212890625,0.12595528364181519,0.49514198303222656,1.072394609451294
1683931622333363500,9.424363525390625,0.2455010712146759,0.31518077850341797,0.9628827571868896
1683931622343405600,9.434405517578124,0.28961217403411865,0.1992483139038086,0.8143613338470459
1683931622353447700,9.44444775390625,0.2901287376880646,0.16050148010253906,0.6772432327270508
1683931622363489800,9.45448974609375,0.20802435278892517,0.18117809295654297,0.5373275279998779
1683931622373532000,9.464531982421875,0.11289182305335999,0.21085739135742188,0.3994333744049072
1683931622383574000,9.474573974609376,0.03623440861701965,0.2100543975830078,0.28188037872314453
1683931622393616100,9.4846162109375,-0.020706474781036377,0.2283163070678711,0.2935194969177246
1683931622403658000,9.494657958984375,-0.08118602633476257,0.2775278091430664,0.2621893882751465
1683931622413700000,9.5047001953125,-0.19701966643333435,0.2622079849243164,0.2911241054534912
1683931622423742200,9.5147421875,-0.36218321323394775,0.19932174682617188,0.2706563472747803
1683931622433784300,9.524784423828125,-0.4745400846004486,0.13200092315673828,0.20351171493530273
1683931622443826400,9.534826416015624,-0.5658559203147888,0.12948131561279297,0.06593036651611328
1683931622453868500,9.54486865234375,-0.5753457546234131,0.1412973403930664,-0.05155348777770996
1683931622463910700,9.55491064453125,-0.4909772574901581,0.19109725952148438,-0.20925426483154297
1683931622473952800,9.564952880859375,-0.38115018606185913,0.23581695556640625,-0.333176851272583
1683931622483995000,9.574994873046874,-0.2814539670944214,0.23276329040527344,-0.44916462898254395
1683931622494036700,9.58503662109375,-0.155880868434906,0.18702220916748047,-0.473355770111084
1683931622504078800,9.595078857421875,-0.05179993808269501,0.1392221450805664,-0.4206244945526123
1683931622514121000,9.605120849609374,0.006343871355056763,0.06767749786376953,-0.27017998695373535
1683931622524163000,9.6151630859375,0.011692613363265991,-0.08261299133300781,-0.07508468627929688
1683931622534205200,9.625205078125,-0.02090848982334137,-0.2230367660522461,0.15996432304382324
1683931622544247300,9.635247314453125,-0.06210336089134216,-0.26761436462402344,0.30605292320251465
1683931622554289400,9.645289306640626,-0.07500872015953064,-0.20946121215820312,0.41113710403442383
1683931622564331500,9.65533154296875,-0.08513997495174408,-0.1085958480834961,0.4847569465637207
1683931622574373600,9.66537353515625,-0.08016110211610794,0.006108283996582031,0.5004618167877197
1683931622584415500,9.67541552734375,-0.09823353588581085,0.12031078338623047,0.4297828674316406
1683931622594457600,9.68545751953125,-0.12019237875938416,0.17441558837890625,0.3233370780944824
1683931622604499700,9.695499755859375,-0.10104050487279892,0.1997509002685547,0.20301103591918945
1683931622614541800,9.705541748046874,-0.09142695367336273,0.23938751220703125,0.12140679359436035
1683931622624584000,9.715583984375,-0.06677332520484924,0.21611976623535156,0.05369830131530762
1683931622634626000,9.7256259765625,-0.07842210680246353,0.2404193878173828,-0.01017904281616211
1683931622644668200,9.735668212890625,-0.1493854820728302,0.28328800201416016,-0.0772397518157959
1683931622654710300,9.745710205078124,-0.22161731123924255,0.2690439224243164,-0.16165733337402344
1683931622664752400,9.75575244140625,-0.2709658741950989,0.19629573822021484,-0.12659263610839844
1683931622674794200,9.765794189453125,-0.25211021304130554,0.06143665313720703,-0.11031508445739746
1683931622684836400,9.77583642578125,-0.1825888752937317,-0.17461013793945312,0.07087874412536621
1683931622694878500,9.78587841796875,-0.1303846687078476,-0.4352893829345703,0.33310747146606445
1683931622704920600,9.795920654296875,-0.09629375487565994,-0.5269498825073242,0.3953857421875
1683931622714962700,9.805962646484375,-0.040421947836875916,-0.38379955291748047,0.3748807907104492
1683931622725004800,9.8160048828125,0.006441980600357056,-0.191162109375,0.28206920623779297
1683931622735047000,9.826046875,0.056639790534973145,-0.07256221771240234,0.18340706825256348
1683931622745089000,9.836089111328125,0.07257772982120514,0.01572418212890625,0.10281157493591309
1683931622755131100,9.846131103515624,0.06625965237617493,0.08603572845458984,0.016623497009277344
1683931622765173000,9.856173095703125,0.018949389457702637,0.1434335708618164,-0.023125410079956055
1683931622775215000,9.866215087890625,-0.03349350392818451,0.1716318130493164,-0.04783463478088379
1683931622785257200,9.87625732421875,-0.08844064176082611,0.24186420440673828,-0.033925771713256836
1683931622795299300,9.88629931640625,-0.10554026067256927,0.31574535369873047,-0.01976799964904785
1683931622805341400,9.896341552734375,-0.07315346598625183,0.3270883560180664,0.05061531066894531
1683931622815383600,9.906383544921875,-0.010273575782775879,0.2792024612426758,0.0865638256072998
1683931622825425700,9.91642578125,0.06437766551971436,0.2674083709716797,0.07956600189208984
1683931622835467800,9.9264677734375,0.1414225995540619,0.18053436279296875,0.06107306480407715
1683931622845510000,9.936510009765625,0.20659556984901428,0.0928506851196289,-0.02513885498046875
1683931622855551700,9.9465517578125,0.2763679027557373,0.06572914123535156,-0.12108588218688965
1683931622865593900,9.95659375,0.3221755027770996,0.0653390884399414,-0.20978832244873047
1683931622875636000,9.966635986328125,0.3368437886238098,0.06072425842285156,-0.27932047843933105
1683931622885678000,9.976677978515625,0.39344650506973267,0.15806198120117188,-0.3766317367553711
1683931622895720200,9.98672021484375,0.44194942712783813,0.2097797393798828,-0.40453529357910156
1683931622905762300,9.99676220703125,0.4920211434364319,0.2732810974121094,-0.42270874977111816
1683931622915804400,10.006804443359375,0.5130565762519836,0.2448587417602539,-0.3934614658355713
1683931622925846500,10.016846435546874,0.5430038571357727,0.18949604034423828,-0.2495129108428955
1683931622935888600,10.026888671875,0.5558809638023376,0.10756492614746094,-0.15067815780639648
1683931622945930500,10.036930419921875,0.5470024347305298,0.0016794204711914062,-0.028295040130615234
1683931622955972600,10.04697265625,0.5093575119972229,-0.052722930908203125,0.04128718376159668
1683931622966014700,10.0570146484375,0.4934360384941101,-0.09674739837646484,0.12657666206359863
1683931622976056800,10.067056884765625,0.4312436580657959,-0.17786502838134766,0.18898725509643555
1683931622986099000,10.077098876953125,0.3547966480255127,-0.20615482330322266,0.21893310546875
1683931622996141000,10.08714111328125,0.28570616245269775,-0.20114803314208984,0.23614788055419922
1683931623006183200,10.09718310546875,0.21918588876724243,-0.17279911041259766,0.33030080795288086
1683931623016225300,10.107225341796875,0.15781736373901367,-0.1569814682006836,0.5019409656524658
1683931623026267400,10.117267333984374,0.12064492702484131,-0.14409828186035156,0.6907236576080322
1683931623036309200,10.127309326171876,0.09085774421691895,-0.08710289001464844,0.87961745262146
1683931623046351400,10.137351318359375,0.10303866863250732,-0.050299644470214844,1.0922646522521973
1683931623056393500,10.1473935546875,0.08951753377914429,0.04439830780029297,1.2392218112945557
1683931623066435600,10.157435546875,0.056139349937438965,0.1893453598022461,1.4147887229919434
1683931623076477700,10.167477783203125,0.050332069396972656,0.283477783203125,1.5506789684295654
1683931623086519800,10.177519775390625,0.044613778591156006,0.38167381286621094,1.722639560699463
1683931623096562000,10.18756201171875,0.06588774919509888,0.5291709899902344,1.7892003059387207
1683931623106604000,10.19760400390625,0.06396937370300293,0.6183891296386719,1.8174915313720703
1683931623116646100,10.207646240234375,0.060057103633880615,0.725830078125,1.843376874923706
1683931623126688300,10.217688232421875,0.08896708488464355,0.7772340774536133,1.8141756057739258
1683931623136730400,10.22773046875,0.09955781698226929,0.7751369476318359,1.7470147609710693
1683931623146772200,10.237772216796875,0.14832043647766113,0.7268295288085938,1.647000789642334
1683931623156814300,10.247814453125,0.19632017612457275,0.6850576400756836,1.454913854598999
1683931623166856400,10.2578564453125,0.24963921308517456,0.5758647918701172,1.2311909198760986
1683931623176898600,10.267898681640625,0.26220571994781494,0.5093536376953125,1.0145001411437988
1683931623186940700,10.277940673828125,0.24402320384979248,0.45461082458496094,0.7981340885162354
1683931623196982800,10.287982666015624,0.1959354281425476,0.3903226852416992,0.5561215877532959
1683931623207025000,10.29802490234375,0.15665501356124878,0.32407474517822266,0.3180050849914551
1683931623217067000,10.30806689453125,0.12351620197296143,0.2417621612548828,0.13448596000671387
1683931623227109000,10.318109130859375,0.06981849670410156,0.11732769012451172,0.0035288333892822266
1683931623237151000,10.32815087890625,0.017342865467071533,0.0034265518188476562,-0.06787919998168945
1683931623247193000,10.338193115234375,-0.061339735984802246,-0.04010963439941406,-0.13716363906860352
1683931623257235200,10.348235107421875,-0.135717511177063,-0.07068443298339844,-0.13295340538024902
1683931623267277300,10.35827734375,-0.17532765865325928,-0.08346080780029297,-0.12495160102844238
1683931623277319400,10.3683193359375,-0.19862037897109985,-0.08542346954345703,-0.031650543212890625
1683931623287361500,10.378361572265625,-0.17666488885879517,-0.11746406555175781,0.16753697395324707
1683931623297403600,10.388403564453125,-0.03541070222854614,-0.08190059661865234,0.31641507148742676
1683931623307445800,10.39844580078125,0.1030007004737854,0.006577491760253906,0.39322876930236816
1683931623317487600,10.408487548828125,0.2690098285675049,0.0854339599609375,0.4263036251068115
1683931623327529700,10.41852978515625,0.4136284589767456,0.15683364868164062,0.45132946968078613
1683931623337571800,10.42857177734375,0.5645641088485718,0.2541770935058594,0.4063985347747803
1683931623347614000,10.438614013671875,0.6972730159759521,0.30316638946533203,0.47528815269470215
1683931623357656000,10.448656005859375,0.8230304718017578,0.37781429290771484,0.4880084991455078
1683931623367698200,10.4586982421875,0.926733136177063,0.35616111755371094,0.5282285213470459
1683931623377740300,10.468740234375,0.9912768006324768,0.29569053649902344,0.5623641014099121
1683931623387782400,10.478782470703125,1.0164622068405151,0.2416858673095703,0.580507755279541
1683931623397824500,10.488824462890625,1.0064469575881958,0.11052703857421875,0.5039658546447754
1683931623407866400,10.498866455078126,0.9291427135467529,0.06728458404541016,0.38593482971191406
1683931623417908500,10.508908447265625,0.8073955178260803,0.035503387451171875,0.17696881294250488
1683931623427950600,10.51895068359375,0.6792500019073486,-0.025285720825195312,-0.012484312057495117
1683931623437992700,10.52899267578125,0.5810721516609192,-0.11996173858642578,-0.12090039253234863
1683931623448034800,10.539034912109376,0.5069931149482727,-0.6238918304443359,0.005314826965332031
1683931623458077000,10.549076904296875,0.2414398193359375,-0.725550651550293,-0.43503308296203613
1683931623468119000,10.559119140625,0.09000957012176514,-0.20027637481689453,-0.7810707092285156
1683931623478161200,10.5691611328125,0.04876989126205444,1.1401457786560059,-1.0758490562438965
1683931623488203300,10.579203369140625,0.07712668180465698,2.5096940994262695,-1.561842441558838
1683931623498245000,10.5892451171875,0.06972819566726685,2.806947708129883,-1.3013384342193604
1683931623508287200,10.599287353515624,0.045418620109558105,2.4024953842163086,-0.5716791152954102
1683931623518329300,10.609329345703125,0.09405899047851562,1.3154315948486328,0.3440365791320801
1683931623528371500,10.619371337890625,0.10586613416671753,0.009838104248046875,1.017869472503662
1683931623538413600,10.62941357421875,0.0823560357093811,-0.6167621612548828,1.3559675216674805
1683931623548455700,10.63945556640625,0.13680070638656616,-0.5602588653564453,1.584723949432373
1683931623558497800,10.649497802734375,0.10588139295578003,-0.7524557113647461,1.5344390869140625
1683931623568540000,10.659539794921875,0.05605548620223999,-1.067286491394043,1.3216609954833984
1683931623578582000,10.66958203125,0.07234388589859009,-1.2123069763183594,1.1223955154418945
1683931623588624000,10.679623779296875,0.07634824514389038,-1.560297966003418,0.8857078552246094
1683931623598666000,10.689666015625,0.08893483877182007,-1.6444664001464844,0.4568295478820801
1683931623608708000,10.6997080078125,0.09258681535720825,-1.4133491516113281,0.08592033386230469
1683931623618750200,10.709750244140626,0.12785249948501587,-0.7478857040405273,-0.17841362953186035
1683931623628792300,10.719792236328125,0.10794299840927124,0.1368265151977539,-0.5278193950653076
1683931623638834400,10.72983447265625,0.0776321291923523,0.7222824096679688,-0.7966604232788086
1683931623648876500,10.73987646484375,0.0028325319290161133,1.0531315803527832,-0.8448905944824219
1683931623658918700,10.749918701171875,-0.13344529271125793,1.0850558280944824,-0.6581041812896729
1683931623668960800,10.759960693359375,-0.3117368817329407,0.865880012512207,-0.3148210048675537
1683931623679002600,10.770002685546874,-0.4709332287311554,0.627354621887207,-0.10538721084594727
1683931623689045000,10.780044921875,-0.607633113861084,0.510645866394043,-0.07418060302734375
1683931623699086800,10.7900869140625,-0.7046295404434204,0.3509845733642578,-0.09597063064575195
1683931623709129000,10.80012890625,-0.7548091411590576,0.12954330444335938,-0.08462953567504883
1683931623719171000,10.810171142578126,-0.7795541286468506,-0.01971435546875,-0.15030694007873535
1683931623729213200,10.820213134765625,-0.7363713383674622,-0.19723796844482422,-0.1616814136505127
1683931623739255300,10.83025537109375,-0.6373395919799805,-0.04767131805419922,-0.14870476722717285
1683931623749297400,10.84029736328125,-0.46998703479766846,0.08864498138427734,-0.11444878578186035
1683931623759339500,10.850339599609375,-0.29833096265792847,0.1663951873779297,0.044060707092285156
1683931623769381600,10.860381591796875,-0.13749808073043823,0.15721797943115234,0.26488399505615234
1683931623779423700,10.870423828125,-0.06145966053009033,0.09755897521972656,0.43414783477783203
1683931623789465600,10.880465576171876,0.06791511178016663,0.051891326904296875,0.6138720512390137
1683931623799507700,10.8905078125,0.1462380290031433,-0.049343109130859375,0.7439565658569336
1683931623809549800,10.9005498046875,0.1741372048854828,-0.23468971252441406,0.800774097442627
1683931623819592000,10.910592041015626,0.14554134011268616,-0.35349273681640625,0.74163818359375
1683931623829634000,10.920634033203125,0.07440021634101868,-0.3938770294189453,0.5145378112792969
1683931623839676200,10.93067626953125,-0.03642299771308899,-0.32921504974365234,0.1592259407043457
1683931623849718300,10.94071826171875,-0.16414976119995117,-0.28339576721191406,-0.15098953247070312
1683931623859760400,10.950760498046876,-0.3008040487766266,-0.3015708923339844,-0.4016082286834717
1683931623869802500,10.960802490234375,-0.448712557554245,-0.2975301742553711,-0.6308498382568359
1683931623879844400,10.97084423828125,-0.6083539724349976,-0.27109718322753906,-0.8382408618927002
1683931623889886500,10.980886474609376,-0.7483810186386108,-0.25327491760253906,-0.959174633026123
1683931623899928600,10.990928466796875,-0.8701297044754028,-0.15823078155517578,-1.037304401397705
1683931623909970700,11.000970703125,-0.9836885929107666,-0.09377765655517578,-1.0398082733154297
1683931623920012800,11.0110126953125,-1.0483156442642212,-0.02408599853515625,-0.9027960300445557
1683931623930055000,11.021054931640625,-1.0720765590667725,0.029356002807617188,-0.6888203620910645
1683931623940097000,11.031096923828125,-1.0001029968261719,0.12629985809326172,-0.44103455543518066
1683931623950139100,11.04113916015625,-0.8789580464363098,0.24735069274902344,-0.11679935455322266
1683931623960181200,11.05118115234375,-0.7171168327331543,0.29440975189208984,0.1331162452697754
1683931623970223000,11.06122314453125,-0.5371143221855164,0.3441591262817383,0.3545393943786621
1683931623980265200,11.07126513671875,-0.41389989852905273,0.30837249755859375,0.5121188163757324
1683931623990307300,11.081307373046876,-0.32883718609809875,0.21362590789794922,0.6349258422851562
1683931624000349400,11.091349365234375,-0.2443895936012268,0.19335460662841797,0.7102189064025879
1683931624010391600,11.1013916015625,-0.2252720296382904,0.0632619857788086,0.7495870590209961
1683931624020433700,11.11143359375,-0.1896357536315918,0.028891563415527344,0.7074804306030273
1683931624030475800,11.121475830078126,-0.12512171268463135,0.14011192321777344,0.6508417129516602
1683931624040518000,11.131517822265625,-0.06721332669258118,0.18638324737548828,0.6297945976257324
1683931624050560000,11.14156005859375,0.005480244755744934,0.2252340316772461,0.6754145622253418
1683931624060601900,11.151601806640626,0.04430904984474182,0.2563199996948242,0.7008271217346191
1683931624070644000,11.16164404296875,0.06451074779033661,0.28191471099853516,0.6700286865234375
1683931624080686000,11.17168603515625,0.045815736055374146,0.24952030181884766,0.5617499351501465
1683931624090728200,11.181728271484374,0.023490801453590393,0.2669086456298828,0.3956327438354492
1683931624100770300,11.191770263671875,-0.043180257081985474,0.24585723876953125,0.26550912857055664
1683931624110812400,11.2018125,-0.11755481362342834,0.22709941864013672,0.1235651969909668
1683931624120854500,11.2118544921875,-0.1844228357076645,0.1773519515991211,0.015514373779296875
1683931624130896600,11.221896728515626,-0.3143656253814697,0.13039112091064453,-0.11073541641235352
1683931624140938800,11.231938720703125,-0.41309410333633423,0.06721782684326172,-0.14507627487182617
1683931624150980600,11.241980712890625,-0.5395091772079468,0.0595550537109375,-0.14499402046203613
1683931624161022700,11.252022705078126,-0.6051809787750244,0.04211902618408203,-0.08561849594116211
1683931624171064800,11.26206494140625,-0.6348360776901245,0.09103775024414062,0.0036377906799316406
1683931624181107000,11.27210693359375,-0.6385301947593689,0.11790275573730469,0.12421512603759766
1683931624191149000,11.282149169921874,-0.6380916833877563,0.15105533599853516,0.25617313385009766
1683931624201191200,11.292191162109376,-0.5797643065452576,0.19023609161376953,0.35662412643432617
1683931624211233300,11.3022333984375,-0.4739554226398468,0.22098636627197266,0.48681068420410156
1683931624221275400,11.312275390625,-0.32613611221313477,0.2339935302734375,0.5190448760986328
1683931624231317500,11.3223173828125,-0.14433620870113373,0.2461719512939453,0.5353193283081055
1683931624241359600,11.332359619140625,0.023257238790392876,0.23418426513671875,0.48924684524536133
1683931624251401500,11.3424013671875,0.17847198247909546,0.2480487823486328,0.3987274169921875
1683931624261443600,11.352443603515624,0.27560609579086304,0.2120809555053711,0.2199387550354004
1683931624271485700,11.362485595703125,0.32889115810394287,0.17435264587402344,0.07473993301391602
1683931624281527800,11.37252783203125,0.3143566846847534,0.11859607696533203,-0.046471595764160156
1683931624291570000,11.38256982421875,0.2722626328468323,0.0710611343383789,-0.11809539794921875
1683931624301612000,11.392612060546876,0.1554843634366989,0.012823104858398438,-0.15262317657470703
1683931624311654100,11.402654052734375,0.034110039472579956,-0.041747093200683594,-0.1787571907043457
1683931624321696300,11.4126962890625,-0.11384463310241699,-0.07861518859863281,-0.12606143951416016
1683931624331738400,11.42273828125,-0.3141099810600281,-0.053420066833496094,-0.09253454208374023
1683931624341780200,11.4327802734375,-0.4439675509929657,-0.05664634704589844,-0.00959157943725586
1683931624351822300,11.442822265625,-0.5311351418495178,-0.045538902282714844,0.07228279113769531
1683931624361864400,11.452864501953124,-0.5779200792312622,-0.029870033264160156,0.12929248809814453
1683931624371906600,11.462906494140626,-0.5564201474189758,0.025544166564941406,0.13350152969360352
1683931624381948700,11.47294873046875,-0.5060318112373352,0.06809806823730469,0.15139198303222656
1683931624391990800,11.48299072265625,-0.39311155676841736,0.06265830993652344,0.16856670379638672
1683931624402033000,11.493032958984376,-0.2810205817222595,0.05237102508544922,0.14731550216674805
1683931624412075000,11.503074951171875,-0.16142897307872772,0.06090831756591797,0.07661056518554688
1683931624422117000,11.5131171875,-0.04930424317717552,0.05515098571777344,0.05646800994873047
1683931624432159000,11.523158935546874,0.036568425595760345,0.04475212097167969,0.08368873596191406
1683931624442201000,11.533201171875,0.08954614400863647,0.0792074203491211,0.03972053527832031
1683931624452243200,11.5432431640625,0.12617076933383942,0.06603240966796875,0.06716012954711914
1683931624462285300,11.553285400390624,0.09706482291221619,0.03898334503173828,0.06594085693359375
1683931624472327400,11.563327392578126,0.05766152963042259,0.010036468505859375,0.06003284454345703
1683931624482369500,11.57336962890625,0.004043146967887878,-0.001918792724609375,0.04015398025512695
1683931624492411600,11.58341162109375,-0.05101994052529335,-0.03939247131347656,0.004509925842285156
1683931624502453800,11.593453857421874,-0.09540632367134094,-0.04538440704345703,-0.04176616668701172
1683931624512495900,11.603495849609375,-0.11036460101604462,-0.006371498107910156,-0.05864143371582031
1683931624522537700,11.613537841796875,-0.08473008871078491,0.0039920806884765625,-0.05350685119628906
1683931624532579800,11.623579833984374,-0.06163046136498451,0.059037208557128906,0.008312702178955078
1683931624542622000,11.6336220703125,-0.04362151026725769,0.08493804931640625,0.01971721649169922
1683931624552664000,11.6436640625,-0.019458260387182236,0.10808086395263672,0.06629657745361328
1683931624562706200,11.6537060546875,-0.022449523210525513,0.07899951934814453,0.09315872192382812
1683931624572748300,11.663748291015626,-0.028586268424987793,0.12561607360839844,0.12871980667114258
1683931624582790400,11.673790283203125,-0.04223978891968727,0.1007070541381836,0.12810707092285156
1683931624592832500,11.68383251953125,-0.07206179201602936,0.07611274719238281,0.14847898483276367
1683931624602874600,11.69387451171875,-0.08665327727794647,0.0423583984375,0.14935684204101562
1683931624612916700,11.703916748046876,-0.11001858115196228,0.01840496063232422,0.1427764892578125
1683931624622958800,11.713958740234375,-0.11165547370910645,0.01595783233642578,0.06315898895263672
1683931624633000700,11.724000732421874,-0.07577791064977646,0.05352306365966797,-0.010536670684814453
1683931624643042800,11.734042724609376,-0.0383167490363121,0.06932353973388672,-0.04052305221557617
1683931624653085000,11.7440849609375,-0.00857832282781601,0.05433177947998047,-0.05101346969604492
1683931624663127000,11.754126953125,0.010856132954359055,0.08437252044677734,-0.01178121566772461
1683931624673169200,11.764169189453124,0.005817955359816551,0.08338642120361328,0.024605751037597656
1683931624683211300,11.774211181640625,-0.016046147793531418,0.0048065185546875,0.0746755599975586
1683931624693253400,11.78425341796875,-0.04466233029961586,-0.02057170867919922,0.07468938827514648
1683931624703295500,11.79429541015625,-0.08212915807962418,-0.01006317138671875,0.030297279357910156
1683931624713337600,11.804337646484376,-0.07614464312791824,-0.06787872314453125,0.033998966217041016
1683931624723379500,11.81437939453125,-0.07688234746456146,0.02841663360595703,-0.016239166259765625
1683931624733421600,11.824421630859375,-0.0514039471745491,0.02430248260498047,-0.01839590072631836
1683931624743463700,11.834463623046876,-0.02626536227762699,0.04615306854248047,0.0006694793701171875
1683931624753505800,11.844505859375,-0.013601349666714668,0.053513526916503906,0.00293731689453125
1683931624763548000,11.8545478515625,0.007872473448514938,0.060699462890625,0.03330850601196289
1683931624773590000,11.864590087890624,0.004789002239704132,0.051235198974609375,0.058354854583740234
1683931624783632100,11.874632080078126,-0.027017714455723763,0.08655643463134766,0.12749528884887695
1683931624793674200,11.88467431640625,-0.05385496839880943,0.09762096405029297,0.08692026138305664
1683931624803716400,11.89471630859375,-0.07039026916027069,0.04486083984375,0.09158897399902344
1683931624813758200,11.90475830078125,-0.11163114011287689,0.011737823486328125,0.07718563079833984
1683931624823800300,11.91480029296875,-0.1044115275144577,-0.03495979309082031,0.06773042678833008
1683931624833842400,11.924842529296875,-0.07127244770526886,-0.010203361511230469,0.01851940155029297
1683931624843884500,11.934884521484374,-0.041133370250463486,-0.05638599395751953,-0.0037593841552734375
1683931624853926700,11.9449267578125,-0.037141989916563034,-0.07097053527832031,-0.06991291046142578
1683931624863968800,11.95496875,-0.01181183010339737,-0.007397651672363281,-0.14389467239379883
1683931624874011000,11.965010986328124,0.010702687315642834,0.06247520446777344,-0.18068313598632812
1683931624884053000,11.975052978515626,0.03525196760892868,0.004427909851074219,-0.08892154693603516
1683931624894095000,11.98509521484375,0.031092744320631027,-0.016991615295410156,-0.054434776306152344
1683931624904137200,11.99513720703125,0.014787492342293262,0.0093231201171875,-0.026937484741210938
1683931624914179300,12.005179443359374,0.01015445590019226,0.059060096740722656,-0.020383358001708984
1683931624924221200,12.01522119140625,-0.029750177636742592,0.047051429748535156,-0.0015206336975097656
1683931624934263300,12.02526318359375,-0.042512208223342896,-0.056405067443847656,0.04330253601074219
1683931624944305400,12.035305419921874,-0.10134666413068771,-0.11564254760742188,0.014671802520751953
1683931624954347500,12.045347412109376,-0.09516994655132294,-0.10079574584960938,-0.0343928337097168
1683931624964389600,12.0553896484375,-0.08651876449584961,-0.11435413360595703,-0.049458980560302734
1683931624974431700,12.065431640625,-0.05667068064212799,-0.10422611236572266,-0.03618001937866211
1683931624984473900,12.075473876953126,-0.02264089696109295,-0.06842517852783203,-0.04206037521362305
1683931624994516000,12.085515869140625,-0.017626933753490448,-0.09926986694335938,0.0013289451599121094
1683931625004557800,12.095557861328125,0.0010057719191536307,-0.03080272674560547,0.043836116790771484
1683931625014600000,12.105599853515624,0.02159699611365795,-0.010663032531738281,0.09719181060791016
1683931625024642000,12.11564208984375,-0.018950773403048515,-0.026371002197265625,0.11391401290893555
1683931625034684200,12.12568408203125,-0.025222599506378174,-0.02325439453125,0.10622024536132812
1683931625044726300,12.135726318359374,-0.06402305513620377,-0.003931999206542969,0.0769796371459961
1683931625054768400,12.145768310546876,-0.07390306890010834,0.033657073974609375,0.03120565414428711
1683931625064810500,12.155810546875,-0.06703617423772812,0.04450035095214844,0.011600494384765625
1683931625074852600,12.1658525390625,-0.059871744364500046,0.02669239044189453,0.005957126617431641
1683931625084894700,12.175894775390624,-0.03825261443853378,-0.0028591156005859375,0.04689311981201172
1683931625094936600,12.1859365234375,-0.019201211631298065,-0.008500099182128906,0.0421442985534668
1683931625104978700,12.195978759765625,0.01566355489194393,0.018790245056152344,0.0866398811340332
1683931625115020800,12.206020751953124,0.037542954087257385,0.09025859832763672,0.13017749786376953
1683931625125063000,12.21606298828125,0.04914555698633194,0.12517547607421875,0.13756752014160156
1683931625135105000,12.22610498046875,0.09827002137899399,0.11235618591308594,0.16350698471069336
1683931625145147100,12.236147216796875,0.11190882325172424,0.11370563507080078,0.1768655776977539
1683931625155189200,12.246189208984376,0.12807300686836243,0.09365272521972656,0.18250608444213867
1683931625165231400,12.2562314453125,0.1249288022518158,0.047942161560058594,0.11014652252197266
1683931625175273500,12.2662734375,0.09753389656543732,0.031342506408691406,0.06510543823242188
1683931625185315600,12.276315673828124,0.09098590165376663,0.026885986328125,0.051636695861816406
1683931625195357700,12.286357666015626,0.0912291631102562,0.01784515380859375,0.05262613296508789
1683931625205399600,12.296399658203125,0.09177052974700928,0.05370903015136719,0.08896732330322266
1683931625215441700,12.306441650390624,0.10200352221727371,0.1053314208984375,0.1362018585205078
1683931625225483800,12.31648388671875,0.1140936017036438,0.12061214447021484,0.16108083724975586
1683931625235526000,12.32652587890625,0.12531131505966187,0.09069252014160156,0.17564058303833008
1683931625245568000,12.336568115234375,0.1358710527420044,0.1293010711669922,0.1611638069152832
1683931625255610000,12.346610107421874,0.1229800283908844,0.0847463607788086,0.13724040985107422
1683931625265652200,12.35665234375,0.1249929741024971,0.033847808837890625,0.06657600402832031
1683931625275694300,12.3666943359375,0.12931609153747559,0.01903820037841797,0.011049747467041016
1683931625285736400,12.376736328125,0.11896506696939468,0.00214385986328125,-0.04349660873413086
1683931625295778300,12.3867783203125,0.08212248235940933,-0.014448165893554688,-0.04057812690734863
1683931625305820400,12.3968203125,0.02410697750747204,-0.04013252258300781,-0.03288912773132324
1683931625315862500,12.406862548828125,-0.016632825136184692,-0.027649879455566406,0.007795810699462891
1683931625325904600,12.416904541015626,-0.05383910611271858,-0.03879356384277344,-0.0060710906982421875
1683931625335946800,12.42694677734375,-0.07055319100618362,-0.014363288879394531,0.05108022689819336
1683931625345988900,12.43698876953125,-0.036330707371234894,0.023764610290527344,0.08132791519165039
1683931625356031000,12.447031005859374,0.007807707414031029,0.08244514465332031,0.1275472640991211
1683931625366073000,12.457072998046876,0.08985118567943573,0.05292320251464844,0.14211797714233398
1683931625376115200,12.467115234375,0.13319414854049683,0.10386276245117188,0.062113285064697266
1683931625386157300,12.4771572265625,0.17308171093463898,0.10682010650634766,0.04924917221069336
1683931625396199400,12.487199462890626,0.20192930102348328,0.10499191284179688,0.017711162567138672
