time,seconds_elapsed,z,y,x
1684110202938208500,0.02720849609375,0,0,0
1684110202948249900,0.037249755859375,-0.2623167037963867,-1.0724387168884277,0.7636480331420898
1684110202958291500,0.04729150390625,-0.09998607635498047,-0.15233540534973145,-0.11758065223693848
1684110202968332800,0.057332763671875,-0.2936429977416992,-0.6798315048217773,0.17650580406188965
1684110202978374100,0.0673740234375,-0.14802074432373047,-0.38301753997802734,-0.42706727981567383
1684110202988415500,0.07741552734375,0.049648284912109375,-0.12879705429077148,-0.6539661884307861
1684110202998457000,0.08745703125,0.3044404983520508,-0.08249092102050781,-0.47585439682006836
1684110203008498400,0.09749853515625,0.3986368179321289,0.6459243297576904,-0.544771671295166
1684110203018539800,0.107539794921875,-0.24911880493164062,-0.22346973419189453,-0.10420465469360352
1684110203028581400,0.117581298828125,-0.4537801742553711,0.446897029876709,-0.027821779251098633
1684110203038622700,0.127622802734375,-0.732274055480957,0.02240467071533203,-0.25303220748901367
1684110203048664000,0.1376640625,-0.17416000366210938,0.06028413772583008,-0.44951701164245605
1684110203058705400,0.147705322265625,-0.2447528839111328,-0.23824334144592285,0.2933621406555176
1684110203068747000,0.1577470703125,-0.1435375213623047,-0.3606271743774414,-0.4349379539489746
1684110203078788400,0.167788330078125,-0.12195873260498047,-0.12178492546081543,-0.5537745952606201
1684110203088829700,0.17782958984375,-0.207366943359375,0.3904705047607422,0.2350330352783203
1684110203098871000,0.18787109375,-0.24849700927734375,0.5731871128082275,0.3923349380493164
1684110203108912600,0.19791259765625,-0.49256134033203125,0.14820194244384766,1.999333381652832
1684110203118954000,0.2079541015625,-0.8421707153320312,-0.2270524501800537,2.8967771530151367
1684110203128995300,0.217995361328125,-1.7037725448608398,0.07460832595825195,2.6864428520202637
1684110203139037000,0.228036865234375,-2.521480083465576,0.6183078289031982,2.0691442489624023
1684110203149078300,0.238078369140625,-2.613698959350586,0.7460813522338867,0.9298515319824219
1684110203159119600,0.24811962890625,-1.5792326927185059,0.4989950656890869,0.18243026733398438
1684110203169161000,0.258160888671875,-1.012619972229004,-1.0463881492614746,-0.3124370574951172
1684110203179202600,0.26820263671875,-0.30742549896240234,-1.512712001800537,-1.2535333633422852
1684110203189244000,0.278243896484375,0.5318312644958496,-0.8555562496185303,-1.8027186393737793
1684110203199285200,0.28828515625,0.8141078948974609,-0.4475221633911133,-1.5153002738952637
1684110203209326600,0.29832666015625,0.5641765594482422,-0.1605672836303711,-1.1761183738708496
1684110203219368200,0.3083681640625,0.19174766540527344,0.2851433753967285,-0.7597436904907227
1684110203229409500,0.318409423828125,-0.32540225982666016,-0.2816586494445801,-0.2720355987548828
1684110203239451000,0.328450927734375,0.049634456634521484,1.2784464359283447,-1.273125171661377
1684110203249492500,0.338492431640625,0.42084789276123047,0.6195390224456787,-0.9388413429260254
1684110203259533800,0.348533935546875,0.9153790473937988,0.8121638298034668,-1.409205436706543
1684110203269575200,0.3585751953125,0.9023098945617676,0.23963189125061035,-1.1400699615478516
1684110203279616800,0.36861669921875,0.8356170654296875,0.014288187026977539,-1.0175156593322754
1684110203289658000,0.378658203125,1.0740509033203125,-0.3206930160522461,-0.7675981521606445
1684110203299699500,0.388699462890625,1.341822624206543,-0.40035080909729004,-0.6749930381774902
1684110203309740800,0.39874072265625,1.2653346061706543,-0.5598227977752686,-0.7048473358154297
1684110203319782400,0.408782470703125,1.2605338096618652,-0.5759773254394531,-0.9090042114257812
1684110203329823700,0.41882373046875,0.6767482757568359,-0.07668399810791016,-0.8728847503662109
1684110203339865000,0.428864990234375,-0.4492826461791992,0.017032861709594727,-0.5253634452819824
1684110203349906400,0.438906494140625,-1.2291264533996582,0.11079597473144531,-0.15361690521240234
1684110203359948000,0.448947998046875,-1.3470146656036377,0.3926856517791748,-0.3076314926147461
1684110203369989400,0.4589892578125,-1.1196160316467285,0.4367802143096924,-0.7837686538696289
1684110203380030700,0.46903076171875,-0.9724113941192627,0.006695747375488281,-1.0247325897216797
1684110203390072300,0.479072265625,-0.526444673538208,-0.4309206008911133,-0.9074444770812988
1684110203400113700,0.48911376953125,-0.3688499927520752,-0.999619722366333,-0.6223955154418945
1684110203410155000,0.499155029296875,-0.49941396713256836,-0.9923431873321533,-0.7623405456542969
1684110203420196600,0.509196533203125,-0.6850986480712891,-1.0404469966888428,-0.45904064178466797
1684110203430238000,0.519238037109375,-1.2755992412567139,-0.969489574432373,-0.9749975204467773
1684110203440279300,0.529279296875,-1.821344256401062,-0.734050989151001,-1.666513442993164
1684110203450321000,0.53932080078125,-1.805437445640564,-0.17834138870239258,-1.0921344757080078
1684110203460362200,0.5493623046875,-2.2374536991119385,0.1345813274383545,-1.4795551300048828
1684110203470403600,0.559403564453125,-2.8563015460968018,0.4934659004211426,-1.498642921447754
1684110203480445000,0.56944482421875,-3.096071243286133,0.721637487411499,-1.2536087036132812
1684110203490486500,0.579486572265625,-2.4751453399658203,0.6158733367919922,-0.9685497283935547
1684110203500527900,0.58952783203125,-1.1482698917388916,0.35068345069885254,-0.37146663665771484
1684110203510569200,0.5995693359375,0.14462995529174805,-0.3635282516479492,0.8196945190429688
1684110203520610800,0.60961083984375,1.3348565101623535,-0.7744131088256836,1.6613664627075195
1684110203530652200,0.619652099609375,1.4987530708312988,-0.8485355377197266,2.0926666259765625
1684110203540693500,0.629693603515625,0.9574506282806396,-0.6778039932250977,2.1118640899658203
1684110203550734800,0.63973486328125,-0.03573870658874512,-0.1127023696899414,1.8235769271850586
1684110203560776400,0.6497763671875,-0.9348498582839966,0.6051492691040039,0.9123907089233398
1684110203570817800,0.65981787109375,-1.826203465461731,0.8908162117004395,0.2763347625732422
1684110203580859100,0.669859130859375,-1.8564698696136475,0.6736865043640137,0.42549705505371094
1684110203590900700,0.679900634765625,-1.1576625108718872,0.294827938079834,0.7917823791503906
1684110203600942000,0.689942138671875,-0.45598000288009644,-0.14423561096191406,1.2584123611450195
1684110203610983400,0.6999833984375,0.28272926807403564,-0.29688501358032227,1.678079605102539
1684110203621024800,0.710024658203125,0.7052644491195679,0.013503551483154297,1.7574968338012695
1684110203631066400,0.72006640625,0.7928299903869629,0.14470577239990234,1.435281753540039
1684110203641107700,0.730107666015625,0.6631759405136108,0.0939335823059082,1.006047248840332
1684110203651149000,0.740149169921875,0.403630793094635,-0.15701961517333984,0.8183984756469727
1684110203661190700,0.750190673828125,0.27969878911972046,-0.3588724136352539,0.8996686935424805
1684110203671232000,0.76023193359375,0.001516580581665039,-0.3683505058288574,1.0626163482666016
1684110203681273300,0.7702734375,-0.2389136552810669,-0.08876752853393555,0.9092044830322266
1684110203691315000,0.78031494140625,-0.27084842324256897,0.07422590255737305,0.751866340637207
1684110203701356300,0.790356201171875,-0.2685842216014862,0.15452194213867188,0.5657463073730469
1684110203711397600,0.800397705078125,-0.12985104322433472,0.21511030197143555,0.3988218307495117
1684110203721439200,0.810439208984375,0.13161492347717285,0.10109376907348633,0.5451374053955078
1684110203731480600,0.82048046875,0.6037213802337646,-0.10028409957885742,0.5799036026000977
1684110203741522000,0.83052197265625,0.9826043844223022,-0.16255998611450195,0.526458740234375
1684110203751563300,0.840563232421875,1.153138279914856,-0.1597747802734375,0.3040781021118164
1684110203761604900,0.85060498046875,1.1541540622711182,0.00707244873046875,0.06841373443603516
1684110203771646200,0.860646240234375,0.9975684881210327,0.21780824661254883,-0.28269386291503906
1684110203781687600,0.8706875,0.7246901988983154,0.22556066513061523,-0.4033994674682617
1684110203791729200,0.880729248046875,0.3772001266479492,0.21785449981689453,-0.2793612480163574
1684110203801770500,0.8907705078125,0.1397477388381958,0.037221431732177734,0.0479435920715332
1684110203811811800,0.900811767578125,-0.07040789723396301,-0.09700918197631836,0.34749555587768555
1684110203821853400,0.910853515625,-0.3200482130050659,-0.23508119583129883,0.7583398818969727
1684110203831894800,0.920894775390625,-0.45328402519226074,-0.4108090400695801,1.3482723236083984
1684110203841936100,0.93093603515625,-0.6465662121772766,-0.3841218948364258,1.678095817565918
1684110203851977700,0.940977783203125,-0.9828284382820129,-0.6061444282531738,1.6826987266540527
1684110203862019000,0.95101904296875,-1.0648598670959473,-0.9042930603027344,1.4479165077209473
1684110203872060400,0.961060302734375,-0.8675909638404846,-0.6768021583557129,0.7265434265136719
1684110203882102000,0.97110205078125,-0.6171698570251465,-0.7995591163635254,0.20909786224365234
1684110203892143400,0.981143310546875,-0.9867368936538696,-1.3281779289245605,-0.12546062469482422
1684110203902184700,0.991184814453125,-1.150848627090454,-1.3197221755981445,-0.37067270278930664
1684110203912226300,1.001226318359375,-0.9270728826522827,-1.051966667175293,-0.6152777671813965
1684110203922267600,1.011267578125,-0.7886694669723511,-1.1734514236450195,-0.2848544120788574
1684110203932309000,1.02130908203125,-0.4560055136680603,-0.8349461555480957,-0.2885746955871582
1684110203942350600,1.0313505859375,-0.31034618616104126,-0.480989933013916,-0.4370598793029785
1684110203952392000,1.041391845703125,-0.31597232818603516,0.12020492553710938,-0.477935791015625
1684110203962433300,1.051433349609375,-0.2640693187713623,-0.25998401641845703,-0.3823585510253906
1684110203972474600,1.061474609375,0.05614793300628662,-0.6107330322265625,-0.24361610412597656
1684110203982516200,1.07151611328125,0.24958401918411255,-0.3238487243652344,0.1813807487487793
1684110203992557600,1.0815576171875,0.04574638605117798,-0.6232929229736328,0.14321088790893555
1684110204002599000,1.091598876953125,0.08203357458114624,-0.3783259391784668,0.06482982635498047
1684110204012640500,1.101640625,-0.2822822332382202,-0.3566627502441406,-0.21563196182250977
1684110204022681900,1.111681884765625,-0.549918532371521,-0.5492324829101562,-0.663672924041748
1684110204032723200,1.12172314453125,-0.4893805980682373,-0.6003060340881348,-0.9883074760437012
1684110204042764800,1.131764892578125,-0.5357279777526855,-0.659304141998291,-0.975377082824707
1684110204052806100,1.14180615234375,-0.38914620876312256,-0.3924980163574219,-1.0366897583007812
1684110204062847500,1.151847412109375,-0.6039063930511475,-0.22592401504516602,-1.074753761291504
1684110204072888800,1.161888916015625,-0.2008965015411377,-0.7159423828125,-0.5301113128662109
1684110204082930400,1.171930419921875,0.35738658905029297,-0.7082891464233398,0.11655092239379883
1684110204092971800,1.1819716796875,0.2574961185455322,-0.8124270439147949,0.43871116638183594
1684110204103013400,1.192013427734375,0.1087414026260376,-0.8475008010864258,0.7900943756103516
1684110204113054700,1.2020546875,0.08307802677154541,-0.8140316009521484,0.7094454765319824
1684110204123096000,1.212095947265625,0.09752297401428223,-0.4082632064819336,0.14092254638671875
1684110204133137700,1.2221376953125,0.21101248264312744,0.07312345504760742,-0.19048213958740234
1684110204143179000,1.232178955078125,0.32827651500701904,0.15419578552246094,-0.5357651710510254
1684110204153220400,1.242220458984375,0.47693514823913574,0.15096759796142578,-0.8393459320068359
1684110204163261700,1.25226171875,0.6645437479019165,0.04221773147583008,-1.1103625297546387
1684110204173303300,1.26230322265625,0.9211088418960571,-0.029130935668945312,-1.1692290306091309
1684110204183344600,1.2723447265625,0.9947124719619751,-0.07747459411621094,-1.2937202453613281
1684110204193386000,1.282385986328125,0.5228873491287231,-0.0902247428894043,-1.2224254608154297
1684110204203427600,1.292427490234375,0.42389655113220215,0.2510690689086914,-1.0957832336425781
1684110204213469000,1.302468994140625,0.5098781585693359,0.4903583526611328,-1.5585031509399414
1684110204223510300,1.31251025390625,0.3845844268798828,0.49708986282348633,-2.1925525665283203
1684110204233552000,1.3225517578125,0.4600412845611572,0.5233283042907715,-2.165966033935547
1684110204243593200,1.33259326171875,0.7181563377380371,0.593045711517334,-1.263807773590088
1684110204253634600,1.342634521484375,1.0507372617721558,5.329709053039551,-1.4905424118041992
1684110204263676200,1.35267626953125,1.0490576028823853,1.6291389465332031,-0.36386632919311523
1684110204273717500,1.362717529296875,1.5368421077728271,-1.8533687591552734,0.48495054244995117
1684110204283758800,1.3727587890625,1.3523942232131958,-2.9041409492492676,0.10160589218139648
1684110204293800400,1.382800537109375,0.29335880279541016,-1.901590347290039,-0.5248861312866211
1684110204303841800,1.392841796875,0.1452627182006836,-1.4560546875,-1.3955087661743164
1684110204313883100,1.402883056640625,0.05706644058227539,-1.019460678100586,-2.1354265213012695
1684110204323924700,1.4129248046875,0.5281665325164795,-0.5763978958129883,-2.5007739067077637
1684110204333966000,1.422966064453125,0.6320888996124268,-0.5073070526123047,-2.2715816497802734
1684110204344007400,1.43300732421875,0.6548802852630615,-0.5385861396789551,-2.2012882232666016
1684110204354049000,1.443049072265625,-0.10794734954833984,-0.8015327453613281,-1.4755473136901855
1684110204364090400,1.45309033203125,-0.6155884265899658,-0.3461737632751465,-1.5705366134643555
1684110204374131700,1.463131591796875,-0.7971136569976807,-0.5473508834838867,-1.3769879341125488
1684110204384173300,1.47317333984375,-0.9914498329162598,-1.346909999847412,-0.8424520492553711
1684110204394214700,1.483214599609375,-0.43563079833984375,-1.13350248336792,-0.3186922073364258
1684110204404256000,1.493256103515625,-0.7292702198028564,-1.2057480812072754,1.456876277923584
1684110204414297600,1.503297607421875,-0.578545331954956,-0.6047682762145996,2.828005790710449
1684110204424339000,1.5133388671875,-0.16808390617370605,-0.42520618438720703,3.451359748840332
1684110204434380300,1.52338037109375,-0.12407469749450684,-0.19611740112304688,3.43056058883667
1684110204444422000,1.533421875,-0.1276540756225586,-0.7232074737548828,2.6433281898498535
1684110204454463200,1.543463134765625,-0.08258271217346191,-0.7671761512756348,1.4900293350219727
1684110204464504600,1.553504638671875,-0.17244338989257812,-0.8781299591064453,-0.06835365295410156
1684110204474546200,1.563546142578125,-0.17810916900634766,-1.0662946701049805,-1.1997356414794922
1684110204484587500,1.57358740234375,-0.18557119369506836,-1.0537323951721191,-2.0300493240356445
1684110204494628900,1.58362890625,0.05178713798522949,-1.1065988540649414,-2.2440671920776367
1684110204504670500,1.59367041015625,0.38679981231689453,-0.7522687911987305,-2.0770111083984375
1684110204514711800,1.6037119140625,0.8743603229522705,-1.0148272514343262,-0.9812331199645996
1684110204524753200,1.613753173828125,1.1038424968719482,-0.15429449081420898,-0.6060066223144531
1684110204534794800,1.623794677734375,0.41442012786865234,0.7754673957824707,-1.0819416046142578
1684110204544836000,1.633836181640625,0.01150369644165039,0.42468929290771484,-0.952601432800293
1684110204554877400,1.64387744140625,-0.09203624725341797,1.2073774337768555,-1.3901700973510742
1684110204564919000,1.6539189453125,-0.20964598655700684,0.3774881362915039,-1.1111674308776855
1684110204574960400,1.66396044921875,-0.2781848907470703,-0.48139238357543945,-0.9930329322814941
1684110204585001700,1.674001708984375,-0.3004419803619385,-0.7135400772094727,-1.319603443145752
1684110204595043300,1.684043212890625,-0.3089640140533447,-0.546417236328125,-1.3699069023132324
1684110204605084700,1.694084716796875,-0.3054831027984619,0.019822120666503906,-1.2848644256591797
1684110204615126000,1.7041259765625,-0.5044815540313721,0.22869157791137695,-1.1572027206420898
1684110204625167600,1.714167724609375,-0.7210099697113037,-0.021946430206298828,-0.9615788459777832
1684110204635209000,1.724208984375,-0.7695443630218506,-0.11861801147460938,-0.766939640045166
1684110204645250300,1.734250244140625,-0.7517156600952148,0.06690788269042969,-0.6168289184570312
1684110204655292000,1.7442919921875,-0.6942601203918457,0.08050251007080078,-0.4922804832458496
1684110204665333200,1.754333251953125,-0.4038662910461426,-0.25128602981567383,-0.33318233489990234
1684110204675374800,1.764374755859375,-0.15357112884521484,-0.23040246963500977,-0.2785301208496094
1684110204685416200,1.774416259765625,-0.01095438003540039,0.10020065307617188,-0.5752320289611816
1684110204695457500,1.78445751953125,0.0893094539642334,0.5359344482421875,-0.8807148933410645
1684110204705499100,1.7944990234375,0.1533658504486084,0.8202624320983887,-1.140131950378418
1684110204715540500,1.80454052734375,0.09328722953796387,1.0130438804626465,-1.431093692779541
1684110204725581800,1.814581787109375,-0.704596757888794,0.5467314720153809,-1.8264193534851074
1684110204735623200,1.824623046875,-0.6329097747802734,0.6221742630004883,-1.4994840621948242
1684110204745664800,1.834664794921875,0.6405184268951416,1.098243236541748,-1.13264799118042
1684110204755706000,1.8447060546875,0.42441463470458984,0.8825883865356445,-1.0317482948303223
1684110204765747700,1.854747802734375,0.028447628021240234,0.7520294189453125,-0.5097403526306152
1684110204775789000,1.8647890625,-0.16886448860168457,0.6476020812988281,0.031211376190185547
1684110204785830400,1.874830322265625,-0.1223137378692627,0.39960527420043945,0.6715798377990723
1684110204795872000,1.8848720703125,-0.019305944442749023,0.3436098098754883,1.1743698120117188
1684110204805913300,1.894913330078125,-0.0261991024017334,0.21184778213500977,1.145681381225586
1684110204815954700,1.90495458984375,0.1037750244140625,-0.010080814361572266,0.7522292137145996
1684110204825996300,1.914996337890625,0.18499016761779785,-0.18889570236206055,0.11170005798339844
1684110204836037600,1.92503759765625,0.11075234413146973,-0.13586902618408203,-0.4917640686035156
1684110204846079000,1.935078857421875,-0.04503059387207031,-0.27768611907958984,-0.774627685546875
1684110204856120600,1.94512060546875,-0.09547638893127441,-0.5281109809875488,-0.7259893417358398
1684110204866162000,1.955161865234375,-0.26898193359375,-0.6323156356811523,-0.5655059814453125
1684110204876203300,1.965203369140625,-0.3402130603790283,-0.17573308944702148,-0.5474867820739746
1684110204886244900,1.975244873046875,-0.7562384605407715,-0.9354400634765625,-0.17912054061889648
1684110204896286200,1.9852861328125,-1.2683093547821045,-1.349647045135498,-0.0322413444519043
1684110204906327600,1.99532763671875,-1.5614840984344482,-1.057361125946045,0.016784191131591797
1684110204916369200,2.005369140625,-1.9935848712921143,-0.9483866691589355,0.14811038970947266
1684110204926410500,2.015410400390625,-2.458747625350952,-0.6438083648681641,0.3169403076171875
1684110204936452000,2.0254521484375,-3.694220542907715,-1.946767807006836,0.6276659965515137
1684110204946493400,2.035493408203125,-4.309115409851074,-2.6745176315307617,0.5144462585449219
1684110204956534800,2.04553466796875,-3.289313316345215,-1.802072525024414,0.37706899642944336
1684110204966576000,2.055576171875,-1.5314750671386719,-0.8916721343994141,0.20502471923828125
1684110204976617700,2.06561767578125,-0.23696637153625488,-0.48180484771728516,0.028866291046142578
1684110204986659000,2.0756591796875,0.6755872964859009,-0.48303699493408203,-0.35529661178588867
1684110204996700700,2.08570068359375,1.2675968408584595,-0.6343374252319336,-0.6887555122375488
1684110205006742000,2.095741943359375,1.7070215940475464,-0.5123424530029297,-0.7916021347045898
1684110205016783400,2.105783447265625,2.210906982421875,-0.2251129150390625,-0.9337201118469238
1684110205026825000,2.115824951171875,2.7429606914520264,0.18393230438232422,-1.1948738098144531
1684110205036866300,2.1258662109375,2.9252936840057373,0.36202239990234375,-1.373487949371338
1684110205046907600,2.13590771484375,2.891249179840088,0.47104454040527344,-1.6682848930358887
1684110205056949200,2.14594921875,2.501466989517212,0.3007197380065918,-1.8295695781707764
1684110205066990600,2.155990478515625,1.8142530918121338,0.35121774673461914,-1.7341668605804443
1684110205077032000,2.166031982421875,1.3917924165725708,0.11405086517333984,-1.5226020812988281
1684110205087073500,2.176073486328125,1.643259882926941,-0.3500347137451172,-1.6364750862121582
1684110205097115000,2.186114990234375,0.5689574480056763,0.08891963958740234,-0.33353281021118164
1684110205107156500,2.196156494140625,0.7576005458831787,-0.18200302124023438,0.10726642608642578
1684110205117197800,2.20619775390625,0.6321516036987305,-0.09685325622558594,1.14039945602417
1684110205127239200,2.2162392578125,0.6806163787841797,0.18307781219482422,1.5466928482055664
1684110205137280800,2.22628076171875,0.18450689315795898,-0.38745594024658203,1.4079995155334473
1684110205147322000,2.236322021484375,0.0741112232208252,-1.1608514785766602,1.2525553703308105
1684110205157363500,2.246363525390625,0.16532468795776367,-0.6275482177734375,1.5002408027648926
1684110205167405000,2.256405029296875,0.20113623142242432,-0.5407867431640625,1.4899482727050781
1684110205177446400,2.2664462890625,0.2030273675918579,-0.7793292999267578,1.1297526359558105
1684110205187487700,2.27648779296875,0.2812856435775757,-0.584716796875,0.5233492851257324
1684110205197529300,2.286529296875,0.37445902824401855,-0.44464874267578125,0.09494829177856445
1684110205207570700,2.29657080078125,0.6487321853637695,-0.3473539352416992,-0.3794388771057129
1684110205217612000,2.306612060546875,0.934912383556366,-0.3904304504394531,-0.7304677963256836
1684110205227653600,2.316653564453125,1.1052355766296387,-0.4225454330444336,-0.8477497100830078
1684110205237695000,2.326695068359375,1.1429575681686401,-0.46167469024658203,-0.6803035736083984
1684110205247736600,2.336736572265625,1.0742853879928589,-0.4859046936035156,-0.4743332862854004
1684110205257778000,2.34677783203125,1.0084898471832275,-0.4738283157348633,-0.18661975860595703
1684110205267819300,2.3568193359375,1.0314548015594482,-0.389373779296875,0.05777406692504883
1684110205277860900,2.36686083984375,1.3666963577270508,-0.4193143844604492,0.12423324584960938
1684110205287902200,2.376902099609375,1.8745832443237305,-0.16028213500976562,-0.036810874938964844
1684110205297943600,2.386943603515625,2.1426916122436523,0.07817840576171875,-0.06119394302368164
1684110205307985200,2.396985107421875,2.352247476577759,0.09289264678955078,-0.015460491180419922
1684110205318026500,2.407026611328125,2.627743721008301,-0.0550537109375,0.03529930114746094
1684110205328067800,2.41706787109375,2.6703155040740967,-0.16840171813964844,-0.04662656784057617
1684110205338109400,2.427109375,2.4959707260131836,-0.06262874603271484,-0.10757160186767578
1684110205348150800,2.43715087890625,2.2443275451660156,-0.05754661560058594,-0.034630775451660156
1684110205358192400,2.4471923828125,1.8110325336456299,-0.21504688262939453,0.15068817138671875
1684110205368233700,2.457233642578125,1.2098923921585083,-0.41875743865966797,0.4200310707092285
1684110205378275000,2.467275146484375,0.568678617477417,-0.07734298706054688,0.6688709259033203
1684110205388316700,2.477316650390625,-0.012006402015686035,0.6628341674804688,0.9305529594421387
1684110205398358000,2.48735791015625,-0.5413435697555542,1.0145673751831055,0.8168735504150391
1684110205408399400,2.4973994140625,-0.2880339026451111,1.2396774291992188,0.22972440719604492
1684110205418441000,2.50744091796875,-0.4662984013557434,1.1910405158996582,-0.6560173034667969
1684110205428482300,2.517482421875,-0.3421934247016907,0.8996028900146484,-1.3498399257659912
1684110205438524000,2.52752392578125,0.5699772834777832,2.0928421020507812,-1.8932881355285645
1684110205448565200,2.537565185546875,1.2787275314331055,4.555056095123291,-1.7226934432983398
1684110205458606600,2.547606689453125,1.0303754806518555,3.6536059379577637,-1.6468307971954346
1684110205468648200,2.557648193359375,0.5678068995475769,2.212052345275879,-0.9464106559753418
1684110205478689500,2.567689453125,-0.18544745445251465,-0.8101673126220703,0.2519099712371826
1684110205488731000,2.57773095703125,-0.7381148338317871,-5.295644760131836,1.7950422763824463
1684110205498772500,2.5877724609375,-0.005915254354476929,-7.046012878417969,2.013381242752075
1684110205508813800,2.597813720703125,1.3797348737716675,-3.249985694885254,0.5157222747802734
1684110205518855400,2.60785546875,1.8162509202957153,0.7292881011962891,0.2971229553222656
1684110205528896800,2.617896728515625,0.9721049070358276,0.9570388793945312,0.9321238994598389
1684110205538938000,2.627938232421875,-0.02536134421825409,0.29262256622314453,0.8201053142547607
1684110205548979700,2.637979736328125,-0.44795724749565125,0.24184417724609375,0.6032962799072266
1684110205559021000,2.64802099609375,-0.4440878629684448,0.4308357238769531,0.35022735595703125
1684110205569062400,2.6580625,-0.22070150077342987,1.6733736991882324,0.5888607501983643
1684110205579104000,2.66810400390625,-0.31882166862487793,0.9867086410522461,0.011396169662475586
1684110205589145300,2.678145263671875,-0.16953134536743164,0.3275003433227539,-0.548067569732666
1684110205599187000,2.68818701171875,0.08684633672237396,0.06304168701171875,-0.7660036087036133
1684110205609228300,2.698228271484375,0.23838931322097778,-0.0050525665283203125,-0.7794380187988281
1684110205619269600,2.70826953125,0.2775871157646179,-0.2493000030517578,-0.597985029220581
1684110205629311200,2.718311279296875,0.2870260179042816,-0.3423318862915039,-0.42282676696777344
1684110205639352600,2.7283525390625,0.22031620144844055,-0.48845672607421875,-0.15143632888793945
1684110205649394000,2.738393798828125,0.2508310377597809,-0.581334114074707,0.22474193572998047
1684110205659435500,2.748435546875,0.312931090593338,-0.5863018035888672,0.650336503982544
1684110205669476900,2.758476806640625,0.3020356297492981,-0.5354042053222656,0.9489500522613525
1684110205679518200,2.768518310546875,0.24798434972763062,-0.42742919921875,1.1207606792449951
1684110205689559800,2.778559814453125,0.18300491571426392,-0.30554771423339844,0.9515633583068848
1684110205699601200,2.78860107421875,0.1797359436750412,-0.3166799545288086,0.6506409645080566
1684110205709642800,2.798642822265625,0.2529681921005249,-0.3182506561279297,0.296126127243042
1684110205719684000,2.80868408203125,0.4591660499572754,-0.17852401733398438,0.16397547721862793
1684110205729725400,2.818725341796875,0.6081019639968872,0.01835918426513672,0.10017132759094238
1684110205739767000,2.82876708984375,0.6914345026016235,0.08622169494628906,-0.007443428039550781
1684110205749808400,2.838808349609375,0.7389160990715027,0.12117385864257812,0.020890235900878906
1684110205759849700,2.848849609375,0.6088934540748596,0.12772083282470703,0.10250544548034668
1684110205769891300,2.858891357421875,0.3902883231639862,0.09561443328857422,0.20875144004821777
1684110205779932700,2.8689326171875,0.20165938138961792,0.022119522094726562,0.30966949462890625
1684110205789974300,2.878974365234375,0.06822443008422852,0.08409976959228516,0.25550317764282227
1684110205800015600,2.889015625,-0.018901675939559937,0.3098411560058594,0.11871576309204102
1684110205810057000,2.899056884765625,-0.21452100574970245,0.4423389434814453,0.1015315055847168
1684110205820098600,2.9090986328125,-0.40042680501937866,0.6300649642944336,-0.14419150352478027
1684110205830140000,2.919139892578125,-0.5031501650810242,0.22651195526123047,-0.6150383949279785
1684110205840181500,2.929181396484375,-0.36738765239715576,-0.09971332550048828,-0.6609303951263428
1684110205850222800,2.939222900390625,-0.08424028754234314,-0.46357250213623047,-0.46737027168273926
1684110205860264200,2.94926416015625,0.24360260367393494,-0.8463220596313477,-0.09854698181152344
1684110205870305800,2.959305908203125,0.5912439227104187,-0.8741912841796875,0.30596470832824707
1684110205880347100,2.96934716796875,0.6780217885971069,-0.5043754577636719,0.5198891162872314
1684110205890388500,2.979388427734375,0.5813169479370117,-0.3179168701171875,0.3127753734588623
1684110205900430000,2.98943017578125,0.4761567711830139,-0.33248329162597656,-0.003544330596923828
1684110205910471400,2.999471435546875,0.3694671392440796,-0.05999946594238281,-0.38121485710144043
1684110205920513000,3.009512939453125,0.07953499257564545,0.09182357788085938,-0.720684289932251
1684110205930554400,3.019554443359375,-0.28411662578582764,-0.26845741271972656,-0.7037067413330078
1684110205940595700,3.029595703125,-0.44319310784339905,-0.40692996978759766,-0.5161411762237549
1684110205950637300,3.03963720703125,-0.4928521513938904,-0.26656627655029297,-0.17618107795715332
1684110205960678700,3.0496787109375,-0.5236408710479736,-0.16829299926757812,0.07397222518920898
1684110205970720300,3.05972021484375,-0.5013603568077087,-0.17660140991210938,0.2198622226715088
1684110205980761600,3.06976171875,-0.3565979301929474,-0.20761871337890625,0.2357652187347412
1684110205990803000,3.079802978515625,-0.24082407355308533,-0.19266128540039062,0.22299909591674805
1684110206000844500,3.089844482421875,-0.24915318191051483,-0.1897897720336914,0.14868474006652832
1684110206010886000,3.099885986328125,-0.2756137549877167,-0.14667034149169922,-0.03535270690917969
1684110206020927200,3.10992724609375,-0.2660906910896301,0.05816650390625,-0.0785520076751709
1684110206030968800,3.11996875,-0.03799028694629669,0.8823566436767578,0.0016326904296875
1684110206041010200,3.13001025390625,0.0353240966796875,1.5060596466064453,0.36686229705810547
1684110206051051800,3.1400517578125,-0.3167130947113037,0.7526931762695312,0.5963542461395264
1684110206061093000,3.150093017578125,-0.320777952671051,0.3994874954223633,0.6013097763061523
1684110206071134500,3.160134521484375,-0.15438200533390045,0.3379831314086914,0.5715837478637695
1684110206081176000,3.170176025390625,0.021473005414009094,0.35491943359375,0.7245218753814697
1684110206091217400,3.180217529296875,0.16800859570503235,0.4667701721191406,0.9305353164672852
1684110206101259000,3.190259033203125,0.27390676736831665,0.6775350570678711,1.170762300491333
1684110206111300400,3.20030029296875,0.3244275152683258,0.8004827499389648,1.1694376468658447
1684110206121341700,3.210341796875,0.308420866727829,0.7429647445678711,1.1044270992279053
1684110206131383300,3.22038330078125,0.3128637671470642,0.6062707901000977,0.9992895126342773
1684110206141424600,3.230424560546875,0.30103304982185364,0.5722856521606445,1.0461041927337646
1684110206151466200,3.24046630859375,0.329144686460495,0.5905656814575195,1.163309097290039
1684110206161507600,3.250507568359375,0.2849332392215729,0.6035308837890625,1.3383378982543945
1684110206171549000,3.260548828125,0.17937758564949036,0.44173431396484375,1.489987850189209
1684110206181590500,3.270590576171875,0.09658273309469223,0.15853023529052734,1.5170400142669678
1684110206191632000,3.2806318359375,0.049597226083278656,0.0969696044921875,1.4606926441192627
1684110206201673200,3.290673095703125,0.12816445529460907,0.30504798889160156,1.3408870697021484
1684110206211714800,3.30071484375,0.1541018933057785,0.4367847442626953,1.1887643337249756
1684110206221756200,3.310756103515625,0.07085490226745605,0.3544750213623047,1.0889265537261963
1684110206231797800,3.3207978515625,0.15744972229003906,0.6403684616088867,1.2571845054626465
1684110206241839000,3.330839111328125,0.22693806886672974,0.48749542236328125,1.2822811603546143
1684110206251880400,3.34088037109375,0.3113129138946533,0.3292570114135742,1.227729082107544
1684110206261922000,3.350922119140625,0.38692525029182434,0.22458362579345703,1.1797637939453125
1684110206271963400,3.36096337890625,0.4924163520336151,0.26302337646484375,1.2274723052978516
1684110206282005000,3.3710048828125,0.49742135405540466,0.23303699493408203,1.2292773723602295
1684110206292046300,3.38104638671875,0.4803161025047302,0.10847949981689453,1.1422133445739746
1684110206302088000,3.391087890625,0.46534544229507446,-0.029279708862304688,1.0285122394561768
1684110206312129300,3.40112939453125,0.46662139892578125,-0.2111949920654297,0.8481664657592773
1684110206322170600,3.411170654296875,0.48857277631759644,-0.3153190612792969,0.645068883895874
1684110206332212200,3.421212158203125,0.3918535113334656,-0.4799165725708008,0.44005846977233887
1684110206342253600,3.431253662109375,0.19410109519958496,-0.825439453125,0.0836787223815918
1684110206352295200,3.441295166015625,0.07975083589553833,-1.242410659790039,-0.5289462804794312
1684110206362336500,3.45133642578125,0.20506417751312256,-1.1333236694335938,-0.7703933715820312
1684110206372377900,3.4613779296875,0.38415050506591797,-0.4906005859375,-0.9035913944244385
1684110206382419500,3.47141943359375,0.47766488790512085,0.012709617614746094,-0.9650545120239258
1684110206392460800,3.481460693359375,0.5470572710037231,0.29290199279785156,-0.8997405767440796
1684110206402502100,3.491502197265625,0.7244592905044556,0.48842811584472656,-0.6903471946716309
1684110206412543700,3.501543701171875,0.5038923025131226,0.3082599639892578,-0.5333023071289062
1684110206422585000,3.511585205078125,0.2300756573677063,-0.1620941162109375,-0.4790012836456299
1684110206432626700,3.521626708984375,-0.08453857898712158,-0.6007308959960938,-0.49244260787963867
1684110206442668000,3.53166796875,-0.3350428342819214,-1.0114641189575195,-0.5699487924575806
1684110206452709400,3.54170947265625,-0.5311259627342224,-1.391693115234375,-0.6168085336685181
1684110206462751000,3.5517509765625,-0.6400103569030762,-1.472158432006836,-0.63813316822052
1684110206472792300,3.561792236328125,-1.0772098302841187,-1.4192571640014648,-0.7971010208129883
1684110206482834000,3.571833984375,-1.546012282371521,-1.1417198181152344,-0.8361068964004517
1684110206492875300,3.581875244140625,-1.6062085628509521,-0.7682952880859375,-0.7402371168136597
1684110206502916600,3.59191650390625,-1.3051139116287231,-0.33361339569091797,-0.5444314479827881
1684110206512958200,3.601958251953125,-1.0493155717849731,0.04466438293457031,-0.34886014461517334
1684110206522999600,3.61199951171875,-0.9776551723480225,0.2808647155761719,-0.20501255989074707
1684110206533041200,3.622041259765625,-1.064085602760315,0.385589599609375,-0.1488199234008789
1684110206543082500,3.63208251953125,-1.235531210899353,0.3170938491821289,-0.07790970802307129
1684110206553123800,3.642123779296875,-1.3647181987762451,0.14296340942382812,0.029349803924560547
1684110206563165400,3.65216552734375,-1.3663679361343384,-0.12491893768310547,0.11337065696716309
1684110206573206800,3.662206787109375,-1.2999281883239746,-0.3669586181640625,0.08462643623352051
1684110206583248400,3.672248291015625,-1.198121428489685,-0.4349346160888672,-0.04724454879760742
1684110206593289700,3.682289794921875,-1.1163393259048462,-0.44855499267578125,-0.14209508895874023
1684110206603331000,3.6923310546875,-0.998523473739624,-0.4508943557739258,-0.1369185447692871
1684110206613372700,3.70237255859375,-0.6837354302406311,-0.3966550827026367,-0.05973958969116211
1684110206623414000,3.7124140625,0.07803800702095032,-0.37885475158691406,-0.20472288131713867
1684110206633455600,3.72245556640625,1.052555799484253,-0.2894935607910156,-0.33228445053100586
1684110206643497000,3.7324970703125,1.9191672801971436,-0.22150802612304688,-0.46518373489379883
1684110206653538300,3.742538330078125,2.4991462230682373,-0.12422657012939453,-0.6528705358505249
1684110206663580000,3.752579833984375,2.787356376647949,-0.13355255126953125,-0.7882674932479858
1684110206673621200,3.762621337890625,2.9331343173980713,-0.12735271453857422,-0.844008207321167
1684110206683662800,3.772662841796875,2.8338394165039062,-0.05345344543457031,-0.8488538265228271
1684110206693704200,3.7827041015625,2.4880475997924805,0.06817340850830078,-0.899612307548523
1684110206703745500,3.79274560546875,1.980265736579895,0.1625652313232422,-0.8379373550415039
1684110206713787100,3.802787109375,1.5139826536178589,0.10738182067871094,-0.7680177688598633
1684110206723828500,3.812828369140625,1.196494460105896,0.017126083374023438,-0.6739417314529419
1684110206733870000,3.8228701171875,1.1298185586929321,-0.07026290893554688,-0.5632275342941284
1684110206743911400,3.832911376953125,1.2616784572601318,-0.035292625427246094,-0.5812461376190186
1684110206753952800,3.842952880859375,1.418630599975586,0.0268402099609375,-0.7149204015731812
1684110206763994400,3.852994384765625,1.5425453186035156,0.02866077423095703,-0.8898175954818726
1684110206774035700,3.86303564453125,1.6112300157546997,-0.03825569152832031,-1.069745659828186
1684110206784077300,3.873077392578125,1.6664090156555176,-0.11100482940673828,-1.120166301727295
1684110206794118700,3.88311865234375,1.6744861602783203,-0.08887577056884766,-1.1283756494522095
1684110206804160000,3.893159912109375,1.6035367250442505,-0.0935525894165039,-1.1440997123718262
1684110206814201600,3.90320166015625,1.557215929031372,-0.16063976287841797,-1.1442433595657349
1684110206824243000,3.913242919921875,1.5993613004684448,0.38531017303466797,-0.8970813751220703
1684110206834284500,3.923284423828125,1.4914077520370483,1.009037971496582,-0.639363169670105
1684110206844326000,3.933325927734375,1.4623711109161377,0.8000078201293945,-0.6344430446624756
1684110206854367200,3.9433671875,1.5027498006820679,0.7104940414428711,-0.6343398094177246
1684110206864408800,3.953408935546875,1.7106623649597168,0.7669095993041992,-0.8348932266235352
1684110206874450200,3.9634501953125,1.6697852611541748,0.3657875061035156,-1.047847867012024
1684110206884491800,3.97349169921875,1.1819885969161987,-0.08855915069580078,-1.1400576829910278
1684110206894533000,3.983533203125,0.781983494758606,-0.367340087890625,-1.0614005327224731
1684110206904574500,3.993574462890625,0.4105461835861206,-0.6979608535766602,-1.089192271232605
1684110206914616000,4.003615966796875,0.08244264125823975,-0.8842945098876953,-1.1361595392227173
1684110206924657400,4.013657470703125,-0.16099894046783447,-0.9361543655395508,-1.1917356252670288
1684110206934699000,4.023698974609375,-0.06098330020904541,-0.5686321258544922,-1.46045982837677
1684110206944740400,4.033740234375,0.24443531036376953,-0.017312049865722656,-1.726738691329956
1684110206954781700,4.04378173828125,0.4064645767211914,0.34010887145996094,-1.5784196853637695
1684110206964823300,4.0538232421875,0.36152589321136475,0.7577619552612305,-1.2670772075653076
1684110206974864600,4.06386474609375,0.06547105312347412,0.7627363204956055,-0.8980553150177002
1684110206984906200,4.07390625,-0.23602211475372314,0.2709064483642578,-0.7857275009155273
1684110206994947600,4.083947509765625,-0.3232535123825073,-0.3871793746948242,-0.7522250413894653
1684110207004989200,4.0939892578125,-0.2594987154006958,-0.6538991928100586,-0.937983512878418
1684110207015030500,4.104030517578125,-0.02482318878173828,-0.6528806686401367,-1.1644071340560913
1684110207025071900,4.11407177734375,0.07628881931304932,-0.5030059814453125,-1.2806886434555054
1684110207035113500,4.124113525390625,-0.1418243646621704,-0.4055051803588867,-1.2067586183547974
1684110207045154800,4.13415478515625,-0.42456817626953125,-0.38013458251953125,-1.1423413753509521
1684110207055196400,4.144196533203125,-0.6205133199691772,-0.329071044921875,-1.1220494508743286
1684110207065237800,4.15423779296875,-0.7091699838638306,-0.386016845703125,-1.079708456993103
1684110207075279000,4.164279052734375,-0.6830756664276123,-0.7726335525512695,-1.0428352355957031
1684110207085320700,4.17432080078125,-0.47423672676086426,-1.2131996154785156,-1.0156170129776
1684110207095362000,4.184362060546875,-0.17702984809875488,-1.489950180053711,-0.9941123723983765
1684110207105403600,4.194403564453125,0.11035406589508057,-0.5235176086425781,-0.8347619771957397
1684110207115445000,4.204445068359375,0.13130486011505127,0.7467365264892578,-0.6821385622024536
1684110207125486300,4.214486328125,0.03645336627960205,0.21317672729492188,-0.5420504808425903
1684110207135528000,4.22452783203125,0.05385100841522217,-0.42189502716064453,-0.4985320568084717
1684110207145569300,4.2345693359375,0.14599204063415527,-0.31534290313720703,-0.4603447914123535
1684110207155611000,4.24461083984375,0.2073143720626831,-0.025588035583496094,-0.4354642629623413
1684110207165652200,4.25465234375,0.17368042469024658,-0.02823162078857422,-0.49968016147613525
1684110207175693800,4.26469384765625,0.11536717414855957,-0.16217899322509766,-0.5716434717178345
1684110207185735200,4.274735107421875,0.07105684280395508,-0.2431192398071289,-0.5740444660186768
1684110207195776500,4.284776611328125,0.04806375503540039,-0.26406383514404297,-0.6263800859451294
1684110207205818000,4.294818115234375,0.025086164474487305,-0.2036762237548828,-0.6278799772262573
1684110207215859500,4.304859375,0.02142620086669922,-0.21246910095214844,-0.6779618263244629
1684110207225901000,4.314901123046875,0.0040503740310668945,-0.18491554260253906,-0.6574599742889404
1684110207235942400,4.3249423828125,-0.019709110260009766,-0.09529399871826172,-0.4297088384628296
1684110207245983700,4.334983642578125,-0.02175617218017578,0.22246265411376953,-0.13147234916687012
1684110207256025300,4.345025390625,0.03219914436340332,0.31104087829589844,0.03901112079620361
1684110207266066700,4.355066650390625,0.1402904987335205,0.023258209228515625,0.03136610984802246
1684110207276108300,4.3651083984375,0.353182315826416,0.10606098175048828,-0.06078183650970459
1684110207286149600,4.375149658203125,0.5496237277984619,0.3487997055053711,-0.04366159439086914
1684110207296191000,4.38519091796875,0.6693892478942871,0.746180534362793,0.028371095657348633
1684110207306232600,4.395232666015625,0.7009952068328857,1.0015535354614258,0.11149406433105469
1684110207316274000,4.40527392578125,0.6047857999801636,1.0482540130615234,0.12202012538909912
1684110207326315500,4.4153154296875,0.49187982082366943,1.065781593322754,0.16079282760620117
1684110207336356900,4.42535693359375,0.4345515966415405,1.0040321350097656,0.0969858169555664
1684110207346398200,4.435398193359375,0.41214799880981445,0.9397125244140625,-0.026864171028137207
1684110207356439800,4.445439697265625,0.4348490238189697,0.8827838897705078,-0.1981034278869629
1684110207366481200,4.455481201171875,0.4358707666397095,0.6810064315795898,-0.34875190258026123
1684110207376522800,4.465522705078125,0.3698164224624634,0.3020658493041992,-0.44649219512939453
1684110207386564000,4.475564208984375,0.2392253875732422,0.03333091735839844,-0.5016283988952637
1684110207396605700,4.485605712890625,0.030271530151367188,-0.2594270706176758,-0.43126773834228516
1684110207406647000,4.49564697265625,-0.15610623359680176,-0.21628189086914062,-0.2817540168762207
1684110207416688600,4.505688720703125,-0.22170281410217285,-0.1660909652709961,-0.10728347301483154
1684110207426730000,4.51572998046875,-0.2981986999511719,-0.14986610412597656,-0.04136860370635986
1684110207436771300,4.525771240234375,-0.3240175247192383,0.0019235610961914062,-0.006267070770263672
1684110207446813000,4.53581298828125,-0.310530424118042,0.189056396484375,-0.15958130359649658
1684110207456854300,4.545854248046875,-0.25557446479797363,0.3312644958496094,-0.3936736583709717
1684110207466896000,4.555895751953125,-0.15424203872680664,0.40128231048583984,-0.7423697710037231
1684110207476937200,4.565937255859375,-0.1235198974609375,0.4907245635986328,-1.0075949430465698
1684110207486978600,4.575978515625,-0.08988785743713379,0.5157575607299805,-1.0252339839935303
1684110207497020200,4.586020263671875,-0.032380104064941406,0.5019645690917969,-0.8522385954856873
1684110207507061500,4.5960615234375,0.059301137924194336,0.48219776153564453,-0.7084310054779053
1684110207517103000,4.60610302734375,0.14466190338134766,0.3867349624633789,-0.5360159873962402
1684110207527144400,4.61614453125,0.19960474967956543,0.11294174194335938,-0.45264506340026855
1684110207537186000,4.62618603515625,0.28108370304107666,-0.2025146484375,-0.3904411196708679
1684110207547227400,4.636227294921875,0.2861135005950928,-0.3756217956542969,-0.4320840835571289
1684110207557268700,4.646268798828125,0.21320056915283203,-0.4022655487060547,-0.4051087498664856
1684110207567310300,4.656310302734375,0.2659386396408081,-0.39534664154052734,-0.4124912619590759
1684110207577351700,4.6663515625,0.5287294387817383,-0.2377786636352539,-0.47021645307540894
1684110207587393300,4.676393310546875,0.8628226518630981,-0.09433937072753906,-0.5787056684494019
1684110207597434600,4.6864345703125,1.0248595476150513,-0.0029096603393554688,-0.7348058223724365
1684110207607476000,4.69647607421875,0.9758032560348511,0.11770153045654297,-0.8453377485275269
1684110207617517600,4.706517578125,0.6750612258911133,0.19753456115722656,-0.7152256965637207
1684110207627559000,4.716558837890625,0.23753046989440918,0.20490550994873047,-0.5840160250663757
1684110207637600500,4.7266005859375,-0.15418457984924316,-0.15413856506347656,-0.5540870428085327
1684110207647641900,4.736641845703125,-0.49309778213500977,-0.8167819976806641,-0.4158726930618286
1684110207657683500,4.746683349609375,-0.7917709350585938,-1.496377944946289,0.14641839265823364
1684110207667724800,4.756724853515625,-1.1374447345733643,-2.2367734909057617,0.8327543139457703
1684110207677766100,4.76676611328125,-1.6103286743164062,-2.465055465698242,1.587407112121582
1684110207687807700,4.776807861328125,-2.0101470947265625,-2.06972599029541,2.1483123302459717
1684110207697849000,4.78684912109375,-1.9007900953292847,-1.3285131454467773,1.9837498664855957
1684110207707890700,4.796890625,-1.3976401090621948,-0.3948354721069336,1.1040101051330566
1684110207717932000,4.80693212890625,-0.7562916278839111,0.4610280990600586,0.26361194252967834
1684110207727973400,4.816973388671875,-0.06247878074645996,1.0322399139404297,-0.028100967407226562
1684110207738015000,4.827014892578125,0.683523416519165,1.3254642486572266,-0.05396181344985962
1684110207748056300,4.837056396484375,1.3982911109924316,1.3542041778564453,-0.11166304349899292
1684110207758098000,4.847097900390625,1.9445080757141113,1.3867254257202148,-0.21049988269805908
1684110207768139300,4.85713916015625,2.1597797870635986,1.2099418640136719,-0.2449285387992859
1684110207778180600,4.8671806640625,2.1554183959960938,0.7926540374755859,-0.3030867576599121
1684110207788222200,4.87722216796875,2.0260868072509766,0.2664299011230469,-0.3512153625488281
1684110207798263600,4.887263671875,1.7988038063049316,-0.24178600311279297,-0.32873111963272095
1684110207808305200,4.89730517578125,1.4511840343475342,-0.5402441024780273,-0.24971270561218262
1684110207818346500,4.907346435546875,0.7225791215896606,-0.6686573028564453,-0.05599343776702881
1684110207828387800,4.917387939453125,-0.519532322883606,-0.5883846282958984,0.16339170932769775
1684110207838429400,4.927429443359375,-2.2414169311523438,-0.3110170364379883,0.34840214252471924
1684110207848470800,4.937470703125,-3.6078310012817383,-0.3918123245239258,-0.04814678430557251
1684110207858512400,4.947512451171875,-3.9982268810272217,-0.4734916687011719,-0.48903799057006836
1684110207868553700,4.9575537109375,-3.440505266189575,-0.47013187408447266,-0.7509809136390686
1684110207878595300,4.96759521484375,-2.0633113384246826,-0.3620185852050781,-0.7372204661369324
1684110207888636700,4.97763671875,-0.4141542315483093,-0.13651657104492188,-0.5708531737327576
1684110207898678300,4.98767822265625,1.0293211936950684,0.22120380401611328,-0.42924177646636963
1684110207908719600,4.9977197265625,2.062429428100586,0.5109701156616211,-0.21218067407608032
1684110207918761000,5.007760986328125,2.616739511489868,0.8219614028930664,0.045680880546569824
1684110207928802600,5.017802490234375,2.880432605743408,1.1378278732299805,0.23390913009643555
1684110207938844000,5.027843994140625,2.8838112354278564,1.3033447265625,0.24456185102462769
1684110207948885500,5.037885498046875,2.7536377906799316,1.271082878112793,0.24156785011291504
1684110207958926800,5.0479267578125,2.6052095890045166,0.969940185546875,0.22151362895965576
1684110207968968400,5.057968505859375,2.5175621509552,0.5844049453735352,0.09607505798339844
1684110207979009800,5.068009765625,2.4070935249328613,0.21963024139404297,-0.009958207607269287
1684110207989051100,5.078051025390625,2.200897693634033,-0.17953109741210938,-0.06354457139968872
1684110207999092700,5.0880927734375,1.9223906993865967,-0.45315074920654297,-0.08960402011871338
1684110208009134000,5.098134033203125,1.5676378011703491,-0.718592643737793,-0.1111859679222107
1684110208019175700,5.10817578125,1.1201934814453125,-0.7080678939819336,-0.0656282901763916
1684110208029217000,5.118217041015625,0.520442008972168,-0.4528512954711914,0.048308372497558594
1684110208039258400,5.12825830078125,-0.12786617875099182,-0.4918031692504883,-0.43799763917922974
1684110208049300000,5.138300048828125,-0.8197249174118042,-0.5440187454223633,-0.9783392548561096
1684110208059341300,5.14834130859375,-1.3682359457015991,-0.46655845642089844,-1.0632588863372803
1684110208069383000,5.1583828125,-1.6606134176254272,-0.23756790161132812,-0.9050853848457336
1684110208079424300,5.16842431640625,-1.5891629457473755,0.3844900131225586,-0.8121418952941895
1684110208089465900,5.1784658203125,-1.1787439584732056,0.9238224029541016,-0.615812361240387
1684110208099507200,5.188507080078125,-0.5858877897262573,1.2875699996948242,-0.39781510829925537
1684110208109548500,5.198548583984375,0.04191642999649048,1.1917095184326172,-0.1963282823562622
1684110208119590100,5.208590087890625,0.497212678194046,1.0741910934448242,-0.15271234512329102
1684110208129631500,5.218631591796875,0.7770309448242188,0.5364828109741211,0.07893174886703491
1684110208139673000,5.228673095703125,0.9894565343856812,0.4635009765625,0.13900887966156006
1684110208149714400,5.23871435546875,1.1268706321716309,0.12098979949951172,0.024941682815551758
1684110208159756000,5.248756103515625,1.2271976470947266,0.03232574462890625,-0.23284292221069336
1684110208169797400,5.25879736328125,1.2496685981750488,-0.2976694107055664,-0.38064348697662354
1684110208179838700,5.268838623046875,1.2778736352920532,-0.5842714309692383,-0.5231395959854126
1684110208189880300,5.27888037109375,1.279348611831665,-0.31653499603271484,-0.5434891581535339
1684110208199921700,5.288921630859375,1.1197022199630737,0.8119354248046875,-0.7710931301116943
1684110208209963300,5.29896337890625,0.9416856169700623,1.0317878723144531,-0.6187765598297119
1684110208220004600,5.309004638671875,0.8084442615509033,1.4557723999023438,-0.7164528369903564
1684110208230046200,5.319046142578125,0.698668360710144,2.030569076538086,-0.7678350210189819
1684110208240087600,5.329087646484375,0.6038016080856323,2.055974006652832,-0.7731056213378906
1684110208250129000,5.33912890625,0.5209783911705017,1.1822099685668945,-0.8519119024276733
1684110208260170500,5.34917041015625,0.5073987245559692,-0.010858535766601562,-1.0715548992156982
1684110208270211800,5.3592119140625,0.5121076107025146,-1.124140739440918,-1.3236795663833618
1684110208280253400,5.36925341796875,0.5679835081100464,-1.9695358276367188,-1.3379452228546143
1684110208290294800,5.379294677734375,0.6318401098251343,-2.602405548095703,-1.064475655555725
1684110208300336000,5.389336181640625,0.5964339375495911,-2.7090959548950195,-0.4499925374984741
1684110208310377700,5.399377685546875,0.47770366072654724,-2.596461296081543,0.3440662622451782
1684110208320419000,5.409419189453125,0.3743916451931,-2.549679756164551,0.709179162979126
1684110208330460700,5.419460693359375,0.23365217447280884,-2.469977378845215,0.6906799077987671
1684110208340502000,5.429501953125,0.056018561124801636,-2.00039005279541,0.39124977588653564
1684110208350543400,5.43954345703125,-0.05682343244552612,-1.222564697265625,0.12859785556793213
1684110208360585000,5.4495849609375,-0.17606963217258453,-0.5390863418579102,0.11651360988616943
1684110208370626300,5.459626220703125,-0.2440202832221985,0.0672292709350586,0.2504535913467407
1684110208380668000,5.46966796875,-0.2602567970752716,0.6687202453613281,0.34812986850738525
1684110208390709200,5.479709228515625,-0.2409246861934662,0.9714765548706055,0.2720639705657959
1684110208400750800,5.489750732421875,-0.14058594405651093,1.1979312896728516,0.17519307136535645
1684110208410792200,5.499792236328125,0.020823121070861816,1.6246700286865234,0.09660351276397705
1684110208420833800,5.509833740234375,0.27493953704833984,1.7655959129333496,-0.17671048641204834
1684110208430875100,5.519875244140625,0.6070460677146912,1.651484489440918,-0.26852738857269287
1684110208440916500,5.52991650390625,0.8893707990646362,0.20337772369384766,-0.3621708154678345
1684110208450958000,5.5399580078125,1.2208127975463867,-0.4805898666381836,-0.16906309127807617
1684110208460999400,5.54999951171875,1.4647659063339233,-0.0005216598510742188,0.12458920478820801
1684110208471041000,5.560041015625,1.5742661952972412,0.6788864135742188,0.3571871519088745
1684110208481082400,5.570082275390625,1.5318644046783447,1.0870323181152344,0.47449004650115967
1684110208491124000,5.5801240234375,1.4392859935760498,0.9907503128051758,0.4782392978668213
1684110208501165300,5.590165283203125,1.3105711936950684,0.677861213684082,0.41904330253601074
1684110208511206700,5.60020654296875,1.1653473377227783,0.17977523803710938,0.24320447444915771
1684110208521248300,5.610248291015625,1.0299177169799805,-0.3814201354980469,0.08583617210388184
1684110208531289600,5.62028955078125,0.9045517444610596,-0.6379890441894531,-0.1164865493774414
1684110208541331200,5.630331298828125,0.7445065975189209,0.803837776184082,-0.0503082275390625
1684110208551372500,5.64037255859375,0.5682650208473206,0.3653707504272461,-0.09489893913269043
1684110208561414000,5.650413818359375,0.4246339499950409,-1.1017913818359375,-0.8656134605407715
1684110208571455500,5.66045556640625,0.1907970905303955,-0.7680740356445312,-0.8887014389038086
1684110208581496800,5.670496826171875,-0.033479273319244385,0.06618499755859375,-0.4293297529220581
1684110208591538400,5.680538330078125,-0.2939937710762024,0.4594278335571289,-0.27292895317077637
1684110208601579800,5.690579833984375,-0.48373690247535706,0.5150766372680664,-0.39928901195526123
1684110208611621400,5.700621337890625,-0.6007287502288818,0.4844655990600586,-0.4042161703109741
1684110208621662700,5.710662841796875,-0.616448163986206,0.38009071350097656,-0.3178987503051758
1684110208631704000,5.7207041015625,-0.5624452233314514,0.24053192138671875,-0.32725489139556885
1684110208641745700,5.73074560546875,-0.39758455753326416,0.02023601531982422,-0.4134392738342285
1684110208651787000,5.740787109375,-0.1733059585094452,-0.19028949737548828,-0.45216524600982666
1684110208661828600,5.75082861328125,0.061610519886016846,-0.2885856628417969,-0.42424046993255615
1684110208671870000,5.760869873046875,0.28428277373313904,-0.3941383361816406,-0.35120999813079834
1684110208681911600,5.77091162109375,0.438850462436676,-0.4541149139404297,-0.2690303325653076
1684110208691953000,5.780952880859375,0.5617551803588867,-0.4734334945678711,-0.30680179595947266
1684110208701994500,5.790994384765625,0.6402679681777954,-0.43576908111572266,-0.4219602346420288
1684110208712035800,5.801035888671875,0.6408901214599609,-0.1766376495361328,-0.39128613471984863
1684110208722077200,5.8110771484375,0.609587550163269,-0.07390403747558594,-0.30587947368621826
1684110208732118800,5.821118896484375,0.5831517577171326,-0.15569686889648438,-0.21430397033691406
1684110208742160100,5.83116015625,0.5546755790710449,-0.3020000457763672,-0.06486797332763672
1684110208752201700,5.84120166015625,0.5207442045211792,0.03872871398925781,-0.0784459114074707
1684110208762243000,5.8512431640625,0.49236780405044556,0.027525901794433594,0.17243456840515137
1684110208772284400,5.861284423828125,0.4449259638786316,-0.14261913299560547,0.3589400053024292
1684110208782326000,5.871325927734375,0.39569059014320374,-0.42788124084472656,0.35247302055358887
1684110208792367400,5.881367431640625,0.30331552028656006,-0.7136325836181641,0.16726624965667725
1684110208802409000,5.891408935546875,0.1936267614364624,-0.8308248519897461,0.047912001609802246
1684110208812450300,5.9014501953125,0.07724195718765259,-0.6919136047363281,-0.03454887866973877
1684110208822491600,5.91149169921875,-0.0332464873790741,-0.5650835037231445,-0.031925320625305176
1684110208832533200,5.921533203125,-0.11780552566051483,-0.5363273620605469,-0.06578254699707031
1684110208842574600,5.93157470703125,-0.20116861164569855,-0.6032905578613281,-0.14136135578155518
1684110208852616200,5.9416162109375,-0.27675431966781616,-0.5508832931518555,-0.13831853866577148
1684110208862657500,5.951657470703125,-0.2719069719314575,-0.5321969985961914,-0.11420869827270508
1684110208872699100,5.96169921875,-0.20910796523094177,-0.37757396697998047,-0.11951267719268799
1684110208882740500,5.971740478515625,-0.12574589252471924,-0.5096549987792969,-0.013359904289245605
1684110208892782000,5.981781982421875,0.018168985843658447,-1.0394058227539062,0.10518527030944824
1684110208902823400,5.991823486328125,0.1859443485736847,-1.4785432815551758,0.12057387828826904
1684110208912864800,6.00186474609375,0.39978453516960144,-2.1356983184814453,0.15396296977996826
1684110208922906400,6.01190625,0.5473895072937012,-2.325484275817871,0.2151339054107666
1684110208932947700,6.02194775390625,0.6377270817756653,-1.951669692993164,0.34006261825561523
1684110208942989300,6.0319892578125,0.6474743485450745,-1.1589059829711914,0.49006128311157227
1684110208953030700,6.04203076171875,0.4702085256576538,-1.0149688720703125,0.5560542345046997
1684110208963072300,6.052072265625,0.2848683297634125,-1.2289085388183594,0.3433520793914795
1684110208973113600,6.062113525390625,0.19312530755996704,-0.6038312911987305,0.13970041275024414
1684110208983155000,6.072155029296875,0.12375007569789886,0.15361881256103516,0.007286429405212402
1684110208993196500,6.082196533203125,0.180303156375885,0.27678394317626953,-0.04896235466003418
1684110209003238000,6.09223779296875,0.1326037049293518,1.4816570281982422,-0.31007087230682373
1684110209013279500,6.102279541015625,0.13840508460998535,1.5398502349853516,-0.4656740427017212
1684110209023320800,6.11232080078125,0.07949737459421158,0.6451606750488281,-0.7948771715164185
1684110209033362200,6.122362060546875,0.08911706507205963,0.13958358764648438,-0.981320858001709
1684110209043403800,6.13240380859375,0.08622542023658752,0.05785179138183594,-1.0628255605697632
1684110209053445000,6.142445068359375,0.09346777945756912,0.28650569915771484,-1.1269690990447998
1684110209063486700,6.15248681640625,0.16591694951057434,0.37336063385009766,-1.2140499353408813
1684110209073528000,6.162528076171875,0.2603395879268646,0.7150259017944336,-1.298890471458435
1684110209083569400,6.1725693359375,0.3602955639362335,0.48943328857421875,-1.3080066442489624
1684110209093611000,6.182611083984375,0.47726842761039734,0.11585140228271484,-1.510849118232727
1684110209103652400,6.19265234375,0.5808916091918945,0.0031185150146484375,-1.5562021732330322
1684110209113694000,6.20269384765625,0.6643509864807129,-0.05243492126464844,-1.5529062747955322
1684110209123735300,6.2127353515625,0.6341581344604492,-0.39966583251953125,-1.5156402587890625
1684110209133777000,6.22277685546875,0.5197067260742188,-0.5695533752441406,-1.3137612342834473
1684110209143818200,6.232818359375,0.17222754657268524,-0.5861482620239258,-1.0633058547973633
1684110209153859800,6.24285986328125,-0.3175363540649414,-0.33081531524658203,-0.9606473445892334
1684110209163901200,6.252901123046875,-0.4959162771701813,0.37178707122802734,-0.8610391616821289
1684110209173942500,6.262942626953125,-0.32326772809028625,0.40981388092041016,-0.6574045419692993
1684110209183984000,6.272984130859375,0.14899590611457825,0.11968612670898438,-0.40187859535217285
1684110209194025500,6.283025390625,0.6895414590835571,-0.02663135528564453,-0.15929651260375977
1684110209204067000,6.293067138671875,1.0316102504730225,-0.10548973083496094,-0.08068907260894775
1684110209214108400,6.3031083984375,1.0885419845581055,0.00005340576171875,0.05663764476776123
1684110209224150000,6.31314990234375,0.9044390916824341,0.1482982635498047,0.11248373985290527
1684110209234191400,6.32319140625,0.5988059043884277,0.6111431121826172,0.3896711468696594
1684110209244232700,6.333232666015625,0.35860833525657654,0.8312854766845703,0.6030464172363281
1684110209254274300,6.3432744140625,0.18150857090950012,0.7903280258178711,0.8450539112091064
1684110209264315600,6.353315673828125,0.1199992299079895,0.5824222564697266,1.073221206665039
1684110209274357200,6.363357177734375,0.2519737482070923,0.5450363159179688,1.1622796058654785
1684110209284398600,6.373398681640625,0.3350541293621063,0.5055389404296875,1.062164545059204
1684110209294440000,6.38343994140625,0.372753381729126,0.6260719299316406,1.0604915618896484
1684110209304481500,6.3934814453125,0.3516051769256592,0.8036527633666992,1.0787736177444458
1684110209314523000,6.40352294921875,0.25867632031440735,0.816162109375,1.0640461444854736
1684110209324564500,6.413564453125,0.23411473631858826,0.7500705718994141,0.9286400079727173
1684110209334605800,6.423605712890625,0.15625,0.7036857604980469,0.8753378391265869
1684110209344647400,6.4336474609375,0.0015584230422973633,0.9037132263183594,0.7613508701324463
1684110209354688800,6.443688720703125,-0.029014229774475098,1.3061561584472656,0.6434881687164307
1684110209364730000,6.453730224609375,-0.10799062252044678,1.685582160949707,0.605082631111145
1684110209374771700,6.463771728515625,-0.1163143515586853,2.0704407691955566,0.6023811101913452
1684110209384813000,6.47381298828125,-0.08096873760223389,2.5300941467285156,0.7014240622520447
1684110209394854700,6.483854736328125,-0.027069568634033203,2.8092355728149414,0.8351441621780396
1684110209404896000,6.49389599609375,-0.03797870874404907,2.719961643218994,0.8271152973175049
1684110209414937600,6.5039375,-0.04123646020889282,2.325685977935791,0.7227543592453003
1684110209424979000,6.51397900390625,-0.0057106614112854,1.3144149780273438,0.31408727169036865
1684110209435020300,6.524020263671875,0.03686493635177612,0.6352872848510742,-0.04864180088043213
1684110209445062000,6.534061767578125,0.05943596363067627,0.4520549774169922,-0.19930768013000488
1684110209455103200,6.544103271484375,0.03760188817977905,0.5940170288085938,-0.2606196403503418
1684110209465144800,6.554144775390625,-0.013649821281433105,0.7475337982177734,-0.2856433391571045
1684110209475186200,6.564186279296875,-0.036732375621795654,0.9890861511230469,-0.25835108757019043
1684110209485227800,6.574227783203125,-0.05993920564651489,1.2612123489379883,-0.18182063102722168
1684110209495269000,6.58426904296875,-0.04770773649215698,1.535294532775879,-0.0376126766204834
1684110209505310500,6.594310546875,0.03278571367263794,1.7158985137939453,0.07107663154602051
1684110209515352000,6.60435205078125,0.056338369846343994,1.8151540756225586,0.0899662971496582
1684110209525393400,6.614393310546875,0.045693039894104004,1.4271745681762695,0.10075616836547852
1684110209535435000,6.62443505859375,0.01772552728652954,0.6818218231201172,0.09889841079711914
1684110209545476400,6.634476318359375,0.18412452936172485,-0.1354999542236328,0.0852971076965332
1684110209555517700,6.644517578125,0.3246423602104187,0.7168846130371094,0.3832489252090454
1684110209565559300,6.654559326171875,0.2748195230960846,-0.30874156951904297,0.07331252098083496
1684110209575600600,6.6646005859375,0.18485131859779358,-0.8558149337768555,-0.21235573291778564
1684110209585642200,6.674642333984375,0.0284997820854187,-1.0908136367797852,-0.4312143325805664
1684110209595683600,6.68468359375,-0.09731954336166382,-1.0935239791870117,-0.5166329145431519
1684110209605725200,6.69472509765625,-0.11279714107513428,-1.0508251190185547,-0.6243489980697632
1684110209615766500,6.7047666015625,-0.10942918062210083,-0.9413547515869141,-0.7086876630783081
1684110209625808100,6.71480810546875,-0.09810429811477661,-0.7963418960571289,-0.7500928640365601
1684110209635849500,6.724849365234375,-0.09683936834335327,-0.6086511611938477,-0.796393871307373
1684110209645890800,6.734890869140625,-0.07885032892227173,-0.4716062545776367,-0.7684440612792969
1684110209655932400,6.744932373046875,-0.03131592273712158,-0.49277210235595703,-0.8349748849868774
1684110209665973800,6.754973876953125,0.009874701499938965,-0.6146335601806641,-0.8704077005386353
1684110209676015400,6.765015380859375,0.06074339151382446,-0.7485628128051758,-0.8293050527572632
1684110209686056700,6.775056640625,0.11104118824005127,-0.6626472473144531,-0.7559770345687866
1684110209696098000,6.78509814453125,0.13218805193901062,-0.4597940444946289,-0.6142480373382568
1684110209706139600,6.7951396484375,0.12916263937950134,-0.19971084594726562,-0.4657118320465088
1684110209716181000,6.805180908203125,0.08319839835166931,-0.13831710815429688,-0.5168217420578003
1684110209726222600,6.81522265625,0.06395155191421509,0.12541770935058594,-0.452775239944458
1684110209736264000,6.825263916015625,0.04033288359642029,0.31401538848876953,-0.23593509197235107
1684110209746305500,6.835305419921875,0.028460383415222168,0.3323993682861328,-0.06623220443725586
1684110209756347000,6.845346923828125,0.03746119141578674,0.10233879089355469,-0.0016002655029296875
1684110209766388200,6.85538818359375,0.059770017862319946,0.08062076568603516,0.027357935905456543
1684110209776429800,6.865429931640625,0.06220349669456482,0.144989013671875,0.09910786151885986
1684110209786471200,6.87547119140625,0.06639432907104492,0.2690896987915039,0.14109909534454346
1684110209796512800,6.8855126953125,0.05103835463523865,0.4218025207519531,0.1719954013824463
1684110209806554000,6.89555419921875,0.033221542835235596,0.533778190612793,0.17753028869628906
1684110209816595500,6.905595458984375,0.02500075101852417,0.5263118743896484,0.20786356925964355
1684110209826637000,6.915636962890625,0.028651535511016846,0.44988346099853516,0.17677724361419678
1684110209836678400,6.925678466796875,-0.008082389831542969,0.44078922271728516,0.18701159954071045
1684110209846720000,6.935719970703125,-0.03471028804779053,0.34845733642578125,0.1568509340286255
1684110209856761300,6.94576123046875,-0.06612706184387207,0.37125682830810547,0.13462913036346436
1684110209866803000,6.955802978515625,-0.08623015880584717,0.03117656707763672,0.04466426372528076
1684110209876844300,6.96584423828125,-0.09217825531959534,-0.3323192596435547,-0.16215717792510986
1684110209886886000,6.975885986328125,-0.04405796527862549,-0.7934989929199219,-0.2549595832824707
1684110209896927200,6.98592724609375,0.08923152089118958,-0.9508571624755859,-0.2988549470901489
1684110209906968600,6.995968505859375,0.17448082566261292,-0.8141574859619141,-0.22757327556610107
1684110209917010200,7.00601025390625,0.10164621472358704,-0.6851892471313477,-0.4176837205886841
1684110209927051500,7.016051513671875,-0.00900229811668396,-0.7239742279052734,-0.4361916780471802
1684110209937093000,7.026093017578125,-0.06889045238494873,-0.4808530807495117,-0.3497573137283325
1684110209947134500,7.036134521484375,-0.0924501121044159,-0.22391033172607422,-0.28099966049194336
1684110209957175800,7.04617578125,-0.12022340297698975,-0.029779434204101562,-0.2908906936645508
1684110209967217400,7.056217529296875,-0.06819820404052734,0.1350879669189453,-0.22864651679992676
1684110209977258800,7.0662587890625,0.02752375602722168,0.1753387451171875,-0.16908550262451172
1684110209987300400,7.07630029296875,0.17084670066833496,0.13207530975341797,-0.10599029064178467
1684110209997341700,7.086341796875,0.2677895426750183,0.2252788543701172,-0.006112217903137207
1684110210007383300,7.09638330078125,0.3582867383956909,0.22288799285888672,-0.0288543701171875
1684110210017424600,7.106424560546875,0.3775727152824402,0.10362529754638672,0.0006821155548095703
1684110210027466000,7.116466064453125,0.34306299686431885,0.06970977783203125,0.003637552261352539
1684110210037507600,7.126507568359375,0.30466198921203613,0.07160758972167969,0.020969152450561523
1684110210047549000,7.136548828125,0.2113548219203949,0.03567790985107422,0.0455700159072876
1684110210057590500,7.146590576171875,0.11405566334724426,0.05677032470703125,0.09096109867095947
1684110210067631900,7.1566318359375,0.05298015475273132,0.09614944458007812,0.10571253299713135
1684110210077673200,7.166673095703125,-0.017212092876434326,0.2241830825805664,0.14182627201080322
1684110210087714800,7.17671484375,-0.11874541640281677,0.336029052734375,0.14140784740447998
1684110210097756200,7.186756103515625,-0.20855823159217834,0.3192176818847656,0.18571293354034424
1684110210107797800,7.1967978515625,-0.1840706467628479,0.13792705535888672,0.11056351661682129
1684110210117839000,7.206839111328125,-0.04074817895889282,0.09801769256591797,0.10312855243682861
1684110210127880400,7.21688037109375,0.09411987662315369,0.039093017578125,0.19824564456939697
1684110210137922000,7.226922119140625,0.21508869528770447,-0.5157690048217773,0.4876152276992798
1684110210147963400,7.23696337890625,0.20109975337982178,-0.9812536239624023,0.5114930868148804
1684110210158005000,7.2470048828125,0.16354358196258545,-1.241220474243164,0.598609209060669
1684110210168046300,7.25704638671875,0.11157244443893433,-0.7968654632568359,0.7327427864074707
1684110210178088000,7.267087890625,0.06394869089126587,-0.25089073181152344,0.38384950160980225
1684110210188129300,7.27712939453125,0.12186920642852783,0.21747684478759766,-0.10241997241973877
1684110210198171000,7.2871708984375,0.10074856877326965,0.3366737365722656,-0.20917952060699463
1684110210208212200,7.297212158203125,-0.02311539649963379,0.324554443359375,-0.3020519018173218
1684110210218253600,7.307253662109375,-0.013714581727981567,0.34780025482177734,-0.5530766248703003
1684110210228295200,7.317295166015625,0.19204118847846985,0.2858572006225586,-0.6453789472579956
1684110210238336500,7.32733642578125,0.3339703679084778,0.22274112701416016,-0.6651650667190552
1684110210248378000,7.337378173828125,0.26921284198760986,0.1725444793701172,-0.5896341800689697
1684110210258419500,7.34741943359375,0.14434567093849182,0.11135101318359375,-0.5455548763275146
1684110210268461000,7.3574609375,0.061206161975860596,0.06524848937988281,-0.4412769079208374
1684110210278502400,7.36750244140625,0.06059187650680542,0.04352760314941406,-0.42667436599731445
1684110210288543700,7.377543701171875,0.09131470322608948,0.01497650146484375,-0.5035072565078735
1684110210298585300,7.38758544921875,0.13525426387786865,-0.027555465698242188,-0.5069373846054077
1684110210308626700,7.397626708984375,0.1856570541858673,-0.05541801452636719,-0.448874831199646
1684110210318668300,7.407668212890625,0.2835671305656433,0.018426895141601562,-0.4488183259963989
1684110210328709600,7.417709716796875,0.3283703923225403,-0.057280540466308594,-0.43001461029052734
1684110210338751000,7.4277509765625,0.3887825906276703,-0.08462810516357422,-0.43982768058776855
1684110210348792600,7.43779248046875,0.42575883865356445,-0.010341644287109375,-0.4628530740737915
1684110210358834000,7.447833984375,0.5262026786804199,-0.1237192153930664,-0.7692670822143555
1684110210368875500,7.45787548828125,0.5415241122245789,-0.012572288513183594,-0.922630786895752
1684110210378916900,7.467916748046875,0.5858164429664612,-0.1396617889404297,-0.9243464469909668
1684110210388958200,7.477958251953125,0.5635350942611694,-0.20362281799316406,-0.7563475370407104
1684110210398999800,7.487999755859375,0.425772488117218,0.05893993377685547,-0.4352869987487793
1684110210409041200,7.498041259765625,0.2718003988265991,0.21099281311035156,-0.5024033784866333
1684110210419082800,7.508082763671875,0.10230046510696411,0.37113094329833984,-0.33775413036346436
1684110210429124000,7.5181240234375,-0.018061280250549316,0.4691591262817383,0.20247507095336914
1684110210439165700,7.528165771484375,-0.08045369386672974,0.4976177215576172,0.6500341892242432
1684110210449207000,7.53820703125,-0.10293453931808472,0.37302303314208984,0.7676998376846313
1684110210459248400,7.548248291015625,-0.05667203664779663,0.081207275390625,0.6608672142028809
1684110210469290000,7.5582900390625,0.02636861801147461,-0.08549690246582031,0.48649728298187256
1684110210479331300,7.568331298828125,0.10265052318572998,-0.04193878173828125,0.3793531656265259
1684110210489373000,7.578373046875,0.13198250532150269,-0.12827301025390625,0.20893573760986328
1684110210499414300,7.588414306640625,0.11719769239425659,-0.2198629379272461,0.1926816701889038
1684110210509455600,7.59845556640625,0.0706419050693512,-0.2576417922973633,0.16026997566223145
1684110210519497200,7.608497314453125,-0.04440903663635254,-0.2872610092163086,0.10964131355285645
1684110210529538600,7.61853857421875,-0.17881149053573608,-0.3607358932495117,0.0648491382598877
1684110210539580200,7.628580078125,-0.31705379486083984,-0.17591476440429688,0.18278026580810547
1684110210549621500,7.63862158203125,-0.4227522015571594,0.3101234436035156,0.4031260013580322
1684110210559662800,7.648662841796875,-0.4723343253135681,0.7390518188476562,0.5530685186386108
1684110210569704400,7.658704345703125,-0.37053847312927246,0.9633359909057617,0.705376386642456
1684110210579745800,7.668745849609375,-0.17056512832641602,0.8686733245849609,0.6932023763656616
1684110210589787400,7.678787353515625,0.011994540691375732,0.6866436004638672,0.5848274230957031
1684110210599828700,7.688828857421875,0.10726791620254517,0.5743942260742188,0.4812890291213989
1684110210609870300,7.698870361328125,0.14150643348693848,0.4552593231201172,0.38309192657470703
1684110210619911700,7.70891162109375,0.11517468094825745,0.3291959762573242,0.29762911796569824
1684110210629953000,7.718953125,0.04324221611022949,0.34189701080322266,0.2629055976867676
1684110210639994600,7.72899462890625,-0.05456000566482544,0.39275360107421875,0.31661534309387207
1684110210650036000,7.739035888671875,-0.0883406400680542,0.2770252227783203,0.3039442300796509
1684110210660077600,7.74907763671875,-0.07219558954238892,0.0760354995727539,0.31077003479003906
1684110210670119000,7.759118896484375,0.043686509132385254,-0.0886688232421875,0.2638329267501831
1684110210680160500,7.769160400390625,0.1953747570514679,-0.10920333862304688,0.262149453163147
1684110210690201900,7.779201904296875,0.36062154173851013,-0.08903980255126953,0.2429180145263672
1684110210700243500,7.789243408203125,0.5371716022491455,-0.057114601135253906,0.16626715660095215
1684110210710284800,7.799284912109375,0.6785991787910461,0.031022071838378906,0.09920358657836914
1684110210720326100,7.809326171875,0.722973108291626,-0.023496627807617188,-0.10137355327606201
1684110210730367700,7.81936767578125,0.7437319159507751,-0.19040966033935547,-0.30182623863220215
1684110210740409000,7.8294091796875,0.6985450983047485,-0.39327526092529297,-0.6579539775848389
1684110210750450700,7.83945068359375,0.5620517730712891,-0.6176490783691406,-0.8433395624160767
1684110210760492000,7.849491943359375,0.37561073899269104,-0.7523593902587891,-1.0132876634597778
1684110210770533400,7.859533447265625,0.22005724906921387,-0.7076492309570312,-1.2027524709701538
1684110210780575000,7.869574951171875,0.09010955691337585,-0.5757293701171875,-1.3502209186553955
1684110210790616300,7.8796162109375,0.058257848024368286,-0.4114646911621094,-1.3476113080978394
1684110210800658000,7.889657958984375,0.14695578813552856,-0.1903553009033203,-1.1651902198791504
1684110210810699300,7.89969921875,0.327279657125473,0.11933135986328125,-0.8472180366516113
1684110210820740600,7.90974072265625,0.5874134302139282,0.25216197967529297,-0.4987967014312744
1684110210830782200,7.9197822265625,0.7588329911231995,0.2601356506347656,-0.09438669681549072
1684110210840823600,7.929823486328125,0.9333012104034424,0.262908935546875,0.45440351963043213
1684110210850865200,7.939865234375,1.0337058305740356,0.35175323486328125,1.0027649402618408
1684110210860906500,7.949906494140625,1.114189624786377,0.39757728576660156,1.2368500232696533
1684110210870947800,7.95994775390625,1.165945053100586,0.1968860626220703,1.1295902729034424
1684110210880989400,7.969989501953125,1.1105761528015137,-0.13787364959716797,1.192537784576416
1684110210891030800,7.98003076171875,0.968643307685852,-0.5560464859008789,1.3854857683181763
1684110210901072400,7.990072265625,0.6233579516410828,-0.9423923492431641,1.6595064401626587
1684110210911113700,8.00011376953125,0.07421755790710449,-0.9858150482177734,2.166733980178833
1684110210921155300,8.0101552734375,-0.35009872913360596,-0.9301548004150391,2.30849552154541
1684110210931196700,8.02019677734375,-0.6010494232177734,-1.112217903137207,2.104464292526245
1684110210941238000,8.030238037109376,-0.7862550020217896,-1.0079774856567383,1.9312844276428223
1684110210951279600,8.040279541015625,-0.8462881445884705,-0.5969743728637695,1.2039191722869873
1684110210961321000,8.050321044921875,-0.8664264678955078,-0.21988296508789062,0.46582889556884766
1684110210971362600,8.060362548828126,-0.9318673610687256,-0.09242534637451172,-0.27864956855773926
1684110210981404000,8.07040380859375,-0.8575597405433655,-0.0020818710327148438,-0.8043643236160278
1684110210991445200,8.0804453125,-0.6516799926757812,0.13741302490234375,-0.9382694959640503
1684110211001486800,8.09048681640625,-0.34935444593429565,0.25475025177001953,-0.8885035514831543
1684110211011528200,8.100528076171875,-0.027759313583374023,0.2755460739135742,-0.941936731338501
1684110211021569800,8.11056982421875,0.23463845252990723,0.2091684341430664,-0.807221531867981
1684110211031611100,8.120611083984375,0.2860875129699707,0.0918569564819336,-0.584381103515625
1684110211041652500,8.130652587890625,-0.01015162467956543,-0.02833271026611328,-0.4724675416946411
1684110211051694000,8.140694091796876,-0.45182478427886963,-0.15633869171142578,-0.36382365226745605
1684110211061735400,8.1507353515625,-0.7105833292007446,-0.16820621490478516,-0.33119261264801025
1684110211071777000,8.160777099609374,-0.7303357124328613,-0.09527587890625,-0.3007863759994507
1684110211081818400,8.170818359375,-0.6800745725631714,-0.10004901885986328,-0.24316895008087158
1684110211091860000,8.18085986328125,-0.6004985570907593,-0.10565948486328125,-0.12863337993621826
1684110211101901300,8.1909013671875,-0.5394405126571655,-0.061183929443359375,-0.0011525154113769531
1684110211111942700,8.200942626953125,-0.43669402599334717,-0.020667076110839844,0.08025407791137695
1684110211121984300,8.210984375,-0.4322308301925659,0.09050941467285156,0.08581948280334473
1684110211132025600,8.221025634765626,-0.6396692991256714,0.15973377227783203,0.005270957946777344
1684110211142067200,8.231067138671875,-0.7695759534835815,0.3297386169433594,-0.01101994514465332
1684110211152108500,8.241108642578125,-0.7185347080230713,0.4490985870361328,0.11866939067840576
1684110211162150000,8.25114990234375,-0.6790200471878052,0.44564342498779297,0.12095177173614502
1684110211172191500,8.26119140625,-0.7070118188858032,0.29790687561035156,0.12938296794891357
1684110211182232800,8.27123291015625,-0.7571978569030762,0.24506759643554688,0.03620028495788574
1684110211192274400,8.2812744140625,-0.6911135911941528,0.24932193756103516,-0.025432109832763672
1684110211202315800,8.291315673828125,-0.4803438186645508,0.23056411743164062,-0.1423492431640625
1684110211212357000,8.301357177734374,-0.130202054977417,0.23831653594970703,-0.19965147972106934
1684110211222398700,8.311398681640625,0.13016879558563232,0.20474624633789062,-0.2878605127334595
1684110211232440000,8.321440185546875,0.1133124828338623,0.09474468231201172,-0.33912336826324463
1684110211242481700,8.331481689453126,-0.1271296739578247,0.17986392974853516,-0.5148931741714478
1684110211252523000,8.34152294921875,-0.3392214775085449,0.27181339263916016,-0.6102243661880493
1684110211262564400,8.351564453125,-0.40007054805755615,0.21447181701660156,-0.6107162237167358
1684110211272606000,8.36160595703125,-0.2981821298599243,0.20831298828125,-0.3974308967590332
1684110211282647300,8.371647216796875,-0.15439677238464355,0.3150444030761719,-0.1719111204147339
1684110211292689000,8.38168896484375,-0.04291260242462158,0.5199432373046875,0.023167014122009277
1684110211302730200,8.391730224609375,-0.024213790893554688,0.7199430465698242,0.12222981452941895
1684110211312771800,8.401771728515625,-0.07490324974060059,0.8432407379150391,0.07897543907165527
1684110211322813200,8.411813232421874,-0.33804893493652344,0.9398870468139648,0.11695289611816406
1684110211332854500,8.4218544921875,-0.8368102312088013,0.9041643142700195,0.2014024257659912
1684110211342896000,8.431896240234375,-1.4104243516921997,0.7547521591186523,0.4015030860900879
1684110211352937500,8.4419375,-1.9541558027267456,0.6609687805175781,0.5263675451278687
1684110211362979000,8.45197900390625,-2.405259132385254,0.6388463973999023,0.3544495105743408
1684110211373020400,8.4620205078125,-2.569014072418213,0.5297832489013672,-0.09877133369445801
1684110211383061800,8.472061767578126,-2.189724922180176,0.36292552947998047,-1.0770512819290161
1684110211393103400,8.482103271484375,-1.7987521886825562,0.2636699676513672,-1.9690049886703491
1684110211403144700,8.492144775390624,-1.6921709775924683,0.07738113403320312,-2.544142246246338
1684110211413186300,8.502186279296875,-1.6572402715682983,0.021076202392578125,-2.8863673210144043
1684110211423227600,8.5122275390625,-1.6576967239379883,-0.18939208984375,-2.881916046142578
1684110211433269000,8.52226904296875,-1.465759038925171,-0.39197826385498047,-2.6105453968048096
1684110211443310600,8.532310546875,-0.9893902540206909,-0.5589799880981445,-2.198366641998291
1684110211453352000,8.54235205078125,-0.27211785316467285,-0.5802459716796875,-1.8049356937408447
1684110211463393500,8.5523935546875,0.4971996545791626,-0.4639854431152344,-1.446600079536438
1684110211473435000,8.562434814453125,1.102576494216919,-0.3491630554199219,-0.8002523183822632
1684110211483476500,8.5724765625,1.3201079368591309,-0.1352977752685547,-0.0951085090637207
1684110211493517800,8.582517822265626,1.064846158027649,0.1532726287841797,0.6027973890304565
1684110211503559200,8.59255908203125,0.5271062850952148,0.46126270294189453,1.23187255859375
1684110211513600800,8.602600830078124,-0.057128190994262695,0.705042839050293,1.7619799375534058
1684110211523642000,8.61264208984375,-0.5197229385375977,0.8465108871459961,2.22090744972229
1684110211533683700,8.62268359375,-0.8522882461547852,0.8114652633666992,2.468900442123413
1684110211543725000,8.63272509765625,-0.8697131872177124,0.676060676574707,2.263650894165039
1684110211553766400,8.642766357421875,-0.5709933042526245,0.5428037643432617,1.7983499765396118
1684110211563808000,8.65280810546875,-0.22503864765167236,0.2680377960205078,1.2003543376922607
1684110211573849300,8.662849365234376,0.1177833080291748,0.18931198120117188,0.8203269243240356
1684110211583891000,8.672890869140625,0.4478621482849121,0.24227619171142578,0.1306697130203247
1684110211593932300,8.682932373046874,0.6307151317596436,0.2016582489013672,-0.34922242164611816
1684110211603973600,8.6929736328125,0.7095150351524353,0.15796375274658203,-0.7576299905776978
1684110211614015200,8.70301513671875,0.788794755935669,0.16863346099853516,-0.9939732551574707
1684110211624056600,8.713056640625,0.8159042000770569,0.6525964736938477,-0.7663381099700928
1684110211634098200,8.72309814453125,0.8447755575180054,1.3586044311523438,-0.6554591655731201
1684110211644139500,8.733139404296875,0.7929778099060059,1.1511287689208984,-0.8567850589752197
1684110211654180900,8.743180908203126,0.5653015375137329,0.4238243103027344,-0.8555148839950562
1684110211664222500,8.753222412109375,0.22889244556427002,-0.37800025939941406,-0.7868714332580566
1684110211674263800,8.763263916015624,-0.18878275156021118,-0.9490566253662109,-0.7361510992050171
1684110211684305400,8.773305419921876,-0.6890708804130554,-1.302351951599121,-0.598210334777832
1684110211694346800,8.7833466796875,-1.119077205657959,-1.453155517578125,-0.49045658111572266
1684110211704388400,8.793388427734374,-1.2863938808441162,-1.3117284774780273,-0.37010467052459717
1684110211714429700,8.8034296875,-1.0860800743103027,-0.8118019104003906,-0.10990190505981445
1684110211724471000,8.813470947265625,-0.7006102204322815,-0.28545570373535156,0.11594796180725098
1684110211734512600,8.8235126953125,-0.2652144432067871,0.2034015655517578,0.30144429206848145
1684110211744554000,8.833553955078125,0.05808138847351074,0.6507854461669922,0.6163781881332397
1684110211754595600,8.843595703125,0.19028812646865845,1.1124000549316406,1.0071388483047485
1684110211764637000,8.853636962890626,0.1871783435344696,1.316472053527832,1.3463279008865356
1684110211774678300,8.86367822265625,0.16088518500328064,1.3140811920166016,1.5488702058792114
1684110211784720000,8.873719970703124,0.07772910594940186,1.0748157501220703,1.5024123191833496
1684110211794761200,8.88376123046875,-0.013241887092590332,0.8617763519287109,1.3040484189987183
1684110211804802800,8.893802734375,-0.11413583159446716,0.6148614883422852,1.039031744003296
1684110211814844200,8.90384423828125,-0.27706989645957947,0.30730342864990234,0.6451950073242188
1684110211824885500,8.913885498046875,-0.35563260316848755,-0.1334362030029297,0.17297494411468506
1684110211834927000,8.923927001953125,-0.33299607038497925,-0.6719655990600586,-0.23015165328979492
1684110211844968400,8.933968505859376,-0.2922155559062958,-0.9856977462768555,-0.5014744997024536
1684110211855010000,8.944010009765625,-0.2607022821903229,-1.0510778427124023,-0.5729049444198608
1684110211865051400,8.954051513671875,-0.25592273473739624,-1.026463508605957,-0.6757215261459351
1684110211875092700,8.9640927734375,-0.276172399520874,-0.9553022384643555,-0.7893301248550415
1684110211885134300,8.97413427734375,-0.3557416498661041,-0.641993522644043,-0.8461276292800903
1684110211895175700,8.98417578125,-0.4819389283657074,-0.15644550323486328,-0.7337726354598999
1684110211905217300,8.99421728515625,-0.4763146936893463,0.17880821228027344,-0.44238901138305664
1684110211915258600,9.004258544921875,-0.32846060395240784,0.2450418472290039,-0.14363324642181396
1684110211925300200,9.01430029296875,-0.035110920667648315,0.13609790802001953,0.045176148414611816
1684110211935341600,9.024341552734375,0.4119727313518524,-0.09455585479736328,0.2770705223083496
1684110211945383000,9.0343828125,0.83466637134552,-0.2928905487060547,0.5214835405349731
1684110211955424500,9.044424560546876,1.1689724922180176,-0.36298561096191406,0.687974214553833
1684110211965465900,9.0544658203125,1.2265491485595703,-0.2955970764160156,0.7959377765655518
1684110211975507200,9.064507080078124,1.0807149410247803,-0.3514232635498047,0.86717689037323
1684110211985548800,9.074548828125,0.8559527397155762,-0.5327129364013672,0.7758074998855591
1684110211995590100,9.084590087890625,0.6406990885734558,-0.7725896835327148,0.5570231676101685
1684110212005631700,9.0946318359375,0.4511546194553375,-0.8515529632568359,0.31311869621276855
1684110212015673000,9.104673095703125,0.3674309253692627,-0.7725400924682617,-0.09125494956970215
1684110212025714400,9.11471435546875,0.3425885736942291,-0.6628017425537109,-0.5562891960144043
1684110212035756000,9.124756103515624,0.42615529894828796,-0.5157556533813477,-0.9310920238494873
1684110212045797400,9.13479736328125,0.47542816400527954,-0.38648414611816406,-1.1485931873321533
1684110212055839000,9.1448388671875,0.5180690884590149,-0.1912860870361328,-1.2525196075439453
1684110212065880300,9.15488037109375,0.5107591152191162,-0.04479503631591797,-1.2535313367843628
1684110212075921700,9.164921630859375,0.5109851360321045,-0.1711416244506836,-1.1769450902938843
1684110212085963300,9.17496337890625,0.4780519902706146,-0.4859132766723633,-1.0499892234802246
1684110212096004600,9.185004638671876,0.3833969533443451,-0.6326370239257812,-0.7638201713562012
1684110212106046200,9.195046142578125,0.27535101771354675,-0.6474876403808594,-0.5245656967163086
1684110212116087600,9.205087646484374,0.16712623834609985,-0.7696952819824219,-0.36506831645965576
1684110212126129000,9.21512890625,0.11732642352581024,-0.9058475494384766,-0.23742413520812988
1684110212136170500,9.22517041015625,0.12893392145633698,-0.9412593841552734,-0.09391212463378906
1684110212146211800,9.2352119140625,0.24185189604759216,-0.9716768264770508,0.007875561714172363
1684110212156253400,9.24525341796875,0.344595342874527,-0.8896207809448242,0.0917506217956543
1684110212166294800,9.255294677734375,0.4691709876060486,-0.726445198059082,0.12445223331451416
1684110212176336100,9.265336181640626,0.5377558469772339,-0.5253582000732422,0.08952224254608154
1684110212186377700,9.275377685546875,0.576597273349762,-0.31999969482421875,-0.06959319114685059
1684110212196419000,9.285419189453124,0.5716865062713623,-0.12234973907470703,-0.18047058582305908
1684110212206460700,9.295460693359376,0.5256829261779785,0.05339813232421875,-0.20084798336029053
1684110212216502000,9.305501953125,0.44842731952667236,0.10217857360839844,-0.22625577449798584
1684110212226543400,9.31554345703125,0.37802016735076904,0.06963253021240234,-0.2898305654525757
1684110212236585000,9.3255849609375,0.2521352171897888,0.041909217834472656,-0.3483208417892456
1684110212246626300,9.335626220703125,0.07095231860876083,0.08585071563720703,-0.3873480558395386
1684110212256668000,9.34566796875,-0.12673304975032806,0.16547393798828125,-0.44049036502838135
1684110212266709200,9.355709228515625,-0.31555449962615967,0.2543344497680664,-0.5169563293457031
1684110212276750800,9.365750732421875,-0.4503704607486725,0.2376861572265625,-0.5972998142242432
1684110212286792200,9.375792236328126,-0.39869844913482666,0.1682910919189453,-0.6385347843170166
1684110212296833500,9.38583349609375,-0.12847930192947388,0.12990951538085938,-0.6410344839096069
1684110212306875100,9.395875244140624,0.18634885549545288,0.12014102935791016,-0.5837016105651855
1684110212316916500,9.40591650390625,0.3511302173137665,0.1342029571533203,-0.4645652770996094
1684110212326958000,9.4159580078125,0.35392433404922485,0.18639850616455078,-0.3961808681488037
1684110212336999400,9.42599951171875,0.18539290130138397,0.2074289321899414,-0.3429042100906372
1684110212347040800,9.436040771484375,-0.029816806316375732,0.26185131072998047,-0.24264311790466309
1684110212357082400,9.446082275390625,-0.1363920271396637,0.2684059143066406,-0.1577622890472412
1684110212367123700,9.456123779296876,-0.020066440105438232,0.2797060012817383,-0.016339659690856934
1684110212377165300,9.466165283203125,-0.022083908319473267,0.2478933334350586,0.004964113235473633
1684110212387206700,9.47620654296875,-0.21762752532958984,0.3853273391723633,-0.04450631141662598
1684110212397248000,9.486248046875,-0.28871750831604004,0.5647573471069336,-0.04143965244293213
1684110212407289600,9.49628955078125,-0.12488877773284912,0.7909536361694336,0.16428852081298828
1684110212417331000,9.5063310546875,0.17583289742469788,0.9661340713500977,0.3636317253112793
1684110212427372300,9.516372314453125,0.6907851696014404,1.0787248611450195,0.5017135143280029
1684110212437414000,9.526413818359375,1.1788537502288818,1.1458044052124023,0.5196527242660522
1684110212447455200,9.536455322265626,1.4095864295959473,1.165186882019043,0.3774540424346924
1684110212457496800,9.546496826171875,1.30996572971344,1.1822843551635742,0.2685277462005615
1684110212467538200,9.5565380859375,1.0762430429458618,1.2112455368041992,0.26383674144744873
1684110212477579500,9.56657958984375,0.9143049120903015,1.1327447891235352,0.3639490604400635
1684110212487621000,9.57662109375,0.8689542412757874,0.9400348663330078,0.43660449981689453
1684110212497662500,9.586662353515624,0.76165771484375,0.7791881561279297,0.4674762487411499
1684110212507704000,9.5967041015625,0.5777406096458435,0.6216201782226562,0.41303586959838867
1684110212517745400,9.606745361328125,0.4850199222564697,0.49829864501953125,0.21160149574279785
1684110212527786800,9.616786865234374,0.4150274991989136,0.40892601013183594,0.02908778190612793
1684110212537828400,9.626828369140625,0.3615247309207916,0.29122066497802734,-0.110451340675354
1684110212547869700,9.63686962890625,0.28202852606773376,0.15476512908935547,-0.30022406578063965
1684110212557911300,9.646911376953126,0.08853599429130554,-0.03385353088378906,-0.4994417428970337
1684110212567952600,9.65695263671875,-0.14172345399856567,-0.1911029815673828,-0.8243074417114258
1684110212577994200,9.666994140625,-0.3101605176925659,-0.23610687255859375,-1.1420037746429443
1684110212588035600,9.67703564453125,-0.46843791007995605,-0.1312093734741211,-1.3917092084884644
1684110212598077000,9.687076904296875,-0.3935103416442871,0.0753488540649414,-1.415766716003418
1684110212608118500,9.697118408203124,-0.13685154914855957,0.24007606506347656,-1.3628751039505005
1684110212618159900,9.707159912109375,0.1838424801826477,0.2128429412841797,-1.190635085105896
1684110212628201500,9.717201416015625,0.4204697012901306,0.15210914611816406,-0.9531314373016357
1684110212638242800,9.727242919921874,0.608469545841217,0.09886646270751953,-0.7116725444793701
1684110212648284200,9.7372841796875,0.743862509727478,0.12494182586669922,-0.422124981880188
1684110212658325800,9.74732568359375,0.7505479454994202,0.044007301330566406,-0.11641395092010498
1684110212668367000,9.7573671875,0.5362085103988647,-0.12220954895019531,0.14815175533294678
1684110212678408700,9.76740869140625,0.28803932666778564,-0.2397785186767578,0.3024340867996216
1684110212688450000,9.777449951171874,0.02850520610809326,-0.25873470306396484,0.36828315258026123
1684110212698491400,9.787491455078126,-0.1828526258468628,-0.2057504653930664,0.4416356086730957
1684110212708533000,9.797532958984375,-0.2275022268295288,-0.23151779174804688,0.4793846607208252
1684110212718574300,9.80757421875,-0.08794844150543213,0.03892230987548828,0.36818361282348633
1684110212728615700,9.81761572265625,0.06117323040962219,0.05302143096923828,0.16232335567474365
1684110212738657300,9.8276572265625,0.17772835493087769,-0.009442329406738281,-0.037397146224975586
1684110212748698600,9.83769873046875,0.15626361966133118,0.014060020446777344,-0.197160005569458
1684110212758740200,9.847740234375,0.06448543071746826,0.09465503692626953,-0.26943647861480713
1684110212768781600,9.857781494140625,-0.08311349153518677,0.19869518280029297,-0.340718150138855
1684110212778823000,9.867822998046876,-0.2506251335144043,0.23993301391601562,-0.3819071054458618
1684110212788864500,9.877864501953125,-0.24958813190460205,0.3284778594970703,-0.25023937225341797
1684110212798905900,9.88790576171875,-0.132762610912323,0.3594379425048828,-0.10708141326904297
1684110212808947500,9.897947509765626,-0.05695539712905884,0.37126731872558594,0.10232865810394287
1684110212818988800,9.90798876953125,-0.051337361335754395,0.3188619613647461,0.39124155044555664
1684110212829030100,9.918030029296874,-0.10626959800720215,0.19774341583251953,0.4841907024383545
1684110212839071700,9.92807177734375,-0.17602920532226562,0.11551666259765625,0.5107361078262329
1684110212849113000,9.938113037109375,-0.1163334846496582,0.07667160034179688,0.35947751998901367
1684110212859154700,9.94815478515625,0.013027489185333252,0.08084487915039062,0.1705315113067627
1684110212869196000,9.958196044921875,0.23765218257904053,0.10882186889648438,0.053992509841918945
1684110212879237400,9.9682373046875,0.3970288634300232,0.10322856903076172,-0.07858574390411377
1684110212889279000,9.978279052734376,0.4876312017440796,0.014029502868652344,-0.15054082870483398
1684110212899320300,9.9883203125,0.4076278507709503,-0.0843343734741211,-0.1003870964050293
1684110212909362000,9.99836181640625,0.20545226335525513,-0.10573196411132812,-0.06050550937652588
1684110212919403300,10.0084033203125,0.05539655685424805,-0.1196746826171875,-0.08132433891296387
1684110212929444600,10.018444580078125,-0.05010944604873657,-0.1335153579711914,-0.12187695503234863
1684110212939486200,10.028486328125,-0.012850821018218994,-0.13776302337646484,-0.15325689315795898
1684110212949527600,10.038527587890625,0.07690095901489258,-0.14432907104492188,-0.18964123725891113
1684110212959569200,10.048569091796875,0.10773465037345886,-0.22723102569580078,-0.2951298952102661
1684110212969610500,10.058610595703126,0.01731431484222412,-0.21381664276123047,-0.4455106258392334
1684110212979651800,10.06865185546875,-0.05490243434906006,-0.10445499420166016,-0.5611624717712402
1684110212989693400,10.078693359375,0.04244124889373779,-0.04442119598388672,-0.5272436141967773
1684110212999734800,10.08873486328125,0.25616180896759033,0.014295578002929688,-0.44067907333374023
1684110213009776000,10.098776123046875,0.40554243326187134,0.08135604858398438,-0.29343247413635254
1684110213019817700,10.108817626953124,0.4569169580936432,0.1026601791381836,-0.14110875129699707
1684110213029859000,10.118859130859375,0.42755991220474243,0.1638355255126953,0.004036903381347656
1684110213039900700,10.128900634765625,0.31915605068206787,0.20542049407958984,0.19347000122070312
1684110213049942000,10.13894189453125,0.23732319474220276,0.27250003814697266,0.34129977226257324
1684110213059983400,10.1489833984375,0.22207453846931458,0.33402061462402344,0.43166863918304443
1684110213070025000,10.15902490234375,0.28891974687576294,0.34292030334472656,0.43747496604919434
1684110213080066300,10.16906640625,0.31197091937065125,0.4270801544189453,0.4240761995315552
1684110213090108000,10.17910791015625,0.3624553084373474,0.5945663452148438,0.37095868587493896
1684110213100149200,10.189149169921874,0.3733586072921753,0.7190866470336914,0.28402674198150635
1684110213110190800,10.19919091796875,0.3962087035179138,0.8248043060302734,0.20185565948486328
1684110213120232200,10.209232177734375,0.3742755651473999,0.9354743957519531,0.12688350677490234
1684110213130273500,10.2192734375,0.3036779761314392,1.0460548400878906,-0.01313328742980957
1684110213140315100,10.229315185546875,0.23976178467273712,1.1798057556152344,-0.2020418643951416
1684110213150356500,10.2393564453125,0.14575359225273132,1.1435832977294922,-0.2688603401184082
1684110213160398000,10.249398193359376,0.09429772943258286,1.0462579727172852,-0.45641446113586426
1684110213170439400,10.259439453125,0.05775065720081329,0.9756631851196289,-0.5778408050537109
1684110213180480800,10.269480712890624,0.10995344817638397,0.9125814437866211,-0.5450193881988525
1684110213190522400,10.2795224609375,0.1720774620771408,0.9300460815429688,-0.47428154945373535
1684110213200563700,10.289563720703125,0.26579880714416504,0.9221534729003906,-0.43626832962036133
1684110213210605000,10.29960498046875,0.29929110407829285,0.8685464859008789,-0.3959920406341553
1684110213220646700,10.309646728515625,0.35763636231422424,0.8457012176513672,-0.391629695892334
1684110213230688000,10.31968798828125,0.3341635763645172,0.7960100173950195,-0.4560427665710449
1684110213240729600,10.3297294921875,0.21952766180038452,0.6669178009033203,-0.5029773712158203
1684110213250771000,10.33977099609375,0.060634613037109375,0.5159225463867188,-0.6039862632751465
1684110213260812300,10.349812255859375,-0.07948130369186401,0.37615966796875,-0.7502646446228027
1684110213270854000,10.35985400390625,-0.3593868315219879,-0.10751056671142578,-0.7770688533782959
1684110213280895200,10.369895263671875,-0.679619550704956,-0.5201311111450195,-0.7779586315155029
1684110213290936800,10.379936767578124,-0.9524496793746948,-0.8185806274414062,-0.8479511737823486
1684110213300978200,10.389978271484376,-1.1584261655807495,-0.8742380142211914,-0.8704402446746826
1684110213311019500,10.40001953125,-1.2961628437042236,-0.9192104339599609,-0.7542684078216553
1684110213321061000,10.41006103515625,-1.3269400596618652,-1.055746078491211,-0.5964574813842773
1684110213331102500,10.4201025390625,-1.2880247831344604,-1.266641616821289,-0.40306735038757324
1684110213341144000,10.43014404296875,-1.2183325290679932,-1.5206661224365234,-0.31371450424194336
1684110213351185400,10.440185302734376,-1.1255398988723755,-1.7487030029296875,-0.31154918670654297
1684110213361226800,10.450226806640625,-0.9682796597480774,-1.9129228591918945,-0.3934042453765869
1684110213371268400,10.460268310546875,-0.7615211606025696,-2.0354175567626953,-0.47173023223876953
1684110213381309700,10.470309814453126,-0.40331485867500305,-1.9710779190063477,-0.5116887092590332
1684110213391351300,10.480351318359375,-0.012994766235351562,-1.8235511779785156,-0.5050768852233887
1684110213401392600,10.490392578125,0.35565030574798584,-1.5862054824829102,-0.3587157726287842
1684110213411434000,10.50043408203125,0.5820114016532898,-1.0490760803222656,-0.10266518592834473
1684110213421475600,10.5104755859375,0.7117490768432617,-0.5112447738647461,0.058634042739868164
1684110213431517000,10.520516845703124,0.7154770493507385,-0.20206737518310547,0.008658885955810547
1684110213441558300,10.530558349609375,0.5556554198265076,-0.05893993377685547,-0.06780076026916504
1684110213451600000,10.540599853515625,0.2793722152709961,0.10515213012695312,-0.054532766342163086
1684110213461641200,10.55064111328125,-0.11985307931900024,0.19014358520507812,-0.08589887619018555
1684110213471682800,10.560682861328125,-0.5605976581573486,0.10561084747314453,-0.09413385391235352
1684110213481724200,10.57072412109375,-0.8634979724884033,-0.02377796173095703,0.003031015396118164
1684110213491765500,10.580765625,-0.8830004930496216,-0.07836055755615234,0.1028749942779541
1684110213501807000,10.59080712890625,-0.6754982471466064,-0.039261817932128906,0.1026163101196289
1684110213511848400,10.600848388671874,-0.36604616045951843,0.12173843383789062,0.06692838668823242
1684110213521890000,10.61089013671875,-0.11094540357589722,0.3348836898803711,-0.028138160705566406
1684110213531931400,10.620931396484375,0.06548577547073364,0.41610145568847656,-0.14717578887939453
1684110213541972700,10.63097265625,0.1439850926399231,0.3011484146118164,-0.2713031768798828
1684110213552014300,10.641014404296875,0.16867303848266602,0.05969047546386719,-0.38383007049560547
1684110213562055700,10.6510556640625,0.07063823938369751,-0.20995712280273438,-0.38950276374816895
1684110213572097300,10.66109716796875,-0.09367334842681885,-0.5124168395996094,-0.39130210876464844
1684110213582138600,10.671138671875,-0.2778070867061615,-0.7376918792724609,-0.32656407356262207
1684110213592180200,10.68118017578125,-0.38233059644699097,-0.9694499969482422,-0.2522091865539551
1684110213602221600,10.6912216796875,-0.3882390856742859,-1.0738401412963867,-0.17752313613891602
1684110213612263000,10.701262939453125,-0.32016512751579285,-1.0869941711425781,-0.050141334533691406
1684110213622304500,10.711304443359374,-0.2340346872806549,-0.8418474197387695,0.17387938499450684
1684110213632345900,10.721345947265625,-0.21395763754844666,-0.6779861450195312,0.2875337600708008
1684110213642387200,10.73138720703125,-0.3397175371646881,-0.6238279342651367,0.3121767044067383
1684110213652428800,10.7414287109375,-0.5740482807159424,-0.5451812744140625,0.37174177169799805
1684110213662470100,10.75147021484375,-0.8731458187103271,-0.42760467529296875,0.48527705669403076
1684110213672511500,10.761511474609375,-1.0331593751907349,-0.36671924591064453,0.47422146797180176
1684110213682553000,10.771552978515626,-0.926209568977356,-0.31717395782470703,0.3923654556274414
1684110213692594400,10.781594482421875,-0.5872011184692383,-0.20751476287841797,0.22844171524047852
1684110213702636000,10.791635986328124,-0.2012040913105011,-0.04534435272216797,0.021164894104003906
1684110213712677400,10.801677490234376,0.11578792333602905,0.12106800079345703,-0.16901588439941406
1684110213722719000,10.811718994140625,0.3013300895690918,0.22467899322509766,-0.2919197082519531
1684110213732760300,10.82176025390625,0.34767627716064453,0.320404052734375,-0.38772106170654297
1684110213742801700,10.8318017578125,0.23214668035507202,0.4057903289794922,-0.4081003665924072
1684110213752843300,10.84184326171875,0.0376850962638855,0.44745826721191406,-0.34824228286743164
1684110213762884600,10.851884521484376,-0.21035230159759521,0.3261232376098633,-0.26538896560668945
1684110213772926200,10.86192626953125,-0.3979259729385376,0.06366729736328125,-0.2331526279449463
1684110213782967600,10.871967529296874,-0.4950563311576843,0.19555282592773438,-0.08700847625732422
1684110213793009000,10.8820087890625,-0.47491899132728577,0.10211181640625,-0.09624361991882324
1684110213803050500,10.892050537109375,-0.3308006525039673,-0.05606842041015625,-0.08147001266479492
1684110213813091800,10.902091796875,-0.08644220232963562,-0.11628055572509766,-0.07483673095703125
1684110213823133200,10.91213330078125,0.05297824740409851,-0.16465187072753906,-0.03647422790527344
1684110213833174800,10.9221748046875,0.11326169967651367,-0.18673419952392578,0.004110097885131836
1684110213843216100,10.932216064453126,0.07289525866508484,-0.15865516662597656,0.006051063537597656
1684110213853257700,10.9422578125,-0.03430753946304321,-0.18079376220703125,0.1053919792175293
1684110213863299000,10.952299072265625,-0.20387692749500275,-0.1668071746826172,0.15552902221679688
1684110213873340400,10.96234033203125,-0.35895681381225586,-0.13579463958740234,0.1829376220703125
1684110213883382000,10.972382080078125,-0.41473492980003357,-0.16419315338134766,0.17345428466796875
1684110213893423400,10.98242333984375,-0.3873041868209839,-0.14243030548095703,0.15870869159698486
1684110213903465000,10.99246484375,-0.27081114053726196,-0.1209564208984375,0.1512514352798462
1684110213913506300,11.00250634765625,-0.1325305998325348,-0.010432243347167969,0.19583117961883545
1684110213923547600,11.012547607421874,-0.039464861154556274,0.114654541015625,0.19504499435424805
1684110213933589200,11.02258935546875,0.04555541276931763,0.15035152435302734,0.14806652069091797
1684110213943630600,11.032630615234375,0.11875870823860168,0.15917587280273438,0.047216176986694336
1684110213953672200,11.042672119140626,0.21492871642112732,0.1556110382080078,-0.007433652877807617
1684110213963713500,11.052713623046875,0.261124849319458,0.2057657241821289,0.006684064865112305
1684110213973755000,11.0627548828125,0.2616102993488312,0.22403907775878906,-0.04848074913024902
1684110213983796500,11.07279638671875,0.21687036752700806,0.16383075714111328,-0.1339111328125
1684110213993837800,11.082837890625,0.14314872026443481,0.08056354522705078,-0.15692734718322754
1684110214003879400,11.09287939453125,0.10140836238861084,-0.12176513671875,-0.13309693336486816
1684110214013920800,11.102920654296875,0.07992923259735107,-0.2409200668334961,-0.10614275932312012
1684110214023962000,11.112962158203125,0.05887141823768616,-0.37941551208496094,-0.06491732597351074
1684110214034003700,11.123003662109374,0.02775353193283081,-0.4873781204223633,0.029706239700317383
1684110214044045000,11.133045166015625,0.024183690547943115,-0.5628452301025391,0.11509466171264648
1684110214054086400,11.14308642578125,0.008016794919967651,-0.6416301727294922,0.1983489990234375
1684110214064128000,11.1531279296875,-0.017532050609588623,-0.6459197998046875,0.27456653118133545
1684110214074169300,11.16316943359375,-0.033165350556373596,-0.6381139755249023,0.31073474884033203
1684110214084211000,11.1732109375,-0.07901966571807861,-0.5925302505493164,0.35230374336242676
1684110214094252300,11.183252197265626,-0.1635654717683792,-0.47681713104248047,0.3614633083343506
1684110214104293600,11.193293701171875,-0.2548348903656006,-0.3392801284790039,0.3814443349838257
1684110214114335200,11.203335205078124,-0.36665308475494385,-0.25571727752685547,0.3466050624847412
1684110214124376600,11.21337646484375,-0.40952277183532715,-0.1829071044921875,0.34512364864349365
1684110214134418200,11.223418212890625,-0.42253732681274414,-0.13247108459472656,0.3859623670578003
1684110214144459500,11.23345947265625,-0.4013480246067047,-0.1581592559814453,0.45888209342956543
1684110214154500900,11.2435009765625,-0.30912351608276367,-0.20211029052734375,0.5652344226837158
1684110214164542500,11.25354248046875,-0.2392573058605194,-0.18389511108398438,0.633414626121521
1684110214174583800,11.263583740234376,-0.16833139955997467,-0.1916027069091797,0.673164963722229
1684110214184625400,11.27362548828125,-0.11760924756526947,-0.2648439407348633,0.668572187423706
1684110214194666800,11.283666748046874,-0.07494513690471649,-0.3696432113647461,0.6042214632034302
1684110214204708000,11.2937080078125,-0.05414773151278496,-0.44197750091552734,0.5143990516662598
1684110214214749700,11.303749755859375,-0.04531259089708328,-0.3670940399169922,0.4186514616012573
1684110214224791000,11.313791015625,-0.07120582461357117,-0.2699127197265625,0.2890775203704834
1684110214234832600,11.32383251953125,-0.04374520480632782,-0.16489696502685547,0.17553067207336426
1684110214244874000,11.3338740234375,0.038439251482486725,-0.08042144775390625,0.04238450527191162
1684110214254915300,11.343915283203126,0.11049340665340424,-0.00206756591796875,-0.11686921119689941
1684110214264957000,11.35395703125,0.21152135729789734,0.04894733428955078,-0.26114463806152344
1684110214274998300,11.363998291015625,0.27179834246635437,0.040069580078125,-0.362160325050354
1684110214285039600,11.37403955078125,0.331438273191452,0.026391029357910156,-0.4109429121017456
1684110214295081200,11.384081298828125,0.36924585700035095,0.04331493377685547,-0.4177870750427246
1684110214305122600,11.39412255859375,0.39322200417518616,0.04559516906738281,-0.3786294460296631
1684110214315164200,11.4041640625,0.4303523302078247,0.0076160430908203125,-0.3132411241531372
1684110214325205500,11.41420556640625,0.44296786189079285,-0.02751922607421875,-0.30709588527679443
1684110214335247000,11.4242470703125,0.4170592725276947,-0.06688499450683594,-0.2911030054092407
1684110214345288400,11.434288330078125,0.36241579055786133,-0.08684730529785156,-0.28907978534698486
1684110214355329800,11.444329833984375,0.2773997485637665,-0.03825950622558594,-0.27977454662323
1684110214365371400,11.454371337890626,0.15601465106010437,0.014174461364746094,-0.26095151901245117
1684110214375412700,11.464412841796875,0.058355603367090225,0.021085739135742188,-0.16749274730682373
1684110214385454300,11.474454345703125,0.0036192964762449265,0.12439250946044922,-0.1743999719619751
1684110214395495700,11.48449560546875,0.024712851271033287,0.10810470581054688,-0.14742636680603027
1684110214405537000,11.494537109375,0.08494585007429123,0.04250621795654297,-0.13199293613433838
1684110214415578600,11.50457861328125,0.15277713537216187,-0.029279708862304688,-0.12756526470184326
1684110214425620000,11.514619873046875,0.2111825793981552,-0.1094827651977539,-0.05874061584472656
1684110214435661300,11.524661376953125,0.26236599683761597,-0.12258529663085938,0.040221214294433594
1684110214445703000,11.534702880859374,0.3276371657848358,-0.1450672149658203,0.08889329433441162
1684110214455744300,11.544744140625,0.36460167169570923,-0.2450695037841797,0.15650129318237305
1684110214465785900,11.554785888671875,0.4298556447029114,-0.21636486053466797,0.2798192501068115
1684110214475827200,11.5648271484375,0.47508469223976135,-0.17870712280273438,0.37506330013275146
1684110214485868500,11.57486865234375,0.5023378729820251,-0.12281513214111328,0.45206940174102783
1684110214495910100,11.58491015625,0.5120282173156738,-0.07014083862304688,0.5015623569488525
1684110214505951500,11.594951416015626,0.4956865906715393,-0.0771484375,0.5405441522598267
1684110214515993000,11.6049931640625,0.4848111867904663,-0.1193532943725586,0.5529400110244751
1684110214526034400,11.615034423828124,0.4609871506690979,-0.1325855255126953,0.5367172956466675
1684110214536075800,11.62507568359375,0.4362007975578308,-0.16201114654541016,0.487404465675354
1684110214546117400,11.635117431640625,0.4125484228134155,-0.16018295288085938,0.4192134141921997
1684110214556158700,11.64515869140625,0.3919594883918762,-0.1464214324951172,0.3181626796722412
1684110214566200300,11.655200439453125,0.3433365523815155,-0.11156272888183594,0.2156989574432373
1684110214576241700,11.66524169921875,0.2721555829048157,-0.08431339263916016,0.0769960880279541
1684110214586283000,11.675282958984376,0.1963144987821579,-0.0740976333618164,-0.04968607425689697
1684110214596324600,11.68532470703125,0.18295715749263763,-0.057209014892578125,-0.15938842296600342
1684110214606366000,11.695365966796874,0.2270049750804901,-0.040862083435058594,-0.2029036283493042
1684110214616407300,11.7054072265625,0.31547069549560547,-0.10277557373046875,-0.26360630989074707
1684110214626449000,11.715448974609375,0.4370322823524475,-0.14277172088623047,-0.3035123348236084
1684110214636490200,11.725490234375,0.5638130307197571,-0.16351985931396484,-0.3230326175689697
1684110214646531800,11.73553173828125,0.6262302994728088,-0.20526981353759766,-0.31338977813720703
1684110214656573200,11.7455732421875,0.6673448085784912,-0.1286611557006836,-0.23783183097839355
1684110214666614500,11.755614501953126,0.6245286464691162,-0.013301849365234375,-0.08126544952392578
1684110214676656000,11.76565625,0.6012340784072876,0.09546852111816406,0.04639434814453125
1684110214686697500,11.775697509765624,0.5838316679000854,0.1271839141845703,0.13116168975830078
1684110214696739000,11.785739013671876,0.586416482925415,0.19383525848388672,0.1828378438949585
1684110214706780400,11.795780517578125,0.6037130355834961,0.23602676391601562,0.22300004959106445
1684110214716821800,11.80582177734375,0.6188420057296753,0.2659616470336914,0.16933739185333252
1684110214726863400,11.81586328125,0.6125061511993408,0.20610332489013672,0.12969708442687988
1684110214736904700,11.82590478515625,0.612526535987854,0.22509479522705078,0.061629295349121094
1684110214746946300,11.8359462890625,0.5620001554489136,0.2745065689086914,-0.0836031436920166
1684110214756987600,11.845987548828125,0.4879169464111328,0.18428707122802734,-0.25275325775146484
1684110214767029000,11.856029052734375,0.3913377821445465,0.17555904388427734,-0.4048576354980469
1684110214777070600,11.866070556640626,0.2826036214828491,0.23752117156982422,-0.5143387317657471
1684110214787112000,11.87611181640625,0.20225724577903748,0.3313264846801758,-0.6385035514831543
1684110214797153500,11.886153564453124,0.12193959951400757,0.41402435302734375,-0.7228875160217285
1684110214807195000,11.89619482421875,0.01845097541809082,0.5021419525146484,-0.843012809753418
1684110214817236200,11.906236328125,-0.027136266231536865,0.5578575134277344,-0.9582319259643555
1684110214827277800,11.91627783203125,-0.05042839050292969,0.5910491943359375,-1.028554916381836
1684110214837319200,11.926319091796875,-0.03273439407348633,0.6467866897583008,-1.083050012588501
1684110214847360500,11.936360595703125,0.01344364881515503,0.6705474853515625,-1.086815357208252
1684110214857402000,11.946402099609376,0.05198812484741211,0.64404296875,-1.0972867012023926
1684110214867443500,11.956443359375,0.0913507342338562,0.6335668563842773,-1.1781291961669922
1684110214877485000,11.966485107421875,0.10406196117401123,0.5796098709106445,-1.2056841850280762
1684110214887526400,11.9765263671875,0.11833524703979492,0.5180740356445312,-1.2467796802520752
1684110214897567700,11.986567626953125,0.12375497817993164,0.45608997344970703,-1.2937383651733398
1684110214907609300,11.996609375,0.11691468954086304,0.2889118194580078,-1.1875412464141846
1684110214917650700,12.006650634765625,0.18507492542266846,0.1150197982788086,-1.1490509510040283
1684110214927692300,12.0166923828125,0.19592547416687012,-0.09680652618408203,-1.1744394302368164
1684110214937733600,12.026733642578124,0.20425719022750854,-0.2870979309082031,-1.1329333782196045
1684110214947775000,12.03677490234375,0.1956292986869812,-0.27930355072021484,-1.0479583740234375
1684110214957816600,12.046816650390625,0.20137256383895874,-0.19579029083251953,-0.8835103511810303
1684110214967858000,12.05685791015625,0.17193281650543213,-0.07235431671142578,-0.5812544822692871
1684110214977899500,12.0668994140625,0.12786400318145752,0.06970596313476562,-0.2365570068359375
1684110214987940900,12.07694091796875,0.10122442245483398,0.16863727569580078,0.16273188591003418
1684110214997982200,12.086982177734376,0.06354129314422607,0.31342029571533203,0.5307395458221436
1684110215008023800,12.09702392578125,0.06709074974060059,0.38502025604248047,0.896843433380127
1684110215018065200,12.107065185546874,0.09467518329620361,0.42415618896484375,1.134947657585144
1684110215028106800,12.117106689453125,0.1002206802368164,0.4210023880004883,1.2997267246246338
1684110215038148000,12.127148193359375,0.02331686019897461,0.38758373260498047,1.3823515176773071
1684110215048189400,12.137189453125,-0.055803537368774414,0.27916431427001953,1.4006599187850952
1684110215058231000,12.14723095703125,-0.28080761432647705,0.12480926513671875,1.1726974248886108
1684110215068272400,12.1572724609375,-0.6266734600067139,-0.049714088439941406,0.7321195602416992
1684110215078313700,12.167313720703126,-1.0532535314559937,-0.10658073425292969,0.3846324682235718
1684110215088355300,12.177355224609375,-1.365648865699768,-0.037131309509277344,-0.006923198699951172
1684110215098396700,12.187396728515624,-1.5989497900009155,0.014504432678222656,-0.2857825756072998
1684110215108438300,12.197438232421876,-1.712317705154419,-0.025899887084960938,-0.5279920101165771
1684110215118479600,12.207479736328125,-1.6919411420822144,-0.08890724182128906,-0.6640846729278564
1684110215128521200,12.217521240234374,-1.5507392883300781,-0.1575479507446289,-0.780681848526001
1684110215138562600,12.2275625,-1.387587308883667,-0.25316905975341797,-0.8778786659240723
1684110215148604000,12.23760400390625,-1.1864639520645142,-0.1153421401977539,-0.9458975791931152
1684110215158645500,12.2476455078125,-1.033866286277771,-0.016928672790527344,-0.9890570640563965
1684110215168686800,12.257686767578125,-0.9227328300476074,0.10663700103759766,-1.0047709941864014
1684110215178728400,12.267728515625,-0.9337959289550781,0.12859725952148438,-1.095564365386963
1684110215188769800,12.277769775390626,-1.0356740951538086,0.09224700927734375,-1.1254358291625977
1684110215198811100,12.28781103515625,-1.1120288372039795,0.0054798126220703125,-1.0460736751556396
1684110215208852700,12.297852783203124,-1.2435238361358643,-0.10442447662353516,-0.9552531242370605
1684110215218894000,12.30789404296875,-1.3320348262786865,-0.10731697082519531,-0.7216603755950928
1684110215228935400,12.317935302734375,-1.3822400569915771,-0.08850765228271484,-0.4761040210723877
1684110215238977000,12.32797705078125,-1.4346425533294678,-0.127471923828125,-0.27090907096862793
1684110215249018400,12.338018310546875,-1.4601938724517822,-0.2682828903198242,0.049420833587646484
1684110215259060000,12.34806005859375,-1.388998031616211,-0.31497955322265625,0.5728845596313477
1684110215269101300,12.358101318359376,-1.14790940284729,-0.3155183792114258,0.8552929162979126
1684110215279142700,12.368142578125,-0.8753139972686768,-0.36116600036621094,0.893591046333313
1684110215289184300,12.378184326171874,-0.7806661128997803,-0.3995790481567383,0.8369113206863403
1684110215299225600,12.3882255859375,-0.7550048828125,-0.27318572998046875,0.6940344572067261
1684110215309267200,12.39826708984375,-0.8170771598815918,-0.22359561920166016,0.46488869190216064
1684110215319308500,12.40830859375,-0.938483476638794,-0.2650794982910156,0.2007666826248169
1684110215329350000,12.418349853515625,-1.0582647323608398,-0.29466724395751953,0.04128098487854004
1684110215339391500,12.4283916015625,-1.1197435855865479,-0.22881507873535156,-0.0394136905670166
1684110215349432800,12.438432861328126,-1.2249114513397217,-0.13026046752929688,-0.035929203033447266
1684110215359474400,12.448474365234375,-1.4081141948699951,-0.1163797378540039,0.07262873649597168
1684110215369515800,12.458515869140625,-1.593851089477539,-0.17268657684326172,0.18909907341003418
1684110215379557000,12.46855712890625,-1.757669448852539,-0.2629966735839844,0.3881261348724365
