time,seconds_elapsed,z,y,x
1684114803236445000,0.03144482421875,0,0,0
1684114803246485000,0.041485107421875,0.3037452697753906,-0.09635162353515625,0.11730456352233887
1684114803256525000,0.051525146484375,0.40447425842285156,-0.2137293815612793,0.24513494968414307
1684114803266565000,0.061565185546875,0.26686763763427734,-0.11878728866577148,0.23053812980651855
1684114803276605000,0.07160498046875,-0.26447486877441406,0.034261465072631836,0.0570375919342041
1684114803286645000,0.08164501953125,-0.8830327987670898,-0.41417598724365234,-0.03452146053314209
1684114803296685000,0.09168505859375,-1.314682960510254,-0.3205883502960205,0.19735825061798096
1684114803306725000,0.10172509765625,-1.2356376647949219,-1.2063570022583008,-0.05754899978637695
1684114803316765200,0.11176513671875,-1.7148494720458984,-1.1017789840698242,0.10698294639587402
1684114803326805200,0.12180517578125,-1.4937734603881836,-0.12136268615722656,-0.5282337665557861
1684114803336845300,0.13184521484375,-1.3870782852172852,-0.7552998065948486,0.6192262172698975
1684114803346885400,0.141885498046875,-1.0657482147216797,-0.26786375045776367,0.6413133144378662
1684114803356925400,0.151925537109375,-0.9826078414916992,0.6598856449127197,0.04798078536987305
1684114803366965200,0.16196533203125,-0.9718389511108398,-0.02158832550048828,0.6974437236785889
1684114803377005300,0.17200537109375,-0.7061824798583984,0.6335945129394531,0.44684839248657227
1684114803387045400,0.18204541015625,-0.9046773910522461,0.4700784683227539,0.3327651023864746
1684114803397085400,0.19208544921875,-1.2484312057495117,0.12105512619018555,0.10047030448913574
1684114803407125500,0.20212548828125,-1.9861207008361816,-0.7545335292816162,1.0455656051635742
1684114803417165600,0.21216552734375,-1.5411968231201172,-0.9987874031066895,-0.052129507064819336
1684114803427205600,0.22220556640625,-1.67067289352417,-0.7792079448699951,-0.8710339069366455
1684114803437245700,0.23224560546875,-7.3518781661987305,-3.5847127437591553,3.528998374938965
1684114803447285800,0.24228564453125,1.7255935668945312,0.6973762512207031,-0.9258363246917725
1684114803457325800,0.252325927734375,2.428664207458496,-0.6560859680175781,0.9596993923187256
1684114803467366000,0.262365966796875,1.2837591171264648,-1.4183552265167236,2.4556949138641357
1684114803477406000,0.272406005859375,-1.760965347290039,-1.6848936080932617,4.413911819458008
1684114803487445800,0.28244580078125,-1.4709663391113281,-1.0426466464996338,0.44454002380371094
1684114803497485800,0.29248583984375,-3.864297389984131,0.3023710250854492,-3.517486810684204
1684114803507526000,0.30252587890625,-0.14939308166503906,-0.3068253993988037,-0.414736270904541
1684114803517566000,0.31256591796875,0.4533224105834961,-1.0462000370025635,-0.6083779335021973
1684114803527606000,0.32260595703125,0.09715938568115234,-0.8964500427246094,-1.2331552505493164
1684114803537646000,0.33264599609375,0.9323587417602539,-0.3622589111328125,-1.187915325164795
1684114803547686100,0.34268603515625,0.5111970901489258,-1.3448445796966553,-0.42778968811035156
1684114803557726200,0.352726318359375,0.035079002380371094,-0.8228991031646729,-0.48133134841918945
1684114803567766300,0.362766357421875,-0.21498584747314453,0.0873713493347168,-0.8740851879119873
1684114803577806300,0.372806396484375,-0.2187356948852539,0.5527691841125488,-1.0920133590698242
1684114803587846100,0.38284619140625,0.42882633209228516,0.3900184631347656,-1.1802749633789062
1684114803597886200,0.39288623046875,-0.614290714263916,-0.0319976806640625,-2.260197401046753
1684114803607926300,0.40292626953125,0.37302637100219727,-0.33031749725341797,-2.047685146331787
1684114803617966300,0.41296630859375,1.6624083518981934,-0.5903167724609375,-1.1521739959716797
1684114803628006400,0.42300634765625,2.315939426422119,-0.8528313636779785,-0.8746476173400879
1684114803638046500,0.43304638671875,2.162087917327881,-0.7119343280792236,-1.0714364051818848
1684114803648086500,0.44308642578125,2.422377586364746,-0.23239517211914062,-0.4033074378967285
1684114803658126600,0.453126708984375,1.9409732818603516,0.38875317573547363,-0.4731011390686035
1684114803668166700,0.463166748046875,0.4376258850097656,0.9440779685974121,-1.8058557510375977
1684114803678206700,0.473206787109375,-0.9619979858398438,1.3076093196868896,-2.441969871520996
1684114803688246800,0.483246826171875,-1.6953742504119873,1.5580980777740479,-2.40262508392334
1684114803698286800,0.493286865234375,-2.0995097160339355,1.6044626235961914,-2.1268482208251953
1684114803708327000,0.503326904296875,-1.8982021808624268,1.6088876724243164,-1.8905830383300781
1684114803718367000,0.513366943359375,-1.3028993606567383,1.359226107597351,-1.4403443336486816
1684114803728406800,0.52340673828125,-0.9321022033691406,1.1129366159439087,-1.1052699089050293
1684114803738446800,0.53344677734375,-0.7172119617462158,0.8665741682052612,-0.6521754264831543
1684114803748487000,0.54348681640625,-0.3512611389160156,0.485021710395813,-0.007863998413085938
1684114803758527000,0.55352685546875,0.18542766571044922,0.07306170463562012,-0.11746692657470703
1684114803768567000,0.563567138671875,1.0030956268310547,-1.1166136264801025,-0.22607994079589844
1684114803778607000,0.573607177734375,1.551340103149414,-1.471195936203003,-0.8332109451293945
1684114803788647200,0.583647216796875,1.5831303596496582,-1.4374032020568848,-1.4591326713562012
1684114803798687200,0.593687255859375,0.7231762409210205,-1.2607195377349854,-1.3713054656982422
1684114803808727300,0.603727294921875,-0.529494047164917,-0.5266354084014893,-1.4641199111938477
1684114803818767400,0.613767333984375,-2.5292437076568604,-0.3411571979522705,-0.9166688919067383
1684114803828807400,0.623807373046875,-3.936462879180908,-0.2642796039581299,-0.43968772888183594
1684114803838847500,0.633847412109375,-3.587510108947754,-0.7011334896087646,-0.4649209976196289
1684114803848887600,0.643887451171875,-1.9147099256515503,0.023762226104736328,-1.8149867057800293
1684114803858927600,0.653927734375,-0.873969316482544,-0.21922683715820312,-2.135011672973633
1684114803868967700,0.6639677734375,0.6699285507202148,-0.7269456386566162,-0.5618410110473633
1684114803879007500,0.674007568359375,-0.16913092136383057,-0.9298465251922607,-0.05344676971435547
1684114803889047600,0.684047607421875,-1.085940957069397,-0.5812618732452393,0.3144845962524414
1684114803899087600,0.694087646484375,-1.7898237705230713,0.04486370086669922,-0.011683464050292969
1684114803909127700,0.704127685546875,-2.0447585582733154,0.3140373229980469,-0.3047523498535156
1684114803919167700,0.714167724609375,-1.7246921062469482,-0.04104042053222656,0.0022525787353515625
1684114803929207800,0.724207763671875,-0.820151686668396,-0.14668679237365723,0.3515949249267578
1684114803939247900,0.734247802734375,-0.11503475904464722,-0.07715082168579102,0.6348037719726562
1684114803949288000,0.744287841796875,-0.12108409404754639,-0.10445404052734375,1.1241264343261719
1684114803959328000,0.754327880859375,-0.42137569189071655,0.05618619918823242,1.2551803588867188
1684114803969368000,0.7643681640625,-0.7840232849121094,0.16400671005249023,1.3718433380126953
1684114803979408100,0.774408203125,-1.0133601427078247,0.353360652923584,1.0868797302246094
1684114803989448200,0.7844482421875,-0.9045076370239258,0.37920546531677246,0.9402933120727539
1684114803999488300,0.79448828125,-0.6346023678779602,0.4398627281188965,0.5255107879638672
1684114804009528300,0.8045283203125,-0.11729303002357483,0.13669919967651367,1.104538917541504
1684114804019568400,0.814568359375,0.42198723554611206,0.10073184967041016,1.566314697265625
1684114804029608400,0.8246083984375,0.3707399070262909,-0.2899022102355957,2.2776546478271484
1684114804039648500,0.8346484375,0.04540663957595825,-0.48877620697021484,2.3351669311523438
1684114804049688300,0.844688232421875,-0.04349970817565918,-0.525421142578125,1.7025184631347656
1684114804059728400,0.854728271484375,0.2339669167995453,-0.6527619361877441,0.895695686340332
1684114804069768400,0.8647685546875,0.12226489186286926,-0.5146946907043457,-0.014460563659667969
1684114804079808500,0.87480859375,-0.2342805117368698,-0.4778728485107422,-0.3334770202636719
1684114804089848600,0.8848486328125,-0.23003560304641724,-0.3292689323425293,-1.1148147583007812
1684114804099888600,0.894888671875,0.2852995991706848,-0.46764183044433594,-1.345717430114746
1684114804109928700,0.9049287109375,1.142643690109253,-1.0083250999450684,-0.6506872177124023
1684114804119968800,0.91496875,1.7012946605682373,-1.2430615425109863,0.1384725570678711
1684114804130008800,0.9250087890625,1.7631456851959229,-1.0779666900634766,0.7747869491577148
1684114804140049000,0.935048828125,1.169468641281128,-0.9059090614318848,1.2626476287841797
1684114804150089000,0.9450888671875,0.21667248010635376,-0.8747472763061523,1.8217506408691406
1684114804160129000,0.95512890625,-0.7124869227409363,-0.7008991241455078,1.745894432067871
1684114804170169000,0.965169189453125,-1.5688552856445312,-0.686859130859375,1.6538658142089844
1684114804180209200,0.975209228515625,-1.7685295343399048,-0.5037446022033691,1.078378677368164
1684114804190249200,0.985249267578125,-1.6126916408538818,-0.5757026672363281,0.5180778503417969
1684114804200289300,0.995289306640625,-1.1420953273773193,-0.585291862487793,0.3373260498046875
1684114804210329300,1.005329345703125,-0.76857590675354,-0.17963218688964844,-0.14356231689453125
1684114804220369400,1.015369384765625,-0.3057849109172821,0.06791973114013672,-0.21372604370117188
1684114804230409500,1.025409423828125,0.002722412347793579,0.2468719482421875,-0.13756942749023438
1684114804240449500,1.035449462890625,-0.12611939013004303,0.06857585906982422,0.4964265823364258
1684114804250489600,1.045489501953125,-0.37315797805786133,0.1502232551574707,0.9767541885375977
1684114804260529400,1.055529296875,-0.47694113850593567,0.5032205581665039,0.9158768653869629
1684114804270569500,1.065569580078125,-0.5058592557907104,0.5815167427062988,0.721621036529541
1684114804280609500,1.075609619140625,-0.5383805632591248,0.7129979133605957,0.13940668106079102
1684114804290649600,1.085649658203125,-0.5724044442176819,0.891693115234375,-0.5371456146240234
1684114804300690000,1.09568994140625,-0.565070390701294,0.8118891716003418,-0.9947195053100586
1684114804310729700,1.105729736328125,-0.5744119882583618,0.6811165809631348,-1.3389415740966797
1684114804320769800,1.115769775390625,-0.8006114959716797,0.5372505187988281,-1.3085999488830566
1684114804330809900,1.125809814453125,-1.1190710067749023,0.39406251907348633,-0.7710456848144531
1684114804340850000,1.135849853515625,-0.9921165704727173,0.33864355087280273,-0.3394780158996582
1684114804350890000,1.145889892578125,-1.0798206329345703,-0.15564966201782227,0.24310970306396484
1684114804360930000,1.155929931640625,-0.8916376829147339,-0.3930215835571289,0.0608983039855957
1684114804370970000,1.16597021484375,-0.9593813419342041,-0.5435261726379395,0.10726642608642578
1684114804381010200,1.17601025390625,-1.229673147201538,-0.36320066452026367,0.10627317428588867
1684114804391050200,1.18605029296875,-1.282557487487793,-0.21103334426879883,0.12283849716186523
1684114804401090300,1.19609033203125,-1.1836764812469482,-0.09277009963989258,0.5038018226623535
1684114804411130400,1.20613037109375,-1.1167168617248535,-0.4669656753540039,0.947993278503418
1684114804421170400,1.21617041015625,-0.6960962414741516,-0.6433835029602051,0.3776073455810547
1684114804431210500,1.22621044921875,-0.6095480918884277,-0.7978982925415039,0.15809392929077148
1684114804441250600,1.23625048828125,-0.7431560754776001,-1.1704707145690918,0.27734851837158203
1684114804451290600,1.24629052734375,-0.7649142742156982,-1.4913830757141113,0.24979352951049805
1684114804461330700,1.25633056640625,-0.539415717124939,-1.381251335144043,0.0786905288696289
1684114804471370800,1.266370849609375,-0.6424901485443115,-1.2028183937072754,0.4300374984741211
1684114804481410800,1.276410888671875,-0.3634382486343384,-1.171640396118164,0.024295806884765625
1684114804491451000,1.286450927734375,-0.39457428455352783,-1.4864716529846191,0.3055763244628906
1684114804501491000,1.296490966796875,-0.2864469289779663,-1.4073853492736816,0.6718530654907227
1684114804511531000,1.306531005859375,-0.19230353832244873,-1.067296028137207,0.4846944808959961
1684114804521571000,1.316571044921875,0.07774770259857178,-0.4708890914916992,-0.18967294692993164
1684114804531611100,1.326611083984375,0.28529471158981323,-0.6866111755371094,-0.9521565437316895
1684114804541651200,1.336651123046875,0.03229570388793945,-0.8366870880126953,-1.9931278228759766
1684114804551691300,1.346691162109375,0.06454312801361084,-0.46326303482055664,-2.4317541122436523
1684114804561731300,1.3567314453125,-0.03627216815948486,0.1613941192626953,-2.49038028717041
1684114804571771400,1.366771484375,0.09473025798797607,0.4055790901184082,-2.0218758583068848
1684114804581811500,1.3768115234375,0.1939864158630371,0.627678394317627,-1.313593864440918
1684114804591851500,1.3868515625,-0.86069655418396,0.43428659439086914,-1.060114860534668
1684114804601891600,1.3968916015625,-1.3547714948654175,0.7931013107299805,-1.0751128196716309
1684114804611931600,1.406931640625,-0.35334575176239014,0.564934253692627,-0.9748706817626953
1684114804621971700,1.4169716796875,-0.1694786548614502,-0.3841824531555176,-0.9736218452453613
1684114804632011800,1.42701171875,-0.19447827339172363,-0.062043190002441406,-1.2647695541381836
1684114804642051800,1.4370517578125,-0.8454028367996216,-0.518343448638916,-0.5638413429260254
1684114804652091600,1.447091552734375,-0.72444748878479,-0.34211158752441406,-0.24358272552490234
1684114804662131700,1.457131591796875,-0.6226701736450195,0.12094306945800781,-0.3432197570800781
1684114804672172000,1.467172119140625,-0.4638460874557495,0.5762085914611816,-0.15104103088378906
1684114804682212000,1.477212158203125,-0.28439486026763916,0.7373957633972168,-0.23909330368041992
1684114804692252200,1.487252197265625,-0.256101131439209,0.7224984169006348,-0.30792951583862305
1684114804702292000,1.4972919921875,-0.3459508419036865,0.5877270698547363,-0.42861413955688477
1684114804712332000,1.50733203125,-0.790392279624939,0.2917017936706543,-0.34160947799682617
1684114804722372000,1.5173720703125,-1.1976852416992188,0.13604021072387695,-0.33074235916137695
1684114804732412400,1.527412353515625,-1.6365468502044678,0.39015626907348633,-0.09060382843017578
1684114804742452200,1.5374521484375,-1.5244497060775757,0.5825939178466797,-0.3375244140625
1684114804752492300,1.5474921875,-0.8538084030151367,0.36133241653442383,-0.07769012451171875
1684114804762532400,1.557532470703125,-0.39688897132873535,0.3059511184692383,0.11575698852539062
1684114804772572400,1.567572509765625,-0.22771334648132324,0.2698335647583008,0.46473121643066406
1684114804782612500,1.577612548828125,-0.40344786643981934,0.12502288818359375,1.0477771759033203
1684114804792652500,1.587652587890625,-0.34041690826416016,0.2310318946838379,1.2972502708435059
1684114804802692600,1.597692626953125,-0.4571523666381836,0.11030960083007812,1.361593246459961
1684114804812732700,1.607732666015625,-0.6598172187805176,0.1896681785583496,1.4866089820861816
1684114804822772700,1.617772705078125,-0.09428071975708008,0.33538150787353516,1.3314871788024902
1684114804832812800,1.627812744140625,1.613857388496399,-0.3189530372619629,0.2711677551269531
1684114804842852900,1.637852783203125,2.3236005306243896,-0.7228102684020996,-0.8405394554138184
1684114804852893000,1.647892822265625,2.1396803855895996,-0.6445426940917969,-1.804804801940918
1684114804862933000,1.65793310546875,1.710550308227539,-0.5649642944335938,-2.7156567573547363
1684114804872973000,1.66797314453125,1.216080665588379,-0.7033028602600098,-3.6450624465942383
1684114804883013000,1.67801318359375,0.8441228866577148,-0.3626070022583008,-4.025079727172852
1684114804893053200,1.68805322265625,0.7239224910736084,-0.49002885818481445,-4.555938720703125
1684114804903093200,1.69809326171875,0.4026336669921875,-0.9357995986938477,-4.7214226722717285
1684114804913133300,1.70813330078125,-0.026036977767944336,-1.0037059783935547,-4.706372261047363
1684114804923173400,1.71817333984375,-0.1263291835784912,-0.6400089263916016,-3.9185681343078613
1684114804933213400,1.72821337890625,0.5544939041137695,-1.4628920555114746,-3.1140849590301514
1684114804943253500,1.73825341796875,1.7194253206253052,-2.296173095703125,-3.174924850463867
1684114804953293600,1.74829345703125,1.2564486265182495,-2.0711631774902344,-3.241039276123047
1684114804963333600,1.758333740234375,0.13740968704223633,-2.174668788909912,-2.5231666564941406
1684114804973373700,1.768373779296875,-0.8482532501220703,-2.7438864707946777,-1.180039882659912
1684114804983413800,1.778413818359375,-0.02335071563720703,-3.424539566040039,-0.07816362380981445
1684114804993453800,1.788453857421875,1.5248665809631348,-4.101158618927002,0.7043852806091309
1684114805003494000,1.798493896484375,3.0265026092529297,-3.4733004570007324,1.0686583518981934
1684114805013534000,1.808533935546875,3.8793907165527344,-2.328001022338867,0.732144832611084
1684114805023574000,1.818573974609375,3.8317298889160156,-1.494074821472168,0.0868220329284668
1684114805033614000,1.828614013671875,2.9889273643493652,-0.9528994560241699,-0.25910520553588867
1684114805043654100,1.838654052734375,1.6981139183044434,-1.2047615051269531,-0.318422794342041
1684114805053694200,1.848694091796875,0.3800917863845825,-1.174555778503418,-0.35559940338134766
1684114805063734300,1.858734375,-0.9914627075195312,-0.8365392684936523,-0.3876991271972656
1684114805073774600,1.868774658203125,-3.0415191650390625,-0.3945474624633789,-0.1233673095703125
1684114805083814700,1.878814697265625,-3.7700870037078857,0.07938385009765625,0.5484509468078613
1684114805093854500,1.8888544921875,-2.207123279571533,0.4347691535949707,0.6997790336608887
1684114805103894500,1.89889453125,0.4557459354400635,0.15128803253173828,0.5526838302612305
1684114805113934800,1.908934814453125,2.830864906311035,-0.25786781311035156,0.4247879981994629
1684114805123975000,1.918974853515625,3.8975844383239746,0.09494781494140625,0.24389171600341797
1684114805134014700,1.9290146484375,3.49904465675354,0.4449291229248047,-0.3954000473022461
1684114805144055000,1.939054931640625,2.859981060028076,0.2892923355102539,-0.8447632789611816
1684114805154095000,1.94909521484375,2.4144065380096436,-0.5703639984130859,0.3875274658203125
1684114805164135200,1.95913525390625,2.4559898376464844,1.8303790092468262,-0.5601382255554199
1684114805174175200,1.96917529296875,1.997854471206665,2.0249686241149902,-1.8017301559448242
1684114805184215300,1.97921533203125,1.2829923629760742,0.8072428703308105,-1.706362247467041
1684114805194255400,1.98925537109375,0.9197217226028442,-0.4050474166870117,-0.5113325119018555
1684114805204295400,1.99929541015625,1.1032330989837646,0.13499832153320312,0.9835309982299805
1684114805214335500,2.00933544921875,1.0464543104171753,0.544611930847168,1.8069405555725098
1684114805224375600,2.01937548828125,0.7121935486793518,0.47855281829833984,2.0042009353637695
1684114805234415600,2.02941552734375,0.2862715423107147,0.1357746124267578,1.7332358360290527
1684114805244455700,2.03945556640625,0.11659491062164307,-0.11401081085205078,1.3587360382080078
1684114805254495700,2.049495849609375,-0.05032479763031006,-0.11325263977050781,1.5522260665893555
1684114805264535800,2.059535888671875,0.025874853134155273,0.012815475463867188,2.0731678009033203
1684114805274576000,2.069575927734375,0.21131792664527893,0.15273380279541016,2.459601402282715
1684114805284616000,2.079615966796875,0.2681940197944641,0.03423881530761719,2.3624496459960938
1684114805294656000,2.089656005859375,0.3736693263053894,0.3404655456542969,2.136385440826416
1684114805304696000,2.099696044921875,0.7102516293525696,0.400726318359375,1.7131853103637695
1684114805314736000,2.109736083984375,0.9565627574920654,0.09144973754882812,1.0112671852111816
1684114805324776200,2.119776123046875,1.2068655490875244,0.032647132873535156,0.5685219764709473
1684114805334816300,2.129816162109375,1.6628144979476929,0.11690235137939453,0.10676026344299316
1684114805344856300,2.139856201171875,2.2136287689208984,0.24196434020996094,-0.06754779815673828
1684114805354896400,2.149896484375,2.584146499633789,0.2507152557373047,-0.33685874938964844
1684114805364936400,2.1599365234375,2.648983955383301,0.05049896240234375,-0.4894444942474365
1684114805374976500,2.1699765625,2.617327928543091,0.039154052734375,-0.5946013927459717
1684114805385016600,2.1800166015625,2.812390089035034,-0.06391334533691406,-0.6142501831054688
1684114805395056600,2.190056640625,3.0219485759735107,-0.034737586975097656,-0.5548710823059082
1684114805405096700,2.2000966796875,2.9939162731170654,-0.20549488067626953,-0.6747360229492188
1684114805415136800,2.21013671875,2.588397264480591,-0.2860908508300781,-0.9558830261230469
1684114805425176800,2.2201767578125,1.8231542110443115,-0.33088207244873047,-1.1323580741882324
1684114805435217000,2.230216796875,0.7928716540336609,-0.3055696487426758,-1.2512624263763428
1684114805445257000,2.240257080078125,-0.27842283248901367,-0.511042594909668,-0.9417662620544434
1684114805455297000,2.250297119140625,-1.308701992034912,-0.7974357604980469,-0.26678919792175293
1684114805465337000,2.260337158203125,-1.651452898979187,-0.883519172668457,0.29158759117126465
1684114805475377200,2.270377197265625,-1.0037089586257935,-0.28398990631103516,0.2272779941558838
1684114805485417200,2.280417236328125,-0.45265230536460876,-0.6610965728759766,-0.052308082580566406
1684114805495457300,2.290457275390625,0.04213888943195343,-0.9835615158081055,-0.03173184394836426
1684114805505497300,2.300497314453125,0.5176507234573364,-0.8803873062133789,0.15374541282653809
1684114805515537700,2.31053759765625,0.9118872284889221,-0.8305673599243164,0.037670135498046875
1684114805525577700,2.32057763671875,1.203812599182129,-0.6876077651977539,-0.1759345531463623
1684114805535617500,2.330617431640625,1.1714006662368774,-0.5849437713623047,-0.4805474281311035
1684114805545657900,2.340657958984375,0.8909430503845215,-0.5210075378417969,-0.957747220993042
1684114805555698000,2.350697998046875,0.4369802176952362,-0.6152553558349609,-1.1893000602722168
1684114805565738000,2.360738037109375,-0.10459139943122864,-0.8187446594238281,-1.0321619510650635
1684114805575778000,2.370778076171875,-0.3191539943218231,-0.7053375244140625,-0.6653151512145996
1684114805585818000,2.380818115234375,-0.17030218243598938,-0.5800533294677734,-0.2850685119628906
1684114805595858200,2.390858154296875,-0.036345481872558594,-0.49097156524658203,-0.15898799896240234
1684114805605898200,2.400898193359375,0.08130338788032532,-0.4174175262451172,-0.007228851318359375
1684114805615938300,2.410938232421875,0.17472171783447266,-0.5602254867553711,0.0896294116973877
1684114805625978400,2.420978271484375,0.33804479241371155,-0.5061187744140625,0.1462099552154541
1684114805636018400,2.431018310546875,0.26046064496040344,-0.5016822814941406,0.24556183815002441
1684114805646058500,2.44105859375,0.20178967714309692,-0.4535379409790039,0.25225138664245605
1684114805656098600,2.4510986328125,0.19574257731437683,-0.30877017974853516,0.16397881507873535
1684114805666138600,2.461138671875,0.21989554166793823,-0.2291698455810547,0.04060626029968262
1684114805676178700,2.4711787109375,0.15179479122161865,-0.02133655548095703,0.12784767150878906
1684114805686218800,2.48121875,-0.0199110209941864,-0.048575401306152344,0.19922709465026855
1684114805696258800,2.4912587890625,-0.2897704839706421,-0.04999065399169922,0.3163466453552246
1684114805706299000,2.501298828125,-0.5125030875205994,0.07216548919677734,0.419053316116333
1684114805716339000,2.5113388671875,-0.6405004858970642,0.2456798553466797,0.623316764831543
1684114805726379000,2.52137890625,-0.7181493043899536,0.27976322174072266,0.7168295383453369
1684114805736419000,2.531419189453125,-0.6962345242500305,0.31340885162353516,0.908064603805542
1684114805746459400,2.54145947265625,-0.5968748331069946,0.28955650329589844,0.9376862049102783
1684114805756499200,2.551499267578125,-0.46915528178215027,0.26349830627441406,0.9265036582946777
1684114805766539300,2.561539306640625,-0.18785342574119568,0.2966451644897461,0.8948111534118652
1684114805776579600,2.57157958984375,0.04164639115333557,0.21898841857910156,0.7297580242156982
1684114805786619600,2.58161962890625,0.30712461471557617,0.09552001953125,0.48262858390808105
1684114805796659700,2.59165966796875,0.46990758180618286,0.032054901123046875,0.08185577392578125
1684114805806699800,2.60169970703125,0.4261324405670166,-0.054027557373046875,-0.35218310356140137
1684114805816739800,2.61173974609375,0.25446951389312744,-0.1378002166748047,-0.7284667491912842
1684114805826780000,2.62177978515625,0.18249036371707916,-0.034984588623046875,-0.911759614944458
1684114805836820000,2.631820068359375,0.23625043034553528,0.1749105453491211,-0.8908860683441162
1684114805846860000,2.641860107421875,0.37990549206733704,0.3035097122192383,-0.7289266586303711
1684114805856900000,2.651900146484375,0.8346114158630371,1.9766898155212402,-0.5934054851531982
1684114805866940200,2.661940185546875,1.188437581062317,0.7415533065795898,-0.780343770980835
1684114805876980200,2.671980224609375,0.5591983795166016,-1.8031005859375,0.08405232429504395
1684114805887020300,2.682020263671875,0.8823243975639343,-1.0306463241577148,-0.5787003040313721
1684114805897060400,2.692060302734375,0.9612856507301331,-0.7955303192138672,-0.6836044788360596
1684114805907100400,2.702100341796875,0.8455764651298523,-0.9023103713989258,-0.4287760257720947
1684114805917140500,2.712140380859375,1.1231307983398438,-0.21348857879638672,-0.2970700263977051
1684114805927180500,2.7221806640625,1.305998682975769,0.1713104248046875,-0.22511744499206543
1684114805937220600,2.732220703125,1.3012607097625732,0.25915050506591797,-0.24600720405578613
1684114805947260700,2.7422607421875,1.192274570465088,0.40715503692626953,-0.07856297492980957
1684114805957301000,2.752301025390625,1.033630132675171,0.5347223281860352,0.3766810894012451
1684114805967341000,2.762341064453125,0.9817447662353516,0.4220714569091797,0.604295015335083
1684114805977381000,2.772381103515625,1.0117299556732178,0.25130748748779297,0.8789515495300293
1684114805987421200,2.782421142578125,1.068588376045227,-0.17855167388916016,0.8379759788513184
1684114805997461200,2.792461181640625,0.9226667881011963,-0.4532737731933594,0.5375971794128418
1684114806007501300,2.802501220703125,0.7533147931098938,-0.4247455596923828,0.21511030197143555
1684114806017541400,2.812541259765625,0.5558531880378723,-0.2771472930908203,-0.006139278411865234
1684114806027581400,2.82258154296875,0.4433141350746155,-0.17719364166259766,-0.16980481147766113
1684114806037621500,2.83262158203125,0.20284807682037354,-0.2527132034301758,-0.3664364814758301
1684114806047661600,2.84266162109375,-0.1277262568473816,-0.45716285705566406,-0.48894429206848145
1684114806057701600,2.85270166015625,-0.28617197275161743,-0.4136800765991211,-0.3672060966491699
1684114806067741700,2.86274169921875,-0.37788933515548706,-0.44270801544189453,-0.31173229217529297
1684114806077781800,2.87278173828125,-0.46896326541900635,-0.45430469512939453,-0.13116717338562012
1684114806087821800,2.88282177734375,-0.3786717653274536,-0.38759326934814453,0.06619715690612793
1684114806097862000,2.89286181640625,-0.08745324611663818,-0.06492805480957031,0.23679494857788086
1684114806107902200,2.902902099609375,0.16008764505386353,-0.04076194763183594,0.2205824851989746
1684114806117942000,2.91294189453125,0.30169546604156494,0.039834022521972656,-0.04886460304260254
1684114806127982300,2.922982421875,0.40442562103271484,0.14249515533447266,-0.3180840015411377
1684114806138022400,2.9330224609375,0.4641456604003906,0.1248941421508789,-0.3957822322845459
1684114806148062500,2.9430625,0.5142806172370911,0.15712833404541016,-0.37703776359558105
1684114806158102500,2.9531025390625,0.6878955960273743,0.1817331314086914,-0.05221104621887207
1684114806168142600,2.963142578125,0.9483438730239868,0.06659889221191406,0.4262092113494873
1684114806178182700,2.9731826171875,1.320420742034912,0.0982046127319336,0.718757152557373
1684114806188222700,2.98322265625,1.5330610275268555,0.1565237045288086,0.9248669147491455
1684114806198262800,2.9932626953125,1.7670459747314453,0.09995651245117188,1.1062421798706055
1684114806208302800,3.003302734375,1.9691485166549683,0.05801677703857422,1.146144151687622
1684114806218343000,3.013343017578125,1.955061674118042,-0.03833198547363281,1.0844566822052002
1684114806228383000,3.023383056640625,1.764198899269104,-0.04811859130859375,0.9158751964569092
1684114806238423300,3.03342333984375,1.3895618915557861,-0.22191238403320312,0.7404851913452148
1684114806248463000,3.043463134765625,1.0947699546813965,-0.2584571838378906,0.6758518218994141
1684114806258503400,3.05350341796875,1.0403449535369873,-0.10108184814453125,0.5333428382873535
1684114806268543500,3.06354345703125,1.0060566663742065,0.19772815704345703,0.6099841594696045
1684114806278583600,3.07358349609375,1.0462144613265991,0.3972911834716797,0.5693283081054688
1684114806288623600,3.08362353515625,1.026794672012329,0.3875398635864258,0.6489241123199463
1684114806298663700,3.09366357421875,1.1008102893829346,0.34858036041259766,0.5545380115509033
1684114806308703700,3.103703857421875,1.2734047174453735,0.3548421859741211,0.40578317642211914
1684114806318743800,3.113743896484375,1.6243939399719238,0.35721778869628906,0.22556614875793457
1684114806328784000,3.123783935546875,1.899727463722229,0.4070711135864258,0.13057398796081543
1684114806338824000,3.133823974609375,1.9742646217346191,0.4308481216430664,0.10496068000793457
1684114806348864000,3.143864013671875,1.8443955183029175,0.3086433410644531,0.1993119716644287
1684114806358904000,3.153904052734375,1.4992563724517822,0.3956480026245117,0.15009212493896484
1684114806368944000,3.163944091796875,1.0118497610092163,0.4906120300292969,-0.09016108512878418
1684114806378984400,3.173984375,0.5231742858886719,0.5098562240600586,-0.20444440841674805
1684114806389024500,3.1840244140625,0.2050786018371582,0.6823673248291016,-0.13447165489196777
1684114806399064600,3.194064697265625,0.12466645240783691,1.190648078918457,0.09492707252502441
1684114806409104600,3.204104736328125,0.09021282196044922,0.8244876861572266,0.6301267147064209
1684114806419144700,3.214144775390625,-0.2273876667022705,0.28380870819091797,0.9958648681640625
1684114806429184800,3.224184814453125,-0.40717875957489014,-0.2651071548461914,1.2727546691894531
1684114806439224800,3.234224853515625,-0.7708786725997925,-0.7193603515625,1.3479843139648438
1684114806449265000,3.244264892578125,-1.3592427968978882,-0.6511096954345703,1.1857273578643799
1684114806459305000,3.254304931640625,-2.041553020477295,-0.7019729614257812,0.8318514823913574
1684114806469345000,3.264344970703125,-3.036170482635498,-0.7213296890258789,0.42124485969543457
1684114806479385000,3.274385009765625,-3.7054224014282227,-0.5071010589599609,0.0008044242858886719
1684114806489425200,3.284425048828125,-3.766704559326172,-0.27092456817626953,0.07443618774414062
1684114806499465500,3.294465576171875,-3.0758633613586426,-0.11268234252929688,0.6462438106536865
1684114806509505500,3.304505615234375,-1.7082664966583252,2.054257392883301,0.45064449310302734
1684114806519545600,3.314545654296875,-1.8963617086410522,0.8638811111450195,0.9711754322052002
1684114806529585700,3.324585693359375,-1.9822388887405396,-0.35460472106933594,0.8748452663421631
1684114806539625700,3.334625732421875,-1.5607764720916748,-1.0821332931518555,0.6429398059844971
1684114806549665800,3.344665771484375,-0.9333058595657349,-1.1075668334960938,0.2660665512084961
1684114806559705900,3.354705810546875,-0.43796396255493164,-1.1369800567626953,-0.1104285717010498
1684114806569746000,3.364745849609375,-0.09969639778137207,-1.179713249206543,-0.35472869873046875
1684114806579786000,3.374785888671875,0.0691683292388916,-1.2222480773925781,-0.43790483474731445
1684114806589826000,3.384825927734375,0.10489773750305176,-1.2330331802368164,-0.33658599853515625
1684114806599866000,3.3948662109375,0.12943696975708008,-1.1927833557128906,-0.1806635856628418
1684114806609906200,3.40490625,0.14752769470214844,-1.0342864990234375,-0.028693675994873047
1684114806619946500,3.414946533203125,0.18044638633728027,-0.840907096862793,0.13277745246887207
1684114806629986600,3.424986572265625,0.1836540699005127,-0.7225236892700195,0.2064347267150879
1684114806640026600,3.435026611328125,0.165330171585083,-0.5816259384155273,0.25279903411865234
1684114806650066700,3.445066650390625,0.11636495590209961,-0.3956184387207031,0.291165828704834
1684114806660106800,3.455106689453125,0.048554420471191406,-0.1427297592163086,0.40430784225463867
1684114806670146800,3.465146728515625,0.18632936477661133,0.31695079803466797,0.5578980445861816
1684114806680187000,3.475186767578125,0.35704755783081055,0.2746009826660156,0.4990575313568115
1684114806690227000,3.48522705078125,0.6190385818481445,0.4630870819091797,0.4505584239959717
1684114806700267000,3.49526708984375,0.7877449989318848,0.569615364074707,0.39752650260925293
1684114806710307000,3.50530712890625,0.9248722791671753,0.5304756164550781,0.25359678268432617
1684114806720347400,3.515347412109375,1.332912802696228,0.8110742568969727,0.19050192832946777
1684114806730387500,3.525387451171875,1.5578110218048096,0.7388238906860352,-0.08689570426940918
1684114806740427500,3.535427490234375,1.7394298315048218,0.6444482803344727,-0.35929930210113525
1684114806750467600,3.545467529296875,1.9555213451385498,0.3055763244628906,-0.6228634119033813
1684114806760507600,3.555507568359375,2.1999878883361816,-0.17629146575927734,-1.0056744813919067
1684114806770547700,3.565547607421875,2.5984129905700684,-0.3752470016479492,-1.3128042221069336
1684114806780587800,3.575587890625,2.832371950149536,0.09036064147949219,-1.5706558227539062
1684114806790627800,3.5856279296875,2.6813504695892334,0.9492559432983398,-1.8335787057876587
1684114806800668000,3.59566796875,2.508786201477051,1.3181958198547363,-1.9129027128219604
1684114806810708000,3.6057080078125,2.1561179161071777,1.2402076721191406,-1.6271544694900513
1684114806820748300,3.615748291015625,1.6939650774002075,1.0418004989624023,-1.2993319034576416
1684114806830788400,3.625788330078125,1.08845853805542,0.8046283721923828,-1.0422649383544922
1684114806840828400,3.635828369140625,0.5385613441467285,0.5964126586914062,-0.7766343355178833
1684114806850868500,3.645868408203125,0.015510320663452148,0.408660888671875,-0.5464757680892944
1684114806860908500,3.655908447265625,-0.46306586265563965,0.24718093872070312,-0.3186924457550049
1684114806870948600,3.665948486328125,-0.8983840942382812,0.01701641082763672,-0.152945876121521
1684114806880988700,3.67598876953125,-1.2927238941192627,-0.18315887451171875,0.04900813102722168
1684114806891028700,3.68602880859375,-1.5691511631011963,-0.3985319137573242,0.17520630359649658
1684114806901068800,3.69606884765625,-1.6639018058776855,-0.7556133270263672,0.3564678430557251
1684114806911109000,3.706109130859375,-1.4481844902038574,-0.8675756454467773,0.4773881435394287
1684114806921149200,3.716149169921875,-1.0429916381835938,-0.8648281097412109,0.40053367614746094
1684114806931189200,3.726189208984375,-0.5950160026550293,-0.6995525360107422,0.08832192420959473
1684114806941229300,3.736229248046875,-0.24074816703796387,-0.5340080261230469,-0.3740832805633545
1684114806951269400,3.746269287109375,-0.007594585418701172,-0.4687156677246094,-0.7587298154830933
1684114806961309400,3.756309326171875,0.17081093788146973,-0.40895652770996094,-0.9729374647140503
1684114806971349500,3.766349609375,0.32449865341186523,-0.38536548614501953,-1.043348789215088
1684114806981389600,3.7763896484375,0.4131298065185547,-0.3407888412475586,-0.9762606620788574
1684114806991429600,3.7864296875,0.46155524253845215,-0.30682849884033203,-0.8093283176422119
1684114807001470000,3.796469970703125,0.46880650520324707,-0.26971435546875,-0.6418728828430176
1684114807011510000,3.806510009765625,0.5324372053146362,-0.14164066314697266,-0.4598524570465088
1684114807021550000,3.816550048828125,0.6830599308013916,0.026642799377441406,-0.3678016662597656
1684114807031590100,3.826590087890625,0.8332122564315796,0.15367507934570312,-0.3507966995239258
1684114807041630200,3.836630126953125,0.953018069267273,0.32802867889404297,-0.23748278617858887
1684114807051670300,3.846670166015625,0.9879521131515503,0.44211769104003906,-0.15427637100219727
1684114807061710300,3.85671044921875,0.9818499088287354,0.4483346939086914,-0.0884084701538086
1684114807071750400,3.86675048828125,0.900577187538147,0.48259639739990234,0.05088090896606445
1684114807081790500,3.87679052734375,0.8483444452285767,0.5323448181152344,0.25350046157836914
1684114807091830800,3.886830810546875,0.7265033721923828,0.5398454666137695,0.3505871295928955
1684114807101870800,3.896870849609375,0.5400207042694092,0.4432640075683594,0.15730047225952148
1684114807111911000,3.906910888671875,0.25504541397094727,0.32482433319091797,-0.15567588806152344
1684114807121951000,3.916950927734375,0.03484773635864258,0.1570901870727539,-0.5324630737304688
1684114807131991000,3.926990966796875,-0.18633151054382324,-0.0730428695678711,-0.9459030628204346
1684114807142031000,3.937031005859375,-0.31061673164367676,-0.3761281967163086,-1.3726247549057007
1684114807152071200,3.9470712890625,-0.3845844268798828,-0.5647649765014648,-1.6055132150650024
1684114807162111200,3.957111328125,-0.5245528221130371,-0.5611410140991211,-1.6443451642990112
1684114807172151300,3.9671513671875,-0.6008358001708984,-0.46506214141845703,-1.6845372915267944
1684114807182191600,3.977191650390625,-0.363686203956604,-0.31374263763427734,-1.6867111921310425
1684114807192231700,3.987231689453125,-0.04824626445770264,-0.15109825134277344,-1.7138190269470215
1684114807202271700,3.997271728515625,0.050620436668395996,-0.02007770538330078,-1.923596978187561
1684114807212311800,4.007311767578125,0.06632018089294434,0.008305549621582031,-2.0267577171325684
1684114807222352000,4.017351806640625,0.15978503227233887,0.015799522399902344,-1.9138712882995605
1684114807232392000,4.027391845703125,0.3678063154220581,0.16038131713867188,-1.856145977973938
1684114807242432000,4.037431884765625,0.6347975730895996,0.3229990005493164,-1.7218384742736816
1684114807252472000,4.04747216796875,0.9952065348625183,0.4897003173828125,-1.6067062616348267
1684114807262512000,4.05751220703125,1.313469648361206,0.7300319671630859,-1.5382558107376099
1684114807272552400,4.067552490234375,1.4224064350128174,0.9960184097290039,-1.3975269794464111
1684114807282592500,4.077592529296875,1.2871960401535034,1.1965618133544922,-1.2684420347213745
1684114807292632600,4.087632568359375,1.0943729877471924,1.2670669555664062,-1.0990632772445679
1684114807302672600,4.097672607421875,0.8486483097076416,1.1741676330566406,-0.8278040885925293
1684114807312712700,4.107712646484375,0.5028681755065918,0.9873580932617188,-0.6050057411193848
1684114807322752800,4.117752685546875,0.18292272090911865,0.6659774780273438,-0.2700772285461426
1684114807332792800,4.127792724609375,-0.20178091526031494,0.3031272888183594,0.022169828414916992
1684114807342833000,4.1378330078125,-0.5689374208450317,-0.01540374755859375,0.2824411392211914
1684114807352873200,4.147873291015625,-0.9281985759735107,-0.2518320083618164,0.5335257053375244
1684114807362913300,4.157913330078125,-1.2429977655410767,-0.4331855773925781,0.7972095012664795
1684114807372953300,4.167953369140625,-1.4366748332977295,-0.5865373611450195,1.1084537506103516
1684114807382993400,4.177993408203125,-1.3662974834442139,-0.7841949462890625,1.4269497394561768
1684114807393033500,4.188033447265625,-1.0450525283813477,-1.2005128860473633,1.4947378635406494
1684114807403073500,4.198073486328125,-0.5508283376693726,-1.8778142929077148,1.465315341949463
1684114807413113600,4.208113525390625,-0.254378080368042,-2.4021739959716797,1.3035862445831299
1684114807423154000,4.21815380859375,-0.2610567808151245,-2.6634511947631836,1.021869421005249
1684114807433194000,4.228194091796875,-0.4503687620162964,-2.824221611022949,0.875838041305542
1684114807443234000,4.238234130859375,-0.6000028848648071,-2.607534408569336,0.7978672981262207
1684114807453274000,4.248274169921875,-0.9918249249458313,-2.3656044006347656,0.598304271697998
1684114807463314200,4.258314208984375,-1.693157434463501,-2.08498477935791,0.633803129196167
1684114807473354200,4.268354248046875,-2.4051074981689453,-1.2822751998901367,0.9293911457061768
1684114807483394300,4.278394287109375,-2.566854476928711,-0.4599637985229492,0.8480989933013916
1684114807493434400,4.288434326171875,-1.7645490169525146,0.49138641357421875,0.6199376583099365
1684114807503474700,4.298474609375,-0.3457387685775757,1.719304084777832,0.22002410888671875
1684114807513514800,4.3085146484375,0.8730745911598206,2.8419089317321777,0.03804302215576172
1684114807523554800,4.318554931640625,1.4739574193954468,2.979053020477295,0.38950395584106445
1684114807533595000,4.328594970703125,1.3911995887756348,2.4720797538757324,0.6342298984527588
1684114807543635000,4.338635009765625,0.9050168991088867,1.7580838203430176,0.5791416168212891
1684114807553675000,4.348675048828125,0.3835078477859497,0.8972873687744141,0.30741333961486816
1684114807563715000,4.358715087890625,-0.17940038442611694,0.09898757934570312,-0.16180169582366943
1684114807573755100,4.368755126953125,-0.607846736907959,-0.4398612976074219,-0.42743611335754395
1684114807583795500,4.37879541015625,-0.7128960490226746,-0.8628129959106445,-0.3447713851928711
1684114807593835500,4.38883544921875,-0.36102110147476196,-1.0868415832519531,-0.12124109268188477
1684114807603875600,4.39887548828125,0.11111116409301758,-1.107783317565918,-0.016125917434692383
1684114807613915600,4.40891552734375,0.5379319190979004,-0.9952239990234375,0.011354207992553711
1684114807623955700,4.418955810546875,0.8416561484336853,-0.6751194000244141,-0.1337423324584961
1684114807633995800,4.428995849609375,0.9383240342140198,-0.13550472259521484,-0.4158964157104492
1684114807644036000,4.4390361328125,0.8325402736663818,0.20556068420410156,-0.6633378267288208
1684114807654076200,4.449076171875,0.6796906590461731,0.17666149139404297,-0.8226464986801147
1684114807664116200,4.4591162109375,0.5543175935745239,0.23727703094482422,-0.9860089421272278
1684114807674156300,4.46915625,0.4606753885746002,0.4947052001953125,-1.083174705505371
1684114807684196400,4.4791962890625,0.41598039865493774,0.8573579788208008,-1.034516453742981
1684114807694236400,4.489236328125,0.4181477427482605,1.1146535873413086,-1.0487420558929443
1684114807704276500,4.4992763671875,0.4118328392505646,1.2501144409179688,-1.0111515522003174
1684114807714316500,4.509316650390625,0.5015451312065125,1.1780433654785156,-0.9649622440338135
1684114807724356900,4.51935693359375,0.6002967357635498,0.9561786651611328,-0.8533658385276794
1684114807734397000,4.52939697265625,0.7363649606704712,0.6516895294189453,-0.7675346732139587
1684114807744437000,4.53943701171875,0.8948346376419067,0.4081258773803711,-0.7045141458511353
1684114807754477000,4.54947705078125,1.0276938676834106,0.18980884552001953,-0.7458215355873108
1684114807764517000,4.55951708984375,1.1201908588409424,0.10426044464111328,-0.7705128192901611
1684114807774557200,4.56955712890625,1.1689646244049072,0.11058330535888672,-0.8278847932815552
1684114807784597200,4.57959716796875,1.1325424909591675,0.05332660675048828,-0.8833015561103821
1684114807794637600,4.589637451171875,1.0173687934875488,0.09015369415283203,-0.9001150727272034
1684114807804677600,4.599677734375,0.856311559677124,0.13930034637451172,-0.8428480625152588
1684114807814717700,4.6097177734375,0.6901559829711914,0.057036399841308594,-0.8124953508377075
1684114807824757800,4.6197578125,0.4795117974281311,-0.14478397369384766,-0.7735024094581604
1684114807834797800,4.6297978515625,0.2570882737636566,-0.26584529876708984,-0.6780381202697754
1684114807844838000,4.639837890625,-0.043100349605083466,-0.2878713607788086,-0.5949748754501343
1684114807854878000,4.6498779296875,-0.4135211110115051,-0.3000612258911133,-0.5360727906227112
1684114807864918300,4.659918212890625,-0.7274171113967896,-0.3193798065185547,-0.48893219232559204
1684114807874958300,4.669958251953125,-0.9713801145553589,-0.4099740982055664,-0.5432561635971069
1684114807884998400,4.679998291015625,-0.9993456602096558,-0.46834659576416016,-0.6166258454322815
1684114807895038500,4.69003857421875,-0.8137882947921753,-0.5153598785400391,-0.7190567255020142
1684114807905078500,4.70007861328125,-0.47925466299057007,-0.4884328842163086,-0.9315007925033569
1684114807915118600,4.71011865234375,-0.05753558874130249,-0.45441532135009766,-1.0659798383712769
1684114807925159000,4.720158935546875,0.35420313477516174,-0.3966388702392578,-1.0768399238586426
1684114807935199000,4.730198974609375,0.6657469868659973,-0.20307350158691406,-0.9358733892440796
1684114807945239000,4.740239013671875,0.9325671792030334,-0.09868144989013672,-0.7086465358734131
1684114807955279000,4.750279052734375,1.1229970455169678,-0.009275436401367188,-0.497195839881897
1684114807965319200,4.760319091796875,1.3045141696929932,0.019811630249023438,-0.2394278347492218
1684114807975359200,4.770359130859375,1.4307509660720825,-0.01598072052001953,-0.0032478980720043182
1684114807985399600,4.780399658203125,1.4844112396240234,0.1224374771118164,0.2244005650281906
1684114807995439600,4.790439697265625,1.5084311962127686,0.20311927795410156,0.39549189805984497
1684114808005479700,4.800479736328125,1.477523684501648,0.08540630340576172,0.36676663160324097
1684114808015519700,4.810519775390625,1.3937404155731201,0.08266544342041016,0.3789544701576233
1684114808025559800,4.820559814453125,1.2525157928466797,0.0011692047119140625,0.26931822299957275
1684114808035600000,4.830599853515625,1.154811143875122,0.26137256622314453,0.060560647398233414
1684114808045640000,4.840639892578125,1.094834804534912,0.3083477020263672,-0.07342018932104111
1684114808055680000,4.850679931640625,1.0754293203353882,-0.0890045166015625,-0.12846466898918152
1684114808065720300,4.86072021484375,1.0791394710540771,-0.3373250961303711,-0.2931143045425415
1684114808075760400,4.870760498046875,1.0659966468811035,-0.39643192291259766,-0.4010118842124939
1684114808085800400,4.880800537109375,1.0765330791473389,-0.03997039794921875,-0.38576632738113403
1684114808095840500,4.890840576171875,0.9881735444068909,0.10530948638916016,-0.2723512649536133
1684114808105880600,4.900880615234375,0.8695577383041382,0.17840290069580078,-0.2474876195192337
1684114808115920600,4.910920654296875,0.8032625913619995,0.0743255615234375,-0.2504301071166992
1684114808125961000,4.9209609375,0.748429536819458,-0.010708808898925781,-0.15322688221931458
1684114808136001000,4.9310009765625,0.6734640598297119,-0.052906036376953125,-0.02702772617340088
1684114808146041000,4.941041015625,0.6019948720932007,-0.19809627532958984,-0.0472484827041626
1684114808156081200,4.9510810546875,0.5188047885894775,0.20363426208496094,0.245158851146698
1684114808166121200,4.961121337890625,0.44412761926651,0.4896078109741211,0.5262255072593689
1684114808176161300,4.971161376953125,0.3394157290458679,0.49306678771972656,0.6246793866157532
1684114808186201600,4.98120166015625,0.22766360640525818,0.16939067840576172,0.637373685836792
1684114808196241700,4.99124169921875,0.09448173642158508,-0.1606426239013672,0.5223768949508667
1684114808206281700,5.00128173828125,-0.012308329343795776,-0.3108663558959961,0.4041040539741516
1684114808216321800,5.01132177734375,-0.10823160409927368,-0.4680185317993164,0.4464073181152344
1684114808226361900,5.02136181640625,-0.19019782543182373,-0.39556884765625,0.4738309383392334
1684114808236402000,5.03140185546875,-0.26523733139038086,-0.4140491485595703,0.5074052214622498
1684114808246442200,5.041442138671875,-0.3047765791416168,-0.3990621566772461,0.5426920056343079
1684114808256482300,5.051482421875,-0.3066432476043701,-0.3029594421386719,0.5632666349411011
1684114808266522400,5.0615224609375,-0.2929760813713074,-0.19283103942871094,0.6716197729110718
1684114808276562400,5.0715625,-0.2526719868183136,-0.14273738861083984,0.814185380935669
1684114808286602500,5.0816025390625,-0.23480182886123657,0.028873443603515625,0.9266847372055054
1684114808296642600,5.091642578125,-0.16882112622261047,0.15918540954589844,1.05501127243042
1684114808306683000,5.101682861328125,-0.1173313558101654,0.12648677825927734,1.2347975969314575
1684114808316723000,5.111722900390625,-0.0946274995803833,0.27503013610839844,1.4183590412139893
1684114808326763000,5.121762939453125,-0.05517381429672241,0.2031688690185547,1.6078522205352783
1684114808336803000,5.131802978515625,0.010488629341125488,0.1168375015258789,1.8292213678359985
1684114808346843100,5.141843017578125,0.04969412088394165,-0.012533187866210938,2.0172507762908936
1684114808356883200,5.15188330078125,0.0887444019317627,-0.139434814453125,2.162144184112549
1684114808366923300,5.16192333984375,0.14196133613586426,-0.23276424407958984,2.3159732818603516
1684114808376963600,5.171963623046875,0.1787867546081543,-0.3330650329589844,2.4849796295166016
1684114808387003600,5.182003662109375,0.20927786827087402,-0.35900020599365234,2.592073440551758
1684114808397043700,5.192043701171875,0.24959725141525269,-0.33463191986083984,2.692188262939453
1684114808407083800,5.202083740234375,0.24141192436218262,-0.2459707260131836,2.6602046489715576
1684114808417123800,5.212123779296875,0.21457529067993164,-0.14574718475341797,2.701535224914551
1684114808427164200,5.2221640625,0.16759485006332397,0.0688924789428711,2.6850318908691406
1684114808437204200,5.232204345703125,0.07643067836761475,0.2139730453491211,2.5832431316375732
1684114808447244300,5.242244384765625,-0.05276674032211304,0.21095848083496094,2.420269012451172
1684114808457284400,5.252284423828125,-0.1720859706401825,0.20600032806396484,2.194340467453003
1684114808467324400,5.262324462890625,-0.25526177883148193,0.26131725311279297,2.0277462005615234
1684114808477364500,5.272364501953125,-0.2880972623825073,0.17868804931640625,1.858457326889038
1684114808487404800,5.28240478515625,-0.2880406975746155,0.008556365966796875,1.6686197519302368
1684114808497444900,5.29244482421875,-0.2659122049808502,-0.08426952362060547,1.4600567817687988
1684114808507485000,5.30248486328125,-0.23358437418937683,-0.18359375,1.4263285398483276
1684114808517525000,5.31252490234375,-0.16787531971931458,-0.20792388916015625,1.5001615285873413
1684114808527565000,5.32256494140625,-0.06533432006835938,-0.22633838653564453,1.5993585586547852
1684114808537605000,5.332605224609375,0.05313560366630554,-0.20031070709228516,1.6301323175430298
1684114808547645400,5.3426455078125,0.19039452075958252,-0.17296123504638672,1.5584696531295776
1684114808557685500,5.352685546875,0.3301222026348114,-0.20914268493652344,1.3288623094558716
1684114808567725600,5.3627255859375,0.46134960651397705,-0.24944305419921875,1.147078514099121
1684114808577765600,5.372765625,0.569418728351593,-0.2561807632446289,0.8182687759399414
1684114808587805700,5.3828056640625,0.6078792214393616,-0.3471813201904297,0.40790700912475586
1684114808597845800,5.392845703125,0.6388282775878906,-0.6664037704467773,-0.15091466903686523
1684114808607886000,5.402885986328125,0.7001389265060425,-1.2550086975097656,-0.8231720924377441
1684114808617926100,5.412926025390625,0.7459219098091125,-1.872406005859375,-1.5119407176971436
1684114808627966200,5.42296630859375,0.8702479004859924,-2.498462677001953,-2.191469669342041
1684114808638006300,5.43300634765625,1.015697717666626,-2.9649534225463867,-2.961886167526245
1684114808648046300,5.44304638671875,0.848389208316803,-2.7607927322387695,-3.2909395694732666
1684114808658086700,5.453086669921875,0.37830060720443726,-1.847890853881836,-3.1098952293395996
1684114808668126700,5.463126708984375,-0.41829222440719604,-0.3600902557373047,-2.7173867225646973
1684114808678166800,5.473166748046875,-1.3818211555480957,1.0985774993896484,-2.369758129119873
1684114808688206800,5.483206787109375,-2.3862969875335693,2.221494674682617,-2.0229086875915527
1684114808698247000,5.493246826171875,-3.2976279258728027,3.075108528137207,-2.2290072441101074
1684114808708287000,5.503286865234375,-3.975008964538574,2.7669763565063477,-3.2537760734558105
1684114808718327300,5.513327392578125,-4.080818176269531,1.5108985900878906,-3.4250125885009766
1684114808728367400,5.523367431640625,-3.685337543487549,0.194000244140625,-2.815077781677246
1684114808738407400,5.533407470703125,-2.8616912364959717,-0.4319934844970703,-1.6585655212402344
1684114808748447500,5.543447509765625,-1.4196910858154297,-0.4327878952026367,-1.034084677696228
1684114808758487600,5.553487548828125,-0.028565526008605957,-0.1706838607788086,-0.8989605903625488
1684114808768528000,5.56352783203125,0.9998214840888977,0.13723182678222656,-0.8317253589630127
1684114808778568000,5.57356787109375,1.7071030139923096,0.3353080749511719,-0.738991379737854
1684114808788608000,5.58360791015625,2.1065847873687744,0.56231689453125,-0.6126936674118042
1684114808798648000,5.59364794921875,2.255923271179199,0.6431312561035156,-0.5013501644134521
1684114808808688000,5.603688232421875,2.240889072418213,0.536346435546875,-0.33503222465515137
1684114808818728200,5.613728271484375,2.1198623180389404,0.3407144546508789,-0.27829694747924805
1684114808828768500,5.6237685546875,1.842354416847229,0.12723445892333984,-0.38382625579833984
1684114808838808600,5.63380859375,1.452110767364502,-0.07428264617919922,-0.47282326221466064
1684114808848848600,5.6438486328125,0.9720948934555054,-0.3364582061767578,-0.4973597526550293
1684114808858888700,5.653888671875,0.5195821523666382,-0.5931520462036133,-0.5240333080291748
1684114808868928800,5.6639287109375,0.1008448600769043,-0.6231698989868164,-0.4968332052230835
1684114808878968800,5.67396875,-0.11013460159301758,-0.4394693374633789,-0.3368774652481079
1684114808889009200,5.684009033203125,-0.0331578254699707,-0.2980327606201172,-0.13777339458465576
1684114808899049200,5.69404931640625,0.2523740530014038,-0.25098514556884766,-0.1184617280960083
1684114808909089300,5.70408935546875,0.554940938949585,-0.21905994415283203,-0.221574068069458
1684114808919129300,5.71412939453125,0.8194135427474976,-0.013129234313964844,-0.2353116273880005
1684114808929169400,5.72416943359375,1.105130672454834,0.2262725830078125,-0.3253122568130493
1684114808939209700,5.734209716796875,1.3230445384979248,0.49755382537841797,-0.4277670383453369
1684114808949249800,5.744249755859375,1.4235502481460571,0.7009525299072266,-0.46683192253112793
1684114808959289900,5.754289794921875,1.2870678901672363,0.8179006576538086,-0.41083788871765137
1684114808969330000,5.764329833984375,1.0592470169067383,0.9152841567993164,-0.3952348232269287
1684114808979370000,5.774369873046875,0.8436663150787354,1.040283203125,-0.403678297996521
1684114808989410300,5.784410400390625,0.6246594190597534,1.1824712753295898,-0.37626099586486816
1684114808999450400,5.794450439453125,0.37006402015686035,1.2335615158081055,-0.3967655897140503
1684114809009490400,5.804490478515625,0.10167598724365234,1.1621322631835938,-0.4048675298690796
1684114809019530500,5.814530517578125,-0.1504422426223755,1.0397233963012695,-0.28713107109069824
1684114809029570600,5.824570556640625,-0.3050135374069214,0.8877716064453125,-0.0901188850402832
1684114809039611000,5.83461083984375,-0.4084177017211914,0.6896696090698242,0.1083993911743164
1684114809049651000,5.84465087890625,-0.46912121772766113,0.45296382904052734,0.2843932509422302
1684114809059691000,5.85469091796875,-0.5572952032089233,0.19953346252441406,0.42738258838653564
1684114809069731000,5.86473095703125,-0.6870090961456299,-0.0011444091796875,0.5093317031860352
1684114809079771100,5.874771240234375,-0.9660769701004028,-0.27349376678466797,0.6426540017127991
1684114809089811500,5.8848115234375,-1.1340380907058716,-0.5220298767089844,0.7059541940689087
1684114809099851500,5.8948515625,-1.0881171226501465,-0.6488962173461914,0.7416377663612366
1684114809109891600,5.9048916015625,-0.8502286672592163,-0.6634368896484375,0.7492242455482483
1684114809119931600,5.914931640625,-0.5190987586975098,-0.6585330963134766,0.6691080331802368
1684114809129971700,5.9249716796875,-0.31808948516845703,-0.6198043823242188,0.5310320258140564
1684114809140012000,5.935011962890625,-0.2316880226135254,-0.4594545364379883,0.24931520223617554
1684114809150052000,5.945052001953125,-0.18654417991638184,-0.2881450653076172,-0.030627965927124023
1684114809160092200,5.955092041015625,-0.11784839630126953,-0.11556243896484375,-0.25100767612457275
1684114809170132200,5.96513232421875,-0.02410125732421875,0.06551551818847656,-0.45866668224334717
1684114809180172300,5.97517236328125,0.08362722396850586,0.20987224578857422,-0.633277177810669
1684114809190212400,5.98521240234375,0.18738842010498047,0.30593395233154297,-0.7749063968658447
1684114809200252700,5.995252685546875,0.2226940393447876,0.3585977554321289,-0.9313004016876221
1684114809210292700,6.005292724609375,0.24040615558624268,0.3868846893310547,-1.008625864982605
1684114809220332800,6.015332763671875,0.20254838466644287,0.3836479187011719,-1.0238573551177979
1684114809230372900,6.025372802734375,0.17609262466430664,0.40395164489746094,-0.9419306516647339
1684114809240413200,6.0354130859375,0.11118030548095703,0.42626380920410156,-0.7831391096115112
1684114809250453200,6.045453369140625,0.09654736518859863,0.5031328201293945,-0.6034389734268188
1684114809260493300,6.055493408203125,0.0655512809753418,0.5316848754882812,-0.4534112215042114
1684114809270533400,6.065533447265625,0.08546805381774902,0.5215330123901367,-0.287967324256897
1684114809280573400,6.075573486328125,0.11084961891174316,0.49192237854003906,-0.16022944450378418
1684114809290613800,6.08561376953125,0.1459195613861084,0.4669837951660156,-0.05163693428039551
1684114809300653800,6.09565380859375,0.18057847023010254,0.4397697448730469,0.015546798706054688
1684114809310694000,6.10569384765625,0.19038081169128418,0.40331363677978516,0.043459177017211914
1684114809320734000,6.11573388671875,0.160919189453125,0.37445068359375,0.05809223651885986
1684114809330774000,6.12577392578125,0.10685372352600098,0.32212257385253906,0.035265445709228516
1684114809340814300,6.135814453125,0.1266038417816162,0.2774066925048828,0.022324204444885254
1684114809350854400,6.1458544921875,0.18863153457641602,0.3287487030029297,0.01916050910949707
1684114809360894500,6.15589453125,0.3493647575378418,0.43072032928466797,-0.007540464401245117
1684114809370934500,6.1659345703125,0.5286903381347656,0.5022621154785156,-0.06713569164276123
1684114809380974600,6.175974609375,0.6489028930664062,0.5747308731079102,-0.2234126329421997
1684114809391015000,6.186014892578125,0.714012861251831,0.6458883285522461,-0.31552278995513916
1684114809401055000,6.196054931640625,0.664652943611145,0.7085037231445312,-0.3960552215576172
1684114809411095000,6.206094970703125,0.5066941976547241,0.7671689987182617,-0.4506765604019165
1684114809421135000,6.216135009765625,0.29874444007873535,0.7881298065185547,-0.5602271556854248
1684114809431175200,6.226175048828125,0.04673480987548828,0.7878246307373047,-0.6951683759689331
1684114809441215500,6.236215576171875,-0.17705988883972168,0.7899103164672852,-0.8330279588699341
1684114809451255600,6.246255615234375,-0.32730889320373535,0.7870292663574219,-0.9344871044158936
1684114809461295600,6.256295654296875,-0.37090516090393066,0.8388814926147461,-0.9229968786239624
1684114809471335700,6.266335693359375,-0.3562145233154297,0.8498458862304688,-0.8536640405654907
1684114809481375700,6.276375732421875,-0.2789652347564697,0.7771825790405273,-0.7701212167739868
1684114809491416000,6.286416015625,-0.22069525718688965,0.6880826950073242,-0.6778069734573364
1684114809501456100,6.2964560546875,-0.11243915557861328,0.6328563690185547,-0.5580524206161499
1684114809511496200,6.30649609375,0.033226966857910156,0.49944591522216797,-0.4740641117095947
1684114809521536300,6.316536376953125,0.1276710033416748,0.3335294723510742,-0.4645118713378906
1684114809531576300,6.326576416015625,0.21189641952514648,0.14463424682617188,-0.38106822967529297
1684114809541616600,6.33661669921875,0.3884580135345459,-0.01945781707763672,-0.2857578992843628
1684114809551656700,6.34665673828125,0.6203410625457764,-0.2207355499267578,-0.23349010944366455
1684114809561696800,6.35669677734375,0.8504377603530884,-0.5923967361450195,-0.22932100296020508
1684114809571736800,6.36673681640625,0.9066673517227173,-1.0809507369995117,-0.35485053062438965
1684114809581777000,6.37677685546875,0.669876217842102,-1.6665563583374023,-0.5003460645675659
1684114809591817200,6.386817138671875,0.07276618480682373,-2.298799514770508,-0.775802731513977
1684114809601857300,6.396857177734375,-0.8996506929397583,-2.725595474243164,-1.026449203491211
1684114809611897300,6.4068974609375,-2.3418800830841064,-2.7066030502319336,-1.0087977647781372
1684114809621937400,6.4169375,-3.5759928226470947,-2.1334028244018555,-0.38481855392456055
1684114809631977700,6.426977783203125,-3.720810890197754,-1.1630239486694336,0.608311653137207
1684114809642017800,6.437017822265625,-2.7790565490722656,-0.24130725860595703,1.292872667312622
1684114809652057900,6.447057861328125,-1.3922849893569946,0.46914100646972656,1.507961392402649
1684114809662098000,6.457097900390625,-0.03022897243499756,0.9777374267578125,1.4999167919158936
1684114809672138000,6.467137939453125,0.9583619236946106,1.2552709579467773,1.3977031707763672
1684114809682178300,6.47717822265625,1.5936630964279175,1.346078872680664,1.1232094764709473
1684114809692218400,6.48721826171875,1.8818776607513428,1.2553997039794922,0.7049683332443237
1684114809702258400,6.497258544921875,2.006289482116699,1.1000385284423828,0.16226482391357422
1684114809712298500,6.507298583984375,2.035938262939453,0.8963165283203125,-0.39909303188323975
1684114809722338600,6.517338623046875,1.979480266571045,0.6651802062988281,-0.9682719707489014
1684114809732379000,6.52737890625,1.7724517583847046,0.43937110900878906,-1.3773126602172852
1684114809742419000,6.5374189453125,1.4500792026519775,0.19199275970458984,-1.6063120365142822
1684114809752459000,6.547458984375,1.0200382471084595,-0.041431427001953125,-1.6493771076202393
1684114809762499000,6.5574990234375,0.5199658870697021,-0.23478984832763672,-1.4043214321136475
1684114809772539400,6.567539306640625,0.07226479053497314,-0.3022794723510742,-1.0250236988067627
1684114809782579500,6.577579345703125,-0.2653083801269531,-0.2944784164428711,-0.5804622173309326
1684114809792619500,6.58761962890625,-0.45294052362442017,-0.11854743957519531,-0.18616986274719238
1684114809802659600,6.59765966796875,-0.4232834577560425,0.11534690856933594,0.0767984390258789
1684114809812699600,6.60769970703125,-0.1566246747970581,0.2427215576171875,0.1755692958831787
1684114809822740000,6.617739990234375,0.2492651343345642,0.2380657196044922,0.1615692377090454
1684114809832780000,6.627780029296875,0.6562466621398926,0.17142200469970703,0.12895596027374268
1684114809842820000,6.637820068359375,1.0073986053466797,0.18181896209716797,0.0778341293334961
1684114809852860200,6.647860107421875,1.1806235313415527,0.15923786163330078,-0.020678997039794922
1684114809862900200,6.657900146484375,1.1557503938674927,0.19657516479492188,-0.0854027271270752
1684114809872940500,6.6679404296875,1.0542640686035156,0.29817676544189453,-0.1048276424407959
1684114809882980600,6.677980712890625,0.9879370927810669,0.37548160552978516,-0.041251420974731445
1684114809893020700,6.688020751953125,0.9838569164276123,0.36896610260009766,-0.016631364822387695
1684114809903060700,6.698060791015625,0.9150123596191406,0.2957019805908203,0.0026857852935791016
1684114809913101000,6.70810107421875,0.7444879412651062,0.17033767700195312,0.004300832748413086
1684114809923141000,6.71814111328125,0.4854021966457367,0.012032508850097656,0.03352761268615723
1684114809933181200,6.72818115234375,0.22147789597511292,-0.08374404907226562,0.05681157112121582
1684114809943221200,6.73822119140625,0.007937639951705933,-0.1340503692626953,0.1054689884185791
1684114809953261300,6.74826123046875,-0.16784805059432983,-0.11752891540527344,0.09100151062011719
1684114809963301600,6.758301513671875,-0.2599553167819977,-0.08214950561523438,0.06162691116333008
1684114809973341700,6.768341796875,-0.24933886528015137,-0.051910400390625,0.04892611503601074
1684114809983381800,6.7783818359375,-0.14608070254325867,-0.019618988037109375,0.08168601989746094
1684114809993421800,6.788421875,0.017823994159698486,-0.013948440551757812,0.1242372989654541
1684114810003462100,6.798462158203125,0.22229760885238647,-0.02756786346435547,0.13813352584838867
1684114810013502200,6.808502197265625,0.41115760803222656,-0.03882408142089844,0.14943885803222656
1684114810023542300,6.818542236328125,0.5758262872695923,-0.045271873474121094,0.15806841850280762
1684114810033582300,6.828582275390625,0.6626023054122925,0.024745941162109375,0.10670757293701172
1684114810043622400,6.838622314453125,0.6924639940261841,0.03976726531982422,0.10029149055480957
1684114810053662700,6.848662841796875,0.6558495759963989,0.08593368530273438,0.07405424118041992
1684114810063702800,6.858702880859375,0.5844901204109192,0.12732601165771484,0.037598371505737305
1684114810073742800,6.868742919921875,0.4890838861465454,0.05882072448730469,-0.03275156021118164
1684114810083783000,6.878782958984375,0.4064673185348511,0.004874229431152344,-0.04381299018859863
1684114810093823200,6.8888232421875,0.33480873703956604,-0.02264881134033203,-0.06718015670776367
1684114810103863300,6.89886328125,0.31008100509643555,-0.0023164749145507812,-0.07414555549621582
1684114810113903400,6.9089033203125,0.30145981907844543,-0.013078689575195312,-0.07655668258666992
1684114810123943400,6.918943359375,0.32568252086639404,-0.007054328918457031,-0.05780911445617676
1684114810133983500,6.9289833984375,0.36090004444122314,-0.0225067138671875,-0.056090593338012695
1684114810144023800,6.93902392578125,0.3871212601661682,-0.009293556213378906,-0.08066582679748535
1684114810154064000,6.94906396484375,0.3990679979324341,-0.03907203674316406,-0.06244182586669922
1684114810164104000,6.95910400390625,0.4107983708381653,-0.023365020751953125,-0.0541231632232666
1684114810174144000,6.96914404296875,0.4153258204460144,-0.04107666015625,-0.022307157516479492
1684114810184184300,6.979184326171875,0.41576188802719116,-0.03715705871582031,-0.026858091354370117
1684114810194224400,6.989224365234375,0.4343300461769104,-0.006827354431152344,0.020519018173217773
1684114810204264400,6.999264404296875,0.4950888156890869,-0.012307167053222656,-0.006566286087036133
1684114810214304500,7.009304443359375,0.5619930624961853,-0.0009517669677734375,-0.010071754455566406
1684114810224344600,7.019344482421875,0.6032648682594299,-0.018110275268554688,-0.05483746528625488
1684114810234385000,7.029385009765625,0.6515706181526184,-0.023204803466796875,-0.07121562957763672
1684114810244425000,7.039425048828125,0.6396344900131226,-0.006816864013671875,-0.11145806312561035
1684114810254465000,7.049465087890625,0.6583415269851685,0.0023069381713867188,-0.11806869506835938
1684114810264505000,7.059505126953125,0.6107050776481628,0.03478050231933594,-0.07117080688476562
1684114810274545400,7.06954541015625,0.540739893913269,0.06669044494628906,-0.02739119529724121
1684114810284585500,7.07958544921875,0.5341613292694092,0.11219215393066406,0.008626461029052734
1684114810294625500,7.08962548828125,0.5500907897949219,0.15464115142822266,0.05095052719116211
1684114810304665600,7.09966552734375,0.5809026956558228,0.18941020965576172,0.016948461532592773
1684114810314706000,7.109705810546875,0.616368293762207,0.2236642837524414,-0.00025153160095214844
1684114810324746000,7.11974609375,0.6442217826843262,0.23848819732666016,-0.02183675765991211
1684114810334786000,7.1297861328125,0.6386252641677856,0.24359607696533203,-0.0005671977996826172
1684114810344826000,7.139826171875,0.6496797204017639,0.2249774932861328,-0.012289285659790039
1684114810354866200,7.1498662109375,0.6088230609893799,0.17600536346435547,0.05639910697937012
1684114810364906500,7.159906494140625,0.5923609733581543,0.08782768249511719,0.09330892562866211
1684114810374946600,7.169946533203125,0.5903692841529846,0.015193939208984375,0.11091017723083496
1684114810384986600,7.179986572265625,0.5576580762863159,-0.060962677001953125,0.11879873275756836
1684114810395027000,7.19002685546875,0.5252813100814819,-0.1429309844970703,0.11945438385009766
1684114810405067000,7.20006689453125,0.5027055144309998,-0.17412185668945312,0.06595849990844727
1684114810415107000,7.210107177734375,0.48524367809295654,-0.1505603790283203,0.07652640342712402
1684114810425147100,7.220147216796875,0.4655071496963501,-0.082611083984375,0.0606989860534668
1684114810435187200,7.230187255859375,0.41987746953964233,-0.039305686950683594,0.08489060401916504
1684114810445227500,7.2402275390625,0.35353654623031616,-0.010790824890136719,0.0753641128540039
1684114810455267600,7.250267578125,0.271537721157074,0.010256767272949219,0.08910918235778809
1684114810465307600,7.2603076171875,0.18161004781723022,0.009888648986816406,0.10446929931640625
1684114810475347700,7.27034765625,0.1129876971244812,-0.05623626708984375,0.07681012153625488
1684114810485388000,7.280387939453125,0.05176597833633423,-0.09992122650146484,0.08943414688110352
1684114810495428000,7.290427978515625,0.026690244674682617,-0.1003274917602539,0.1017613410949707
1684114810505468200,7.30046826171875,0.05353635549545288,-0.10294246673583984,0.06919288635253906
1684114810515508200,7.31050830078125,0.08168172836303711,-0.10303688049316406,0.039524078369140625
1684114810525548500,7.320548583984375,0.13640910387039185,-0.055884361267089844,0.031240463256835938
1684114810535588600,7.330588623046875,0.1839427947998047,-0.0022983551025390625,-0.0008437633514404297
1684114810545628700,7.340628662109375,0.2500113248825073,-0.005997657775878906,-0.0703427791595459
1684114810555668700,7.350668701171875,0.32239073514938354,-0.030782699584960938,-0.12227272987365723
1684114810565709000,7.360708984375,0.3585713505744934,-0.008078575134277344,-0.14496254920959473
1684114810575749000,7.3707490234375,0.398746132850647,0.021240234375,-0.18821358680725098
1684114810585789200,7.3807890625,0.39547574520111084,0.026439666748046875,-0.19519901275634766
1684114810595829200,7.390829345703125,0.39157211780548096,0.05501842498779297,-0.20432066917419434
1684114810605869300,7.400869384765625,0.33037251234054565,0.097137451171875,-0.21077656745910645
1684114810615909600,7.41090966796875,0.27619469165802,0.10781002044677734,-0.1957085132598877
1684114810625949700,7.42094970703125,0.18900132179260254,0.09926509857177734,-0.18273282051086426
1684114810635989800,7.43098974609375,0.11207747459411621,0.1000986099243164,-0.1576824188232422
1684114810646029800,7.44102978515625,0.020145833492279053,0.12435436248779297,-0.1137382984161377
1684114810656070100,7.451070068359375,-0.038439929485321045,0.11754131317138672,-0.11227583885192871
1684114810666110200,7.461110107421875,-0.06587260961532593,0.08731269836425781,-0.07496523857116699
1684114810676150300,7.471150390625,-0.02767503261566162,-0.0035886764526367188,-0.033171653747558594
1684114810686190600,7.481190673828125,0.02464371919631958,-0.10006999969482422,0.003538846969604492
1684114810696230700,7.491230712890625,0.047438204288482666,-0.1950387954711914,0.06578254699707031
1684114810706270700,7.501270751953125,0.04773074388504028,-0.23914337158203125,0.1484994888305664
1684114810716310800,7.511310791015625,-0.004465758800506592,-0.2425384521484375,0.2345123291015625
1684114810726351000,7.52135107421875,-0.05334031581878662,-0.23870372772216797,0.34222984313964844
1684114810736391200,7.53139111328125,-0.10778969526290894,-0.19935226440429688,0.36490678787231445
1684114810746431200,7.54143115234375,-0.1270098090171814,-0.17676544189453125,0.3508472442626953
1684114810756471300,7.55147119140625,-0.1421225666999817,-0.12593460083007812,0.2841818332672119
1684114810766511400,7.561511474609375,-0.12759089469909668,-0.09682941436767578,0.1518092155456543
1684114810776551700,7.5715517578125,-0.08188796043395996,-0.016214370727539062,0.03752470016479492
1684114810786591700,7.581591796875,-0.038823604583740234,0.05135345458984375,-0.03969550132751465
1684114810796631800,7.5916318359375,0.05573505163192749,0.05885028839111328,-0.0680689811706543
1684114810806672000,7.601671875,0.11395424604415894,0.0614166259765625,-0.08366250991821289
1684114810816712200,7.611712158203125,0.16697216033935547,0.04969310760498047,-0.04422903060913086
1684114810826752300,7.621752197265625,0.21926701068878174,0.023865699768066406,0.0070438385009765625
1684114810836792300,7.631792236328125,0.23484963178634644,-0.02056598663330078,0.0581202507019043
1684114810846832400,7.641832275390625,0.2469627857208252,-0.012598991394042969,0.13216209411621094
1684114810856872700,7.651872802734375,0.22518742084503174,0.011702537536621094,0.14594411849975586
1684114810866912800,7.661912841796875,0.18950963020324707,0.0239410400390625,0.156630277633667
1684114810876952800,7.671952880859375,0.14335894584655762,0.010300636291503906,0.0769798755645752
1684114810886993000,7.681992919921875,0.1065758466720581,-0.028829574584960938,-0.013417243957519531
1684114810897033200,7.692033203125,0.11962783336639404,-0.015254020690917969,-0.07923674583435059
1684114810907073300,7.7020732421875,0.13292020559310913,0.019571304321289062,-0.12084126472473145
1684114810917113300,7.71211328125,0.21055811643600464,0.03528404235839844,-0.19742822647094727
1684114810927153700,7.722153564453125,0.2975279688835144,0.02986431121826172,-0.28729724884033203
1684114810937193700,7.73219384765625,0.40998727083206177,0.022466659545898438,-0.36194300651550293
1684114810947233800,7.74223388671875,0.5018643736839294,0.045989990234375,-0.421553373336792
1684114810957273900,7.75227392578125,0.5747489333152771,0.0927581787109375,-0.48276686668395996
1684114810967314200,7.762314208984375,0.6585013270378113,0.13403701782226562,-0.5313136577606201
1684114810977354200,7.772354248046875,0.7100423574447632,0.16272449493408203,-0.5622611045837402
1684114810987394300,7.782394287109375,0.7392282485961914,0.18130207061767578,-0.5214390754699707
1684114810997434400,7.792434326171875,0.7819039225578308,0.15678882598876953,-0.48454833030700684
1684114811007474700,7.802474609375,0.7816839814186096,0.17913341522216797,-0.3210446834564209
1684114811017514800,7.8125146484375,0.770173192024231,0.08995628356933594,-0.07355475425720215
1684114811027554800,7.822554931640625,0.7519583702087402,-0.009813308715820312,0.10734391212463379
1684114811037595000,7.832594970703125,0.7593312859535217,-0.03292274475097656,0.2603883743286133
1684114811047635000,7.842635009765625,0.722876787185669,-0.06067371368408203,0.43057894706726074
1684114811057675300,7.85267529296875,0.6688926815986633,-0.09734821319580078,0.5149827003479004
1684114811067715300,7.86271533203125,0.5979309678077698,-0.10006427764892578,0.5442557334899902
1684114811077755400,7.87275537109375,0.5321303606033325,-0.019837379455566406,0.43187737464904785
1684114811087795500,7.88279541015625,0.46516484022140503,0.06180381774902344,0.24431276321411133
1684114811097835800,7.892835693359375,0.4097442626953125,0.11631107330322266,0.05469250679016113
1684114811107875800,7.902875732421875,0.3686431646347046,0.15102481842041016,-0.112640380859375
1684114811117916000,7.912916015625,0.34590086340904236,0.18036270141601562,-0.1661999225616455
1684114811127956200,7.922956298828125,0.31687459349632263,0.29149341583251953,-0.2232801914215088
1684114811137996300,7.932996337890625,0.26692327857017517,0.3463897705078125,-0.23633813858032227
1684114811148036400,7.943036376953125,0.1983684003353119,0.39541053771972656,-0.1919546127319336
1684114811158076400,7.953076416015625,0.15127602219581604,0.4196920394897461,-0.10708808898925781
1684114811168116700,7.96311669921875,0.08996674418449402,0.29472923278808594,-0.0500795841217041
1684114811178156800,7.97315673828125,0.012538909912109375,0.013545036315917969,0.062134742736816406
1684114811188196900,7.98319677734375,-0.054695382714271545,-0.2965545654296875,0.17950677871704102
1684114811198237000,7.99323681640625,-0.07775473594665527,-0.5690059661865234,0.32723569869995117
1684114811208277200,8.00327734375,-0.08817565441131592,-0.7430381774902344,0.4617956876754761
1684114811218317300,8.0133173828125,-0.053616963326931,-0.7400188446044922,0.5824753046035767
1684114811228357400,8.023357421875,0.01937830075621605,-0.501373291015625,0.6904551982879639
1684114811238397400,8.0333974609375,0.13496795296669006,-0.3086118698120117,0.67182457447052
1684114811248437800,8.043437744140626,0.30326083302497864,-0.2787179946899414,0.5921386480331421
1684114811258477800,8.053477783203125,0.481250524520874,-0.29125499725341797,0.5369083881378174
1684114811268518000,8.063517822265625,0.616692841053009,-0.27702903747558594,0.4718993902206421
1684114811278558000,8.073557861328124,0.715426504611969,-0.23632526397705078,0.3402438163757324
1684114811288598300,8.083598388671875,0.7418393492698669,-0.14598464965820312,0.2041645050048828
1684114811298638300,8.093638427734374,0.7179146409034729,0.047080039978027344,-0.003472566604614258
1684114811308678400,8.103678466796875,0.6324621438980103,0.2939939498901367,-0.05502176284790039
1684114811318718700,8.11371875,0.5334345102310181,0.5304603576660156,-0.14908838272094727
1684114811328758800,8.1237587890625,0.3975831866264343,0.6813192367553711,-0.2896230220794678
1684114811338798800,8.133798828125,0.24469676613807678,0.7430400848388672,-0.5054223537445068
1684114811348839000,8.1438388671875,0.08966031670570374,0.46250343322753906,-0.9020273685455322
1684114811358879200,8.153879150390624,-0.120658278465271,0.5640544891357422,-1.0758471488952637
1684114811368919300,8.163919189453125,-0.3430040776729584,0.4999055862426758,-1.3710355758666992
1684114811378959400,8.17395947265625,-0.5403556823730469,0.2650642395019531,-1.5678470134735107
1684114811388999400,8.18399951171875,-0.6741195321083069,0.22011089324951172,-1.6012654304504395
1684114811399039700,8.194039794921874,-0.6565470695495605,0.28565502166748047,-1.3389854431152344
1684114811409079800,8.204079833984375,-0.4496639370918274,0.6316595077514648,-0.754652738571167
1684114811419119900,8.214119873046876,-0.06252914667129517,1.2886953353881836,-0.24164605140686035
1684114811429160000,8.224159912109375,0.44636788964271545,0.8180770874023438,-0.20111441612243652
1684114811439200300,8.2342001953125,0.8601427674293518,0.3815298080444336,-0.026996612548828125
1684114811449240300,8.244240234375,1.2075923681259155,0.18473529815673828,0.10546660423278809
1684114811459280400,8.2542802734375,1.490027666091919,0.23191165924072266,0.1947321891784668
1684114811469320400,8.264320556640625,1.6661056280136108,0.3220844268798828,0.33863091468811035
1684114811479360800,8.27436083984375,1.7587816715240479,0.3026599884033203,0.33114051818847656
1684114811489400800,8.28440087890625,1.7503111362457275,0.23381900787353516,0.22304153442382812
1684114811499441000,8.29444091796875,1.6018022298812866,0.2520875930786133,0.09790301322937012
1684114811509481200,8.304481201171875,1.3208171129226685,0.3289022445678711,-0.014162778854370117
1684114811519521300,8.314521240234376,0.9522244930267334,0.3759145736694336,-0.2028977870941162
1684114811529561300,8.324561279296875,0.46586698293685913,0.3596029281616211,-0.4833667278289795
1684114811539601400,8.334601318359375,-0.06469976902008057,0.2532463073730469,-0.7235946655273438
1684114811549641700,8.344641845703125,-0.6522235870361328,0.08751201629638672,-0.9019012451171875
1684114811559681800,8.354681884765625,-1.1392112970352173,-0.13080787658691406,-0.8910211324691772
1684114811569721900,8.364721923828125,-1.4690351486206055,-0.34702014923095703,-0.7040547132492065
1684114811579762000,8.374761962890625,-1.621408224105835,-0.32477664947509766,-0.2674921751022339
1684114811589802200,8.38480224609375,-1.5847569704055786,-0.2601747512817383,0.2646603584289551
1684114811599842300,8.39484228515625,-1.4758108854293823,-0.3103046417236328,0.8063706159591675
1684114811609882400,8.40488232421875,-1.4064853191375732,-0.4337577819824219,1.2804555892944336
1684114811619922700,8.414922607421875,-1.4264426231384277,-0.5322685241699219,1.6361029148101807
1684114811629962800,8.424962646484374,-1.473805546760559,-0.6322307586669922,1.8582438230514526
1684114811640002000,8.435001953125,-1.5697938203811646,-0.7624073028564453,1.9050990343093872
1684114811650042400,8.44504248046875,-1.5595606565475464,-0.9372549057006836,1.7312380075454712
1684114811660082400,8.45508251953125,-1.504725694656372,-1.049452781677246,1.4430034160614014
1684114811670122500,8.46512255859375,-1.420634388923645,-1.070652961730957,1.0877156257629395
1684114811680162600,8.47516259765625,-1.2944068908691406,-1.0606117248535156,0.7374725341796875
1684114811690203000,8.485202880859376,-1.2819247245788574,-0.9451513290405273,0.36050117015838623
1684114811700243000,8.495242919921875,-1.3504997491836548,-0.6865081787109375,-0.08870279788970947
1684114811710283000,8.505282958984376,-1.528491497039795,-0.1278848648071289,-0.5164647102355957
1684114811720323300,8.5153232421875,-1.7453421354293823,0.43082523345947266,-0.7407897710800171
1684114811730363400,8.52536328125,-1.9356549978256226,0.871943473815918,-0.8854653835296631
1684114811740403500,8.535403564453125,-2.009798049926758,1.1546669006347656,-0.9109364748001099
1684114811750443500,8.545443603515626,-1.9217352867126465,1.2436504364013672,-0.8144626617431641
1684114811760483800,8.55548388671875,-1.6369775533676147,1.1901054382324219,-0.5562176704406738
1684114811770524000,8.56552392578125,-1.257445216178894,1.0760421752929688,-0.30566585063934326
1684114811780564000,8.57556396484375,-0.8076558113098145,0.8780307769775391,0.007291674613952637
1684114811790604000,8.58560400390625,-0.3507615327835083,0.6751794815063477,0.3564565181732178
1684114811800644400,8.595644287109375,0.03298377990722656,0.45541954040527344,0.6172579526901245
1684114811810684400,8.605684326171875,0.3412705659866333,0.24960803985595703,0.836586594581604
1684114811820724500,8.615724365234374,0.6093330383300781,0.19592666625976562,1.069288969039917
1684114811830764800,8.625764892578125,0.8318519592285156,0.20813560485839844,1.2386127710342407
1684114811840804900,8.635804931640624,1.02073073387146,0.2606010437011719,1.3188982009887695
1684114811850845000,8.645844970703125,1.1471844911575317,0.3636655807495117,1.3440765142440796
1684114811860885200,8.65588525390625,1.2119331359863281,0.49387168884277344,1.2870149612426758
1684114811870925300,8.66592529296875,1.1780014038085938,0.5511722564697266,1.140405297279358
1684114811880965400,8.67596533203125,0.99271559715271,0.49047088623046875,0.9926551580429077
1684114811891005400,8.68600537109375,0.6593694090843201,0.32157039642333984,0.762266993522644
1684114811901045800,8.696045654296874,0.2100311517715454,0.17346572875976562,0.5429391860961914
1684114811911085800,8.7060859375,-0.27504098415374756,0.14840984344482422,0.3829994201660156
1684114811921126000,8.7161259765625,-0.7297259569168091,0.15009593963623047,0.1898508071899414
1684114811931166000,8.726166015625,-1.1445324420928955,0.13955307006835938,0.06974053382873535
1684114811941206300,8.736206298828124,-1.4570292234420776,0.15935897827148438,0.05822277069091797
1684114811951246300,8.746246337890625,-1.6245768070220947,0.1686077117919922,0.1164102554321289
1684114811961286400,8.756286376953126,-1.6749153137207031,0.09802722930908203,0.14819598197937012
1684114811971326700,8.76632666015625,-1.5582321882247925,0.04117870330810547,0.26763367652893066
1684114811981366800,8.77636669921875,-1.3457659482955933,-0.05420398712158203,0.35016751289367676
1684114811991406800,8.78640673828125,-1.1632481813430786,-0.1545877456665039,0.4276902675628662
1684114812001447000,8.796447021484376,-0.9374204874038696,-0.13341999053955078,0.44585537910461426
1684114812011487200,8.8064873046875,-0.7782195806503296,-0.19612693786621094,0.5614945888519287
1684114812021527300,8.81652734375,-0.6443173885345459,-0.22984886169433594,0.6724402904510498
1684114812031567400,8.8265673828125,-0.5378721952438354,-0.1962289810180664,0.7111368179321289
1684114812041607700,8.836607666015626,-0.42109739780426025,-0.12411689758300781,0.7426683902740479
1684114812051647700,8.846647705078125,-0.3590734004974365,-0.08537483215332031,0.7152559757232666
1684114812061687800,8.856687744140626,-0.354508638381958,-0.10127639770507812,0.7458703517913818
1684114812071727900,8.866727783203125,-0.38348400592803955,-0.1928243637084961,0.8118147850036621
1684114812081768200,8.876768310546876,-0.4935368299484253,-0.2210102081298828,0.8141148090362549
1684114812091808300,8.886808349609375,-0.5767728090286255,-0.13847637176513672,0.734628438949585
1684114812101848300,8.896848388671875,-0.6664971113204956,-0.07002925872802734,0.7370545864105225
1684114812111888600,8.906888671875,-0.7130484580993652,-0.03221416473388672,0.7541193962097168
1684114812121928700,8.9169287109375,-0.7454798221588135,0.04931068420410156,0.7708413600921631
1684114812131968800,8.92696875,-0.7325751781463623,0.1361856460571289,0.7276210784912109
1684114812142008800,8.9370087890625,-0.6956674456596375,0.19019317626953125,0.8203451633453369
1684114812152049200,8.947049072265624,-0.6110194325447083,0.27121639251708984,0.8119845390319824
1684114812162089200,8.957089111328125,-0.48656439781188965,0.25519847869873047,0.8027217388153076
1684114812172129300,8.96712939453125,-0.2930406332015991,0.1616506576538086,0.7567329406738281
1684114812182169600,8.977169677734375,-0.1946392059326172,0.0863332748413086,0.7126333713531494
1684114812192209700,8.987209716796874,-0.17816799879074097,0.036182403564453125,0.6020152568817139
1684114812202249700,8.997249755859375,-0.20565831661224365,-0.027284622192382812,0.5498332977294922
1684114812212290000,9.0072900390625,-0.1592111587524414,-0.1474294662475586,0.466050386428833
1684114812222330000,9.017330078125,-0.07707345485687256,-0.1547689437866211,0.5583279132843018
1684114812232370200,9.0273701171875,0.0428546667098999,-0.19278430938720703,0.6628763675689697
1684114812242410200,9.03741015625,0.17491286993026733,-0.1012582778930664,0.71932053565979
1684114812252450600,9.047450439453126,0.16800656914710999,-0.12403106689453125,0.7085611820220947
1684114812262490600,9.05749072265625,0.0468100905418396,-0.2556772232055664,0.5224215984344482
1684114812272530700,9.06753076171875,-0.17740106582641602,-0.4553537368774414,0.1260519027709961
1684114812282570800,9.07757080078125,-0.5988688468933105,-0.7354145050048828,-0.23939752578735352
1684114812292611000,9.087611083984376,-1.1024880409240723,-0.7434978485107422,-0.599090576171875
1684114812302651100,9.097651123046875,-1.4465874433517456,-0.419464111328125,-0.9232606887817383
1684114812312691200,9.107691162109376,-1.5681686401367188,-0.15108394622802734,-0.9901180267333984
1684114812322731500,9.1177314453125,-1.3084896802902222,-0.05694770812988281,-0.9147472381591797
1684114812332771600,9.127771484375,-0.8672690987586975,-0.047812461853027344,-0.7963943481445312
1684114812342811600,9.137811767578125,-0.45455050468444824,0.013115882873535156,-0.6193630695343018
1684114812352852000,9.14785205078125,-0.10612456500530243,0.06892013549804688,-0.330228328704834
1684114812362892000,9.15789208984375,0.09934327006340027,0.13165664672851562,0.017982959747314453
1684114812372932000,9.16793212890625,0.23397448658943176,0.26581573486328125,0.46318554878234863
1684114812382972200,9.17797216796875,0.3755333125591278,0.42369937896728516,0.9015533924102783
1684114812393012500,9.188012451171875,0.5366004109382629,0.4647045135498047,1.3175336122512817
1684114812403052500,9.198052490234375,0.6504707932472229,0.5086441040039062,1.6295959949493408
1684114812413092600,9.208092529296875,0.6973198056221008,0.4458732604980469,1.8491852283477783
1684114812423132700,9.218132568359374,0.6472212076187134,0.26496219635009766,1.9111145734786987
1684114812433173000,9.228173095703125,0.44911855459213257,0.13799476623535156,1.8090003728866577
1684114812443213000,9.238213134765624,0.17579033970832825,0.021500587463378906,1.596777319908142
1684114812453253400,9.24825341796875,-0.1524650752544403,-0.14208602905273438,1.3229707479476929
1684114812463293400,9.25829345703125,-0.472802996635437,-0.25009918212890625,0.954537034034729
1684114812473333500,9.26833349609375,-0.7152763605117798,-0.226348876953125,0.5422050952911377
1684114812483373600,9.27837353515625,-0.8132117986679077,-0.0785837173461914,0.1734483242034912
1684114812493414000,9.288413818359375,-0.736717700958252,0.0827484130859375,-0.12141942977905273
1684114812503454000,9.298453857421874,-0.5371042490005493,0.19778919219970703,-0.33197021484375
1684114812513494000,9.308493896484375,-0.1987099051475525,0.25209617614746094,-0.5002462863922119
1684114812523534000,9.3185341796875,0.22019067406654358,0.17159080505371094,-0.6018970012664795
1684114812533574400,9.328574462890625,0.629389226436615,0.1999969482421875,-0.6893513202667236
1684114812543614500,9.338614501953124,0.965847373008728,0.19362449645996094,-0.6599538326263428
1684114812553654500,9.348654541015625,1.2509565353393555,0.059304237365722656,-0.6072025299072266
1684114812563694800,9.35869482421875,1.4120826721191406,-0.13595199584960938,-0.5451679229736328
1684114812573735000,9.36873486328125,1.464024543762207,-0.36591243743896484,-0.4972391128540039
1684114812583775000,9.37877490234375,1.4102864265441895,-0.5685091018676758,-0.42249512672424316
1684114812593815300,9.388815185546875,1.2876192331314087,-0.6626081466674805,-0.34271788597106934
1684114812603855400,9.39885546875,1.1394381523132324,-0.6365346908569336,-0.2319774627685547
1684114812613895400,9.4088955078125,0.882688581943512,-0.526188850402832,-0.0842902660369873
1684114812623935500,9.418935546875,0.5897378921508789,-0.27185916900634766,0.08487510681152344
1684114812633975800,9.428975830078125,0.3261539936065674,-0.06227588653564453,0.2385878562927246
1684114812644015900,9.439015869140626,0.06115597486495972,0.07933425903320312,0.42102980613708496
1684114812654056000,9.449055908203125,-0.15357685089111328,0.101348876953125,0.6022484302520752
1684114812664096300,9.45909619140625,-0.35516059398651123,-0.08139228820800781,0.7057007551193237
1684114812674136300,9.46913623046875,-0.49831342697143555,-0.4942283630371094,0.8317908048629761
1684114812684176400,9.47917626953125,-0.6192529797554016,-0.9547452926635742,0.9270889759063721
1684114812694216700,9.489216796875,-0.7282831072807312,-1.2863788604736328,1.0610079765319824
1684114812704256800,9.4992568359375,-0.9294031262397766,-1.394571304321289,1.2343567609786987
1684114812714296800,9.509296875,-1.168452262878418,-1.2965574264526367,1.5134588479995728
1684114812724337000,9.5193369140625,-1.455194115638733,-1.0707902908325195,1.8062467575073242
1684114812734377200,9.529377197265624,-1.5976054668426514,-0.7619247436523438,1.9381859302520752
1684114812744417300,9.539417236328125,-1.5562231540679932,-0.4152240753173828,1.93009352684021
1684114812754457600,9.54945751953125,-1.332316279411316,-0.1911144256591797,2.007791042327881
1684114812764497700,9.55949755859375,-0.9493436217308044,-0.06114387512207031,2.141537666320801
1684114812774537700,9.569537841796874,-0.5847150683403015,-0.0018949508666992188,2.3441569805145264
1684114812784577800,9.579577880859375,-0.2371336817741394,0.012167930603027344,2.493471384048462
1684114812794618000,9.5896181640625,0.06860023736953735,-0.0361175537109375,2.6799631118774414
1684114812804658200,9.599658203125,0.3615416884422302,-0.12517929077148438,2.8668973445892334
1684114812814698200,9.6096982421875,0.6014519333839417,-0.2643098831176758,3.0369462966918945
1684114812824738600,9.619738525390625,0.789027750492096,-0.46529483795166016,3.068744421005249
1684114812834778600,9.629778564453124,0.894130289554596,-0.6397294998168945,3.013848304748535
1684114812844818700,9.639818603515625,0.9650083780288696,-0.7853126525878906,2.9401609897613525
1684114812854859000,9.64985888671875,0.9313344955444336,-0.8065729141235352,2.822056293487549
1684114812864899000,9.659899169921875,0.8762385249137878,-0.7584972381591797,2.678565740585327
1684114812874939100,9.669939208984376,0.7653813362121582,-0.6528491973876953,2.4590556621551514
1684114812884979200,9.679979248046875,0.6044607758522034,-0.5492563247680664,2.127739906311035
1684114812895019500,9.69001953125,0.4339017868041992,-0.45735836029052734,1.7119513750076294
1684114812905059600,9.7000595703125,0.2952035665512085,-0.3988761901855469,1.327690601348877
1684114812915099600,9.710099609375,0.17374968528747559,-0.33557605743408203,0.9941887855529785
1684114812925140000,9.720139892578125,0.06376457214355469,-0.25323486328125,0.6565283536911011
1684114812935180000,9.730179931640626,-0.03869795799255371,-0.20454883575439453,0.3720386028289795
1684114812945220000,9.74022021484375,-0.1379351019859314,-0.20871829986572266,0.06905508041381836
1684114812955260400,9.750260498046876,-0.25751668214797974,-0.15361309051513672,-0.20673537254333496
1684114812965300500,9.760300537109375,-0.3965437114238739,-0.05154609680175781,-0.42884087562561035
1684114812975340500,9.770340576171876,-0.5759792327880859,0.027977943420410156,-0.6876213550567627
1684114812985380600,9.780380615234375,-0.7522035837173462,0.10645103454589844,-0.8409819602966309
1684114812995421000,9.7904208984375,-0.9085650444030762,0.1100473403930664,-0.9360690116882324
1684114813005461000,9.8004609375,-1.0236324071884155,0.07992362976074219,-0.9940590858459473
1684114813015501000,9.8105009765625,-1.0918996334075928,0.011631965637207031,-1.0097839832305908
1684114813025541400,9.820541259765625,-1.0601304769515991,-0.09244728088378906,-0.9609794616699219
1684114813035581400,9.83058154296875,-0.9330927133560181,-0.1442890167236328,-0.8254594802856445
1684114813045621500,9.84062158203125,-0.748420000076294,-0.10865306854248047,-0.4766809940338135
1684114813055661800,9.850661865234375,-0.5878806710243225,-0.059548377990722656,0.018267154693603516
1684114813065702000,9.860701904296874,-0.4621559977531433,-0.08248615264892578,0.42974185943603516
1684114813075742000,9.870741943359375,-0.30950143933296204,-0.16994476318359375,0.7093220949172974
1684114813085782300,9.8807822265625,-0.17776423692703247,-0.2405261993408203,0.9096914529800415
1684114813095822300,9.890822265625,-0.060118257999420166,-0.29193878173828125,1.0263258218765259
1684114813105862400,9.9008623046875,0.04499006271362305,-0.25258827209472656,1.1117115020751953
1684114813115902500,9.91090234375,0.16505670547485352,-0.30428504943847656,1.156372308731079
1684114813125942800,9.92094287109375,0.2607581615447998,-0.32976245880126953,1.2102112770080566
1684114813135982800,9.93098291015625,0.33859914541244507,-0.37915897369384766,1.251280426979065
1684114813146023200,9.941023193359374,0.3817365765571594,-0.4093637466430664,1.2793995141983032
1684114813156063200,9.951063232421875,0.4072558283805847,-0.46335506439208984,1.2682443857192993
1684114813166103300,9.961103271484374,0.43231499195098877,-0.4718303680419922,1.2610877752304077
1684114813176143400,9.971143310546875,0.3956751823425293,-0.40856075286865234,1.2841566801071167
1684114813186183700,9.98118359375,0.34853076934814453,-0.37161827087402344,1.2945693731307983
1684114813196223700,9.9912236328125,0.3037715554237366,-0.3298044204711914,1.2588361501693726
1684114813206263800,10.001263916015626,0.23550879955291748,-0.33803749084472656,1.2081557512283325
1684114813216304000,10.01130419921875,0.15115118026733398,-0.37949466705322266,1.111635684967041
1684114813226344200,10.02134423828125,0.10261577367782593,-0.33467769622802734,1.074271321296692
1684114813236384300,10.03138427734375,0.039278388023376465,-0.34709644317626953,0.9692755937576294
1684114813246424600,10.041424560546876,-0.014744579792022705,-0.2518606185913086,0.8996849060058594
1684114813256464600,10.051464599609375,-0.05602794885635376,-0.15912246704101562,0.8371211290359497
1684114813266504700,10.061504638671876,-0.09522628784179688,-0.10952472686767578,0.7486656904220581
1684114813276545000,10.071544921875,-0.1285342574119568,-0.09582042694091797,0.6945165395736694
1684114813286585000,10.081585205078126,-0.10259950160980225,-0.09164142608642578,0.6532329320907593
1684114813296625200,10.091625244140625,-0.03910815715789795,-0.1089468002319336,0.6463562250137329
1684114813306665200,10.101665283203126,0.046464741230010986,-0.11182880401611328,0.6518698930740356
1684114813316705500,10.11170556640625,0.18158972263336182,-0.11938667297363281,0.6119627952575684
1684114813326745600,10.12174560546875,0.3004598021507263,-0.15084171295166016,0.5483963489532471
1684114813336785700,10.13178564453125,0.4234541058540344,-0.1967916488647461,0.45217108726501465
1684114813346826000,10.141825927734375,0.5329685807228088,-0.20476627349853516,0.48119258880615234
1684114813356866000,10.151865966796874,0.6190455555915833,-0.16275310516357422,0.5174760818481445
1684114813366906000,10.161906005859375,0.6982719898223877,-0.11362934112548828,0.6365914344787598
1684114813376946400,10.171946533203124,0.760804295539856,-0.07648658752441406,0.6781949996948242
1684114813386986500,10.181986572265625,0.7849085330963135,-0.04177284240722656,0.7046767473220825
1684114813397026600,10.192026611328124,0.7803163528442383,-0.0667123794555664,0.6561105251312256
1684114813407067000,10.20206689453125,0.7470031380653381,-0.08669185638427734,0.5876829624176025
1684114813417107000,10.21210693359375,0.6443544626235962,-0.0610504150390625,0.49440455436706543
1684114813427147000,10.22214697265625,0.5514689683914185,-0.025725364685058594,0.3405461311340332
1684114813437187300,10.232187255859374,0.41087812185287476,0.00963592529296875,0.2697868347167969
1684114813447227400,10.242227294921875,0.260789692401886,0.04498863220214844,0.15546822547912598
1684114813457267500,10.252267333984374,0.11327776312828064,0.0826883316040039,0.04082369804382324
1684114813467307800,10.262307861328125,-0.05056869983673096,0.0724954605102539,-0.10011792182922363
1684114813477347800,10.272347900390624,-0.19852572679519653,0.10766315460205078,-0.17156052589416504
1684114813487388000,10.282387939453125,-0.3460237383842468,0.1522073745727539,-0.26163291931152344
1684114813497428200,10.29242822265625,-0.4983440041542053,0.20847034454345703,-0.2934443950653076
1684114813507468300,10.30246826171875,-0.6081016063690186,0.22637176513671875,-0.32440757751464844
1684114813517508400,10.31250830078125,-0.687732994556427,0.23486804962158203,-0.2927663326263428
1684114813527548700,10.322548583984375,-0.7004543542861938,0.21724510192871094,-0.2653067111968994
1684114813537588700,10.332588623046876,-0.6350023150444031,0.16873836517333984,-0.1799173355102539
1684114813547628800,10.34262890625,-0.5247415900230408,0.08956718444824219,-0.04249000549316406
1684114813557668900,10.3526689453125,-0.36772438883781433,0.0036830902099609375,0.019772052764892578
1684114813567709200,10.362709228515625,-0.2278955578804016,-0.1008596420288086,0.1668384075164795
1684114813577749200,10.372749267578126,-0.11560925841331482,-0.14507389068603516,0.26180195808410645
1684114813587789600,10.38278955078125,-0.005294859409332275,-0.2126169204711914,0.3856468200683594
1684114813597829600,10.39282958984375,0.06930011510848999,-0.22224998474121094,0.43564271926879883
1684114813607869700,10.40286962890625,0.11950880289077759,-0.2027759552001953,0.4979066848754883
1684114813617909800,10.41290966796875,0.15175306797027588,-0.11608505249023438,0.5222771167755127
1684114813627950000,10.4229501953125,0.15391311049461365,-0.017385482788085938,0.5188047885894775
1684114813637990100,10.432990234375,0.10470077395439148,0.03584098815917969,0.4522542953491211
1684114813648030500,10.443030517578125,0.02617982029914856,0.09615039825439453,0.32317328453063965
1684114813658070500,10.453070556640625,-0.11759832501411438,0.13516807556152344,0.21043634414672852
1684114813668110600,10.463110595703125,-0.2587428689002991,0.16396617889404297,0.010362386703491211
1684114813678150700,10.473150634765625,-0.43435138463974,0.19427490234375,-0.12878131866455078
1684114813688191000,10.48319091796875,-0.5678452849388123,0.2190570831298828,-0.23634624481201172
1684114813698231000,10.49323095703125,-0.6985867619514465,0.24067306518554688,-0.3570854663848877
1684114813708271000,10.50327099609375,-0.7924988269805908,0.20966053009033203,-0.4267864227294922
1684114813718311400,10.5133115234375,-0.8393286466598511,0.1668081283569336,-0.4316294193267822
1684114813728351500,10.5233515625,-0.8318343162536621,0.14271068572998047,-0.36648035049438477
1684114813738391600,10.5333916015625,-0.7367726564407349,0.15651607513427734,-0.34514689445495605
1684114813748432000,10.543431884765624,-0.5936720371246338,0.13885784149169922,-0.27684998512268066
1684114813758472000,10.553471923828125,-0.4230441451072693,0.0636301040649414,-0.21471190452575684
1684114813768512000,10.563511962890624,-0.24308934807777405,0.0026884078979492188,-0.1471705436706543
1684114813778552300,10.57355224609375,-0.11076343804597855,-0.03617668151855469,-0.08084654808044434
1684114813788592400,10.58359228515625,-0.013180598616600037,-0.06717586517333984,-0.011686086654663086
1684114813798632400,10.593632568359375,0.061369821429252625,-0.045604705810546875,-0.0625464916229248
1684114813808672800,10.6036728515625,0.03788602352142334,-0.03834724426269531,-0.12749838829040527
1684114813818712800,10.613712890625,0.02191019058227539,-0.07342529296875,-0.20389509201049805
1684114813828753000,10.6237529296875,-0.05664357542991638,-0.06776714324951172,-0.2654755115509033
1684114813838793200,10.633793212890625,-0.12767216563224792,-0.019618988037109375,-0.2891688346862793
1684114813848833300,10.643833251953126,-0.23749737441539764,-0.00042438507080078125,-0.3222320079803467
1684114813858873300,10.653873291015625,-0.325997531414032,0.0161285400390625,-0.2912473678588867
1684114813868913700,10.66391357421875,-0.40488752722740173,0.07014942169189453,-0.29629039764404297
1684114813878953700,10.67395361328125,-0.4435422122478485,0.08562183380126953,-0.2800426483154297
1684114813888993800,10.683993896484376,-0.46838200092315674,0.11023712158203125,-0.24980473518371582
1684114813899034000,10.6940341796875,-0.489094614982605,0.15093421936035156,-0.21062517166137695
1684114813909074200,10.70407421875,-0.44474247097969055,0.1297607421875,-0.2097914218902588
1684114813919114200,10.7141142578125,-0.4471619129180908,0.07596206665039062,-0.17121243476867676
1684114813929154600,10.724154541015626,-0.4181264042854309,0.03236675262451172,-0.17291831970214844
1684114813939194600,10.734194580078125,-0.3843054473400116,0.024764060974121094,-0.12500953674316406
1684114813949234700,10.744234619140625,-0.34602826833724976,0.04787445068359375,-0.12731170654296875
1684114813959275000,10.75427490234375,-0.28916093707084656,0.046977996826171875,-0.0798940658569336
1684114813969315000,10.764315185546875,-0.2374003529548645,0.06254768371582031,-0.026144027709960938
1684114813979355100,10.774355224609375,-0.1647104024887085,0.028379440307617188,-0.03675079345703125
1684114813989395500,10.7843955078125,-0.07651372253894806,-0.002887725830078125,0.01171112060546875
1684114813999435500,10.794435546875,-0.00896864477545023,0.0063152313232421875,0.0666341781616211
1684114814009475600,10.8044755859375,0.0680028647184372,0.010584831237792969,0.11378860473632812
1684114814019516000,10.814515869140624,0.09460727870464325,0.03359794616699219,0.12018156051635742
1684114814029556000,10.824555908203125,0.10920491069555283,0.0090789794921875,0.17377376556396484
1684114814039596000,10.834595947265624,0.09543557465076447,-0.019771575927734375,0.20304417610168457
1684114814049636400,10.84463623046875,0.05857094004750252,-0.038725852966308594,0.21299457550048828
1684114814059676400,10.854676513671874,-0.014657343737781048,-0.10447883605957031,0.22289395332336426
1684114814069716500,10.864716552734375,-0.09986566752195358,-0.11493968963623047,0.3125021457672119
1684114814079756800,10.8747568359375,-0.19847925007343292,-0.12037372589111328,0.36714839935302734
1684114814089796900,10.884796875,-0.31671351194381714,-0.09254646301269531,0.380124568939209
1684114814099837200,10.894837158203124,-0.38515856862068176,-0.1073312759399414,0.3591299057006836
1684114814109877200,10.904877197265625,-0.4253852069377899,-0.11695098876953125,0.3259737491607666
1684114814119917300,10.914917236328124,-0.4495031237602234,-0.09092140197753906,0.2644920349121094
1684114814129957400,10.924957275390625,-0.4367457926273346,-0.05584526062011719,0.14259600639343262
1684114814139997700,10.934997802734374,-0.3973877727985382,-0.00014019012451171875,0.04851174354553223
1684114814150037800,10.945037841796875,-0.33209389448165894,0.019336700439453125,-0.00875234603881836
1684114814160077800,10.955077880859376,-0.2576886713504791,0.05254650115966797,-0.04365396499633789
1684114814170118100,10.9651181640625,-0.1883552521467209,0.028522491455078125,-0.07029891014099121
1684114814180158200,10.975158203125,-0.08852492272853851,-0.009423255920410156,-0.05581092834472656
1684114814190198500,10.985198486328125,0.027000587433576584,-0.049271583557128906,-0.07626652717590332
1684114814200238600,10.995238525390626,0.13611069321632385,-0.06043052673339844,-0.09324073791503906
1684114814210278700,11.005278564453125,0.2167784571647644,-0.029249191284179688,-0.0808870792388916
1684114814220318700,11.015318603515626,0.2779081165790558,-0.02229785919189453,-0.049271583557128906
1684114814230359000,11.025359130859375,0.3170167803764343,0.012690544128417969,0.005772113800048828
1684114814240399000,11.035399169921876,0.3087286949157715,0.02349853515625,0.08603715896606445
1684114814250439400,11.045439453125,0.2851332724094391,0.029392242431640625,0.15802431106567383
1684114814260479500,11.0554794921875,0.2424640655517578,-0.0024776458740234375,0.2570631504058838
1684114814270519600,11.06551953125,0.16487130522727966,-0.04326343536376953,0.33808135986328125
1684114814280559900,11.075559814453126,0.08349891006946564,-0.07621002197265625,0.4244675636291504
1684114814290600000,11.085599853515625,-0.01106204092502594,-0.06839275360107422,0.5040254592895508
1684114814300640000,11.095639892578125,-0.07593534886837006,-0.09815120697021484,0.522613525390625
1684114814310680300,11.105680419921875,-0.10893121361732483,-0.1059255599975586,0.5351111888885498
1684114814320720400,11.115720458984375,-0.13867338001728058,-0.1509723663330078,0.49700236320495605
1684114814330760400,11.125760498046875,-0.1535264104604721,-0.13385677337646484,0.404646635055542
1684114814340800800,11.13580078125,-0.13037703931331635,-0.12399673461914062,0.3205535411834717
1684114814350840800,11.1458408203125,-0.11948536336421967,-0.08366775512695312,0.23539519309997559
1684114814360881000,11.155880859375,-0.1088850349187851,-0.046413421630859375,0.15418171882629395
1684114814370921200,11.165921142578124,-0.1006346344947815,-0.0051212310791015625,0.1168677806854248
1684114814380961300,11.175961181640625,-0.09430617839097977,-0.014050483703613281,0.06874632835388184
1684114814391001300,11.18600146484375,-0.09428046643733978,-0.025282859802246094,0.040601253509521484
1684114814401041700,11.196041748046875,-0.0724300667643547,-0.06468677520751953,0.02744770050048828
1684114814411081700,11.206081787109374,-0.0388413667678833,-0.054076194763183594,0.02656865119934082
1684114814421121800,11.216121826171875,-0.03178659453988075,-0.036624908447265625,0.028229951858520508
1684114814431162000,11.226162109375,-0.00605274923145771,-0.010096549987792969,0.08889198303222656
1684114814441202200,11.2362021484375,0.014672910794615746,-0.0028438568115234375,0.11558651924133301
1684114814451242500,11.246242431640624,0.03514667600393295,-0.012176513671875,0.15355205535888672
1684114814461282600,11.256282470703125,0.06703053414821625,-0.0072154998779296875,0.1884756088256836
1684114814471322600,11.266322509765626,0.11459486931562424,-0.030538558959960938,0.16379141807556152
1684114814481362700,11.27636279296875,0.11591878533363342,-0.04628562927246094,0.1767287254333496
1684114814491403000,11.286403076171876,0.10235688090324402,-0.04048728942871094,0.16556453704833984
1684114814501443000,11.296443115234375,0.06752924621105194,-0.053498268127441406,0.1541273593902588
1684114814511483100,11.306483154296876,0.028538933023810387,-0.05444526672363281,0.1331772804260254
1684114814521523500,11.3165234375,0.016333775594830513,-0.036421775817871094,0.11682677268981934
1684114814531563500,11.3265634765625,0.01663142442703247,-0.04916667938232422,0.10729670524597168
1684114814541603800,11.336603759765625,0.015406928025186062,-0.05920886993408203,0.12801575660705566
1684114814551644000,11.346643798828126,0.026612304151058197,-0.05962085723876953,0.07052993774414062
1684114814561684000,11.35668408203125,0.033487237989902496,-0.03410148620605469,0.0209500789642334
1684114814571724300,11.366724365234376,0.07344242185354233,0.014533042907714844,-0.03722047805786133
1684114814581764400,11.376764404296875,0.10785946249961853,0.03164482116699219,-0.07283473014831543
1684114814591804400,11.386804443359376,0.13883505761623383,0.07896804809570312,-0.13570690155029297
1684114814601844700,11.3968447265625,0.14508289098739624,0.08300399780273438,-0.10055375099182129
1684114814611884800,11.406884765625,0.14803192019462585,0.051522254943847656,-0.07018280029296875
1684114814621924900,11.4169248046875,0.10076738893985748,0.039290428161621094,-0.021087169647216797
1684114814631965200,11.426965087890625,0.03750735893845558,0.0060138702392578125,0.03683280944824219
1684114814642005200,11.437005126953125,-0.026477640494704247,-0.033756256103515625,0.09137606620788574
1684114814652045600,11.447045654296875,-0.050591304898262024,-0.030455589294433594,0.11664676666259766
1684114814662085600,11.457085693359375,-0.044850897043943405,-0.04130077362060547,0.13903093338012695
1684114814672125700,11.467125732421875,-0.0031973794102668762,-0.016607284545898438,0.1373307704925537
1684114814682165800,11.477165771484374,0.042786285281181335,-0.015838623046875,0.12141990661621094
1684114814692206000,11.4872060546875,0.09979857504367828,-0.019762039184570312,0.09859657287597656
1684114814702246100,11.49724609375,0.15338650345802307,-0.018926620483398438,0.08798003196716309
1684114814712286200,11.5072861328125,0.17768725752830505,-0.025197982788085938,0.07294535636901855
1684114814722326500,11.517326416015624,0.19663769006729126,-0.021963119506835938,0.08176159858703613
1684114814732366600,11.52736669921875,0.200503870844841,-0.028204917907714844,0.11868405342102051
1684114814742407000,11.537406982421874,0.16341164708137512,-0.043761253356933594,0.1079111099243164
1684114814752447000,11.547447021484375,0.10044796764850616,-0.03786277770996094,0.1372835636138916
1684114814762487000,11.557487060546874,0.04111805558204651,-0.06972980499267578,0.17558503150939941
1684114814772527400,11.56752734375,-0.01652863249182701,-0.05397796630859375,0.18264126777648926
1684114814782567400,11.5775673828125,-0.013582367449998856,-0.02199077606201172,0.21777033805847168
1684114814792607500,11.587607421875,-0.02434755489230156,-0.01406097412109375,0.20987653732299805
1684114814802647800,11.597647705078124,0.0095597505569458,-0.06275367736816406,0.15261530876159668
1684114814812688000,11.60768798828125,0.03309464454650879,-0.08001422882080078,0.15981125831604004
1684114814822728000,11.61772802734375,0.04878658428788185,-0.08285045623779297,0.10797309875488281
1684114814832768300,11.627768310546875,0.04039175063371658,-0.03623485565185547,0.0735926628112793
1684114814842808300,11.637808349609376,0.05311441421508789,-0.0116729736328125,0.018942832946777344
1684114814852848600,11.6478486328125,0.03713459149003029,0.0029439926147460938,0.008038520812988281
1684114814862888700,11.657888671875,0.030924566090106964,0.0007638931274414062,0.028207063674926758
1684114814872928800,11.6679287109375,0.02274993062019348,-0.017961502075195312,0.04843950271606445
1684114814882969000,11.677968994140626,0.02203236147761345,-0.03641700744628906,0.08498597145080566
1684114814893009200,11.688009033203125,-0.000007499009370803833,-0.052181243896484375,0.1702439785003662
1684114814903049200,11.69804931640625,-0.014923062175512314,-0.0770416259765625,0.21853375434875488
1684114814913089500,11.708089599609375,-0.041249215602874756,-0.08022689819335938,0.21864533424377441
1684114814923129600,11.718129638671876,-0.03842685744166374,-0.045586585998535156,0.18068671226501465
1684114814933169700,11.728169677734375,-0.011432819068431854,-0.013788223266601562,0.1595003604888916
1684114814943210000,11.7382099609375,0.048418231308460236,-0.010669708251953125,0.10295820236206055
1684114814953250000,11.74825,0.090537428855896,0.0065765380859375,0.04948616027832031
1684114814963290000,11.7582900390625,0.11244890093803406,0.014113426208496094,-0.01721978187561035
1684114814973330400,11.768330322265625,0.10501332581043243,0.026203155517578125,-0.05209803581237793
1684114814983370500,11.77837060546875,0.06896214932203293,-0.013747215270996094,-0.07210540771484375
1684114814993410800,11.788410888671875,0.014504838734865189,-0.022530555725097656,-0.06077861785888672
1684114815003451000,11.798450927734375,-0.029384491965174675,-0.03595733642578125,-0.08696460723876953
1684114815013491000,11.808490966796874,-0.06954161077737808,0.0025730133056640625,-0.08658313751220703
1684114815023531300,11.81853125,-0.07960087060928345,-0.01604747772216797,-0.06259751319885254
1684114815033571300,11.8285712890625,-0.06230277568101883,-0.015562057495117188,-0.07178711891174316
1684114815043611400,11.838611328125,-0.030032511800527573,-0.008105278015136719,-0.0663461685180664
1684114815053651700,11.848651611328124,0.03987080603837967,0.008599281311035156,-0.0443418025970459
1684114815063691800,11.85869189453125,0.08027328550815582,0.013239860534667969,0.003248929977416992
1684114815073731800,11.86873193359375,0.13379761576652527,0.013136863708496094,0.05928945541381836
1684114815083772200,11.878772216796875,0.1459057629108429,0.01778411865234375,0.08832621574401855
1684114815093812200,11.888812255859374,0.1453808844089508,-0.0034723281860351562,0.11659097671508789
1684114815103852500,11.8988525390625,0.12548591196537018,-0.0007915496826171875,0.13715004920959473
1684114815113892600,11.908892578125,0.09376393258571625,-0.01457977294921875,0.14536690711975098
1684114815123932700,11.9189326171875,0.053181394934654236,-0.032774925231933594,0.14139008522033691
1684114815133973000,11.928972900390624,0.025173954665660858,0.0011816024780273438,0.1466681957244873
1684114815144013000,11.939012939453125,0.016737431287765503,-0.00774383544921875,0.1422128677368164
1684114815154053000,11.94905322265625,-0.005456194281578064,-0.03063201904296875,0.10246133804321289
1684114815164093400,11.959093505859375,-0.0013706982135772705,-0.024903297424316406,0.05871939659118652
1684114815174133500,11.969133544921876,-0.009196655824780464,-0.03809070587158203,0.04154324531555176
1684114815184173600,11.979173583984375,-0.02394106239080429,-0.013391494750976562,0.043485403060913086
1684114815194214000,11.9892138671875,-0.04264773800969124,-0.038570404052734375,0.03138422966003418
1684114815204254000,11.99925390625,-0.03437488526105881,-0.006855964660644531,0.04314303398132324
1684114815214294300,12.009294189453126,-0.009147707372903824,0.01725292205810547,0.03828549385070801
1684114815224334300,12.019334228515625,0.027541782706975937,-0.008606910705566406,0.031670570373535156
1684114815234374400,12.02937451171875,0.04670984297990799,-0.029399871826171875,0.1007845401763916
1684114815244414700,12.039414794921875,0.0744449645280838,-0.05220222473144531,0.1122434139251709
1684114815254454800,12.049454833984376,0.051764488220214844,-0.01574230194091797,0.14693689346313477
1684114815264494800,12.059494873046875,0.057283639907836914,-0.026975631713867188,0.14338254928588867
1684114815274535200,12.06953515625,0.06230994313955307,-0.03562641143798828,0.16561031341552734
1684114815284575200,12.0795751953125,0.02434738352894783,-0.018152236938476562,0.1682887077331543
1684114815294615600,12.089615478515626,0.014868604019284248,-0.00563812255859375,0.19899940490722656
1684114815304655600,12.099655517578125,-0.013268973678350449,-0.0027208328247070312,0.17493534088134766
1684114815314695700,12.10969580078125,-0.036140307784080505,-0.03746509552001953,0.14868760108947754
1684114815324736000,12.119736083984375,-0.03958172723650932,-0.04566478729248047,0.11081910133361816
1684114815334776000,12.129776123046875,-0.04514811187982559,-0.04193115234375,0.06640362739562988
1684114815344816000,12.139816162109375,-0.040993012487888336,-0.03589153289794922,0.0038373470306396484
1684114815354856400,12.1498564453125,-0.00400784146040678,-0.0158843994140625,-0.00801849365234375
1684114815364896500,12.159896484375,-0.010173195973038673,0.0272216796875,-0.0404055118560791
1684114815374936600,12.1699365234375,-0.004350168164819479,0.024793624877929688,-0.017761707305908203
1684114815384977000,12.179976806640624,-0.005485083907842636,0.0034923553466796875,-0.01633906364440918
1684114815395017000,12.190016845703125,0.021952008828520775,0.017813682556152344,-0.005351543426513672
1684114815405057300,12.200057373046874,0.013719683513045311,0.01775836944580078,0.0008018016815185547
1684114815415097300,12.210097412109375,0.031233608722686768,0.015350341796875,0.01862335205078125
1684114815425137400,12.220137451171874,0.02902430295944214,-0.03176307678222656,0.01266336441040039
1684114815435177700,12.230177734375,0.02147459052503109,-0.02863788604736328,0.01145315170288086
1684114815445217800,12.2402177734375,-0.023699386045336723,-0.011453628540039062,-0.01322174072265625
1684114815455257900,12.2502578125,-0.04169585555791855,0.0077972412109375,-0.023360252380371094
1684114815465298200,12.260298095703124,-0.046897392719984055,0.014942169189453125,-0.005021572113037109
1684114815475338200,12.270338134765625,-0.04449903592467308,0.02669048309326172,0.0035371780395507812
1684114815485378600,12.280378662109374,-0.03275604546070099,0.009980201721191406,0.0002391338348388672
1684114815495418600,12.290418701171875,-0.028556376695632935,0.009998321533203125,0.032423973083496094
1684114815505458700,12.300458740234374,-0.03162970021367073,0.019405364990234375,0.02416539192199707
1684114815515499000,12.3104990234375,-0.029840286821126938,-0.032540321350097656,0.03717470169067383
1684114815525539000,12.3205390625,-0.015836700797080994,-0.03182792663574219,0.06644630432128906
1684114815535579100,12.3305791015625,-0.0018668202683329582,-0.02405261993408203,0.055150747299194336
1684114815545619500,12.340619384765626,0.011897618882358074,-0.01874828338623047,0.03456878662109375
1684114815555659500,12.350659423828125,0.03471829369664192,-0.02060699462890625,0.04263710975646973
1684114815565699800,12.360699951171876,0.033274389803409576,-0.017713546752929688,0.04580545425415039
1684114815575740000,12.370739990234375,0.05254150927066803,0.011056900024414062,0.07941102981567383
1684114815585780000,12.380780029296876,0.02618573233485222,0.006402015686035156,0.08179473876953125
1684114815595820300,12.3908203125,0.004681779071688652,0.030089378356933594,0.09585285186767578
1684114815605860400,12.4008603515625,-0.026061272248625755,0.011048316955566406,0.09302616119384766
1684114815615900700,12.410900634765625,-0.03731059283018112,-0.00058746337890625,0.07129859924316406
1684114815625940700,12.420940673828126,-0.03862173110246658,-0.02384185791015625,0.03362679481506348
1684114815635980800,12.430980712890625,-0.0281477402895689,-0.03729248046875,0.020125865936279297
1684114815646021000,12.441021240234376,-0.022668423131108284,-0.04819202423095703,0.009319305419921875
