time,seconds_elapsed,z,y,x
1684108707551282700,0.03328271484375,0,0,0
1684108707561324000,0.043323974609375,0.012694358825683594,-0.23100781440734863,-0.16399085521697998
1684108707571365000,0.053365234375,0.27416229248046875,-0.33612489700317383,-0.5611031651496887
1684108707581406500,0.063406494140625,0.08757877349853516,-0.41183900833129883,-1.622452974319458
1684108707591447600,0.073447509765625,0.09409618377685547,-0.6764683723449707,-2.3413331508636475
1684108707601489000,0.083489013671875,0.7086668014526367,-0.9864420890808105,-0.784365177154541
1684108707611530200,0.0935302734375,0.2502155303955078,-1.1752638816833496,-2.24550724029541
1684108707621571300,0.1035712890625,0.18532085418701172,-1.2687907218933105,-1.3575692176818848
1684108707631612700,0.11361279296875,-0.2290325164794922,-0.8545212745666504,-0.8283838033676147
1684108707641653800,0.12365380859375,-0.8303012847900391,-0.08753633499145508,-0.5064339637756348
1684108707651695000,0.133695068359375,-1.5070595741271973,0.8388371467590332,-0.842060923576355
1684108707661736200,0.143736083984375,-1.5265874862670898,1.4417734146118164,-0.3525707721710205
1684108707671777500,0.153777587890625,-1.2399630546569824,1.8773910999298096,-1.060727834701538
1684108707681818600,0.163818603515625,-0.4728107452392578,1.319089412689209,-0.27414608001708984
1684108707691860000,0.17385986328125,0.3347759246826172,0.9405386447906494,0.6065420508384705
1684108707701901000,0.183901123046875,1.2660255432128906,0.9031524658203125,0.9586344361305237
1684108707711942400,0.1939423828125,1.8519649505615234,1.5056414604187012,1.2577824592590332
1684108707721983500,0.2039833984375,1.9365510940551758,1.9334475994110107,1.9792842864990234
1684108707732024800,0.21402490234375,1.965902328491211,2.1225664615631104,2.224458932876587
1684108707742066000,0.22406591796875,1.916219711303711,2.2860593795776367,2.477113962173462
1684108707752107300,0.234107177734375,1.6541919708251953,2.3090925216674805,2.7999885082244873
1684108707762148400,0.2441484375,1.5685253143310547,2.388113260269165,3.0015156269073486
1684108707772189700,0.254189697265625,1.457493782043457,2.346691608428955,3.065937042236328
1684108707782230800,0.264230712890625,1.2755327224731445,2.1736221313476562,3.6330013275146484
1684108707792272100,0.274272216796875,1.1885395050048828,1.6793584823608398,3.6664888858795166
1684108707802313500,0.2843134765625,0.8528270721435547,1.1505534648895264,3.312781810760498
1684108707812354600,0.2943544921875,0.39949512481689453,1.329380989074707,2.2500455379486084
1684108707822396000,0.30439599609375,-0.5508317947387695,-0.7550737857818604,2.49543833732605
1684108707832437000,0.31443701171875,-1.0265789031982422,-2.0294547080993652,2.4720945358276367
1684108707842478000,0.32447802734375,-0.3572969436645508,-0.4661083221435547,0.9697428941726685
1684108707852519400,0.33451953125,0.2540731430053711,-0.3013439178466797,0.5187547206878662
1684108707862560800,0.344560791015625,0.19251632690429688,-1.2599399089813232,0.7750940322875977
1684108707872601900,0.354601806640625,0.051926612854003906,-1.0608105659484863,0.7654362916946411
1684108707882643200,0.364643310546875,-0.559086799621582,-0.41024255752563477,0.9680206775665283
1684108707892684300,0.374684326171875,-1.6454310417175293,-0.2928617000579834,0.8743994235992432
1684108707902725600,0.3847255859375,-2.7966647148132324,-0.09490466117858887,0.8504009246826172
1684108707912766700,0.3947666015625,-2.810946464538574,0.2552211284637451,1.1651732921600342
1684108707922808000,0.40480810546875,-2.2906908988952637,0.4595358371734619,1.3854215145111084
1684108707932849200,0.41484912109375,-1.7022600173950195,0.3062615394592285,1.1312315464019775
1684108707942890500,0.424890380859375,-1.0658888816833496,0.0870664119720459,0.8129034042358398
1684108707952931600,0.434931640625,-0.4662799835205078,0.6532371044158936,-0.16388440132141113
1684108707962973000,0.444972900390625,-0.4580259323120117,-0.4970059394836426,0.21510839462280273
1684108707973014000,0.455013916015625,-1.7878522872924805,-2.149611234664917,0.763920783996582
1684108707983055400,0.465055419921875,-3.307325839996338,-2.0805859565734863,0.015315055847167969
1684108707993096400,0.475096435546875,0.9828634262084961,-1.3300623893737793,0.8268113136291504
1684108708003137800,0.4851376953125,1.0759696960449219,-0.9083902835845947,1.268965482711792
1684108708013179000,0.495178955078125,-0.46584224700927734,-0.4570612907409668,1.5092217922210693
1684108708023220200,0.50522021484375,-1.0107150077819824,-0.2179715633392334,1.5945148468017578
1684108708033261300,0.51526123046875,-0.7739968299865723,-0.21820425987243652,1.454538345336914
1684108708043302700,0.525302734375,-0.5531406402587891,-0.4387485980987549,0.8581733703613281
1684108708053344000,0.535343994140625,-0.08495330810546875,-0.5750982761383057,0.03695344924926758
1684108708063385000,0.545385009765625,-0.15415573120117188,-0.9596712589263916,-0.5958535671234131
1684108708073426400,0.555426513671875,-0.45521068572998047,-1.0729708671569824,-0.5315871238708496
1684108708083467500,0.565467529296875,-0.747279167175293,-0.7400662899017334,-0.48548388481140137
1684108708093508900,0.5755087890625,-1.2805156707763672,-0.26021528244018555,-0.649505615234375
1684108708103550000,0.585550048828125,-0.6441693305969238,-0.21223998069763184,-0.27513790130615234
1684108708113591000,0.595591064453125,0.1876230239868164,-0.22461628913879395,0.12933635711669922
1684108708123632400,0.60563232421875,0.5013046264648438,-0.06990957260131836,1.0532431602478027
1684108708133673700,0.615673828125,0.13302898406982422,-0.5060198307037354,1.58447265625
1684108708143714800,0.62571484375,-0.3065662384033203,0.06131100654602051,1.519789218902588
1684108708153756200,0.635756103515625,-0.36026430130004883,0.6152818202972412,1.498861312866211
1684108708163797200,0.64579736328125,-0.3819417953491211,0.396925687789917,1.202049732208252
1684108708173838600,0.655838623046875,-0.4144248962402344,0.08192706108093262,0.6488466262817383
1684108708183879700,0.665879638671875,-0.595512866973877,0.338573694229126,0.11820411682128906
1684108708193921000,0.675921142578125,-0.7422447204589844,-0.13934040069580078,0.06250619888305664
1684108708203962000,0.685962158203125,-0.2476797103881836,-0.08245182037353516,0.30728816986083984
1684108708214003500,0.69600341796875,-0.5488104820251465,0.3329615592956543,-0.023360252380371094
1684108708224044500,0.70604443359375,-0.6770110130310059,0.23109745979309082,0.035471439361572266
1684108708234086000,0.7160859375,-0.8288736343383789,0.15127873420715332,0.1854710578918457
1684108708244127000,0.726126953125,-0.812659740447998,0.18127942085266113,0.4829287528991699
1684108708254168300,0.736168212890625,-0.47641754150390625,0.15366220474243164,0.7067041397094727
1684108708264209400,0.74620947265625,-0.3826260566711426,-0.023551464080810547,0.5344028472900391
1684108708274250800,0.756250732421875,-0.1338939666748047,-0.014180421829223633,0.09826135635375977
1684108708284291800,0.766291748046875,-0.09007072448730469,-0.0024080276489257812,-0.1507406234741211
1684108708294333200,0.776333251953125,-0.3193826675415039,-0.15489840507507324,-0.0638284683227539
1684108708304374300,0.786374267578125,-0.4287705421447754,-0.10793018341064453,-0.029819965362548828
1684108708314415600,0.79641552734375,-0.39095067977905273,0.07543420791625977,-0.13308048248291016
1684108708324457000,0.80645703125,-0.21416711807250977,-0.044631004333496094,-0.02121877670288086
1684108708334498000,0.816498046875,-0.14647293090820312,-0.23594021797180176,-0.016359329223632812
1684108708344539100,0.8265390625,0.11391258239746094,-0.08287382125854492,0.008832931518554688
1684108708354580500,0.83658056640625,0.013286590576171875,-0.018389463424682617,0.13404417037963867
1684108708364621600,0.84662158203125,-0.4091339111328125,0.08554768562316895,0.07976102828979492
1684108708374663000,0.856662841796875,-0.3586897850036621,-0.09249043464660645,0.08667802810668945
1684108708384704300,0.866704345703125,-0.568697452545166,-0.05470633506774902,-0.009566783905029297
1684108708394745300,0.876745361328125,-0.5055842399597168,0.07970190048217773,-0.15062570571899414
1684108708404786700,0.88678662109375,-0.028784751892089844,-0.052906036376953125,-0.43158626556396484
1684108708414827800,0.896827880859375,0.23224782943725586,0.1168057918548584,-0.6706924438476562
1684108708424869000,0.906869140625,0.18584585189819336,-0.0889272689819336,-0.668118953704834
1684108708434910200,0.91691015625,0.0028867721557617188,-0.28045010566711426,-0.28537607192993164
1684108708444951600,0.92695166015625,-0.17561864852905273,-0.14819645881652832,-0.2611227035522461
1684108708454992600,0.93699267578125,-0.5114359855651855,0.12249112129211426,0.20277643203735352
1684108708465034000,0.947033935546875,-0.907623291015625,0.2681100368499756,0.15417051315307617
1684108708475075000,0.957074951171875,-0.6383004188537598,0.1309971809387207,0.21485614776611328
1684108708485116400,0.967116455078125,-0.5462327003479004,0.5824174880981445,0.5324230194091797
1684108708495157500,0.977157470703125,-0.8011188507080078,0.5466616153717041,0.37067079544067383
1684108708505198800,0.98719873046875,-0.5809626579284668,0.2294156551361084,0.3668990135192871
1684108708515240000,0.997239990234375,-0.3492298126220703,0.29709601402282715,0.4327993392944336
1684108708525281300,1.00728125,-0.007007598876953125,0.31757044792175293,0.2733297348022461
1684108708535322400,1.017322265625,0.16962718963623047,0.27403831481933594,0.18127202987670898
1684108708545363700,1.02736376953125,0.5285296440124512,0.00773310661315918,-0.08866119384765625
1684108708555404800,1.03740478515625,-0.5012211799621582,-0.0034847259521484375,0.025757312774658203
1684108708565446100,1.047446044921875,0.07750892639160156,-0.26212501525878906,0.5009102821350098
1684108708575487200,1.0574873046875,0.05781412124633789,0.020552873611450195,0.5862889289855957
1684108708585528600,1.067528564453125,0.3071866035461426,0.04520106315612793,0.030166149139404297
1684108708595569700,1.077569580078125,-0.4451332092285156,0.026781797409057617,0.287595272064209
1684108708605611000,1.087611083984375,1.2852258682250977,-0.2482461929321289,-0.27406930923461914
1684108708615652000,1.097652099609375,0.5578413009643555,-0.13203930854797363,0.038507938385009766
1684108708625693400,1.107693359375,0.3231649398803711,-0.3595736026763916,1.0084223747253418
1684108708635734500,1.117734619140625,-2.3922181129455566,0.3529975414276123,-1.057962417602539
1684108708645776000,1.12777587890625,-1.3250751495361328,0.27581334114074707,-0.0034313201904296875
1684108708655817000,1.13781689453125,-0.08272266387939453,0.17632412910461426,0.5613384246826172
1684108708665858300,1.1478583984375,0.43888330459594727,0.4287538528442383,0.058393001556396484
1684108708675899400,1.1578994140625,0.02672433853149414,0.328416109085083,-0.15814542770385742
1684108708685940700,1.167940673828125,-0.09668779373168945,0.3385586738586426,-0.22531557083129883
1684108708695981800,1.17798193359375,-0.3917975425720215,0.5527710914611816,-0.3538494110107422
1684108708706023200,1.188023193359375,-0.4372420310974121,0.6057658195495605,-0.4405083656311035
1684108708716064300,1.198064208984375,-0.3787860870361328,0.7368299961090088,-0.507331371307373
1684108708726105600,1.208105712890625,-0.16957569122314453,0.7618217468261719,-0.5434575080871582
1684108708736146700,1.218146728515625,-0.05699491500854492,0.5393648147583008,-0.3626847267150879
1684108708746188000,1.22818798828125,-0.08806514739990234,0.612445592880249,-0.1358942985534668
1684108708756229000,1.23822900390625,-0.4091224670410156,0.6774041652679443,0.16520309448242188
1684108708766270500,1.2482705078125,-1.517073631286621,0.586350679397583,0.07818412780761719
1684108708776311800,1.258311767578125,-1.8561921119689941,0.4619479179382324,0.010080337524414062
1684108708786353000,1.268352783203125,-0.4246201515197754,0.05089569091796875,0.20289993286132812
1684108708796394000,1.27839404296875,0.03304100036621094,-0.33020949363708496,0.3228754997253418
1684108708806435300,1.288435302734375,-0.21281909942626953,-0.39423441886901855,-0.032414913177490234
1684108708816476400,1.298476318359375,-0.37957000732421875,-0.5302512645721436,-0.08365440368652344
1684108708826517800,1.308517822265625,-0.04906606674194336,-0.4139220714569092,-0.3720064163208008
1684108708836559000,1.31855908203125,0.20321369171142578,-0.24279499053955078,-0.5168313980102539
1684108708846600200,1.32860009765625,0.42867469787597656,-0.2239086627960205,-0.5204005241394043
1684108708856641500,1.3386416015625,0.48073720932006836,-0.3463015556335449,-0.500938892364502
1684108708866682600,1.3486826171875,0.7343306541442871,-0.41444993019104004,-0.3124856948852539
1684108708876723700,1.3587236328125,0.5842094421386719,-0.17134857177734375,-0.20114898681640625
1684108708886765000,1.36876513671875,0.4803810119628906,-0.09711670875549316,-0.16570281982421875
1684108708896806100,1.37880615234375,0.15432310104370117,0.1618351936340332,-0.2629814147949219
1684108708906847500,1.388847412109375,0.5667977333068848,0.5224254131317139,-0.08157920837402344
1684108708916888800,1.398888916015625,0.7541329860687256,0.6193362474441528,0.09580421447753906
1684108708926930000,1.408929931640625,0.035704612731933594,0.7240865230560303,0.03341102600097656
1684108708936971300,1.41897119140625,-0.43929052352905273,1.099335789680481,-0.24402713775634766
1684108708947012400,1.429012451171875,-0.7024915218353271,0.943421483039856,-0.6668233871459961
1684108708957053700,1.4390537109375,-0.5597608089447021,0.44377875328063965,-0.8724384307861328
1684108708967094800,1.4490947265625,0.7617955207824707,0.665616512298584,-1.958740234375
1684108708977136000,1.45913623046875,1.2855017185211182,-0.35718703269958496,-1.9260663986206055
1684108708987177200,1.46917724609375,0.8940029144287109,-0.8536627292633057,-1.5856223106384277
1684108708997218600,1.479218505859375,-0.6465824842453003,-0.5861244201660156,-0.8402433395385742
1684108709007259600,1.489259765625,-1.4113231897354126,-0.0302581787109375,-0.39136219024658203
1684108709017301000,1.499301025390625,-1.4413840770721436,-0.10897636413574219,-0.22283649444580078
1684108709027342000,1.509342041015625,-1.1613067388534546,-0.38594985008239746,0.19154834747314453
1684108709037383400,1.519383544921875,-0.6800770163536072,-0.30762600898742676,0.41468048095703125
1684108709047424500,1.529424560546875,-0.5922956466674805,-0.3969075679779053,1.0207252502441406
1684108709057465900,1.5394658203125,-0.9212044477462769,-0.2724590301513672,0.8733730316162109
1684108709067507000,1.5495068359375,-1.284681797027588,0.09352231025695801,0.5854768753051758
1684108709077548300,1.55954833984375,-1.5791505575180054,-0.016547203063964844,0.08879470825195312
1684108709087589400,1.56958935546875,-1.086515188217163,0.0686178207397461,-0.3688774108886719
1684108709097630700,1.579630615234375,-0.41396239399909973,-0.16444802284240723,-0.08057975769042969
1684108709107671800,1.589671875,0.017832249402999878,-0.34996795654296875,0.045546531677246094
1684108709117713200,1.599713134765625,0.3576301336288452,-0.5995428562164307,0.265594482421875
1684108709127754200,1.609754150390625,0.7280318140983582,-0.6878478527069092,0.3247241973876953
1684108709137795600,1.619795654296875,0.6414214968681335,-0.6112856864929199,0.0912933349609375
1684108709147836700,1.629836669921875,0.5661506652832031,-0.5755534172058105,0.1422119140625
1684108709157878000,1.6398779296875,0.17817991971969604,-0.23282980918884277,0.2000446319580078
1684108709167919000,1.649919189453125,-0.19426973164081573,-0.19711875915527344,0.37705421447753906
1684108709177960400,1.65996044921875,-0.4563758969306946,-0.1681995391845703,0.25647544860839844
1684108709188001500,1.67000146484375,-0.6725708246231079,-0.09309625625610352,0.3540334701538086
1684108709198043000,1.68004296875,-0.658144474029541,0.1647791862487793,0.35672950744628906
1684108709208084000,1.690083984375,-0.6000328660011292,0.6397180557250977,0.06836986541748047
1684108709218125300,1.700125244140625,-0.4051591753959656,0.5708112716674805,0.2714099884033203
1684108709228166400,1.71016650390625,-0.22155803442001343,0.6030266284942627,0.15410709381103516
1684108709238207700,1.720207763671875,0.13131320476531982,0.36069536209106445,0.21639060974121094
1684108709248248800,1.730248779296875,0.46937382221221924,0.25187063217163086,0.30013275146484375
1684108709258290200,1.740290283203125,0.22920632362365723,0.4017620086669922,0.05257701873779297
1684108709268331300,1.750331298828125,-0.20535826683044434,0.4775223731994629,0.21418285369873047
1684108709278372600,1.76037255859375,-0.34139442443847656,0.6194765567779541,0.2629690170288086
1684108709288413700,1.77041357421875,-0.12214851379394531,0.7225368022918701,0.43377017974853516
1684108709298455000,1.780455078125,0.001295924186706543,0.48797178268432617,0.5364789962768555
1684108709308496100,1.79049609375,-0.049662113189697266,0.179274320602417,0.6515083312988281
1684108709318537500,1.800537353515625,-0.1709156036376953,0.023520231246948242,0.44003868103027344
1684108709328578600,1.81057861328125,-0.4128357172012329,0.23219084739685059,0.2099142074584961
1684108709338620000,1.820619873046875,-0.8129382133483887,0.38129758834838867,-0.15981769561767578
1684108709348661000,1.830660888671875,-0.7709815502166748,0.49115681648254395,-0.4024009704589844
1684108709358702300,1.840702392578125,-0.2875450849533081,0.6252450942993164,-0.5141611099243164
1684108709368743400,1.850743408203125,-0.0712425708770752,0.6239328384399414,-0.5716791152954102
1684108709378784800,1.86078466796875,-0.1474151611328125,0.5394446849822998,-0.6346378326416016
1684108709388825900,1.870825927734375,-0.15107190608978271,0.3471357822418213,-0.5471019744873047
1684108709398867200,1.8808671875,0.04334592819213867,0.4278690814971924,-0.4660024642944336
1684108709408908300,1.890908203125,-0.2051994800567627,0.22778058052062988,-0.3077993392944336
1684108709418949400,1.900949462890625,-0.6846458911895752,-0.11590385437011719,-0.23474979400634766
1684108709428990700,1.91099072265625,-0.661896824836731,-0.18556594848632812,-0.44767093658447266
1684108709439032000,1.921031982421875,-0.7165981531143188,-0.21477127075195312,-0.5726537704467773
1684108709449073200,1.9310732421875,-0.34281671047210693,-0.42725539207458496,-0.4655599594116211
1684108709459114500,1.941114501953125,-0.39594531059265137,-0.3677659034729004,-0.07553482055664062
1684108709469155600,1.951155517578125,-0.6128736734390259,-0.10565304756164551,-0.015198707580566406
1684108709479196700,1.96119677734375,-0.6736825704574585,0.07334756851196289,-0.259979248046875
1684108709489238000,1.971238037109375,-0.6385847330093384,0.30206751823425293,-0.4768209457397461
1684108709499279400,1.981279296875,-0.9483847618103027,0.31211352348327637,-0.6202783584594727
1684108709509320400,1.991320556640625,-0.9918546676635742,0.3363325595855713,-0.8949489593505859
1684108709519361500,2.001361572265625,-0.7638412714004517,0.24286818504333496,-0.7141666412353516
1684108709529403000,2.01140283203125,-0.9056295156478882,-0.04186606407165527,-0.30779552459716797
1684108709539444000,2.02144384765625,-0.8202612400054932,-0.22558164596557617,0.3749237060546875
1684108709549485300,2.0314853515625,-0.4570389986038208,-0.2733612060546875,1.2520637512207031
1684108709559526700,2.041526611328125,-0.2853168249130249,0.06235504150390625,1.971644401550293
1684108709569567700,2.051567626953125,-0.45336389541625977,0.3011159896850586,2.2484045028686523
1684108709579608800,2.06160888671875,-1.24009370803833,0.3749518394470215,2.457122802734375
1684108709589650200,2.071650146484375,-1.8206007480621338,0.14224028587341309,2.3286142349243164
1684108709599691300,2.081691162109375,-1.6926627159118652,-0.2169809341430664,1.9494762420654297
1684108709609732600,2.091732666015625,-1.0395978689193726,-0.3722715377807617,1.393782615661621
1684108709619773700,2.101773681640625,-0.3296586275100708,-0.30377840995788574,0.9413394927978516
1684108709629815000,2.11181494140625,0.0610806941986084,-0.1386713981628418,0.5857000350952148
1684108709639856000,2.121856201171875,0.49280691146850586,0.23927021026611328,-0.010903358459472656
1684108709649897500,2.1318974609375,0.9706848859786987,0.5216076374053955,-0.3632373809814453
1684108709659938600,2.1419384765625,1.1413238048553467,0.5323190689086914,-0.46379756927490234
1684108709669980000,2.15197998046875,0.9602938294410706,0.4532594680786133,-0.6260910034179688
1684108709680021000,2.16202099609375,0.43796414136886597,0.08811712265014648,-0.6299524307250977
1684108709690062300,2.172062255859375,0.01955711841583252,0.08245134353637695,-0.936650276184082
1684108709700103400,2.182103515625,0.18472427129745483,0.1409134864807129,-1.0810203552246094
1684108709710144800,2.192144775390625,0.10234224796295166,0.1579275131225586,-0.7705612182617188
1684108709720185900,2.202185791015625,0.6068985462188721,0.04051518440246582,-0.6665306091308594
1684108709730227200,2.212227294921875,0.4452454447746277,-0.2718942165374756,-0.7526340484619141
1684108709740268300,2.222268310546875,0.8704571723937988,-0.5769555568695068,-0.4241304397583008
1684108709750309600,2.2323095703125,0.7901491522789001,-0.30707883834838867,-0.1361246109008789
1684108709760350700,2.242350830078125,0.3175872564315796,-0.0782313346862793,-0.5345382690429688
1684108709770392000,2.25239208984375,0.259645938873291,0.009355306625366211,0.3194713592529297
1684108709780433200,2.26243310546875,0.26541680097579956,0.06803250312805176,0.92230224609375
1684108709790474500,2.272474609375,0.16312944889068604,0.2545449733734131,0.6031370162963867
1684108709800515600,2.282515625,0.04681265354156494,0.5272634029388428,0.24269485473632812
1684108709810557000,2.292556884765625,0.4649587869644165,0.9469573497772217,0.34073734283447266
1684108709820598000,2.302597900390625,0.7426731586456299,1.5683391094207764,0.5317792892456055
1684108709830639400,2.312639404296875,1.2873294353485107,2.280066967010498,0.8411245346069336
1684108709840680400,2.322680419921875,2.014920234680176,2.516972303390503,0.7843647003173828
1684108709850721800,2.3327216796875,2.5058298110961914,1.9671553373336792,0.627100944519043
1684108709860763000,2.342762939453125,2.3052890300750732,1.4429398775100708,0.2598838806152344
1684108709870804000,2.352803955078125,1.9133267402648926,1.3508501052856445,0.045433998107910156
1684108709880845300,2.36284521484375,1.8401403427124023,1.3008625507354736,0.06520748138427734
1684108709890886700,2.37288671875,1.812864065170288,0.871009349822998,0.39983558654785156
1684108709900927700,2.382927734375,1.9006099700927734,0.14168930053710938,1.007070541381836
1684108709910968800,2.39296875,2.2292332649230957,-0.26653432846069336,1.4064130783081055
1684108709921010200,2.40301025390625,2.4866788387298584,-0.28731775283813477,1.337824821472168
1684108709931051300,2.41305126953125,2.629955291748047,-0.306779146194458,0.9080381393432617
1684108709941092600,2.423092529296875,2.6414237022399902,-0.5949718952178955,0.4097003936767578
1684108709951133700,2.4331337890625,2.522042751312256,-0.9432964324951172,-0.1582050323486328
1684108709961175000,2.443175048828125,2.1183648109436035,-0.9942302703857422,-0.42101478576660156
1684108709971216100,2.453216064453125,1.796738862991333,-1.0138976573944092,-0.6025638580322266
1684108709981257500,2.463257568359375,1.5118348598480225,-0.9898271560668945,-0.8131561279296875
1684108709991298600,2.473298583984375,1.4890646934509277,-1.170341968536377,-1.0178942680358887
1684108710001340000,2.48333984375,1.8373534679412842,-1.4577865600585938,-0.8306589126586914
1684108710011381000,2.493381103515625,2.207814931869507,-1.8445568084716797,-0.5946340560913086
1684108710021422300,2.50342236328125,2.2953460216522217,-1.8401250839233398,-0.5188798904418945
1684108710031463400,2.51346337890625,1.7059078216552734,-1.7944121360778809,-1.0299749374389648
1684108710041504800,2.5235048828125,0.800302267074585,-1.719092845916748,-1.5961246490478516
1684108710051545900,2.5335458984375,0.30556997656822205,-1.2151174545288086,-1.8827085494995117
1684108710061587200,2.543587158203125,0.24387001991271973,-0.9657254219055176,-1.3796725273132324
1684108710071628300,2.553628173828125,0.1828920841217041,-0.8191595077514648,-0.9360685348510742
1684108710081669600,2.563669677734375,0.28476399183273315,-0.29140806198120117,-0.9830408096313477
1684108710091710700,2.573710693359375,0.5669879913330078,0.5833497047424316,-1.390523910522461
1684108710101752000,2.583751953125,0.16744591295719147,0.33779001235961914,-0.21721363067626953
1684108710111793200,2.593793212890625,0.30872949957847595,0.18822455406188965,0.7731914520263672
1684108710121834500,2.60383447265625,0.4047437012195587,0.023859024047851562,1.2989892959594727
1684108710131875600,2.61387548828125,0.3976867198944092,-0.06768989562988281,1.1127023696899414
1684108710141916700,2.623916748046875,0.5574270486831665,-0.06517887115478516,0.5385608673095703
1684108710151958000,2.6339580078125,0.5214468240737915,0.08269548416137695,0.17527389526367188
1684108710161999400,2.643999267578125,0.5542521476745605,0.3853135108947754,0.33469390869140625
1684108710172040400,2.65404052734375,0.5492753982543945,0.5858144760131836,0.3988819122314453
1684108710182081500,2.66408154296875,0.7929233908653259,0.5642759799957275,0.7233848571777344
1684108710192123000,2.674122802734375,1.1638224124908447,0.6134512424468994,0.8266687393188477
1684108710202164000,2.6841640625,0.9506544470787048,0.0549931526184082,0.6711893081665039
1684108710212205300,2.694205322265625,0.4186173677444458,0.06884431838989258,-0.31427669525146484
1684108710222246400,2.704246337890625,-0.029655039310455322,-0.09260320663452148,-0.4715557098388672
1684108710232287700,2.714287841796875,-0.29863813519477844,-0.14654541015625,-0.5812215805053711
1684108710242328800,2.724328857421875,-0.3014771044254303,0.1323866844177246,-0.8156919479370117
1684108710252370200,2.7343701171875,0.358772873878479,0.7014827728271484,-0.8959007263183594
1684108710262411300,2.744411376953125,1.1168230772018433,1.485633373260498,-0.708308219909668
1684108710272452600,2.75445263671875,0.9342935085296631,1.0021886825561523,0.9083662033081055
1684108710282493700,2.76449365234375,0.6819777488708496,0.2304692268371582,2.581881523132324
1684108710292535000,2.77453515625,0.9809693694114685,0.05525922775268555,3.1162195205688477
1684108710302576000,2.784576171875,0.6590471267700195,0.12166357040405273,1.3023900985717773
1684108710312617500,2.794617431640625,-0.25606369972229004,-0.05448436737060547,-0.263824462890625
1684108710322658600,2.804658447265625,-0.7486535310745239,0.15683889389038086,-0.882206916809082
1684108710332699600,2.81469970703125,-0.44584423303604126,0.44448041915893555,-0.5819706916809082
1684108710342741000,2.824740966796875,0.17322289943695068,0.843818187713623,-0.5081901550292969
1684108710352782300,2.8347822265625,0.24531900882720947,0.9662628173828125,-0.38609981536865234
1684108710362823400,2.844823486328125,0.023516178131103516,1.0072555541992188,-0.3597583770751953
1684108710372864500,2.854864501953125,0.06897342205047607,0.8793363571166992,0.425048828125
1684108710382905900,2.86490576171875,0.3538955748081207,0.546393871307373,1.2915449142456055
1684108710392947000,2.874947021484375,0.6277723908424377,-0.4166727066040039,1.4334259033203125
1684108710402988300,2.88498828125,1.14732027053833,0.033649444580078125,0.8094005584716797
1684108710413029400,2.895029296875,1.1827880144119263,0.40346813201904297,0.3422069549560547
1684108710423070700,2.90507080078125,0.871177613735199,0.3206648826599121,0.38741397857666016
1684108710433111800,2.91511181640625,0.6288851499557495,0.2546548843383789,0.5047063827514648
1684108710443153200,2.925153076171875,0.30235105752944946,-0.00014400482177734375,0.5065774917602539
1684108710453194200,2.9351943359375,-0.029464364051818848,-0.10107994079589844,0.45990657806396484
1684108710463235600,2.945235595703125,0.10325509309768677,0.22974586486816406,0.37002086639404297
1684108710473276200,2.955276123046875,0.2263442873954773,0.21873140335083008,0.2505369186401367
1684108710483317500,2.9653173828125,0.23992428183555603,0.09956216812133789,-0.11065101623535156
1684108710493358600,2.975358642578125,0.35065966844558716,-0.008151531219482422,-0.27166080474853516
1684108710503400000,2.98539990234375,0.21593895554542542,-0.07900285720825195,-0.21709442138671875
1684108710513441000,2.99544091796875,0.23416617512702942,0.12587499618530273,0.031087875366210938
1684108710523482400,3.005482421875,0.2096124291419983,0.17315149307250977,0.5313963890075684
1684108710533523500,3.0155234375,0.07802784442901611,0.2508230209350586,0.5373945236206055
1684108710543564800,3.025564697265625,-0.022152245044708252,0.10144567489624023,0.4568614959716797
1684108710553606000,3.03560595703125,0.12951567769050598,0.040699005126953125,0.5121021270751953
1684108710563647200,3.045647216796875,0.32782596349716187,0.17554283142089844,0.6096377372741699
1684108710573688300,3.055688232421875,0.35535237193107605,-0.06433963775634766,0.9573030471801758
1684108710583729400,3.0657294921875,0.9004654884338379,0.5855569839477539,1.3961601257324219
1684108710593770800,3.075770751953125,1.18715500831604,0.10408592224121094,2.251631736755371
1684108710603812000,3.08581201171875,0.3930615782737732,-0.1335453987121582,2.4267659187316895
1684108710613853200,3.095853271484375,0.2193400114774704,0.08915233612060547,2.283141613006592
1684108710623894300,3.105894287109375,0.45746469497680664,-0.09975624084472656,1.8327479362487793
1684108710633935600,3.115935546875,-0.3416261672973633,0.0044918060302734375,1.444753646850586
1684108710643976700,3.125976806640625,-0.5048911571502686,0.26067304611206055,1.2003207206726074
1684108710654018000,3.13601806640625,-0.37198761105537415,0.43326663970947266,0.7551250457763672
1684108710664059100,3.14605908203125,0.2869682013988495,0.21010732650756836,0.5453858375549316
1684108710674100500,3.1561005859375,0.7873344421386719,0.14260005950927734,-0.20521020889282227
1684108710684141600,3.1661416015625,0.9416536688804626,0.21293926239013672,-0.44434690475463867
1684108710694183000,3.176182861328125,0.9120377898216248,0.11618566513061523,-0.10372161865234375
1684108710704224000,3.18622412109375,0.9663241505622864,-0.43241405487060547,-0.06122398376464844
1684108710714265000,3.19626513671875,0.667431116104126,-0.06369972229003906,0.24762439727783203
1684108710724306400,3.206306396484375,0.509669303894043,1.0446648597717285,0.30789756774902344
1684108710734347800,3.21634765625,0.4727720618247986,1.128340244293213,-0.390134334564209
1684108710744388900,3.226388916015625,0.43004894256591797,0.7766542434692383,-0.621307373046875
1684108710754430000,3.236429931640625,0.9183471202850342,1.1146440505981445,-0.7016243934631348
1684108710764471300,3.24647119140625,1.0106428861618042,1.4684395790100098,-1.0621776580810547
1684108710774512400,3.256512451171875,0.5572346448898315,1.5864758491516113,-0.6795434951782227
1684108710784553700,3.2665537109375,0.28290510177612305,1.6891045570373535,0.2873539924621582
1684108710794594800,3.2765947265625,0.46534085273742676,1.4820175170898438,0.9241080284118652
1684108710804636200,3.28663623046875,0.1829758882522583,1.3698668479919434,0.9113450050354004
1684108710814677200,3.29667724609375,-0.13663291931152344,1.487370491027832,1.1012778282165527
1684108710824718600,3.306718505859375,-0.5197111368179321,1.5552778244018555,1.3307671546936035
1684108710834759700,3.316759765625,-0.8217647671699524,1.4842748641967773,1.4793891906738281
1684108710844800800,3.32680078125,-0.7168472409248352,1.469388484954834,1.1617412567138672
1684108710854842000,3.336842041015625,-0.47334790229797363,1.5807809829711914,0.7875552177429199
1684108710864883200,3.34688330078125,-0.20413291454315186,1.473196029663086,0.6283950805664062
1684108710874924500,3.356924560546875,0.07010006904602051,1.048351764678955,1.3044085502624512
1684108710884965600,3.366965576171875,0.3178304433822632,0.6770014762878418,1.5846576690673828
1684108710895007000,3.377007080078125,0.8032103776931763,0.38502931594848633,1.5293736457824707
1684108710905048000,3.387048095703125,0.5560101270675659,0.23263835906982422,1.2178564071655273
1684108710915089400,3.39708935546875,0.2017269730567932,-0.1767406463623047,1.3993020057678223
1684108710925130500,3.407130615234375,0.09487229585647583,0.030441761016845703,0.9025039672851562
1684108710935171800,3.417171875,-0.3101348280906677,-0.009183406829833984,0.17062902450561523
1684108710945213000,3.427212890625,-0.2016226053237915,-0.22353792190551758,0.3500523567199707
1684108710955254300,3.437254150390625,-0.019061505794525146,-0.023845672607421875,0.5810351371765137
1684108710965295400,3.44729541015625,-0.18861809372901917,0.3225584030151367,0.9607348442077637
1684108710975336400,3.45733642578125,-0.5448012948036194,0.5279116630554199,1.5176987648010254
1684108710985377800,3.467377685546875,-1.1219830513000488,0.5582919120788574,1.9921159744262695
1684108710995419000,3.4774189453125,-1.6989696025848389,-0.13483572006225586,2.177401542663574
1684108711005460200,3.487460205078125,-1.408144474029541,-0.562502384185791,1.936342716217041
1684108711015501300,3.497501220703125,0.20548796653747559,0.2059001922607422,0.5390582084655762
1684108711025542700,3.507542724609375,1.7914351224899292,1.3359827995300293,-0.34386157989501953
1684108711035583700,3.517583740234375,2.276607036590576,0.5000591278076172,-0.5739102363586426
1684108711045625000,3.527625,1.6415045261383057,-1.147414207458496,-1.2832951545715332
1684108711055666200,3.537666259765625,0.90175861120224,-1.9341235160827637,-1.962376594543457
1684108711065707500,3.54770751953125,0.6758443713188171,-1.556821346282959,-2.369770050048828
1684108711075748600,3.55774853515625,-0.026546955108642578,-1.2375640869140625,-2.9366559982299805
1684108711085789700,3.567789794921875,-0.4481322765350342,-0.9849567413330078,-2.5480875968933105
1684108711095831000,3.5778310546875,0.16400408744812012,-1.6844162940979004,0.8718929290771484
1684108711105872100,3.5878720703125,1.3453713655471802,-1.6761970520019531,2.3581809997558594
1684108711115913500,3.59791357421875,1.1678487062454224,-1.70924711227417,2.654181480407715
1684108711125954600,3.60795458984375,1.384576439857483,-1.8872766494750977,2.4278674125671387
1684108711135996000,3.617995849609375,1.496236801147461,-1.9886713027954102,1.8733463287353516
1684108711146037000,3.628037109375,1.5251669883728027,-2.3179678916931152,1.5289416313171387
1684108711156078300,3.638078369140625,1.4172229766845703,-2.201528549194336,0.8373069763183594
1684108711166119400,3.648119384765625,2.1381545066833496,-1.7112393379211426,0.1851520538330078
1684108711176160500,3.658160400390625,2.106525421142578,-1.7585806846618652,0.21619606018066406
1684108711186201900,3.668201904296875,1.8886853456497192,-1.3435759544372559,-0.5772886276245117
1684108711196243000,3.678242919921875,1.8298804759979248,-0.5288600921630859,-1.9542632102966309
1684108711206284300,3.6882841796875,2.3273513317108154,0.3118448257446289,-3.062836170196533
1684108711216325400,3.698325439453125,3.3431344032287598,-0.23573637008666992,-2.9133262634277344
1684108711226366700,3.70836669921875,3.703385353088379,-1.0325546264648438,-1.9069476127624512
1684108711236407800,3.71840771484375,3.9843945503234863,-0.936211109161377,-2.444462299346924
1684108711246449200,3.72844921875,3.6026060581207275,-0.8337302207946777,-3.299856185913086
1684108711256490200,3.738490234375,2.5912327766418457,-0.777247428894043,-3.7751386165618896
1684108711266531600,3.748531494140625,1.9073652029037476,-0.47196006774902344,-3.810636281967163
1684108711276572700,3.75857275390625,0.5155994892120361,-0.3165297508239746,-3.2895989418029785
1684108711286613800,3.76861376953125,-0.0758821964263916,-0.019711971282958984,-2.9216880798339844
1684108711296655000,3.778655029296875,-0.061431884765625,0.48772573471069336,-2.9991626739501953
1684108711306696200,3.7886962890625,-0.5308685302734375,0.3073105812072754,-2.193758964538574
1684108711316737500,3.798737548828125,-1.2350430488586426,0.032692909240722656,-0.7223362922668457
1684108711326778600,3.808778564453125,-2.1969387531280518,0.02840709686279297,0.5733013153076172
1684108711336820000,3.818820068359375,-2.054069757461548,0.5384130477905273,1.036670207977295
1684108711346861000,3.828861083984375,-1.6892728805541992,0.12193155288696289,0.8686823844909668
1684108711356902100,3.838902099609375,-1.2500927448272705,-0.15333032608032227,1.6771469116210938
1684108711366943500,3.848943603515625,-0.9118194580078125,-0.03403282165527344,1.7555031776428223
1684108711376984600,3.858984619140625,-1.2397713661193848,-0.25832605361938477,1.2897281646728516
1684108711387026000,3.86902587890625,-1.3931312561035156,-0.29781341552734375,1.462320327758789
1684108711397067000,3.87906689453125,-1.24837327003479,-0.18980789184570312,1.6666908264160156
1684108711407108400,3.8891083984375,-1.3587164878845215,-0.21939897537231445,1.7165188789367676
1684108711417149400,3.8991494140625,-1.1934735774993896,-0.3516244888305664,1.681917667388916
1684108711427190800,3.909190673828125,-1.1367912292480469,-0.7413058280944824,1.0539302825927734
1684108711437231900,3.91923193359375,-1.0768213272094727,-0.6172957420349121,0.5877542495727539
1684108711447273000,3.92927294921875,-1.408686637878418,-0.06629133224487305,0.22941970825195312
1684108711457314300,3.939314208984375,-1.6318020820617676,0.056832313537597656,-0.029929161071777344
1684108711467355400,3.94935546875,-1.425081491470337,-0.310579776763916,1.7008423805236816
1684108711477396700,3.959396728515625,-0.5033612251281738,-0.08643054962158203,1.3001861572265625
1684108711487437800,3.969437744140625,0.6608388423919678,-0.06944942474365234,-2.161269187927246
1684108711497479200,3.979479248046875,1.7916314601898193,0.3758258819580078,-5.262604236602783
1684108711507520300,3.989520263671875,1.1857033967971802,0.3046889305114746,-4.489589691162109
1684108711517561300,3.999561279296875,0.6245930194854736,-0.4096989631652832,-1.2150506973266602
1684108711527602700,4.009602783203125,-0.1301581859588623,-3.016824245452881,-0.9759798049926758
1684108711537644000,4.01964404296875,-0.5933983325958252,-4.338473320007324,0.22182750701904297
1684108711547685000,4.02968505859375,0.025529146194458008,-3.942318916320801,0.6812715530395508
1684108711557726200,4.039726318359375,1.7229331731796265,-3.101071834564209,1.172957420349121
1684108711567767600,4.049767578125,2.8180222511291504,-2.80859375,2.0016403198242188
1684108711577808600,4.05980859375,3.059699535369873,-2.945148468017578,1.064650535583496
1684108711587850000,4.06985009765625,2.9738471508026123,-2.1638169288635254,-1.1346092224121094
1684108711597891000,4.07989111328125,2.114305257797241,-1.5007953643798828,-2.8279294967651367
1684108711607932400,4.089932373046875,1.2264103889465332,-0.9661240577697754,-3.0715088844299316
1684108711617973500,4.099973388671875,0.6015106439590454,0.02692127227783203,-3.047179698944092
1684108711628014600,4.1100146484375,-0.051495909690856934,1.0880131721496582,-3.2107338905334473
1684108711638056000,4.120055908203125,-0.4567999839782715,1.6601481437683105,-3.34531307220459
1684108711648097000,4.130096923828125,-0.6770288944244385,1.0558972358703613,-2.9336676597595215
1684108711658138400,4.140138427734375,-0.3553811311721802,0.9476051330566406,-2.819002628326416
1684108711668179500,4.150179443359375,0.18206369876861572,1.246654987335205,-1.3502812385559082
1684108711678220800,4.160220703125,1.4596152305603027,1.3267769813537598,-0.949397087097168
1684108711688262000,4.170261962890625,2.564598560333252,0.7959389686584473,-0.6229948997497559
1684108711698303000,4.180302978515625,2.4663877487182617,0.14315223693847656,0.07680177688598633
1684108711708344300,4.19034423828125,2.138446092605591,-0.17805862426757812,0.11953401565551758
1684108711718385400,4.200385498046875,2.1117100715637207,0.047772884368896484,-0.7603445053100586
1684108711728426800,4.2104267578125,2.4510960578918457,0.39665889739990234,-0.5294570922851562
1684108711738467800,4.2204677734375,2.494079113006592,0.6222434043884277,-0.6185460090637207
1684108711748509200,4.23050927734375,1.5435847043991089,0.4733309745788574,-0.7194309234619141
1684108711758550300,4.24055029296875,1.2345372438430786,0.14420413970947266,0.11980199813842773
1684108711768591400,4.25059130859375,0.8464213013648987,0.6784868240356445,-0.14026546478271484
1684108711778632700,4.2606328125,2.120286464691162,2.2731094360351562,0.48597002029418945
1684108711788673800,4.270673828125,3.141458034515381,2.7435317039489746,1.488840103149414
1684108711798715100,4.280715087890625,3.991879463195801,1.325845718383789,1.225639820098877
1684108711808756200,4.290756103515625,4.158103942871094,0.06173229217529297,0.5283718109130859
1684108711818797600,4.300797607421875,3.212476968765259,-0.4516172409057617,-0.709805965423584
1684108711828838700,4.310838623046875,2.5283515453338623,-0.9010767936706543,-1.2051467895507812
1684108711838879700,4.320879638671875,2.5919618606567383,-0.4095115661621094,-1.3715438842773438
1684108711848921000,4.330921142578125,3.175527572631836,-0.5286636352539062,-0.3626747131347656
1684108711858962200,4.340962158203125,2.939382553100586,-1.3921308517456055,0.6637692451477051
1684108711869003500,4.35100341796875,2.397515296936035,-1.7724919319152832,0.795295238494873
1684108711879044600,4.361044677734375,2.004260778427124,-1.5143070220947266,0.8664393424987793
1684108711889086000,4.3710859375,1.5355855226516724,-1.951375961303711,0.560823917388916
1684108711899127000,4.381126953125,1.1854982376098633,-1.5540146827697754,-0.08702945709228516
1684108711909168000,4.391168212890625,0.8956838846206665,-1.3536653518676758,-1.1490178108215332
1684108711919209500,4.40120947265625,0.4128682613372803,-1.363032341003418,-1.5490589141845703
1684108711929250600,4.41125048828125,0.22466135025024414,-1.7161097526550293,-0.8595728874206543
1684108711939292000,4.4212919921875,0.3274416923522949,-1.1155848503112793,0.10520172119140625
1684108711949333000,4.4313330078125,0.02964949607849121,-0.23446083068847656,0.7641348838806152
1684108711959374300,4.441374267578125,-0.4305911064147949,-0.47367143630981445,2.2235536575317383
1684108711969415400,4.45141552734375,-0.25130414962768555,0.41860103607177734,1.9514470100402832
1684108711979456500,4.46145654296875,0.35475659370422363,0.47919511795043945,1.559433937072754
1684108711989497900,4.471497802734375,0.7049729824066162,0.3052215576171875,0.9347777366638184
1684108711999539000,4.4815390625,0.9302188158035278,0.13136053085327148,0.8148527145385742
1684108712009580300,4.491580322265625,1.0728510618209839,0.21886491775512695,0.8161859512329102
1684108712019621400,4.501621337890625,0.6908631324768066,0.16419696807861328,0.870758056640625
1684108712029662500,4.511662353515625,0.2937626838684082,-0.15216588973999023,1.913062572479248
1684108712039703800,4.521703857421875,-0.001519918441772461,0.14924049377441406,2.089165687561035
1684108712049745000,4.531744873046875,-0.5276401042938232,0.39466285705566406,2.283656597137451
1684108712059786200,4.5417861328125,-0.048735618591308594,0.0726017951965332,3.08449125289917
1684108712069827300,4.551827392578125,1.183813452720642,0.34914541244506836,2.4471302032470703
1684108712079868400,4.561868408203125,0.15021538734436035,0.6310186386108398,1.0187773704528809
1684108712089909800,4.57190966796875,0.011914491653442383,-0.08627891540527344,1.3384370803833008
1684108712099950800,4.581950927734375,0.013387918472290039,0.31232261657714844,1.2320733070373535
1684108712109992200,4.5919921875,-0.05551791191101074,-0.41852235794067383,0.6284542083740234
1684108712120033300,4.602033203125,0.12446057796478271,-0.3526887893676758,0.34168481826782227
1684108712130074600,4.61207470703125,0.19952428340911865,-0.3863344192504883,0.7815489768981934
1684108712140115700,4.62211572265625,-0.35478675365448,-0.672274112701416,0.5857048034667969
1684108712150156800,4.63215673828125,-0.34706127643585205,-0.36124420166015625,0.7114934921264648
1684108712160198100,4.6421982421875,-0.012357950210571289,-0.3402113914489746,1.3885436058044434
1684108712170239200,4.6522392578125,-0.05577123165130615,-0.2813735008239746,1.195249080657959
1684108712180280600,4.662280517578125,-0.34998035430908203,-0.04754161834716797,0.5085320472717285
1684108712190321700,4.67232177734375,-0.054113030433654785,0.7256460189819336,-0.14447689056396484
1684108712200363000,4.682363037109375,-0.4743233919143677,0.3184366226196289,-0.17359161376953125
1684108712210404000,4.692404052734375,-0.5616225004196167,0.14494562149047852,1.111067295074463
1684108712220445200,4.702445068359375,-0.7811377644538879,-0.023015499114990234,1.5505342483520508
1684108712230486500,4.712486572265625,-0.7956405282020569,1.2276721000671387,1.166243076324463
1684108712240527600,4.722527587890625,-0.7873067855834961,0.7456865310668945,-2.5103726387023926
1684108712250569000,4.73256884765625,-0.10988450050354004,0.20804882049560547,-2.2717580795288086
1684108712260610000,4.742610107421875,0.9561514854431152,-0.11517715454101562,-1.0733075141906738
1684108712270651100,4.752651123046875,2.352111339569092,-0.4201388359069824,-0.33165693283081055
1684108712280692500,4.7626923828125,1.9514689445495605,0.058940887451171875,0.12439727783203125
1684108712290733600,4.772733642578125,1.798484444618225,1.6475391387939453,2.1640233993530273
1684108712300775000,4.78277490234375,1.6187304258346558,1.931347370147705,-0.31130361557006836
1684108712310816000,4.79281591796875,0.3738529682159424,1.4986052513122559,-1.6524510383605957
1684108712320857300,4.802857421875,-0.6648063659667969,0.9512844085693359,-1.8522005081176758
1684108712330898400,4.8128984375,-0.851945698261261,0.4025535583496094,-2.118971824645996
1684108712340939500,4.822939453125,-0.23116236925125122,-0.08639097213745117,-2.0086264610290527
1684108712350980900,4.83298095703125,0.6143326759338379,0.0655369758605957,-1.4015026092529297
1684108712361022000,4.84302197265625,1.3228614330291748,0.27417898178100586,-1.3909907341003418
1684108712371063300,4.853063232421875,1.8871674537658691,0.8349018096923828,-1.4808220863342285
1684108712381104400,4.8631044921875,2.289083242416382,1.3846778869628906,-0.8376293182373047
1684108712391145500,4.8731455078125,1.9682215452194214,1.3718876838684082,0.3302278518676758
1684108712401186800,4.883186767578125,1.14594566822052,0.5875582695007324,1.27125883102417
1684108712411228000,4.893227783203125,0.2965778112411499,-0.15648603439331055,1.3219327926635742
1684108712421269200,4.903269287109375,-0.03363734483718872,-1.2772269248962402,2.022632598876953
1684108712431310300,4.913310302734375,0.17215722799301147,-2.3465662002563477,2.5281448364257812
1684108712441351700,4.9233515625,0.7956440448760986,-1.892561435699463,1.7885260581970215
1684108712451392800,4.933392822265625,0.773222804069519,-0.7334260940551758,1.15864896774292
1684108712461433900,4.943433837890625,0.40217143297195435,-0.05412006378173828,0.6881546974182129
1684108712471475200,4.95347509765625,0.09312677383422852,-0.1606135368347168,0.6326870918273926
1684108712481516300,4.963516357421875,-0.16076254844665527,-0.11708927154541016,0.18731355667114258
1684108712491557400,4.973557373046875,-0.5876731872558594,-0.14900827407836914,-0.28701066970825195
1684108712501598700,4.9835986328125,-0.5300461053848267,-0.16674041748046875,-0.17673492431640625
1684108712511639800,4.993639892578125,-0.13091373443603516,0.03807783126831055,0.06010913848876953
1684108712521681200,5.00368115234375,0.2792471647262573,0.13220977783203125,0.23063898086547852
1684108712531722200,5.01372216796875,0.6792625188827515,0.1140751838684082,0.48302221298217773
1684108712541763300,5.023763427734375,0.6974788904190063,0.19057035446166992,0.22554874420166016
1684108712551804700,5.0338046875,0.8294931650161743,1.4282636642456055,0.7893943786621094
1684108712561845800,5.043845703125,0.3542243242263794,1.5247650146484375,0.5566897392272949
1684108712571887000,5.05388720703125,0.531606137752533,1.0302000045776367,-0.19547510147094727
1684108712581928200,5.06392822265625,0.7071011066436768,0.39644527435302734,-0.7846007347106934
1684108712591969500,5.073969482421875,0.5653629899024963,-0.37764692306518555,-0.9483709335327148
1684108712602010600,5.0840107421875,0.7130151987075806,-0.6543064117431641,-0.8455028533935547
1684108712612051700,5.0940517578125,0.9011772871017456,-0.3513212203979492,-0.38508033752441406
1684108712622093000,5.104093017578125,0.9995672702789307,0.025953292846679688,0.42038965225219727
1684108712632134100,5.114134033203125,1.0589377880096436,0.48453569412231445,0.9435505867004395
1684108712642175500,5.124175537109375,1.1245124340057373,0.8650364875793457,1.456831932067871
1684108712652216600,5.134216552734375,0.9940961599349976,1.0590825080871582,1.6768460273742676
1684108712662257700,5.144257568359375,0.5908604860305786,1.2675199508666992,1.6491012573242188
1684108712672299000,5.154299072265625,0.27595436573028564,1.6584882736206055,1.394495964050293
1684108712682340000,5.164340087890625,-0.10854244232177734,2.042692184448242,1.1479911804199219
1684108712692381200,5.174381103515625,0.19305109977722168,1.5550007820129395,0.8740024566650391
1684108712702422500,5.184422607421875,0.5239314436912537,-1.174476146697998,2.0651559829711914
1684108712712463600,5.194463623046875,2.283388614654541,0.3353605270385742,1.2632689476013184
1684108712722505000,5.2045048828125,1.3162100315093994,0.9192714691162109,1.65098237991333
1684108712732546000,5.214546142578125,0.5185407400131226,0.8571000099182129,0.7791762351989746
1684108712742587400,5.22458740234375,1.0820714235305786,0.9677643775939941,-0.5718393325805664
1684108712752628500,5.23462841796875,1.2925703525543213,0.25627851486206055,-1.523064136505127
1684108712762669600,5.244669677734375,1.194084644317627,-0.580596923828125,-1.1332931518554688
1684108712772711000,5.2547109375,0.7347766160964966,-0.7623586654663086,0.20609521865844727
1684108712782752000,5.264751953125,0.32896888256073,-0.17735719680786133,1.5705742835998535
1684108712792793300,5.27479345703125,1.2219057083129883,0.4239182472229004,2.049379348754883
1684108712802834400,5.28483447265625,1.5424599647521973,0.5992403030395508,1.631162166595459
1684108712812875500,5.29487548828125,1.0422861576080322,0.22566509246826172,0.7459192276000977
1684108712822916900,5.304916748046875,0.49691832065582275,-0.5228910446166992,-0.21642780303955078
1684108712832958000,5.3149580078125,0.35406750440597534,-0.9362115859985352,-0.5314736366271973
1684108712842999000,5.3249990234375,0.6500958204269409,-0.7399773597717285,-0.5955052375793457
1684108712853040400,5.335040283203125,1.0133914947509766,-0.497586727142334,-0.5329074859619141
1684108712863081500,5.34508154296875,1.3716391324996948,-0.21980905532836914,-0.1873488426208496
1684108712873122800,5.355122802734375,1.4449398517608643,-0.4394650459289551,0.4541134834289551
1684108712883164000,5.365163818359375,1.641078233718872,-0.11722183227539062,0.7889676094055176
1684108712893205000,5.375205078125,1.5331840515136719,0.20992755889892578,0.8613567352294922
1684108712903246300,5.385246337890625,1.3454176187515259,0.27169322967529297,0.6337432861328125
1684108712913287400,5.395287353515625,1.1949927806854248,0.17093801498413086,0.23604583740234375
1684108712923328800,5.405328857421875,0.9502308368682861,0.08815479278564453,-0.5945725440979004
1684108712933369900,5.415369873046875,0.6318256855010986,0.01903057098388672,-1.356318473815918
1684108712943411000,5.425410888671875,0.4049276113510132,0.012602806091308594,-1.5248775482177734
1684108712953452300,5.435452392578125,0.2448807954788208,0.0370330810546875,-1.1224188804626465
1684108712963493400,5.445493408203125,0.29931819438934326,0.0963134765625,-0.6147818565368652
1684108712973534700,5.45553466796875,0.3423234224319458,0.1453723907470703,-0.15885257720947266
1684108712983575800,5.465575927734375,-0.040423035621643066,0.24160242080688477,0.20232295989990234
1684108712993617000,5.475616943359375,-0.33874380588531494,0.18872451782226562,0.5200161933898926
1684108713003658200,5.485658203125,-0.5111209154129028,0.11986541748046875,0.7331323623657227
1684108713013699300,5.49569921875,-0.8653366565704346,0.4897332191467285,0.8350138664245605
1684108713023740700,5.50574072265625,-1.3594785928726196,0.6334590911865234,1.0255603790283203
1684108713033781800,5.51578173828125,-1.7605340480804443,0.41832590103149414,1.0715808868408203
1684108713043822800,5.52582275390625,-2.0130176544189453,-0.13020658493041992,0.9075899124145508
1684108713053864200,5.5358642578125,-2.0181572437286377,-0.49431514739990234,0.45357751846313477
1684108713063905300,5.5459052734375,-1.5916287899017334,-0.47962474822998047,0.4755525588989258
1684108713073946600,5.555946533203125,-0.7441544532775879,-0.2560091018676758,0.8719353675842285
1684108713083987700,5.56598779296875,-0.27878832817077637,-0.0927591323852539,1.2196006774902344
1684108713094028800,5.57602880859375,-0.5469410419464111,-0.40393686294555664,0.8986725807189941
1684108713104070100,5.586070068359375,-0.6838724613189697,-0.5175008773803711,0.48710107803344727
1684108713114111200,5.596111328125,-0.38602256774902344,0.06631088256835938,0.2835965156555176
1684108713124152300,5.60615234375,-0.918048620223999,-0.09817171096801758,0.2408452033996582
1684108713134193700,5.616193603515625,-1.3718514442443848,-0.6445565223693848,-0.046362876892089844
1684108713144234800,5.62623486328125,-1.6582133769989014,-1.0165915489196777,-0.18481683731079102
1684108713154276000,5.636276123046875,-1.7597730159759521,-1.4284868240356445,-0.023502349853515625
1684108713164317200,5.646317138671875,-1.718886137008667,-1.6458115577697754,0.31127119064331055
1684108713174358300,5.656358154296875,-1.6816701889038086,-1.5271210670471191,0.48149776458740234
1684108713184399600,5.666399658203125,-1.4688317775726318,-0.980659008026123,0.17267990112304688
1684108713194440700,5.676440673828125,-1.1059186458587646,-0.45998334884643555,0.13242340087890625
1684108713204482000,5.68648193359375,-0.5079076290130615,0.14571285247802734,0.03053760528564453
1684108713214523100,5.696523193359375,-0.20703482627868652,0.15525436401367188,0.09024810791015625
1684108713224564200,5.706564208984375,-0.032105207443237305,-0.10207366943359375,0.1542034149169922
1684108713234605600,5.71660546875,0.2613952159881592,-0.28469085693359375,0.24076128005981445
1684108713244646700,5.726646728515625,0.6874895095825195,-0.14751863479614258,0.36777687072753906
1684108713254687700,5.736687744140625,1.1465250253677368,0.20723342895507812,0.37221717834472656
1684108713264729000,5.74672900390625,1.2960456609725952,0.45610952377319336,0.13557815551757812
1684108713274770200,5.756770263671875,1.332143783569336,0.38698863983154297,-0.5130653381347656
1684108713284811500,5.7668115234375,1.5253021717071533,0.306427001953125,-1.3522777557373047
1684108713294852600,5.7768525390625,1.4753319025039673,0.39430761337280273,-1.8330812454223633
1684108713304893700,5.786893798828125,1.1121814250946045,0.15012550354003906,-1.965214729309082
1684108713314935000,5.79693505859375,1.1370441913604736,0.41804075241088867,-1.973620891571045
1684108713324976000,5.80697607421875,0.7963864803314209,0.48648929595947266,-1.6288042068481445
1684108713335017200,5.817017333984375,0.5491974353790283,0.30828332901000977,-1.1542706489562988
1684108713345058600,5.82705859375,0.7111001014709473,-0.003944873809814453,-0.8438529968261719
1684108713355099600,5.837099609375,0.6914832592010498,0.24000215530395508,-0.5901632308959961
1684108713365141000,5.84714111328125,-0.11136484146118164,-0.062041282653808594,-0.39330530166625977
1684108713375182000,5.85718212890625,-0.43412327766418457,0.24432086944580078,-0.4543337821960449
1684108713385223200,5.86722314453125,-0.6804208755493164,0.2992744445800781,-0.21671247482299805
1684108713395264500,5.877264404296875,-0.6775002479553223,-0.028336048126220703,-0.08538579940795898
1684108713405305600,5.8873056640625,-0.46380090713500977,-0.5408382415771484,0.015033245086669922
1684108713415347000,5.897346923828125,0.06618762016296387,-0.0718221664428711,0.2637209892272949
1684108713425388000,5.907387939453125,-0.04146265983581543,0.026124954223632812,0.5593881607055664
1684108713435429000,5.91742919921875,-0.23453927040100098,-0.3226442337036133,0.5824975967407227
1684108713445470500,5.927470458984375,0.6668701171875,0.00260162353515625,0.3603043556213379
1684108713455511600,5.937511474609375,-0.44751548767089844,-1.0696353912353516,0.25670719146728516
1684108713465552600,5.947552734375,-0.06155514717102051,-0.8888955116271973,0.22775745391845703
1684108713475594000,5.957593994140625,-0.426119327545166,-0.5083732604980469,0.4009971618652344
1684108713485635000,5.967635009765625,-0.7318170070648193,-0.23859405517578125,0.36460399627685547
1684108713495676400,5.977676513671875,-0.16224384307861328,1.0520825386047363,0.6153416633605957
1684108713505717500,5.987717529296875,-1.1902544498443604,0.19524908065795898,0.3337092399597168
1684108713515758600,5.997758544921875,-1.1941254138946533,-0.36641550064086914,0.13776254653930664
1684108713525800000,6.007800048828125,-0.32868504524230957,-0.6736059188842773,0.42929792404174805
1684108713535841000,6.017841064453125,1.2702200412750244,-0.6607599258422852,0.6139340400695801
1684108713545882000,6.027882080078125,2.7153451442718506,-0.5189633369445801,0.7818460464477539
1684108713555923500,6.03792333984375,2.4578299522399902,-0.030430316925048828,-0.20353412628173828
1684108713565964500,6.047964599609375,1.9999243021011353,0.023128509521484375,-1.1694469451904297
1684108713576006000,6.058005859375,2.2102935314178467,0.4539661407470703,-1.4911808967590332
1684108713586047000,6.068046875,2.5339198112487793,0.6829080581665039,-1.6961297988891602
1684108713596088000,6.078088134765625,1.639344334602356,0.2749643325805664,-1.4920339584350586
1684108713606129400,6.08812939453125,-0.4228403568267822,0.052271366119384766,-0.20733404159545898
1684108713616170500,6.09817041015625,-2.2958931922912598,-0.25183820724487305,1.0788850784301758
1684108713626211600,6.108211669921875,-2.6611108779907227,-0.5512027740478516,1.6418743133544922
1684108713636253000,6.1182529296875,-0.8014805316925049,-0.4647245407104492,1.1310338973999023
1684108713646294000,6.1282939453125,0.17997169494628906,0.0361332893371582,-0.0075511932373046875
1684108713656335400,6.13833544921875,0.17182540893554688,0.7054686546325684,-0.4677562713623047
1684108713666376400,6.14837646484375,0.42985057830810547,2.332180976867676,0.49410200119018555
1684108713676417500,6.15841748046875,-0.5373368263244629,1.278027057647705,-0.3943343162536621
1684108713686459000,6.168458984375,-0.4309520721435547,0.2159409523010254,-1.236250877380371
1684108713696500000,6.1785,0.23380756378173828,0.25964975357055664,-1.6257233619689941
1684108713706541000,6.188541015625,1.0582664012908936,-0.01999187469482422,-1.4829273223876953
1684108713716582400,6.19858251953125,1.327155351638794,0.03045034408569336,-1.3402924537658691
1684108713726623500,6.20862353515625,1.4354543685913086,0.25954532623291016,-1.0457444190979004
1684108713736664600,6.21866455078125,1.412723422050476,0.096710205078125,-0.9605488777160645
1684108713746706000,6.228705810546875,1.0334391593933105,-0.13328027725219727,-1.0420866012573242
1684108713756747000,6.2387470703125,0.15044260025024414,-0.13535499572753906,-1.4373836517333984
1684108713766788400,6.248788330078125,-1.0608065128326416,-0.030960559844970703,-2.1876301765441895
1684108713776829400,6.258829345703125,-2.0377206802368164,0.082794189453125,-3.0441856384277344
1684108713786870500,6.26887060546875,-1.8257637023925781,0.11878347396850586,-3.170581817626953
1684108713796911900,6.278911865234375,-1.2241606712341309,0.21574020385742188,-2.6525747776031494
1684108713806953000,6.288952880859375,-0.5724091529846191,0.4094200134277344,-1.8669862747192383
1684108713816994000,6.298994140625,0.08793997764587402,0.4257321357727051,-1.1354413032531738
1684108713827035400,6.309035400390625,0.48876357078552246,0.32105588912963867,-0.6122493743896484
1684108713837076500,6.319076416015625,0.5646343231201172,0.4605836868286133,-0.37209272384643555
1684108713847117800,6.329117919921875,0.41016197204589844,1.2039189338684082,-0.2137441635131836
1684108713857159000,6.339158935546875,-0.2919797897338867,1.2797818183898926,-0.11932659149169922
1684108713867200000,6.349199951171875,-0.6796097755432129,1.3296198844909668,-0.04932832717895508
1684108713877241300,6.359241455078125,-0.8506648540496826,1.4979190826416016,-0.014978408813476562
1684108713887282400,6.369282470703125,-0.7929186820983887,1.599802017211914,0.16935062408447266
1684108713897323500,6.379323486328125,-0.6427838802337646,1.7919831275939941,0.5377211570739746
1684108713907364900,6.38936474609375,-0.4589579105377197,1.6476917266845703,0.657257080078125
1684108713917406000,6.399406005859375,-0.5130982398986816,0.1158905029296875,0.9274916648864746
1684108713927447000,6.409447021484375,-0.824662446975708,-1.4961566925048828,1.1178221702575684
1684108713937488400,6.41948828125,-0.523216724395752,-2.2416763305664062,1.249739170074463
1684108713947529500,6.429529541015625,-0.24142098426818848,-3.3838911056518555,1.1505823135375977
1684108713957570600,6.439570556640625,-0.52337646484375,-3.7254467010498047,0.9782295227050781
1684108713967612000,6.44961181640625,-0.8528304100036621,-2.664238929748535,0.881568431854248
1684108713977653000,6.459653076171875,-1.0673081874847412,-1.0953474044799805,0.9363541603088379
1684108713987694300,6.4696943359375,-1.081364631652832,-0.02758502960205078,1.138129711151123
1684108713997735400,6.4797353515625,-1.4752235412597656,0.159942626953125,1.3718390464782715
1684108714007776500,6.489776611328125,-2.6036646366119385,-0.4440746307373047,1.5408034324645996
1684108714017817900,6.49981787109375,-3.877901077270508,-1.2242498397827148,1.7013030052185059
1684108714027859000,6.50985888671875,-3.5320370197296143,-1.245488166809082,2.0620079040527344
1684108714037900000,6.519900146484375,-1.5191287994384766,-0.781494140625,2.058204174041748
1684108714047941400,6.52994140625,0.3473846912384033,-0.6585721969604492,1.342115879058838
1684108714057982500,6.539982421875,1.7602028846740723,-0.7325887680053711,0.6442623138427734
1684108714068023800,6.55002392578125,2.5882248878479004,-1.0745439529418945,0.097930908203125
1684108714078065000,6.56006494140625,2.387679100036621,-0.8766593933105469,-0.47443199157714844
1684108714088106000,6.57010595703125,1.0124787092208862,-0.3694801330566406,-1.0952551364898682
1684108714098147300,6.580147216796875,-0.36046648025512695,0.029341697692871094,-1.570481777191162
1684108714108188400,6.5901884765625,-1.1487092971801758,0.3177652359008789,-1.7198905944824219
1684108714118229500,6.6002294921875,-1.332993507385254,0.40386056900024414,-1.6620371341705322
1684108714128270800,6.610270751953125,-1.1199991703033447,-0.011010169982910156,-1.418736219406128
1684108714138312000,6.62031201171875,-0.6146838665008545,-0.1862621307373047,-1.0975627899169922
1684108714148353000,6.63035302734375,0.06665706634521484,-0.33519458770751953,-0.694166898727417
1684108714158394400,6.640394287109375,0.6437103748321533,-0.4582071304321289,-0.10553503036499023
1684108714168435500,6.650435546875,1.2600990533828735,-0.20681476593017578,0.7289643287658691
1684108714178476500,6.6604765625,1.7134108543395996,0.567896842956543,0.39682435989379883
1684108714188518000,6.670517822265625,1.693479061126709,0.4485607147216797,0.1482558250427246
1684108714198559000,6.68055908203125,2.262272357940674,1.449354648590088,0.6031112670898438
1684108714208600300,6.690600341796875,2.6412060260772705,0.7066583633422852,0.47405195236206055
1684108714218641400,6.700641357421875,2.6058082580566406,-0.6263542175292969,0.5135512351989746
1684108714228682500,6.7106826171875,2.6044602394104004,-1.646845817565918,0.356966495513916
1684108714238723800,6.720723876953125,2.4226913452148438,-2.0198726654052734,-0.03656339645385742
1684108714248765000,6.730764892578125,2.765601634979248,-0.5793380737304688,0.27008485794067383
1684108714258806000,6.740805908203125,2.786153554916382,0.2716217041015625,-0.10422801971435547
1684108714268847400,6.750847412109375,2.2126119136810303,0.17110443115234375,-0.7749929428100586
1684108714278888400,6.760888427734375,1.5121279954910278,0.2665224075317383,-1.212221384048462
1684108714288929500,6.770929443359375,0.633879542350769,0.2862215042114258,-1.120939016342163
1684108714298971000,6.780970947265625,-0.15304088592529297,0.16065597534179688,-1.0715749263763428
1684108714309012000,6.791011962890625,-0.8349471092224121,-0.08324337005615234,-0.7789204120635986
1684108714319053000,6.801052978515625,-1.3095976114273071,-0.10485172271728516,-0.4425015449523926
1684108714329094400,6.811094482421875,-1.268284559249878,-0.4277305603027344,-0.04955244064331055
1684108714339135500,6.821135498046875,-0.6710894107818604,-0.1933002471923828,0.048244476318359375
1684108714349176800,6.8311767578125,-0.3926525115966797,0.037543296813964844,-0.08553695678710938
1684108714359218000,6.841218017578125,-0.32147467136383057,-0.06169605255126953,-0.2259998321533203
1684108714369259000,6.851259033203125,0.1626676321029663,-0.5755538940429688,-0.19214105606079102
1684108714379300000,6.861300048828125,1.5631486177444458,-0.5525236129760742,-0.11177968978881836
1684108714389341400,6.871341552734375,1.7824872732162476,-0.7365198135375977,-0.3747391700744629
1684108714399382500,6.881382568359375,1.2186965942382812,-0.9207706451416016,-0.39821958541870117
1684108714409424000,6.891423828125,0.8148327469825745,-0.8795747756958008,-0.006711483001708984
1684108714419465000,6.90146484375,0.5061362385749817,-0.8223447799682617,0.34468793869018555
1684108714429506000,6.911506103515625,0.4903786778450012,-0.26387596130371094,0.3649110794067383
1684108714439547400,6.92154736328125,0.7519921064376831,-0.2272968292236328,0.3537478446960449
1684108714449588500,6.93158837890625,0.9164316654205322,-0.36089324951171875,0.006866455078125
1684108714459629600,6.941629638671875,0.9646956324577332,-0.11133575439453125,-0.5744309425354004
1684108714469671000,6.9516708984375,0.3248923420906067,-0.2960977554321289,-1.2588613033294678
1684108714479712000,6.9617119140625,0.556361198425293,2.868692398071289,-2.0059006214141846
1684108714489753000,6.971753173828125,0.39475345611572266,2.2058043479919434,-1.219738483428955
1684108714499794400,6.98179443359375,-0.9093042016029358,1.953425407409668,-0.9207916259765625
1684108714509835500,6.99183544921875,-0.759188711643219,2.5018177032470703,-0.9852442741394043
1684108714519876600,7.001876708984375,-0.04114353656768799,2.1849751472473145,-0.8976445198059082
1684108714529918000,7.01191796875,0.5198436975479126,1.834294319152832,-1.044313907623291
1684108714539959000,7.021958984375,1.04021155834198,1.3270339965820312,-1.291102647781372
1684108714550000400,7.03200048828125,1.1234999895095825,-0.04006767272949219,-1.7072436809539795
1684108714560041500,7.04204150390625,0.7263013124465942,-1.1932134628295898,-2.0259156227111816
1684108714570082600,7.05208251953125,0.6263096332550049,-1.6321706771850586,-1.8648432493209839
1684108714580124000,7.0621240234375,0.13953450322151184,-2.8307695388793945,-1.6225204467773438
1684108714590165000,7.0721650390625,-0.14671480655670166,-3.9719743728637695,-1.2200520038604736
1684108714600206000,7.0822060546875,0.039414286613464355,-4.082291603088379,-0.7467637062072754
1684108714610247200,7.0922470703125,0.7237277030944824,-2.009768486022949,-0.1242063045501709
1684108714620288500,7.10228857421875,1.1019744873046875,0.2825355529785156,0.5386514663696289
1684108714630329600,7.11232958984375,0.6607339978218079,0.8911285400390625,0.9271965026855469
1684108714640371000,7.122370849609375,0.1165018081665039,0.3515043258666992,0.9744968414306641
1684108714650412000,7.132412109375,-0.0041054487228393555,0.07773971557617188,1.0542266368865967
1684108714660453000,7.142453125,0.2024717926979065,0.37299251556396484,1.22422194480896
1684108714670494500,7.152494384765625,0.3910573124885559,0.7378044128417969,1.2766211032867432
1684108714680535600,7.16253564453125,0.5112074613571167,0.3937253952026367,0.8776247501373291
1684108714690576600,7.17257666015625,0.7433904409408569,0.43694114685058594,0.575669527053833
1684108714700618000,7.182617919921875,0.9258911609649658,0.6862459182739258,0.5317890644073486
1684108714710659000,7.1926591796875,0.9455057978630066,0.6895895004272461,0.47724461555480957
1684108714720700200,7.2027001953125,0.7970657348632812,0.2862119674682617,0.5565900802612305
1684108714730741500,7.212741455078125,0.5546637773513794,-0.31392478942871094,0.6306383609771729
1684108714740782600,7.222782470703125,0.3693104088306427,-0.7369623184204102,0.5659642219543457
1684108714750823700,7.23282373046875,0.3270261287689209,-1.0031213760375977,0.6830527782440186
1684108714760865000,7.242864990234375,0.3750355541706085,-0.9949092864990234,0.8188464641571045
1684108714770906000,7.252906005859375,0.46739792823791504,-0.7429513931274414,1.0579380989074707
1684108714780947200,7.262947265625,0.5345544219017029,-0.4481973648071289,1.2265956401824951
1684108714790988500,7.272988525390625,0.4700567424297333,-0.29067134857177734,1.114105224609375
1684108714801029600,7.283029541015625,0.36064356565475464,-0.10954093933105469,0.853966236114502
1684108714811070700,7.29307080078125,0.2669113576412201,0.10570049285888672,0.5455586910247803
1684108714821112000,7.303112060546875,0.12078845500946045,0.06670665740966797,0.20044565200805664
1684108714831153200,7.313153076171875,-0.03187057375907898,-0.1297597885131836,-0.10063338279724121
1684108714841194200,7.3231943359375,0.009565472602844238,-0.09562110900878906,-0.28099989891052246
1684108714851235600,7.333235595703125,0.0430431067943573,-0.11027812957763672,-0.3222951889038086
1684108714861276700,7.343276611328125,0.023096412420272827,-0.3072929382324219,-0.3249952793121338
1684108714871317800,7.35331787109375,0.029831886291503906,-0.24987316131591797,-0.21694374084472656
1684108714881359000,7.363359130859375,0.115896075963974,0.023009300231933594,-0.14911508560180664
1684108714891400200,7.373400146484375,0.09729444980621338,0.10271263122558594,-0.03251075744628906
1684108714901441300,7.383441162109375,-0.029659271240234375,0.09195518493652344,0.11210155487060547
1684108714911482600,7.393482666015625,-0.12715017795562744,0.011683464050292969,0.2802402973175049
1684108714921523700,7.403523681640625,-0.11255162954330444,-0.0925893783569336,0.3097114562988281
1684108714931564800,7.413564697265625,0.005827665328979492,-0.21788311004638672,0.3911421298980713
1684108714941606100,7.423606201171875,0.16895008087158203,-0.21295833587646484,0.4357912540435791
1684108714951647200,7.433647216796875,0.34476277232170105,0.028966903686523438,0.5739321708679199
1684108714961688300,7.443688232421875,0.5505737066268921,0.17476940155029297,0.6741583347320557
1684108714971729700,7.453729736328125,0.6620308756828308,0.24094009399414062,0.7821009159088135
1684108714981770800,7.463770751953125,0.5896685719490051,0.28925609588623047,0.8030648231506348
1684108714991812000,7.47381201171875,0.6476702690124512,0.3151683807373047,0.8287179470062256
1684108715001853200,7.483853271484375,0.6608211398124695,0.33121681213378906,0.8510544300079346
1684108715011894300,7.493894287109375,0.6175223588943481,0.1730327606201172,0.8188581466674805
1684108715021935400,7.503935302734375,0.5737947821617126,0.04399681091308594,0.8231408596038818
1684108715031976700,7.513976806640625,0.5717215538024902,-0.07491683959960938,0.8616418838500977
1684108715042017800,7.524017822265625,0.5669713020324707,-0.13110637664794922,0.8959357738494873
1684108715052059100,7.53405908203125,0.5944152474403381,-0.15601062774658203,0.9319772720336914
1684108715062100200,7.544100341796875,0.6063187122344971,-0.12141227722167969,0.9564993381500244
1684108715072141300,7.554141357421875,0.6329576373100281,-0.06341266632080078,0.874018669128418
1684108715082182400,7.564182373046875,0.7075580358505249,0.053963661193847656,0.6472358703613281
1684108715092223700,7.5742236328125,0.780661940574646,0.10909461975097656,0.45134592056274414
1684108715102264800,7.584264892578125,0.7647714614868164,0.09272289276123047,0.4112703800201416
1684108715112306000,7.594305908203125,0.6860074996948242,0.07890701293945312,0.39310169219970703
1684108715122347300,7.60434716796875,0.5577963590621948,0.007775306701660156,0.34418368339538574
1684108715132388400,7.614388427734375,0.4752664566040039,0.006079673767089844,0.2908024787902832
1684108715142429700,7.6244296875,0.3719346523284912,-0.03780174255371094,0.2536201477050781
1684108715152470800,7.634470703125,0.3174014687538147,0.0935506820678711,0.2630777359008789
1684108715162512000,7.644511962890625,0.22102510929107666,0.23170089721679688,0.3870527744293213
1684108715172553000,7.654552978515625,0.08996528387069702,0.1996011734008789,0.391221284866333
1684108715182594300,7.66459423828125,-0.0013657808303833008,0.14860153198242188,0.3012235164642334
1684108715192635400,7.674635498046875,0.019994020462036133,0.2440786361694336,0.17407512664794922
1684108715202676700,7.6846767578125,0.09160590171813965,0.4571847915649414,0.2252366542816162
1684108715212717800,7.6947177734375,0.09984749555587769,0.5195045471191406,0.32531237602233887
1684108715222759000,7.704759033203125,0.19664502143859863,0.20917415618896484,0.16078972816467285
1684108715232800000,7.714800048828125,0.29748237133026123,-0.01975250244140625,0.27114319801330566
1684108715242841300,7.72484130859375,0.37464475631713867,-0.1403188705444336,0.5055029392242432
1684108715252882400,7.73488232421875,0.45823967456817627,-0.30732154846191406,0.7829692363739014
1684108715262923500,7.744923583984375,0.5523369312286377,-0.2286081314086914,1.1475341320037842
1684108715272964900,7.75496484375,0.7432951927185059,0.04875755310058594,1.5196623802185059
1684108715283006000,7.765005859375,0.8464231491088867,0.17996883392333984,1.73756742477417
1684108715293047000,7.775047119140625,0.8740832805633545,0.17411327362060547,1.9110033512115479
1684108715303088400,7.78508837890625,0.9003117680549622,0.4291505813598633,1.69752836227417
1684108715313129500,7.79512939453125,0.8383951187133789,0.3030223846435547,1.5709373950958252
1684108715323170600,7.805170654296875,0.8925899267196655,0.2820091247558594,1.4651405811309814
1684108715333212000,7.8152119140625,0.9776405692100525,0.15224647521972656,1.3490734100341797
1684108715343253000,7.8252529296875,1.1035560369491577,-0.041914939880371094,1.3395116329193115
1684108715353294000,7.835294189453125,1.2105047702789307,-0.19581890106201172,1.3685383796691895
1684108715363335400,7.84533544921875,1.293168306350708,-0.2798728942871094,1.4324352741241455
1684108715373376500,7.85537646484375,1.338661789894104,-0.2909698486328125,1.3950958251953125
1684108715383417600,7.86541748046875,1.3008393049240112,0.03629016876220703,1.1584317684173584
1684108715393459000,7.875458984375,1.0529385805130005,-0.08806419372558594,0.9180095195770264
1684108715403500000,7.8855,1.2998098134994507,0.5599966049194336,0.8859639167785645
1684108715413541000,7.895541015625,0.7422046661376953,0.24654579162597656,0.398068904876709
1684108715423582500,7.90558251953125,0.14656108617782593,0.021450042724609375,-0.46949028968811035
1684108715433623600,7.91562353515625,-0.35321271419525146,-0.14099502563476562,-1.1846576929092407
1684108715443664600,7.92566455078125,-0.6561115980148315,-0.26428985595703125,-1.5478280782699585
1684108715453706000,7.9357060546875,-0.8478797674179077,-0.24522876739501953,-1.6066430807113647
1684108715463747000,7.9457470703125,-1.0951801538467407,-0.2602691650390625,-1.6595587730407715
1684108715473788200,7.9557880859375,-1.5323576927185059,-0.24159812927246094,-1.8909037113189697
1684108715483829500,7.96582958984375,-2.0792734622955322,-0.44690513610839844,-2.2445571422576904
1684108715493870600,7.97587060546875,-2.638582229614258,-0.821904182434082,-2.608365535736084
1684108715503911700,7.98591162109375,-2.8768084049224854,-1.1881065368652344,-2.7756693363189697
1684108715513953000,7.995953125,-2.7004902362823486,-1.4946880340576172,-2.861616849899292
1684108715523994000,8.005994140625,-1.9817688465118408,-1.4831724166870117,-2.706146240234375
1684108715534035200,8.01603515625,-0.8382446765899658,-1.3935184478759766,-2.650377035140991
1684108715544076500,8.02607666015625,-0.06023836135864258,-1.3996715545654297,-2.506753921508789
1684108715554117600,8.03611767578125,0.40860986709594727,-1.0769948959350586,-2.1512258052825928
1684108715564158700,8.04615869140625,0.378115177154541,-1.193791389465332,-2.2186660766601562
1684108715574200000,8.056199951171875,0.03884756565093994,-1.1377487182617188,-2.4447994232177734
1684108715584241200,8.0662412109375,-0.22574305534362793,-0.669316291809082,-2.3616347312927246
1684108715594282200,8.0762822265625,-0.3300297260284424,-0.10994625091552734,-2.0338945388793945
1684108715604323300,8.0863232421875,-0.2396385669708252,0.19512653350830078,-1.5495797395706177
1684108715614364700,8.09636474609375,-0.18274474143981934,0.24361610412597656,-1.294213056564331
1684108715624405800,8.10640576171875,-0.13222336769104004,0.02640533447265625,-1.066130518913269
1684108715634447000,8.116447021484374,-0.1892564296722412,-0.40677547454833984,-0.9794492721557617
1684108715644488200,8.12648828125,-0.3273651599884033,0.02794170379638672,-0.9254043102264404
1684108715654529300,8.136529296875,-0.3562445640563965,0.23475170135498047,-0.9646252393722534
1684108715664570400,8.1465703125,-0.2657952308654785,0.2389545440673828,-1.0497326850891113
1684108715674611700,8.15661181640625,-0.05982375144958496,0.2548694610595703,-1.0808488130569458
1684108715684652800,8.16665283203125,0.17540383338928223,0.22846698760986328,-1.213822364807129
1684108715694694000,8.17669384765625,0.46943116188049316,0.29174137115478516,-1.3442689180374146
1684108715704735200,8.1867353515625,0.7658419609069824,0.3901500701904297,-1.36813223361969
1684108715714776300,8.1967763671875,0.9850070476531982,0.5552921295166016,-1.3915156126022339
1684108715724817400,8.2068173828125,1.1095558404922485,0.7248830795288086,-1.2675256729125977
1684108715734858800,8.216858642578124,1.0768922567367554,0.7214956283569336,-1.0383431911468506
1684108715744899800,8.22689990234375,0.9118720293045044,0.5711250305175781,-0.8756958842277527
1684108715754941000,8.23694091796875,0.6753048896789551,0.3214883804321289,-0.7935544848442078
1684108715764982300,8.246982177734376,0.3722188472747803,-0.28116703033447266,-1.0109410285949707
1684108715775023400,8.2570234375,-0.16306114196777344,-0.41698265075683594,-1.1033692359924316
1684108715785064400,8.267064453125,-0.6752252578735352,-0.030225753784179688,-0.941690981388092
1684108715795105800,8.277105712890625,-1.0371125936508179,0.47479724884033203,-0.1879568099975586
1684108715805147000,8.28714697265625,-1.0310287475585938,0.8849267959594727,0.47218382358551025
1684108715815188000,8.29718798828125,-0.7519335746765137,1.1391611099243164,0.9306482076644897
1684108715825229300,8.307229248046875,-0.3470425605773926,1.3275079727172852,1.2905000448226929
1684108715835270400,8.3172705078125,0.049362778663635254,1.4132728576660156,1.5633090734481812
1684108715845311500,8.3273115234375,0.2806243896484375,1.3330068588256836,1.830590844154358
1684108715855352800,8.337352783203125,0.30879127979278564,1.0445938110351562,2.061281681060791
1684108715865394000,8.347393798828126,0.15726006031036377,0.668696403503418,2.192286729812622
1684108715875435000,8.35743505859375,-0.29123425483703613,0.28955078125,2.3505585193634033
1684108715885476000,8.36747607421875,-1.2415766716003418,0.01921558380126953,2.5879909992218018
1684108715895517400,8.377517333984375,-2.504509449005127,-0.02425384521484375,3.012159824371338
1684108715905558500,8.38755859375,-3.2859766483306885,0.032367706298828125,3.3537731170654297
1684108715915599600,8.397599609375,-3.132488489151001,0.14446067810058594,3.340125560760498
1684108715925641000,8.407640869140625,-2.503117561340332,0.39116954803466797,2.9417009353637695
1684108715935682000,8.41768212890625,-1.7130076885223389,0.44680118560791016,2.38970947265625
1684108715945723100,8.42772314453125,-1.2848933935165405,0.3112068176269531,1.848097562789917
1684108715955764500,8.437764404296875,-1.036717414855957,0.10045909881591797,1.4312822818756104
1684108715965805600,8.4478056640625,-0.9048097133636475,-0.1446847915649414,1.0280537605285645
1684108715975846700,8.4578466796875,-0.9090081453323364,-0.24035263061523438,0.3355950117111206
1684108715985888000,8.467887939453124,-1.021398901939392,-0.2084817886352539,-0.19849848747253418
1684108715995929000,8.47792919921875,-0.9977740049362183,-0.1668376922607422,-0.46742069721221924
1684108716005970200,8.48797021484375,-0.8739528656005859,-0.14916515350341797,-0.6595463156700134
1684108716016011500,8.498011474609376,-0.6928483247756958,-0.12643814086914062,-0.9158195853233337
1684108716026052600,8.508052490234375,-0.6517858505249023,-0.02917957305908203,-1.1068096160888672
1684108716036093700,8.51809375,-0.6837368011474609,0.003960609436035156,-1.3089418411254883
1684108716046134800,8.528134765625,-0.7208749055862427,0.023128509521484375,-1.4364514350891113
1684108716056176000,8.538176025390625,-0.734129786491394,-0.033824920654296875,-1.4586493968963623
1684108716066217200,8.54821728515625,-0.7360994815826416,-0.166412353515625,-1.613107681274414
1684108716076258600,8.558258544921875,-0.6679993867874146,-0.17562198638916016,-1.8650779724121094
1684108716086299600,8.568299560546874,-0.5971473455429077,-0.0639486312866211,-1.8902561664581299
1684108716096340700,8.5783408203125,-0.5705376863479614,-0.0016422271728515625,-1.7764009237289429
1684108716106381800,8.5883818359375,-0.5914161205291748,0.015483856201171875,-1.5817301273345947
1684108716116423200,8.598423095703126,-0.6774905920028687,-0.0250244140625,-1.3189117908477783
1684108716126464300,8.60846435546875,-0.7484322786331177,-0.070892333984375,-1.1616283655166626
1684108716136505300,8.61850537109375,-0.8503453731536865,-0.12483978271484375,-0.9505020976066589
1684108716146546700,8.628546630859375,-0.8270957469940186,-0.15366554260253906,-0.655929446220398
1684108716156587800,8.638587890625,-0.6585053205490112,-0.0809488296508789,-0.38410282135009766
1684108716166628900,8.64862890625,-0.45899486541748047,-0.05232715606689453,-0.2256672978401184
1684108716176670200,8.658670166015625,-0.2635761499404907,0.0042972564697265625,-0.0981971025466919
1684108716186711300,8.668711181640624,-0.09520351886749268,0.07726192474365234,-0.03148794174194336
1684108716196752400,8.67875244140625,-0.00420987606048584,0.11408042907714844,0.05149787664413452
1684108716206793500,8.68879345703125,0.052655935287475586,0.14822101593017578,0.1453326940536499
1684108716216834800,8.698834716796876,0.11130118370056152,0.16530227661132812,0.24191176891326904
1684108716226876000,8.7088759765625,0.18097496032714844,0.19405746459960938,0.33364754915237427
1684108716236917000,8.7189169921875,0.2824031114578247,0.2059612274169922,0.3801395893096924
1684108716246958300,8.728958251953125,0.36010169982910156,0.2059497833251953,0.41515910625457764
1684108716256999400,8.73899951171875,0.3831658363342285,0.222747802734375,0.4295477867126465
1684108716267040500,8.74904052734375,0.3349325656890869,0.21817779541015625,0.38101518154144287
1684108716277081900,8.759081787109375,0.28721940517425537,0.1732463836669922,0.299133837223053
1684108716287123000,8.769123046875,0.17058861255645752,0.174072265625,0.21760165691375732
1684108716297164000,8.7791640625,0.02594757080078125,0.19187641143798828,0.0841873288154602
1684108716307205400,8.789205322265625,-0.09099090099334717,0.2647237777709961,-0.02908271551132202
1684108716317246500,8.79924658203125,-0.18159925937652588,0.31109619140625,-0.12231400609016418
1684108716327287600,8.80928759765625,-0.31648528575897217,0.3141489028930664,-0.14560791850090027
1684108716337328600,8.81932861328125,-0.3992807865142822,0.2857961654663086,-0.21168863773345947
1684108716347370000,8.829369873046875,-0.434653639793396,0.3024892807006836,-0.3109884560108185
1684108716357411000,8.8394111328125,-0.4349597692489624,0.31879711151123047,-0.3667229413986206
1684108716367452200,8.8494521484375,-0.38415729999542236,0.2726917266845703,-0.3940114378929138
1684108716377493500,8.859493408203125,-0.2715127468109131,0.2336883544921875,-0.2257721871137619
1684108716387534600,8.86953466796875,-0.16522490978240967,0.2353658676147461,-0.1151265799999237
1684108716397575700,8.87957568359375,-0.011082172393798828,0.2467336654663086,-0.035734668374061584
1684108716407617000,8.889616943359375,0.062125325202941895,0.23434066772460938,0.022943615913391113
1684108716417658000,8.899658203125,0.10054802894592285,0.23401260375976562,0.06173831224441528
1684108716427699200,8.90969921875,0.15264534950256348,0.2575693130493164,0.22388507425785065
1684108716437740500,8.919740478515624,0.18501925468444824,0.35745811462402344,0.41713446378707886
1684108716447781600,8.92978173828125,0.1972057819366455,0.4571418762207031,0.5306955575942993
1684108716457822700,8.93982275390625,0.2317417860031128,0.6641759872436523,0.5772936940193176
1684108716467863800,8.94986376953125,0.22737419605255127,0.8326826095581055,0.7103455066680908
1684108716477905200,8.9599052734375,0.22277557849884033,0.9422130584716797,0.8759751319885254
1684108716487946200,8.9699462890625,0.21003353595733643,1.0150585174560547,1.0504850149154663
1684108716497987300,8.9799873046875,0.19273746013641357,0.9954938888549805,1.2502062320709229
1684108716508028700,8.990028564453125,0.06440150737762451,0.9529085159301758,1.438232660293579
1684108716518069800,9.00006982421875,-0.1141664981842041,0.9018049240112305,1.5769673585891724
1684108716528110800,9.01011083984375,-0.319053053855896,0.7585201263427734,1.706808090209961
1684108716538152200,9.020152099609374,-0.5225673913955688,0.6304187774658203,1.815603494644165
1684108716548193300,9.030193359375,-0.7293081283569336,0.5145893096923828,1.8436791896820068
1684108716558234400,9.040234375,-0.9008044004440308,0.5037164688110352,1.8396722078323364
1684108716568275500,9.050275390625,-1.0089638233184814,0.4898090362548828,1.7230956554412842
1684108716578316800,9.06031689453125,-1.0416423082351685,0.5206375122070312,1.500089168548584
1684108716588358000,9.07035791015625,-0.9686598777770996,0.5556621551513672,1.2104090452194214
1684108716598399000,9.08039892578125,-0.8487529754638672,0.6381092071533203,0.9297206401824951
1684108716608440300,9.0904404296875,-0.7430137395858765,0.6510820388793945,0.7069428563117981
1684108716618481400,9.1004814453125,-0.7029118537902832,0.60211181640625,0.46845167875289917
1684108716628522500,9.1105224609375,-0.7652363181114197,0.47710132598876953,0.1734960675239563
1684108716638563800,9.120563720703124,-0.8966552019119263,0.33359718322753906,-0.18198072910308838
1684108716648605000,9.13060498046875,-1.0742812156677246,0.17882061004638672,-0.6007214784622192
1684108716658646000,9.14064599609375,-1.2780208587646484,-0.044666290283203125,-0.808840274810791
1684108716668687400,9.150687255859374,-1.501732587814331,-0.2246856689453125,-0.9429159164428711
1684108716678728400,9.160728515625,-1.7095890045166016,-0.3184823989868164,-1.123037576675415
1684108716688769500,9.17076953125,-2.0080111026763916,-0.3669471740722656,-1.2833892107009888
1684108716698810600,9.180810546875,-2.338061809539795,-0.47072601318359375,-1.3478885889053345
1684108716708852000,9.19085205078125,-2.659116268157959,-0.8593015670776367,-1.1959813833236694
1684108716718893000,9.20089306640625,-2.8342695236206055,-1.6014633178710938,-0.8313851952552795
1684108716728934100,9.21093408203125,-2.7395498752593994,-2.316579818725586,-0.31098395586013794
1684108716738975500,9.2209755859375,-2.4945733547210693,-2.8609704971313477,0.032692134380340576
1684108716749016600,9.2310166015625,-2.0848259925842285,-2.9381942749023438,0.2578928470611572
1684108716759057700,9.2410576171875,-1.5925397872924805,-2.458179473876953,0.27164649963378906
1684108716769098800,9.2510986328125,-1.2327041625976562,-1.3629169464111328,0.3631404638290405
1684108716779140000,9.26114013671875,-1.0665857791900635,-0.1128549575805664,0.31021857261657715
1684108716789181200,9.27118115234375,-0.8165575861930847,0.780512809753418,0.1435377597808838
1684108716799222300,9.28122216796875,-0.48931044340133667,1.2776422500610352,-0.11269205808639526
1684108716809263600,9.291263671875,-0.16525834798812866,1.4083709716796875,-0.37285250425338745
1684108716819304700,9.3013046875,0.1714024841785431,1.1258468627929688,-0.336723268032074
1684108716829345800,9.311345703125,0.32526397705078125,0.8106803894042969,-0.2877473831176758
1684108716839387100,9.32138720703125,0.32563745975494385,0.4700431823730469,-0.1736440658569336
1684108716849428200,9.33142822265625,0.11649617552757263,0.21609020233154297,-0.037951529026031494
1684108716859469300,9.34146923828125,-0.1823960244655609,-0.013681411743164062,0.11206352710723877
1684108716869510400,9.351510498046874,-0.3875759541988373,-0.2481241226196289,0.3528480529785156
1684108716879551700,9.3615517578125,-0.32227545976638794,-0.4299125671386719,0.4985920190811157
1684108716889592800,9.3715927734375,-0.07960504293441772,-0.46111297607421875,0.384552001953125
1684108716899634000,9.381634033203126,0.14907240867614746,-0.40642642974853516,0.23999643325805664
1684108716909675300,9.39167529296875,0.17935623228549957,-0.3686561584472656,0.10410535335540771
1684108716919716400,9.40171630859375,-0.022753581404685974,-0.2784242630004883,-0.06789183616638184
1684108716929757400,9.41175732421875,-0.2537272274494171,-0.14298439025878906,-0.20844316482543945
1684108716939798500,9.421798583984375,-0.3011484146118164,0.06614875793457031,-0.226889967918396
1684108716949840000,9.43183984375,-0.09925588965415955,0.3033151626586914,-0.1811525821685791
1684108716959881000,9.441880859375,0.3736777901649475,0.5925188064575195,-0.25396889448165894
1684108716969922000,9.451922119140624,0.6990195512771606,0.9410800933837891,-0.38675814867019653
1684108716979963400,9.46196337890625,0.7564561367034912,1.105423927307129,-0.5001052618026733
1684108716990004500,9.47200439453125,0.28075557947158813,1.0380973815917969,-0.6330966353416443
1684108717000045600,9.482045654296876,-0.5741607546806335,0.6675214767456055,-0.8339879512786865
1684108717010087000,9.4920869140625,-1.4217658042907715,0.16136646270751953,-1.0632222890853882
1684108717020128000,9.5021279296875,-1.8681880235671997,-0.3843069076538086,-1.0407150983810425
1684108717030169000,9.512169189453125,-1.6191813945770264,-0.6752281188964844,-0.7261818647384644
1684108717040210400,9.52221044921875,-0.7850133180618286,-0.5637121200561523,-0.17816460132598877
1684108717050251500,9.53225146484375,0.16676925122737885,-0.2610349655151367,0.23442161083221436
1684108717060292600,9.542292724609375,0.984370231628418,0.0027751922607421875,0.449509859085083
1684108717070333700,9.552333740234374,1.493187427520752,0.06524658203125,0.3625609874725342
1684108717080375000,9.562375,1.7490274906158447,0.03431415557861328,0.32338571548461914
1684108717090416000,9.572416015625,1.7906122207641602,0.05357551574707031,0.3088282346725464
1684108717100457200,9.582457275390626,1.7927746772766113,0.07523441314697266,0.38397216796875
1684108717110498600,9.59249853515625,1.7828857898712158,0.13509559631347656,0.6080294847488403
1684108717120539600,9.60253955078125,1.7761015892028809,0.10635948181152344,0.9317080974578857
1684108717130580700,9.612580810546875,1.7227262258529663,0.07262325286865234,1.2049885988235474
1684108717140621800,9.622621826171875,1.622887372970581,0.07918643951416016,1.4130593538284302
1684108717150663200,9.6326630859375,1.5359203815460205,0.016015052795410156,1.5509135723114014
1684108717160704300,9.642704345703125,1.477477788925171,0.012141227722167969,1.620740532875061
1684108717170745300,9.652745361328124,1.3107588291168213,0.11997795104980469,1.5469982624053955
1684108717180786700,9.66278662109375,1.1254420280456543,0.19125938415527344,1.4072593450546265
1684108717190827800,9.672827880859375,0.9108414053916931,0.17839336395263672,1.2566759586334229
1684108717200868900,9.682868896484376,0.742708683013916,0.2012186050415039,1.0576426982879639
1684108717210910000,9.692909912109375,0.6543790698051453,0.13564682006835938,0.8513392210006714
1684108717220951300,9.702951416015624,0.6450340747833252,0.11091995239257812,0.6476882696151733
1684108717230992400,9.712992431640625,0.7059823274612427,0.017116546630859375,0.5689550638198853
1684108717241033500,9.723033447265625,0.7995637655258179,-0.05717182159423828,0.5058208703994751
1684108717251074600,9.733074462890626,0.8740485906600952,-0.09052753448486328,0.501469612121582
1684108717261116000,9.743115966796875,0.9120152592658997,-0.0687713623046875,0.5484899282455444
1684108717271157000,9.753156982421874,0.8610333800315857,-0.006377220153808594,0.5917541980743408
1684108717281198000,9.763197998046875,0.7933666706085205,0.051169395446777344,0.6119363307952881
1684108717291239400,9.773239501953125,0.6688417196273804,0.025083541870117188,0.64482581615448
1684108717301280500,9.783280517578126,0.59290611743927,0.018240928649902344,0.6686214208602905
1684108717311321600,9.793321533203125,0.5464645624160767,0.040184974670410156,0.6381576061248779
1684108717321362700,9.80336279296875,0.48171406984329224,0.0645761489868164,0.5630773305892944
1684108717331404000,9.813404052734375,0.4606904983520508,0.07226753234863281,0.45757997035980225
1684108717341445000,9.823445068359375,0.42345452308654785,0.05382537841796875,0.3700714111328125
1684108717351486500,9.833486572265626,0.4003908038139343,0.061913490295410156,0.2844669818878174
1684108717361527600,9.843527587890625,0.3598007559776306,0.04383659362792969,0.20996129512786865
1684108717371568600,9.853568603515624,0.32066160440444946,-0.038550376892089844,0.1442577838897705
1684108717381609700,9.863609619140625,0.28763145208358765,-0.09904289245605469,0.1213068962097168
1684108717391651000,9.873651123046875,0.1959732174873352,-0.10908699035644531,0.11217939853668213
1684108717401692200,9.883692138671876,0.12698107957839966,-0.1332864761352539,0.12887990474700928
1684108717411733200,9.893733154296875,0.007116377353668213,-0.1643543243408203,0.162162184715271
1684108717421774600,9.903774658203124,-0.09777796268463135,-0.11861324310302734,0.2548943758010864
1684108717431815700,9.913815673828125,-0.15060436725616455,-0.10368728637695312,0.392153263092041
1684108717441856800,9.923856689453125,-0.17679214477539062,-0.023980140686035156,0.5230605602264404
1684108717451897900,9.93389794921875,-0.16449987888336182,0.029529571533203125,0.663823127746582
1684108717461939200,9.943939208984375,-0.14047276973724365,0.08551311492919922,0.8476799726486206
1684108717471980300,9.953980224609374,-0.1438465118408203,0.08652591705322266,0.9977093935012817
1684108717482021400,9.964021484375,-0.1610357165336609,0.10669803619384766,1.128531575202942
1684108717492062700,9.974062744140625,-0.17822980880737305,0.11966896057128906,1.2569165229797363
1684108717502103800,9.984103759765626,-0.2149714231491089,0.15644264221191406,1.4042394161224365
1684108717512145000,9.994144775390625,-0.22577136754989624,0.22170639038085938,1.500925064086914
1684108717522186000,10.00418603515625,-0.27979928255081177,0.2341909408569336,1.5708717107772827
1684108717532227300,10.014227294921875,-0.3362380862236023,0.21075153350830078,1.6785979270935059
1684108717542268400,10.024268310546875,-0.368349552154541,0.20579051971435547,1.7319481372833252
1684108717552309500,10.0343095703125,-0.43326300382614136,0.23141002655029297,1.736650824546814
1684108717562350800,10.044350830078125,-0.49715542793273926,0.25314998626708984,1.7424991130828857
1684108717572392000,10.054391845703124,-0.5290623903274536,0.28680992126464844,1.714747667312622
1684108717582433000,10.06443310546875,-0.5547853708267212,0.3108034133911133,1.6431140899658203
1684108717592474000,10.07447412109375,-0.5404318571090698,0.33475494384765625,1.489452838897705
1684108717602515500,10.084515380859376,-0.5502110123634338,0.29192352294921875,1.2952029705047607
1684108717612556500,10.094556640625,-0.509687066078186,0.27173805236816406,1.1703563928604126
1684108717622597600,10.10459765625,-0.4771803617477417,0.2309274673461914,1.0124530792236328
1684108717632639000,10.114638916015625,-0.3913251757621765,0.23337745666503906,0.9113631248474121
1684108717642680000,10.12468017578125,-0.30310744047164917,0.21013164520263672,0.8127619028091431
1684108717652721200,10.13472119140625,-0.20170551538467407,0.1851177215576172,0.8181415796279907
1684108717662762200,10.14476220703125,-0.11173641681671143,0.13471317291259766,0.8266518115997314
1684108717672803600,10.154803466796874,-0.05011385679244995,0.12519359588623047,0.833466649055481
1684108717682844700,10.1648447265625,0.0020325779914855957,0.17467975616455078,0.8198182582855225
1684108717692885800,10.1748857421875,-0.018996477127075195,0.23749828338623047,0.7841764688491821
1684108717702927000,10.184927001953126,-0.06717926263809204,0.2404346466064453,0.7997857332229614
1684108717712968200,10.19496826171875,-0.09219962358474731,0.17749500274658203,0.8095546960830688
1684108717723009300,10.20500927734375,-0.10130292177200317,0.16277217864990234,0.8628741502761841
1684108717733050400,10.21505029296875,-0.0970640778541565,0.19547653198242188,0.8437602519989014
1684108717743091700,10.225091796875,-0.08392167091369629,0.2560291290283203,0.8193936347961426
1684108717753132800,10.2351328125,-0.06871134042739868,0.3180055618286133,0.845691442489624
1684108717763174000,10.245173828125,-0.09835457801818848,0.30363941192626953,0.8271007537841797
1684108717773215000,10.255215087890624,-0.11761224269866943,0.25189208984375,0.7761021852493286
1684108717783256300,10.26525634765625,-0.16202116012573242,0.1634044647216797,0.7569751739501953
1684108717793297400,10.27529736328125,-0.15352016687393188,0.11644840240478516,0.7808017730712891
1684108717803338500,10.28533837890625,-0.15217673778533936,0.09379386901855469,0.7571645975112915
1684108717813379600,10.295379638671875,-0.1313992738723755,0.03151702880859375,0.7598029375076294
1684108717823421000,10.3054208984375,-0.13600373268127441,0.007985115051269531,0.8141486644744873
1684108717833462000,10.3154619140625,-0.11132478713989258,0.0060272216796875,0.8599969148635864
1684108717843503000,10.325503173828125,-0.1098865270614624,0.03699207305908203,0.9136320352554321
1684108717853544400,10.33554443359375,-0.08936196565628052,0.08850860595703125,0.9370880126953125
1684108717863585500,10.34558544921875,-0.09733825922012329,0.17673683166503906,0.9452840089797974
1684108717873626600,10.355626708984374,-0.14254963397979736,0.218719482421875,0.9952032566070557
1684108717883667700,10.365667724609375,-0.16522198915481567,0.2152547836303711,1.0414420366287231
1684108717893709000,10.375708984375,-0.17219042778015137,0.18599796295166016,1.1217584609985352
1684108717903750100,10.385750244140626,-0.14186614751815796,0.12430572509765625,1.2255945205688477
1684108717913791200,10.395791259765625,-0.0858873724937439,0.004839897155761719,1.328568696975708
1684108717923832300,10.405832275390624,-0.01132822036743164,-0.1172952651977539,1.397428035736084
1684108717933873700,10.415873779296875,0.07849740982055664,-0.17619991302490234,1.4515796899795532
1684108717943914800,10.425914794921875,0.19179874658584595,-0.22244930267333984,1.4747930765151978
1684108717953955800,10.435955810546876,0.2330288290977478,-0.2516050338745117,1.4725127220153809
1684108717963997200,10.4459970703125,0.23801779747009277,-0.26630592346191406,1.4338736534118652
1684108717974038300,10.456038330078124,0.20464515686035156,-0.30682849884033203,1.376082420349121
1684108717984079400,10.466079345703125,0.19729751348495483,-0.37978649139404297,1.3136346340179443
1684108717994120400,10.476120361328125,0.1977001428604126,-0.4680938720703125,1.3101013898849487
1684108718004161800,10.486161865234376,0.2558177709579468,-0.6326351165771484,1.294050931930542
1684108718014203000,10.496202880859375,0.351923406124115,-0.9097843170166016,1.235252022743225
1684108718024244000,10.506243896484374,0.39311957359313965,-1.257843017578125,1.1967817544937134
1684108718034285300,10.516285400390625,0.38658106327056885,-1.4592266082763672,1.087999939918518
1684108718044326400,10.526326416015625,0.40026408433914185,-1.4928369522094727,0.8259727954864502
1684108718054367500,10.536367431640626,0.35282838344573975,-1.3235597610473633,0.5096617937088013
1684108718064408600,10.54640869140625,0.2782418131828308,-0.9778509140014648,0.09150266647338867
1684108718074450000,10.556449951171874,0.17569738626480103,-0.5876502990722656,-0.2685199975967407
1684108718084491000,10.566490966796875,0.10715430974960327,-0.17945384979248047,-0.6204575300216675
1684108718094532000,10.576531982421875,0.02759760618209839,0.2194385528564453,-0.8378101587295532
1684108718104573400,10.586573486328126,-0.05068939924240112,0.5253219604492188,-0.9478120803833008
1684108718114614500,10.596614501953125,-0.1349390149116516,0.7166528701782227,-1.030931830406189
1684108718124655600,10.606655517578124,-0.16430142521858215,0.7978906631469727,-0.8972606658935547
1684108718134696700,10.61669677734375,-0.24872657656669617,0.8378896713256836,-0.8285549283027649
1684108718144738000,10.626738037109375,-0.34848082065582275,0.8431024551391602,-0.5867308378219604
1684108718154779100,10.636779052734376,-0.5325739979743958,0.7960624694824219,-0.3789016008377075
1684108718164820200,10.6468203125,-0.8707903027534485,0.6771335601806641,-0.11955761909484863
1684108718174861300,10.656861328125,-1.296000361442566,0.5968341827392578,-0.019677400588989258
1684108718184902700,10.666902587890625,-1.8191170692443848,0.4636812210083008,-0.1400003433227539
1684108718194943700,10.67694384765625,-2.382798671722412,0.19562625885009766,0.012543916702270508
1684108718204984800,10.68698486328125,-2.900184154510498,-0.14208316802978516,0.29093611240386963
1684108718215026000,10.69702587890625,-3.210994243621826,-0.3847770690917969,0.4547908306121826
1684108718225067300,10.7070673828125,-3.117462158203125,-0.4093351364135742,0.4571887254714966
1684108718235108400,10.7171083984375,-2.787882089614868,-0.34648799896240234,0.40767180919647217
1684108718245149400,10.7271494140625,-2.42075777053833,-0.27391719818115234,0.2853621244430542
1684108718255190800,10.737190673828126,-2.051044464111328,-0.2088184356689453,0.02101433277130127
1684108718265232000,10.74723193359375,-1.6963096857070923,-0.16556549072265625,-0.23094284534454346
1684108718275273000,10.75727294921875,-1.3448137044906616,-0.10332584381103516,-0.5894949436187744
1684108718285314000,10.76731396484375,-0.8974453210830688,-0.012228965759277344,-1.0229202508926392
1684108718295355400,10.77735546875,-0.3389527499675751,0.03157806396484375,-1.4026987552642822
1684108718305396500,10.787396484375,0.2923352122306824,0.1194753646850586,-1.789237141609192
1684108718315437600,10.7974375,0.9289567470550537,0.2138223648071289,-2.0805859565734863
1684108718325479000,10.80747900390625,1.3988999128341675,0.18127918243408203,-2.158252239227295
1684108718335520000,10.81752001953125,1.6674985885620117,-0.028087615966796875,-1.9476127624511719
1684108718345561000,10.82756103515625,1.6218591928482056,-0.3710193634033203,-1.7755169868469238
1684108718355602200,10.837602294921876,1.5044101476669312,-0.7586746215820312,-1.5199611186981201
1684108718365643500,10.8476435546875,1.404249906539917,-0.9654703140258789,-1.2909269332885742
1684108718375684600,10.8576845703125,1.2059550285339355,-1.0741090774536133,-1.0381057262420654
1684108718385725700,10.8677255859375,1.1296141147613525,-1.014883041381836,-0.6639653444290161
1684108718395766800,10.877766845703125,1.0238866806030273,-0.8601779937744141,-0.218428373336792
1684108718405808000,10.88780810546875,0.712422788143158,-0.606719970703125,0.1535722017288208
1684108718415849200,10.89784912109375,0.47217655181884766,-0.3158531188964844,0.35387957096099854
1684108718425890300,10.907890380859374,0.4797157645225525,0.04039764404296875,0.40737152099609375
1684108718435931400,10.917931396484375,0.6283347010612488,0.3950843811035156,0.36626768112182617
1684108718445972700,10.92797265625,0.7818578481674194,0.7437620162963867,0.2693164348602295
1684108718456013800,10.938013916015626,0.9655826687812805,0.9887371063232422,0.2632148265838623
1684108718466055000,10.948054931640625,1.2245924472808838,1.137558937072754,0.2793588638305664
1684108718476096300,10.95809619140625,1.452134370803833,1.1621599197387695,0.27506983280181885
1684108718486137300,10.968137451171875,1.5064764022827148,1.1227493286132812,0.274319052696228
1684108718496178400,10.978178466796875,1.4802064895629883,0.9741020202636719,0.30707859992980957
1684108718506219500,10.988219482421876,1.3747382164001465,0.7880830764770508,0.3146311044692993
1684108718516260900,10.9982607421875,1.149379849433899,0.5741939544677734,0.3796873092651367
1684108718526302000,11.008302001953124,0.8531429767608643,0.3990459442138672,0.37493467330932617
1684108718536343000,11.018343017578125,0.5694555044174194,0.3052091598510742,0.3391687870025635
1684108718546384100,11.028384033203125,0.2723938226699829,0.21805572509765625,0.24920248985290527
1684108718556425500,11.038425537109376,-0.022228360176086426,0.1681833267211914,0.18997883796691895
1684108718566466600,11.048466552734375,-0.3808373212814331,0.0929403305053711,0.04871416091918945
1684108718576507600,11.058507568359374,-0.686087965965271,0.020792007446289062,-0.12171339988708496
1684108718586548700,11.068548828125,-0.7805695533752441,-0.017014503479003906,-0.4069591760635376
1684108718596590000,11.078590087890625,-0.7233837842941284,0.02066326141357422,-0.6949241161346436
1684108718606631200,11.088631103515626,-0.4604555368423462,0.06533145904541016,-0.8682093620300293
1684108718616672300,11.09867236328125,-0.25553572177886963,0.1131296157836914,-1.1343250274658203
1684108718626713600,11.108713623046874,-0.15789246559143066,0.19062423706054688,-1.2867047786712646
1684108718636754700,11.118754638671875,-0.04482424259185791,0.2788105010986328,-1.4455177783966064
1684108718646795800,11.128795654296875,0.10395801067352295,0.32312965393066406,-1.6080689430236816
1684108718656836900,11.1388369140625,0.1216278076171875,0.3358602523803711,-1.7261933088302612
1684108718666878200,11.148878173828125,0.11843240261077881,0.5198659896850586,-1.6587369441986084
1684108718676919300,11.158919189453124,0.16885709762573242,0.6717472076416016,-1.5879813432693481
1684108718686960400,11.16896044921875,0.24986517429351807,0.7199106216430664,-1.3605786561965942
1684108718697001500,11.17900146484375,0.2736095190048218,0.6883020401000977,-1.1539690494537354
1684108718707042800,11.189042724609376,0.2077348232269287,0.5862493515014648,-0.8997547626495361
1684108718717084000,11.199083984375,0.16594374179840088,0.4589385986328125,-0.6390516757965088
1684108718727125000,11.209125,0.14819872379302979,0.3684520721435547,-0.48669445514678955
1684108718737166000,11.219166015625,0.1679539680480957,0.3623170852661133,-0.36946868896484375
1684108718747207400,11.22920751953125,0.2071380615234375,0.3493690490722656,-0.3057107925415039
1684108718757248500,11.23924853515625,0.1958925724029541,0.28630542755126953,-0.12266325950622559
1684108718767289600,11.24928955078125,0.08295643329620361,0.26116466522216797,0.11168122291564941
1684108718777331000,11.2593310546875,-0.11349964141845703,0.21861743927001953,0.24650979042053223
1684108718787372000,11.2693720703125,-0.27408015727996826,0.17062854766845703,0.4322779178619385
1684108718797413000,11.2794130859375,-0.38893842697143555,0.17914676666259766,0.6785013675689697
1684108718807454200,11.2894541015625,-0.36292338371276855,0.28005313873291016,0.91664719581604
1684108718817495600,11.29949560546875,-0.12061119079589844,0.46940040588378906,0.8856062889099121
1684108718827536600,11.30953662109375,0.15119779109954834,0.6695404052734375,0.6444089412689209
1684108718837577700,11.31957763671875,0.21369123458862305,0.7516841888427734,0.4332468509674072
1684108718847618800,11.329618896484375,0.13669729232788086,0.7100124359130859,0.32288169860839844
1684108718857660200,11.33966015625,0.04128837585449219,0.5962753295898438,0.05634760856628418
1684108718867701200,11.349701171875,-0.0843198299407959,0.5369911193847656,-0.2167038917541504
1684108718877742300,11.359742431640624,-0.3232163190841675,0.45557689666748047,-0.3694453239440918
1684108718887783400,11.369783447265625,-0.665554404258728,0.3187856674194336,-0.5067317485809326
1684108718897824800,11.37982470703125,-0.9869108200073242,0.208282470703125,-0.5461175441741943
1684108718907865900,11.389865966796876,-1.2206943035125732,0.12920379638671875,-0.46486997604370117
1684108718917907000,11.399906982421875,-1.3843036890029907,0.12257099151611328,-0.37395381927490234
1684108718927948300,11.4099482421875,-1.4069187641143799,0.2530832290649414,-0.21502971649169922
1684108718937989400,11.4199892578125,-1.2566040754318237,0.4251594543457031,-0.03341865539550781
1684108718948030500,11.430030517578125,-1.0164077281951904,0.7033348083496094,0.17514824867248535
1684108718958071600,11.440071533203126,-0.7689810991287231,1.0495901107788086,0.16078662872314453
1684108718968112600,11.450112548828125,-0.4770926237106323,1.3232917785644531,0.13536286354064941
1684108718978154000,11.460154052734374,-0.25083398818969727,1.3168773651123047,0.0968027114868164
1684108718988195000,11.470195068359375,-0.035088300704956055,0.9281883239746094,0.020987749099731445
1684108718998236200,11.480236083984375,0.3761023283004761,0.21268081665039062,0.007449626922607422
1684108719008277500,11.490277587890626,0.6154739856719971,-0.6359701156616211,-0.05500078201293945
1684108719018318600,11.500318603515625,0.4703413248062134,-1.434006690979004,-0.07328629493713379
1684108719028359700,11.510359619140624,0.08556544780731201,-2.186720848083496,-0.23058700561523438
1684108719038400800,11.52040087890625,-0.13882076740264893,-2.844546318054199,-0.39493227005004883
1684108719048442000,11.530442138671875,-0.12467575073242188,-3.699540138244629,-0.3082911968231201
1684108719058483200,11.540483154296876,-0.8293495178222656,-4.849749565124512,-0.343220591545105
1684108719068524300,11.550524169921875,-3.4085750579833984,-6.160409927368164,-0.4325072765350342
1684108719078565400,11.5605654296875,-5.107507705688477,-5.630054473876953,0.3905876874923706
1684108719088606700,11.570606689453125,-2.3927083015441895,-1.8435258865356445,0.5465677976608276
1684108719098647800,11.580647705078125,0.27900516986846924,0.5605678558349609,0.14519643783569336
1684108719108689000,11.59068896484375,2.1143062114715576,1.4523086547851562,-0.1827716827392578
1684108719118730000,11.60072998046875,3.039510726928711,1.7338504791259766,-0.5488691329956055
1684108719128771300,11.610771240234374,2.916095733642578,1.954193115234375,-0.7942554950714111
1684108719138812400,11.6208125,2.4889273643493652,2.308696746826172,-0.9834563732147217
1684108719148853500,11.630853515625,2.1365890502929688,2.6061391830444336,-1.1079521179199219
1684108719158894800,11.640894775390626,1.909611463546753,2.720552444458008,-1.1282262802124023
1684108719168936000,11.65093603515625,1.839592695236206,2.466742515563965,-1.0746104717254639
1684108719178977000,11.66097705078125,1.87428617477417,1.9204177856445312,-0.9835342764854431
1684108719189018000,11.67101806640625,1.8064007759094238,1.3383235931396484,-0.899887204170227
1684108719199059200,11.68105908203125,1.6379063129425049,0.8614377975463867,-0.8394179940223694
1684108719209100500,11.6911005859375,1.3279286623001099,0.5130395889282227,-0.8007888197898865
1684108719219141600,11.7011416015625,0.5361453294754028,0.08472347259521484,-0.9478344917297363
1684108719229182700,11.7111826171875,-0.1457790732383728,-0.5551242828369141,-0.993495523929596
1684108719239224000,11.72122412109375,-0.4657493233680725,-1.1059894561767578,-0.9156134128570557
1684108719249265200,11.73126513671875,-0.5459588766098022,-1.327864646911621,-0.8602896928787231
1684108719259306200,11.74130615234375,-0.41933512687683105,-1.2173957824707031,-0.8550581336021423
1684108719269347300,11.751347412109375,-0.0001938939094543457,-0.7226142883300781,-0.9549828767776489
1684108719279388700,11.761388671875,0.6252953410148621,-0.1439037322998047,-1.1066882610321045
1684108719289429800,11.7714296875,1.3066455125808716,0.13068008422851562,-1.060707449913025
1684108719299470800,11.781470947265625,1.9134182929992676,0.25034618377685547,-0.8134828209877014
1684108719309512000,11.791511962890626,2.1807966232299805,0.3059234619140625,-0.5853779911994934
1684108719319553300,11.80155322265625,2.1968436241149902,0.3257589340209961,-0.47308218479156494
1684108719329594400,11.811594482421874,2.087822914123535,0.3573770523071289,-0.4831191301345825
1684108719339635500,11.821635498046875,2.03501033782959,0.33108043670654297,-0.3824758529663086
1684108719349676500,11.831676513671875,1.9957696199417114,0.30162715911865234,-0.24281680583953857
1684108719359718000,11.8417177734375,2.0059101581573486,0.2595996856689453,-0.2625854015350342
1684108719369759000,11.851759033203125,2.0450778007507324,0.1598529815673828,-0.285916805267334
1684108719379800000,11.861800048828124,1.9861400127410889,0.035981178283691406,-0.3324686288833618
1684108719389841400,11.87184130859375,1.8588650226593018,-0.04287910461425781,-0.44641542434692383
1684108719399882500,11.881882568359375,1.6755115985870361,-0.12235164642333984,-0.5873304605484009
1684108719409923600,11.891923583984376,1.4758257865905762,-0.15935325622558594,-0.8324867486953735
1684108719419964700,11.901964599609375,1.2758599519729614,-0.18001461029052734,-1.0622599124908447
1684108719430005800,11.912005859375,1.1910284757614136,-0.14356136322021484,-1.2032681703567505
1684108719440047000,11.922047119140625,1.1272461414337158,-0.13358497619628906,-1.285725474357605
1684108719450088200,11.932088134765625,1.033109426498413,-0.08531665802001953,-1.422783374786377
1684108719460129300,11.94212939453125,0.7595109939575195,-0.0105438232421875,-1.5836899280548096
1684108719470170600,11.952170654296875,0.25697067379951477,0.07170677185058594,-1.716848611831665
1684108719480211700,11.962211669921874,-0.3812254071235657,0.1471261978149414,-1.7550997734069824
1684108719490252800,11.972252685546875,-0.9217572212219238,0.19193172454833984,-1.601430892944336
1684108719500294000,11.9822939453125,-1.1397600173950195,0.20406627655029297,-1.242539644241333
1684108719510335200,11.992335205078126,-0.9429020881652832,0.19804000854492188,-0.7611216306686401
1684108719520376300,12.002376220703125,-0.4552736282348633,0.21896839141845703,-0.23349714279174805
1684108719530417400,12.01241748046875,0.10565412044525146,0.2568397521972656,0.24323582649230957
1684108719540458500,12.02245849609375,0.5291566848754883,0.2946319580078125,0.5561830997467041
1684108719550499800,12.032499755859375,0.8432797789573669,0.31785106658935547,0.769812822341919
1684108719560541000,12.042541015625,1.0630921125411987,0.3312664031982422,0.910747766494751
1684108719570582000,12.05258203125,1.1566418409347534,0.29671764373779297,0.9604842662811279
1684108719580623000,12.062623046875,1.1830942630767822,0.26926612854003906,1.0008443593978882
1684108719590664400,12.07266455078125,1.1253117322921753,0.25365161895751953,1.0678656101226807
1684108719600705500,12.08270556640625,1.0070512294769287,0.20918655395507812,1.099327802658081
1684108719610746600,12.09274658203125,0.8547341227531433,0.21703624725341797,1.1354985237121582
1684108719620787700,12.10278759765625,0.6407256126403809,0.15032386779785156,1.1560745239257812
1684108719630829000,12.1128291015625,0.3646082878112793,0.16193103790283203,1.0475033521652222
1684108719640870100,12.1228701171875,0.1274484395980835,0.16109180450439453,0.7339189052581787
1684108719650911200,12.1329111328125,-0.07080018520355225,0.0908517837524414,0.4225273132324219
1684108719660952300,12.142952392578126,-0.21714070439338684,0.05661201477050781,0.20442986488342285
1684108719670993700,12.15299365234375,-0.30916503071784973,0.020101547241210938,0.0147780179977417
1684108719681034800,12.16303466796875,-0.3779633343219757,-0.061573028564453125,-0.1986997127532959
1684108719691075800,12.173075927734375,-0.415935754776001,-0.09023475646972656,-0.3469194173812866
1684108719701117200,12.1831171875,-0.39421316981315613,-0.09934711456298828,-0.4463214874267578
1684108719711158300,12.193158203125,-0.33449798822402954,-0.12239742279052734,-0.4828532934188843
1684108719721199400,12.203199462890625,-0.23553091287612915,-0.07819366455078125,-0.5066264271736145
1684108719731240400,12.213240478515624,-0.1442716121673584,0.004500389099121094,-0.48057425022125244
1684108719741281800,12.22328173828125,-0.04760622978210449,0.08733177185058594,-0.3757593631744385
1684108719751323000,12.233322998046875,0.039608001708984375,0.14396381378173828,-0.26419222354888916
1684108719761364000,12.243364013671876,0.1219625473022461,0.18160152435302734,-0.10051417350769043
1684108719771405000,12.253405029296875,0.1825903058052063,0.19305992126464844,0.03601062297821045
1684108719781446400,12.2634462890625,0.24286234378814697,0.15443897247314453,0.21658110618591309
1684108719791487500,12.273487548828125,0.2766001224517822,0.163726806640625,0.3833562135696411
1684108719801528600,12.283528564453125,0.2985161542892456,0.18489646911621094,0.49248456954956055
1684108719811569700,12.293569580078126,0.31174004077911377,0.23940372467041016,0.5626204013824463
1684108719821611000,12.303611083984375,0.3141111135482788,0.24352073669433594,0.6337494850158691
1684108719831652000,12.313652099609374,0.33902209997177124,0.2570066452026367,0.6573951244354248
1684108719841693200,12.323693115234375,0.35502344369888306,0.17946720123291016,0.6307659149169922
1684108719851734300,12.333734375,0.330211341381073,0.1710653305053711,0.5371189117431641
1684108719861775600,12.343775634765626,0.302386999130249,0.1576070785522461,0.3316385746002197
1684108719871816700,12.353816650390625,0.26446521282196045,0.07953453063964844,0.11607205867767334
1684108719881857800,12.36385791015625,0.23379063606262207,0.06137561798095703,-0.10341733694076538
1684108719891899100,12.373899169921875,0.19179058074951172,0.110260009765625,-0.2448505163192749
1684108719901940200,12.383940185546875,0.18175190687179565,0.14013385772705078,-0.3100994825363159
1684108719911981300,12.393981201171876,0.19857680797576904,0.18929672241210938,-0.33684808015823364
1684108719922022400,12.4040224609375,0.24127012491226196,0.24097537994384766,-0.30760908126831055
1684108719932063500,12.4140634765625,0.25921446084976196,0.3142127990722656,-0.1986689567565918
1684108719942104800,12.424104736328125,0.29596006870269775,0.28475284576416016,0.0013142824172973633
1684108719952146000,12.43414599609375,0.3280397057533264,0.32477283477783203,0.21767950057983398
1684108719962187000,12.44418701171875,0.35322606563568115,0.2859611511230469,0.4758148789405823
1684108719972228400,12.454228271484375,0.39577990770339966,0.21143054962158203,0.7697823643684387
1684108719982269400,12.46426953125,0.43010711669921875,0.04156684875488281,0.9984992146492004
1684108719992310500,12.474310546875,0.514208972454071,-0.16606807708740234,1.2331273555755615
1684108720002351600,12.4843515625,0.6310997605323792,-0.4305295944213867,1.4038300514221191
1684108720012392700,12.494392822265626,0.7460075616836548,-0.6634130477905273,1.5344719886779785
1684108720022434000,12.50443408203125,0.8282639980316162,-0.7909030914306641,1.613266944885254
1684108720032475100,12.51447509765625,0.8953990340232849,-0.9231967926025391,1.690973162651062
1684108720042516200,12.52451611328125,0.8973888754844666,-1.0507469177246094,1.8243950605392456
1684108720052557600,12.5345576171875,0.9569912552833557,-1.2332992553710938,2.013976812362671
1684108720062598700,12.5445986328125,0.9816542267799377,-1.3800277709960938,2.1855809688568115
1684108720072639700,12.5546396484375,0.9853395223617554,-1.3501605987548828,2.236128807067871
