time,seconds_elapsed,z,y,x
1684109431668214500,0.034214599609375,0,0,0
1684109431678255900,0.044255859375,-0.1272869110107422,0.13167095184326172,-0.0353703498840332
1684109431688297200,0.054297119140625,0.10651111602783203,-0.21797943115234375,-0.33269524574279785
1684109431698338800,0.0643388671875,-0.07335853576660156,-0.1504807472229004,-0.19803285598754883
1684109431708380200,0.074380126953125,-0.5519065856933594,-0.11531400680541992,-0.0218961238861084
1684109431718421500,0.08442138671875,-1.1912307739257812,-0.03882241249084473,0.2762284278869629
1684109431728463000,0.094463134765625,-1.5534720420837402,-0.1038198471069336,0.7049055099487305
1684109431738504400,0.10450439453125,-1.6106839179992676,-0.05504918098449707,1.0378456115722656
1684109431748546000,0.114546142578125,-1.7376227378845215,-0.46158766746520996,1.183056354522705
1684109431758587400,0.12458740234375,-0.8346428871154785,0.3104562759399414,1.0125212669372559
1684109431768628700,0.134628662109375,0.2420969009399414,1.1881433725357056,0.5771260261535645
1684109431778670300,0.14467041015625,0.8501615524291992,2.2211642265319824,-0.3449735641479492
1684109431788711700,0.154711669921875,0.5671906471252441,1.290980339050293,-0.985626220703125
1684109431798753300,0.164753173828125,-0.11043882369995117,-0.07263994216918945,-1.211648941040039
1684109431808794600,0.174794677734375,-0.40933704376220703,-1.2631118297576904,-1.0092320442199707
1684109431818836000,0.1848359375,-0.0908212661743164,-2.827773332595825,-0.33501386642456055
1684109431828877600,0.194877685546875,0.5046191215515137,-5.918256759643555,1.8598108291625977
1684109431838919000,0.2049189453125,1.7152204513549805,-2.284979820251465,-0.04930305480957031
1684109431848960500,0.21496044921875,1.5521540641784668,0.6650784015655518,-1.4273576736450195
1684109431859001900,0.225001953125,0.5358524322509766,0.19388890266418457,-0.6460666656494141
1684109431869043200,0.235043212890625,0.026622772216796875,-0.5091214179992676,0.19187259674072266
1684109431879084800,0.245084716796875,-0.6272835731506348,-0.37213659286499023,1.1681923866271973
1684109431889126100,0.255126220703125,-1.6616935729980469,-0.11612319946289062,2.546985149383545
1684109431899167500,0.26516748046875,-2.296595573425293,0.30318140983581543,2.5197486877441406
1684109431909209000,0.275208984375,-1.8157854080200195,0.6717636585235596,2.7613091468811035
1684109431919250400,0.28525048828125,-1.049264907836914,0.8408753871917725,2.4599404335021973
1684109431929292000,0.2952919921875,-0.11915874481201172,1.2939021587371826,1.4890093803405762
1684109431939333400,0.30533349609375,0.22927570343017578,0.7378942966461182,0.4520907402038574
1684109431949374700,0.315374755859375,-2.188807249069214,-0.41752147674560547,-1.2701983451843262
1684109431959416300,0.325416259765625,0.34714460372924805,-1.3332695960998535,-1.27689790725708
1684109431969457700,0.335457763671875,1.3669657707214355,-2.294023036956787,-2.5662198066711426
1684109431979499300,0.345499267578125,2.100625991821289,-1.9155752658843994,-2.6442179679870605
1684109431989540600,0.35554052734375,2.6479153633117676,-0.8353221416473389,-1.1406593322753906
1684109431999582000,0.36558203125,2.0490779876708984,-0.3259544372558594,-0.03091144561767578
1684109432009623600,0.37562353515625,1.0014252662658691,0.003977298736572266,0.24807167053222656
1684109432019665000,0.385664794921875,0.17866754531860352,0.7124650478363037,0.044118404388427734
1684109432029706200,0.395706298828125,-0.48415565490722656,1.0702824592590332,-0.2680964469909668
1684109432039747800,0.405747802734375,-0.8577494621276855,0.5189063549041748,-0.8942718505859375
1684109432049789200,0.4157890625,-1.246253252029419,-0.17492032051086426,-1.0990519523620605
1684109432059830800,0.425830810546875,-0.936610221862793,-0.9113161563873291,-1.2158551216125488
1684109432069872000,0.4358720703125,-0.2776670455932617,-1.158024787902832,-1.6439208984375
1684109432079913500,0.44591357421875,0.5115156173706055,-1.1032981872558594,-1.7564878463745117
1684109432089955000,0.455955078125,0.8230395317077637,-0.8214433193206787,-1.6132707595825195
1684109432099996400,0.465996337890625,0.7742271423339844,-0.7006151676177979,-1.062286376953125
1684109432110038000,0.4760380859375,0.7864017486572266,-0.5060405731201172,-0.4519157409667969
1684109432120079400,0.486079345703125,0.3489983081817627,-0.27046871185302734,-0.06632804870605469
1684109432130120700,0.49612060546875,-0.2502286434173584,0.10991144180297852,0.24779224395751953
1684109432140162300,0.506162353515625,-0.6351616382598877,0.1672074794769287,0.26212310791015625
1684109432150203600,0.51620361328125,-0.5819127559661865,-0.05048394203186035,-0.1522378921508789
1684109432160245000,0.526244873046875,-0.45209598541259766,-0.3191862106323242,-0.6391468048095703
1684109432170286600,0.53628662109375,0.060599327087402344,-0.39495110511779785,-0.9151344299316406
1684109432180328000,0.546327880859375,0.749767541885376,-0.5311517715454102,-1.2040915489196777
1684109432190369500,0.55636962890625,1.017291784286499,-0.7089064121246338,-0.9059066772460938
1684109432200411000,0.566410888671875,1.0788531303405762,-1.071624755859375,-0.2554941177368164
1684109432210452200,0.5764521484375,0.7967081069946289,-0.9787168502807617,-0.07198619842529297
1684109432220493800,0.586493896484375,0.13093829154968262,-0.3567519187927246,-0.11866950988769531
1684109432230535200,0.59653515625,-0.4631754159927368,0.07113099098205566,-0.2702608108520508
1684109432240576800,0.60657666015625,-0.6772230863571167,-0.14504694938659668,0.16742515563964844
1684109432250618000,0.6166181640625,-0.6612639427185059,-0.04361677169799805,0.06764793395996094
1684109432260659500,0.626659423828125,-0.42554211616516113,0.15385794639587402,-0.2440195083618164
1684109432270701000,0.636701171875,-0.1847747564315796,0.18846821784973145,-0.6138792037963867
1684109432280742400,0.646742431640625,-0.0583568811416626,-0.21043181419372559,-0.7374038696289062
1684109432290784000,0.656783935546875,0.07095932960510254,-0.5645065307617188,-1.0603861808776855
1684109432300825300,0.666825439453125,0.4842090606689453,-0.7623286247253418,-1.1640205383300781
1684109432310866700,0.67686669921875,1.1300311088562012,-0.5450000762939453,-1.1843929290771484
1684109432320908300,0.686908203125,1.493990182876587,-0.46298742294311523,-0.872805118560791
1684109432330949600,0.69694970703125,1.334938883781433,-0.6432352066040039,-0.47039318084716797
1684109432340991200,0.7069912109375,0.951383113861084,-0.6072320938110352,-0.4710721969604492
1684109432351032600,0.717032470703125,0.4340395927429199,-0.2868366241455078,-1.1255640983581543
1684109432361074000,0.727073974609375,-0.0011749863624572754,-0.5615639686584473,-0.9003291130065918
1684109432371115500,0.737115478515625,-0.007007308304309845,-0.41141605377197266,-0.538884162902832
1684109432381156900,0.747156982421875,0.44278275966644287,-0.07564735412597656,-0.8813009262084961
1684109432391198200,0.7571982421875,0.6524558067321777,-0.10377931594848633,-1.005540370941162
1684109432401239800,0.76723974609375,0.7626259326934814,-0.34999513626098633,-0.42063426971435547
1684109432411281200,0.77728125,0.7923393249511719,-0.4007291793823242,-0.5151147842407227
1684109432421322800,0.78732275390625,0.4105660319328308,-0.493563175201416,-0.42449951171875
1684109432431364000,0.797364013671875,-0.29030001163482666,-0.6090130805969238,0.30401134490966797
1684109432441405400,0.807405517578125,-0.7456324100494385,-0.1259002685546875,1.0580577850341797
1684109432451447000,0.817447021484375,-1.170798897743225,0.41968727111816406,1.3601713180541992
1684109432461488400,0.82748828125,-1.5456968545913696,0.42568206787109375,1.3755950927734375
1684109432471530000,0.837530029296875,-1.3155301809310913,0.36544179916381836,1.1458759307861328
1684109432481571300,0.8475712890625,-0.8253287076950073,0.3065953254699707,0.8834743499755859
1684109432491612700,0.85761279296875,-0.3462686538696289,-0.004804134368896484,0.40917015075683594
1684109432501654300,0.867654296875,0.05634129047393799,-0.500880241394043,-0.035445213317871094
1684109432511695600,0.877695556640625,0.31289780139923096,-0.7790379524230957,-0.1866168975830078
1684109432521737200,0.8877373046875,0.38508331775665283,-1.1985697746276855,0.03960418701171875
1684109432531778600,0.897778564453125,0.5840516090393066,-1.2007522583007812,0.27486133575439453
1684109432541820000,0.90781982421875,0.7105849981307983,-0.5969252586364746,0.2239995002746582
1684109432551861500,0.917861572265625,0.7588098049163818,-0.34855031967163086,0.3529806137084961
1684109432561902800,0.92790283203125,0.7006615400314331,-0.45383691787719727,0.7644252777099609
1684109432571944400,0.9379443359375,0.5299081802368164,-0.790471076965332,1.2224946022033691
1684109432581985800,0.94798583984375,0.5754194259643555,-0.817535400390625,1.5150494575500488
1684109432592027100,0.958027099609375,1.8635144233703613,0.07240152359008789,1.4496688842773438
1684109432602068700,0.96806884765625,1.2707008123397827,0.07680606842041016,0.6678948402404785
1684109432612110000,0.978110107421875,0.23533093929290771,-0.4572324752807617,0.0563502311706543
1684109432622151400,0.9881513671875,-0.0708153247833252,-0.8715815544128418,-0.005343437194824219
1684109432632193000,0.998193115234375,0.18519318103790283,-0.7606420516967773,0.05210065841674805
1684109432642234400,1.008234375,0.5650802850723267,-0.659517765045166,-0.07732295989990234
1684109432652276000,1.01827587890625,0.8603191375732422,-0.07854986190795898,-0.0035033226013183594
1684109432662317300,1.0283173828125,0.5940831899642944,-0.3144392967224121,-0.5136599540710449
1684109432672359000,1.03835888671875,0.17156577110290527,-0.9839601516723633,-0.4580044746398926
1684109432682400300,1.048400146484375,-0.7188282012939453,-1.4259662628173828,-0.3790445327758789
1684109432692441600,1.058441650390625,-0.76051926612854,-0.513338565826416,-0.2536039352416992
1684109432702483200,1.068483154296875,-0.10864853858947754,-0.09082937240600586,-0.02556467056274414
1684109432712524500,1.078524658203125,0.05992555618286133,-0.5056028366088867,0.14269542694091797
1684109432722566100,1.088566162109375,0.0025963783264160156,-0.7171916961669922,0.27683353424072266
1684109432732607500,1.098607421875,0.11037755012512207,-0.42468786239624023,0.3136467933654785
1684109432742648800,1.10864892578125,0.17783021926879883,-0.13535165786743164,0.06382989883422852
1684109432752690400,1.1186904296875,0.09051012992858887,-0.20611906051635742,-0.3410482406616211
1684109432762731800,1.128731689453125,0.5939011573791504,-1.0018510818481445,-0.31661558151245117
1684109432772773400,1.1387734375,1.420017957687378,-0.6982321739196777,0.027949810028076172
1684109432782814700,1.148814697265625,1.4735040664672852,0.05739402770996094,-0.31879758834838867
1684109432792856000,1.15885595703125,0.4795513153076172,-0.43250465393066406,-0.7121138572692871
1684109432802897700,1.168897705078125,-0.010110616683959961,-0.5812158584594727,-1.4275116920471191
1684109432812939000,1.17893896484375,0.26424121856689453,-0.4577674865722656,-1.615048885345459
1684109432822980600,1.188980712890625,0.6280697584152222,-0.43476438522338867,-1.2494544982910156
1684109432833022000,1.19902197265625,0.8480864763259888,-0.4320182800292969,-0.5978412628173828
1684109432843063300,1.209063232421875,0.9101296663284302,-0.26297903060913086,0.01298379898071289
1684109432853105000,1.21910498046875,0.6948180198669434,-0.23683929443359375,0.7713899612426758
1684109432863146200,1.229146240234375,0.5070770978927612,-0.1479353904724121,0.7722101211547852
1684109432873187800,1.239187744140625,0.23854470252990723,-0.15066909790039062,0.48314476013183594
1684109432883229200,1.249229248046875,-0.08630990982055664,0.043091773986816406,0.15293455123901367
1684109432893270500,1.2592705078125,-0.12262439727783203,0.26102209091186523,-0.13179636001586914
1684109432903312100,1.26931201171875,-0.04390597343444824,0.5086207389831543,-0.6494936943054199
1684109432913353500,1.279353515625,-0.040224552154541016,0.9928445816040039,-1.2475638389587402
1684109432923394800,1.289394775390625,0.304154634475708,1.1964225769042969,-1.2086987495422363
1684109432933436400,1.2994365234375,0.42032814025878906,0.7338542938232422,-0.8638916015625
1684109432943477800,1.309477783203125,0.31008386611938477,0.4111623764038086,-0.21439695358276367
1684109432953519400,1.319519287109375,0.18976998329162598,0.3798213005065918,0.37288999557495117
1684109432963560700,1.329560791015625,0.02963995933532715,-0.6291561126708984,1.5069751739501953
1684109432973602000,1.33960205078125,0.07703280448913574,-0.9899711608886719,2.279204845428467
1684109432983643600,1.3496435546875,0.16813111305236816,-1.0131430625915527,2.5795297622680664
1684109432993685000,1.35968505859375,0.2849082946777344,-0.1672377586364746,2.2027344703674316
1684109433003726600,1.3697265625,0.2388746738433838,0.20604324340820312,1.2338485717773438
1684109433013768000,1.379767822265625,0.17093133926391602,-0.3897414207458496,0.37061452865600586
1684109433023809500,1.3898095703125,0.21535682678222656,-1.0399789810180664,-0.5731792449951172
1684109433033851000,1.399850830078125,0.08427906036376953,-1.1245980262756348,-1.1152915954589844
1684109433043892200,1.409892333984375,0.08434510231018066,-0.7598271369934082,-1.3120617866516113
1684109433053933800,1.419933837890625,-0.012417793273925781,-0.5844211578369141,-1.2947592735290527
1684109433063975200,1.42997509765625,-0.09358620643615723,-0.574129581451416,-1.1121525764465332
1684109433074016800,1.440016845703125,-0.04881095886230469,-0.60394287109375,-0.9236054420471191
1684109433084058000,1.45005810546875,0.032387733459472656,-0.7047119140625,-0.6921381950378418
1684109433094099500,1.460099365234375,0.06258177757263184,-0.7277870178222656,-0.42052698135375977
1684109433104141000,1.47014111328125,0.1941370964050293,-0.8120646476745605,-0.46081113815307617
1684109433114182400,1.480182373046875,0.16399884223937988,-0.42715024948120117,-0.6850004196166992
1684109433124224000,1.49022412109375,0.08629655838012695,-0.688267707824707,-1.0255308151245117
1684109433134265300,1.500265380859375,-0.33194446563720703,-1.1684460639953613,-0.8384594917297363
1684109433144306700,1.510306640625,-0.7375328540802002,-2.7824764251708984,1.0548863410949707
1684109433154348300,1.520348388671875,0.4123189449310303,-1.817265510559082,2.756636619567871
1684109433164389600,1.5303896484375,1.2994909286499023,0.7318663597106934,1.303873062133789
1684109433174431200,1.54043115234375,1.7695295810699463,0.651486873626709,-0.10433340072631836
1684109433184472600,1.55047265625,1.3460824489593506,0.6424942016601562,-0.32418107986450195
1684109433194514000,1.560513916015625,1.127633810043335,0.5164699554443359,0.31761598587036133
1684109433204555500,1.570555419921875,1.094003677368164,0.4435577392578125,0.5588593482971191
1684109433214596900,1.580596923828125,0.7543344497680664,2.7072696685791016,0.064605712890625
1684109433224638500,1.590638427734375,-0.3274405002593994,0.14599847793579102,-0.0878605842590332
1684109433234679800,1.6006796875,-0.6843445301055908,-0.562896728515625,-0.34592628479003906
1684109433244721400,1.610721435546875,-0.8168556690216064,-0.8375835418701172,-0.5132842063903809
1684109433254762800,1.6207626953125,-0.7926943302154541,-0.22342920303344727,-0.2808094024658203
1684109433264804000,1.63080419921875,-1.166886329650879,-0.06223869323730469,0.4194984436035156
1684109433274845700,1.640845703125,-1.2455425262451172,0.4681224822998047,1.2011723518371582
1684109433284887000,1.650886962890625,-1.1767816543579102,0.32745790481567383,1.4470562934875488
1684109433294928400,1.660928466796875,-0.8080816268920898,-0.06287431716918945,1.4534096717834473
1684109433304970000,1.670969970703125,-0.45056796073913574,-0.49303150177001953,1.0963892936706543
1684109433315011300,1.68101123046875,0.35996389389038086,0.6681900024414062,-0.025121212005615234
1684109433325053000,1.691052978515625,0.3633847236633301,1.2281928062438965,-0.5080370903015137
1684109433335094300,1.70109423828125,-0.05899763107299805,1.509472370147705,-0.7275104522705078
1684109433345135600,1.711135498046875,-0.6331300735473633,0.39010000228881836,-0.4081697463989258
1684109433355177200,1.72117724609375,-0.4345734119415283,-0.7269549369812012,-0.31774377822875977
1684109433365218600,1.731218505859375,0.09778571128845215,-1.1848030090332031,-0.17580842971801758
1684109433375260200,1.74126025390625,0.3437798023223877,-0.9733386039733887,-0.5381817817687988
1684109433385301500,1.751301513671875,0.3285255432128906,-0.49860191345214844,-1.038794994354248
1684109433395342800,1.7613427734375,0.0538182258605957,-0.2913036346435547,-1.4103889465332031
1684109433405384400,1.771384521484375,0.058370113372802734,-0.29320287704467773,-1.5249509811401367
1684109433415425800,1.78142578125,0.41079282760620117,0.15008115768432617,-1.3952422142028809
1684109433425467400,1.79146728515625,-0.22821497917175293,-0.36641454696655273,-1.8024992942810059
1684109433435508700,1.8015087890625,-0.37302613258361816,-0.22443056106567383,-1.6989221572875977
1684109433445550000,1.811550048828125,-0.4859607219696045,-0.2863430976867676,-1.435624122619629
1684109433455591700,1.821591796875,-0.36290979385375977,-0.028545856475830078,-1.1347365379333496
1684109433465633000,1.831633056640625,-0.3189713954925537,-1.0971956253051758,0.31307268142700195
1684109433475674600,1.841674560546875,0.378338098526001,0.4259934425354004,-0.023235797882080078
1684109433485716000,1.851716064453125,0.35944652557373047,0.4583778381347656,-0.6391267776489258
1684109433495757300,1.86175732421875,0.01347661018371582,0.1810927391052246,-1.269801378250122
1684109433505799000,1.871798828125,0.33656835556030273,1.1571178436279297,-2.0256311893463135
1684109433515840300,1.88184033203125,0.424562931060791,2.302997589111328,-2.7214515209198
1684109433525881900,1.8918818359375,0.16237735748291016,1.5899109840393066,-2.682300329208374
1684109433535923200,1.901923095703125,-0.050768136978149414,0.26282691955566406,-2.2273151874542236
1684109433545964500,1.911964599609375,-0.4296844005584717,-2.0321292877197266,-1.2771649360656738
1684109433556006100,1.922006103515625,-0.3620436191558838,-3.6979494094848633,-0.48046875
1684109433566047500,1.932047607421875,0.010009050369262695,-3.733567237854004,-0.38829946517944336
1684109433576089000,1.942089111328125,0.4428579807281494,-1.6129951477050781,-0.38648414611816406
1684109433586130400,1.95213037109375,0.49628162384033203,-0.16735267639160156,-0.06658744812011719
1684109433596172000,1.962172119140625,0.13145208358764648,-0.41344261169433594,-0.0279541015625
1684109433606213400,1.97221337890625,-0.06505322456359863,-0.30768489837646484,0.19662094116210938
1684109433616254700,1.982254638671875,-0.2652609348297119,-0.44628429412841797,0.2440204620361328
1684109433626296300,1.99229638671875,-0.5161809921264648,-0.4488954544067383,0.16139554977416992
1684109433636337700,2.002337646484375,-0.6735222339630127,-0.3678417205810547,-0.18317008018493652
1684109433646379300,2.012379150390625,-0.6414930820465088,-0.3256816864013672,-0.5362439155578613
1684109433656420600,2.022420654296875,-0.39858078956604004,-0.3133506774902344,-0.7657320499420166
1684109433666462000,2.0324619140625,0.012523174285888672,-0.28298282623291016,-0.9403166770935059
1684109433676503600,2.042503662109375,0.4583749771118164,-0.30219078063964844,-0.9093577861785889
1684109433686545000,2.052544921875,0.6775569915771484,-0.4694499969482422,-0.8885302543640137
1684109433696586500,2.06258642578125,0.8603131771087646,-0.14775753021240234,-1.0298397541046143
1684109433706627800,2.0726279296875,0.5642948150634766,-0.2895383834838867,-0.8077054023742676
1684109433716669200,2.082669189453125,0.43475770950317383,-0.20471668243408203,-1.0400965213775635
1684109433726710800,2.092710693359375,0.08735442161560059,0.0908355712890625,-1.1551876068115234
1684109433736752000,2.102752197265625,-0.327770471572876,0.43975257873535156,-1.0510280132293701
1684109433746793700,2.112793701171875,-0.6044366359710693,0.5499553680419922,-0.911710262298584
1684109433756835000,2.1228349609375,-0.5187225341796875,1.0348987579345703,-0.9084417819976807
1684109433766876700,2.132876708984375,-0.7399754524230957,0.6754436492919922,-0.6897659301757812
1684109433776918000,2.14291796875,-0.5967378616333008,0.32964134216308594,-0.5229308605194092
1684109433786959400,2.15295947265625,-0.25200939178466797,0.0328521728515625,-0.47483277320861816
1684109433797001000,2.1630009765625,0.13042449951171875,-0.1206064224243164,-0.34467530250549316
1684109433807042300,2.173042236328125,0.4733924865722656,-0.3235321044921875,-0.128737211227417
1684109433817084000,2.183083984375,0.8037903308868408,-0.4637336730957031,0.08815550804138184
1684109433827125200,2.193125244140625,1.1639199256896973,-0.37808990478515625,0.28732848167419434
1684109433837166600,2.20316650390625,1.3594379425048828,-0.20714187622070312,0.5699846744537354
1684109433847208200,2.213208251953125,1.3630666732788086,-0.10870361328125,0.8248367309570312
1684109433857249500,2.22324951171875,1.2981278896331787,0.06705474853515625,1.119481086730957
1684109433867291100,2.233291015625,0.9771945476531982,0.006687164306640625,1.340872049331665
1684109433877332500,2.24333251953125,0.6305527687072754,0.08413505554199219,1.4377939701080322
1684109433887374000,2.2533740234375,0.17989325523376465,0.05405616760253906,1.4947686195373535
1684109433897415400,2.26341552734375,-0.14442825317382812,-0.06490707397460938,1.4178452491760254
1684109433907456800,2.273456787109375,-0.40406346321105957,0.09714889526367188,1.1781485080718994
1684109433917498400,2.283498291015625,-0.5851123332977295,0.17029190063476562,0.8270857334136963
1684109433927539700,2.293539794921875,-0.6771109104156494,0.3145313262939453,0.6097419261932373
1684109433937581300,2.303581298828125,-0.699453592300415,0.41783809661865234,0.20605707168579102
1684109433947622700,2.31362255859375,-0.8072280883789062,0.6260185241699219,-0.045285701751708984
1684109433957664000,2.3236640625,-0.895254373550415,0.6265707015991211,-0.27565062046051025
1684109433967705600,2.33370556640625,-0.8456635475158691,0.6430282592773438,-0.40207791328430176
1684109433977747000,2.343746826171875,-0.6096317768096924,0.5269908905029297,0.07868289947509766
1684109433987788500,2.35378857421875,-0.41011905670166016,0.4502906799316406,0.15199708938598633
1684109433997830000,2.363829833984375,-0.19527792930603027,0.40245532989501953,0.1560976505279541
1684109434007871500,2.37387158203125,-0.03293490409851074,0.23332881927490234,0.2060225009918213
1684109434017912800,2.383912841796875,0.15649676322937012,0.2415761947631836,0.24854278564453125
1684109434027954200,2.3939541015625,0.28749942779541016,0.0816507339477539,0.20147180557250977
1684109434037995800,2.403995849609375,0.34861111640930176,-0.009197235107421875,0.16545772552490234
1684109434048037000,2.414037109375,0.31183648109436035,0.026424407958984375,0.25955939292907715
1684109434058078700,2.42407861328125,0.060214996337890625,0.01573657989501953,0.23973631858825684
1684109434068120000,2.4341201171875,-0.04231142997741699,-0.0081024169921875,0.2535440921783447
1684109434078161700,2.44416162109375,-0.12782025337219238,0.5969352722167969,0.7571280002593994
1684109434088203000,2.454203125,-0.37297630310058594,-0.17770004272460938,0.4031655788421631
1684109434098244400,2.464244384765625,-0.7575137615203857,-0.8561716079711914,0.13207507133483887
1684109434108286000,2.474285888671875,-1.0454967021942139,-1.509756088256836,0.05328702926635742
1684109434118327300,2.484327392578125,-1.298842191696167,-1.990788459777832,0.23583078384399414
1684109434128369000,2.494368896484375,-1.3970162868499756,-2.0526247024536133,0.5065782070159912
1684109434138410200,2.50441015625,-1.4420320987701416,-1.8080329895019531,0.949469804763794
1684109434148451600,2.51445166015625,-1.6416195631027222,-1.6070384979248047,1.2964425086975098
1684109434158493200,2.5244931640625,-1.8222451210021973,-1.2418594360351562,1.2092258930206299
1684109434168534500,2.534534423828125,-1.808813214302063,-0.6448431015014648,0.6120338439941406
1684109434178576100,2.544576171875,-1.824480652809143,-0.06175708770751953,0.17760968208312988
1684109434188617500,2.554617431640625,-1.789056420326233,0.16448116302490234,-0.15466976165771484
1684109434198658800,2.564658935546875,-1.8899801969528198,0.1882915496826172,-0.44496917724609375
1684109434208700400,2.574700439453125,-1.7586559057235718,0.28007984161376953,-0.8183004856109619
1684109434218741800,2.58474169921875,-1.5355206727981567,0.36475372314453125,-1.1685038805007935
1684109434228783400,2.594783447265625,-0.9732131958007812,0.3795900344848633,-1.263690710067749
1684109434238824700,2.60482470703125,-0.3239253759384155,0.42637157440185547,-1.4636573791503906
1684109434248866300,2.6148662109375,0.43359100818634033,0.27146434783935547,-1.5061382055282593
1684109434258907600,2.62490771484375,0.9101985096931458,0.03784751892089844,-1.356977105140686
1684109434268949000,2.634948974609375,1.18629789352417,-0.040576934814453125,-1.056426763534546
1684109434278990600,2.644990478515625,1.1737027168273926,-0.003192901611328125,-0.6822731494903564
1684109434289032000,2.655031982421875,0.9475803375244141,0.05791282653808594,-0.31378173828125
1684109434299073500,2.665073486328125,0.6551750898361206,0.05798053741455078,0.07707595825195312
1684109434309115000,2.675114990234375,0.5376687049865723,0.0011358261108398438,0.4194753170013428
1684109434319156200,2.68515625,0.5946773290634155,-0.0812530517578125,0.6293938159942627
1684109434329197800,2.69519775390625,0.6204262971878052,-0.16741085052490234,0.6023435592651367
1684109434339239200,2.7052392578125,0.24221253395080566,-0.26715660095214844,0.543675422668457
1684109434349280800,2.71528076171875,0.2945380210876465,0.02115917205810547,0.4087202548980713
1684109434359322000,2.725322021484375,0.03557109832763672,-0.2037372589111328,0.4145224094390869
1684109434369363500,2.735363525390625,0.23112916946411133,-0.31032371520996094,0.18294048309326172
1684109434379405000,2.745405029296875,0.2603353261947632,-0.2930641174316406,-0.12695884704589844
1684109434389446400,2.7554462890625,0.586280882358551,0.1745462417602539,-0.3945198059082031
1684109434399488000,2.765488037109375,0.3345768451690674,0.10051155090332031,-0.5273177623748779
1684109434409529300,2.775529296875,0.31873130798339844,0.19193553924560547,-0.650808572769165
1684109434419571000,2.785571044921875,0.4657968282699585,0.2858705520629883,-0.6853232383728027
1684109434429612300,2.7956123046875,0.8322290182113647,0.6611957550048828,-0.6756434440612793
1684109434439653600,2.805653564453125,1.1342048645019531,0.9195957183837891,-0.5119729042053223
1684109434449695200,2.8156953125,1.3058445453643799,0.7928228378295898,-0.24283742904663086
1684109434459736600,2.825736572265625,1.516359806060791,0.7249383926391602,-0.17548418045043945
1684109434469778200,2.835778076171875,1.6827280521392822,0.7842941284179688,-0.3036465644836426
1684109434479819500,2.845819580078125,1.6264500617980957,0.5921659469604492,-0.4599463939666748
1684109434489861000,2.855861083984375,1.4481158256530762,0.43684959411621094,-0.5276303291320801
1684109434499902500,2.86590234375,1.1306278705596924,0.14772510528564453,-0.357588529586792
1684109434509944000,2.875944091796875,0.8536158800125122,-0.3179349899291992,-0.1953260898590088
1684109434519985400,2.8859853515625,0.6983211040496826,-0.6477327346801758,-0.16365337371826172
1684109434530026800,2.89602685546875,0.5487245321273804,-0.7808074951171875,-0.14287662506103516
1684109434540068400,2.906068359375,0.37732023000717163,-0.8277177810668945,-0.04123687744140625
1684109434550109700,2.916109619140625,0.22326591610908508,-0.7466096878051758,-0.04329204559326172
1684109434560151300,2.9261513671875,0.11589866876602173,-0.6740903854370117,-0.07269430160522461
1684109434570192600,2.936192626953125,0.04637962579727173,-0.6931447982788086,-0.057886600494384766
1684109434580234000,2.94623388671875,0.016947895288467407,-0.5282258987426758,0.011327028274536133
1684109434590275600,2.956275634765625,-0.11399069428443909,-0.4086141586303711,0.17908978462219238
1684109434600317000,2.96631689453125,-0.292069673538208,-0.32260894775390625,0.2790977954864502
1684109434610358500,2.976358642578125,-0.32317638397216797,-0.11796283721923828,0.28804755210876465
1684109434620399900,2.98639990234375,-0.1344882845878601,0.28371238708496094,0.30190277099609375
1684109434630441200,2.996441162109375,0.07820530235767365,0.4025697708129883,0.28142786026000977
1684109434640482800,3.00648291015625,0.34649235010147095,0.48570919036865234,0.32302403450012207
1684109434650524200,3.016524169921875,0.5851147174835205,0.6240396499633789,0.3954148292541504
1684109434660565800,3.026565673828125,0.7144562005996704,0.6261072158813477,0.47084808349609375
1684109434670607000,3.036607177734375,0.8526886701583862,0.6039056777954102,0.5473699569702148
1684109434680648700,3.046648681640625,1.032946228981018,0.6171064376831055,0.5719208717346191
1684109434690690000,3.05668994140625,1.0961990356445312,0.529881477355957,0.5666384696960449
1684109434700731400,3.0667314453125,1.121913194656372,0.5691795349121094,0.6241161823272705
1684109434710773000,3.07677294921875,1.0543327331542969,0.4811248779296875,0.6661934852600098
1684109434720814300,3.086814453125,0.9813315868377686,0.3731527328491211,0.6421401500701904
1684109434730856000,3.09685595703125,0.8879495859146118,0.30721378326416016,0.6071088314056396
1684109434740897300,3.106897216796875,0.8682159185409546,0.2669191360473633,0.476931095123291
1684109434750939000,3.11693896484375,0.9111378192901611,0.2743558883666992,0.4566478729248047
1684109434760980200,3.126980224609375,0.940007209777832,0.2798128128051758,0.48238396644592285
1684109434771021600,3.137021484375,0.8657883405685425,0.30980968475341797,0.587597131729126
1684109434781063200,3.147063232421875,0.7640382051467896,0.41185760498046875,0.766864538192749
1684109434791104500,3.1571044921875,0.635015606880188,0.48815059661865234,0.8735337257385254
1684109434801146000,3.16714599609375,0.4929203391075134,0.6006088256835938,1.1062214374542236
1684109434811187500,3.1771875,0.3243491053581238,0.6147117614746094,1.3696191310882568
1684109434821229000,3.18722900390625,0.116548091173172,0.4966144561767578,1.5730767250061035
1684109434831270400,3.1972705078125,0.051328688859939575,0.39968299865722656,1.710047960281372
1684109434841311700,3.207311767578125,0.0698016807436943,0.24982929229736328,1.8471086025238037
1684109434851353300,3.217353271484375,0.13030532002449036,0.1809101104736328,1.9459254741668701
1684109434861394700,3.227394775390625,0.1806545853614807,-0.009366989135742188,1.7561149597167969
1684109434871436300,3.237436279296875,0.26526957750320435,-0.052684783935546875,1.5264256000518799
1684109434881477600,3.2474775390625,0.3959644138813019,0.026235580444335938,1.4490618705749512
1684109434891519000,3.25751904296875,0.42513805627822876,0.1236867904663086,1.2731969356536865
1684109434901560600,3.267560546875,0.376220703125,0.2657279968261719,1.0584642887115479
1684109434911602000,3.277601806640625,0.32932522892951965,0.4025535583496094,0.7229132652282715
1684109434921643500,3.2876435546875,0.28950566053390503,0.4561481475830078,0.41237354278564453
1684109434931684900,3.297684814453125,0.2777961492538452,0.4752216339111328,0.1552259922027588
1684109434941726500,3.3077265625,0.30044305324554443,0.4748373031616211,-0.07295513153076172
1684109434951767800,3.317767822265625,0.265268474817276,0.32888031005859375,-0.26881957054138184
1684109434961809200,3.32780908203125,0.189996600151062,0.13335609436035156,-0.4608466625213623
1684109434971850800,3.337850830078125,0.256330281496048,0.02953624725341797,-0.6265056133270264
1684109434981892000,3.34789208984375,0.3430945575237274,-0.06862068176269531,-0.7053501605987549
1684109434991933700,3.35793359375,0.3847719430923462,-0.18743896484375,-0.819054365158081
1684109435001975000,3.36797509765625,0.48272326588630676,-0.2551536560058594,-0.9306702613830566
1684109435012016600,3.3780166015625,0.5452855229377747,-0.2960023880004883,-0.9493241310119629
1684109435022058000,3.38805810546875,0.5629111528396606,-0.2724008560180664,-0.9214458465576172
1684109435032099600,3.398099609375,0.5400327444076538,-0.18510150909423828,-0.8552052974700928
1684109435042141000,3.408140869140625,0.45561838150024414,-0.12558937072753906,-0.7518179416656494
1684109435052182300,3.418182373046875,0.34911683201789856,-0.09452152252197266,-0.6300537586212158
1684109435062224000,3.428223876953125,0.19016730785369873,-0.11407089233398438,-0.4279439449310303
1684109435072265200,3.43826513671875,0.06721985340118408,-0.1371440887451172,-0.2465658187866211
1684109435082306800,3.448306884765625,-0.006041198968887329,-0.1356973648071289,-0.021698474884033203
1684109435092348200,3.45834814453125,-0.08789500594139099,-0.15063762664794922,0.2045586109161377
1684109435102389500,3.468389404296875,-0.16026225686073303,-0.12222480773925781,0.3484896421432495
1684109435112431000,3.47843115234375,-0.2234562635421753,-0.11265945434570312,0.5029845237731934
1684109435122472400,3.488472412109375,-0.29626718163490295,-0.07420635223388672,0.6383270025253296
1684109435132514000,3.49851416015625,-0.3589743971824646,-0.035498619079589844,0.6634984016418457
1684109435142555400,3.508555419921875,-0.4368465542793274,0.05866718292236328,0.6750688552856445
1684109435152597000,3.518596923828125,-0.46848994493484497,0.19184589385986328,0.5790456533432007
1684109435162638300,3.528638427734375,-0.5218008756637573,0.25919628143310547,0.5462054014205933
1684109435172679700,3.5386796875,-0.5357950329780579,0.32073211669921875,0.5833001136779785
1684109435182721300,3.54872119140625,-0.5427576303482056,0.33127689361572266,0.5395138263702393
1684109435192762600,3.5587626953125,-0.5371806621551514,0.3460121154785156,0.5412907004356384
1684109435202804200,3.56880419921875,-0.5116674900054932,0.33155155181884766,0.5614465475082397
1684109435212845600,3.578845458984375,-0.45653706789016724,0.3119935989379883,0.5142022371292114
1684109435222887200,3.58888720703125,-0.36924898624420166,0.24691104888916016,0.4311758279800415
1684109435232928500,3.598928466796875,-0.2568509578704834,0.20342540740966797,0.33246636390686035
1684109435242970000,3.60897021484375,-0.16488271951675415,0.10040855407714844,0.24555212259292603
1684109435253011500,3.619011474609375,-0.048411548137664795,0.009663581848144531,0.20241057872772217
1684109435263052800,3.629052734375,0.06788915395736694,-0.045017242431640625,0.15132084488868713
1684109435273094400,3.639094482421875,0.14700859785079956,-0.06862449645996094,0.08606317639350891
1684109435283135700,3.6491357421875,0.25635069608688354,-0.09966182708740234,-0.009480535984039307
1684109435293177300,3.65917724609375,0.3503078818321228,-0.0643911361694336,-0.0018417835235595703
1684109435303218700,3.66921875,0.3958078622817993,-0.05397224426269531,0.030677616596221924
1684109435313260000,3.679260009765625,0.4320414662361145,-0.0637216567993164,0.028192296624183655
1684109435323301600,3.689301513671875,0.42143309116363525,-0.048317909240722656,0.016761092469096184
1684109435333343000,3.699343017578125,0.3867177963256836,-0.08660602569580078,0.0372922345995903
1684109435343384600,3.709384521484375,0.2969023585319519,-0.1591958999633789,0.008704304695129395
1684109435353426000,3.719426025390625,0.16991817951202393,-0.2538270950317383,-0.07944688200950623
1684109435363467500,3.729467529296875,-0.005002081394195557,-0.2651681900024414,-0.1845870465040207
1684109435373508900,3.7395087890625,-0.16398972272872925,-0.22663593292236328,-0.2377360463142395
1684109435383550500,3.749550537109375,-0.3475869297981262,-0.2073230743408203,-0.2481718361377716
1684109435393591800,3.759591796875,-0.48648107051849365,-0.24514007568359375,-0.2863796055316925
1684109435403633200,3.769633056640625,-0.6071137189865112,-0.06527996063232422,-0.4405434727668762
1684109435413674800,3.7796748046875,-0.6388884782791138,0.021224021911621094,-0.3708578050136566
1684109435423716000,3.789716064453125,-0.5738147497177124,0.007414817810058594,0.019346415996551514
1684109435433757700,3.7997578125,-0.4981982707977295,0.01996898651123047,0.27964073419570923
1684109435443799000,3.809799072265625,-0.4898064136505127,0.07541084289550781,0.40293633937835693
1684109435453840400,3.81984033203125,-0.4747103452682495,0.14970779418945312,0.511826753616333
1684109435463882000,3.829882080078125,-0.47593700885772705,0.15933513641357422,0.5750453472137451
1684109435473923300,3.83992333984375,-0.45919275283813477,0.11410236358642578,0.6284291744232178
1684109435483965000,3.84996484375,-0.4074103832244873,0.1072998046875,0.6463555693626404
1684109435494006300,3.86000634765625,-0.35930222272872925,0.10058212280273438,0.6813482046127319
1684109435504047900,3.8700478515625,-0.31081801652908325,0.07953262329101562,0.7050397396087646
1684109435514089200,3.880089111328125,-0.29134058952331543,-0.0418548583984375,0.7866988182067871
1684109435524130800,3.890130859375,-0.2301056981086731,-0.13449668884277344,0.77846360206604
1684109435534172200,3.900172119140625,-0.22322803735733032,-0.20570087432861328,0.8167849779129028
1684109435544213500,3.910213623046875,-0.25119906663894653,-0.13608169555664062,0.8293591737747192
1684109435554255000,3.920255126953125,-0.2985175848007202,-0.09067344665527344,0.8785852193832397
1684109435564296400,3.93029638671875,-0.2993548512458801,-0.12182998657226562,0.9169341325759888
1684109435574338000,3.940338134765625,-0.2957872152328491,-0.11214733123779297,1.0957716703414917
1684109435584379400,3.95037939453125,-0.24885773658752441,-0.19057083129882812,1.1638011932373047
1684109435594421000,3.9604208984375,-0.17541074752807617,-0.2876625061035156,1.234161138534546
1684109435604462300,3.97046240234375,-0.08282315731048584,-0.3411989212036133,1.3173078298568726
1684109435614503700,3.980503662109375,0.03568899631500244,-0.2747812271118164,1.4210810661315918
1684109435624545300,3.990545166015625,0.1555424928665161,-0.203399658203125,1.478614330291748
1684109435634586600,4.000586669921875,0.27585673332214355,-0.1916522979736328,1.516715407371521
1684109435644628200,4.010628173828125,0.3596609830856323,-0.10098552703857422,1.5877089500427246
1684109435654669600,4.020669677734375,0.4391047954559326,-0.03672599792480469,1.6855868101119995
1684109435664711200,4.030711181640625,0.46033620834350586,0.1086282730102539,1.694152593612671
1684109435674752500,4.04075244140625,0.41062450408935547,0.3061103820800781,1.5086069107055664
1684109435684793900,4.0507939453125,0.34497058391571045,0.30042076110839844,1.2086687088012695
1684109435694835500,4.06083544921875,0.23374366760253906,0.16289806365966797,0.8030967712402344
1684109435704876800,4.070876708984375,0.10866713523864746,0.08646106719970703,0.33769941329956055
1684109435714918400,4.08091845703125,0.024126172065734863,0.09603309631347656,-0.006204128265380859
1684109435724959700,4.090959716796875,0.004285097122192383,-0.019380569458007812,-0.3805500864982605
1684109435735001300,4.10100146484375,0.03467559814453125,-0.10242271423339844,-0.6482903957366943
1684109435745042700,4.111042724609375,0.1538625955581665,-0.18709564208984375,-0.8316401243209839
1684109435755084000,4.121083984375,0.3266648054122925,-0.25064945220947266,-0.888137698173523
1684109435765125600,4.131125732421875,0.4839397668838501,-0.35557079315185547,-0.9836841225624084
1684109435775167000,4.1411669921875,0.6636220216751099,-0.4017953872680664,-1.000528335571289
1684109435785208600,4.15120849609375,0.7956572771072388,-0.3465585708618164,-0.8551509976387024
1684109435795250000,4.16125,0.8532083034515381,-0.2065258026123047,-0.5430575609207153
1684109435805291500,4.17129150390625,0.7934737205505371,0.016332626342773438,-0.2037217617034912
1684109435815332900,4.181332763671875,0.6562105417251587,0.05955791473388672,-0.1657707691192627
1684109435825374500,4.19137451171875,0.47641563415527344,-0.3152627944946289,-0.34692537784576416
1684109435835415800,4.201415771484375,0.1923898458480835,0.022635459899902344,-0.23389947414398193
1684109435845457200,4.21145703125,-0.0466083288192749,0.7536153793334961,-0.18271875381469727
1684109435855498800,4.221498779296875,-0.31940460205078125,0.997894287109375,-0.0093916654586792
1684109435865540000,4.2315400390625,-0.5306462049484253,0.9744911193847656,0.2388056516647339
1684109435875581700,4.241581787109375,-0.6876589059829712,0.8710050582885742,0.5378730893135071
1684109435885623000,4.251623046875,-0.7807100415229797,0.6930379867553711,0.6879660487174988
1684109435895664600,4.26166455078125,-0.8250429034233093,0.7178220748901367,0.7345680594444275
1684109435905706000,4.2717060546875,-0.758402407169342,0.5100193023681641,0.7327488660812378
1684109435915747300,4.281747314453125,-0.6275525689125061,0.25124454498291016,0.6303440928459167
1684109435925789000,4.291788818359375,-0.41319525241851807,-0.1256246566772461,0.5191618204116821
1684109435935830300,4.301830322265625,-0.1694505214691162,-0.5534477233886719,0.3833662271499634
1684109435945872000,4.311871826171875,0.02408599853515625,-0.8388576507568359,0.183172345161438
1684109435955913200,4.321913330078125,0.14307034015655518,-0.9970359802246094,-0.15652787685394287
1684109435965954800,4.331954833984375,0.20382428169250488,-0.9329862594604492,-0.32376956939697266
1684109435975996200,4.34199609375,0.24430906772613525,-0.6926984786987305,-0.500451922416687
1684109435986037800,4.352037841796875,0.23119044303894043,-0.5297155380249023,-0.6247415542602539
1684109435996079000,4.3620791015625,0.16442883014678955,-0.42233943939208984,-0.7831531763076782
1684109436006120400,4.372120361328125,0.03233897686004639,-0.35605430603027344,-0.9043421745300293
1684109436016162000,4.382162109375,-0.1295870542526245,-0.3139505386352539,-0.9469356536865234
1684109436026203400,4.392203369140625,-0.33631670475006104,-0.2837352752685547,-0.9097044467926025
1684109436036245000,4.402244873046875,-0.5355256795883179,-0.24590396881103516,-0.6959359645843506
1684109436046286300,4.412286376953125,-0.804975152015686,-0.000148773193359375,-0.6344864368438721
1684109436056327700,4.42232763671875,-1.0493965148925781,0.2210073471069336,-0.38324546813964844
1684109436066369300,4.432369384765625,-1.231899619102478,0.27948760986328125,0.09825253486633301
1684109436076410600,4.44241064453125,-1.3375709056854248,0.23825740814208984,0.4765719175338745
1684109436086452200,4.4524521484375,-1.3942945003509521,0.26972198486328125,0.7484965324401855
1684109436096493600,4.46249365234375,-1.4371100664138794,0.3260183334350586,0.9379381537437439
1684109436106535200,4.47253515625,-1.4820997714996338,0.3760948181152344,1.0803511142730713
1684109436116576500,4.482576416015625,-1.5381786823272705,0.40568065643310547,1.2252819538116455
1684109436126618000,4.4926181640625,-1.592947006225586,0.3956184387207031,1.2485101222991943
1684109436136659500,4.502659423828125,-1.6057968139648438,0.5010051727294922,1.203208565711975
1684109436146700800,4.51270068359375,-1.6839344501495361,0.40128612518310547,1.047227382659912
1684109436156742400,4.522742431640625,-1.7641878128051758,0.07049179077148438,0.848023533821106
1684109436166783700,4.53278369140625,-1.8174225091934204,0.25153160095214844,0.6304929256439209
1684109436176825300,4.542825439453125,-1.7835952043533325,0.27417945861816406,0.4564417004585266
1684109436186866700,4.55286669921875,-1.5434619188308716,0.27941417694091797,0.2511107921600342
1684109436196908300,4.562908203125,-1.106314778327942,0.2786388397216797,-0.0009455680847167969
1684109436206949600,4.57294970703125,-0.6467848420143127,0.03736400604248047,-0.14111942052841187
1684109436216991200,4.5829912109375,-0.16821688413619995,-0.13615894317626953,-0.37110304832458496
1684109436227032600,4.593032470703125,0.26712602376937866,-0.18970489501953125,-0.4888334274291992
1684109436237074000,4.603073974609375,0.5198795795440674,-0.6153030395507812,-0.5999068021774292
1684109436247115500,4.613115478515625,0.6679914593696594,-1.1610651016235352,-0.7560574412345886
1684109436257156900,4.623156982421875,0.7126539349555969,-1.7739019393920898,-0.8908064961433411
1684109436267198500,4.633198486328125,0.6499475836753845,-2.095261573791504,-1.0539727210998535
1684109436277239800,4.64323974609375,0.7323564887046814,-2.2499351501464844,-0.9129801392555237
1684109436287281400,4.653281494140625,1.2910070419311523,-2.123575210571289,-0.8816920518875122
1684109436297322800,4.66332275390625,2.020824432373047,-1.7284021377563477,-0.8157483339309692
1684109436307364000,4.673364013671875,2.447294235229492,-1.1768865585327148,-0.7961877584457397
1684109436317405700,4.68340576171875,2.531662940979004,-0.9918355941772461,-0.6358625292778015
1684109436327447000,4.693447021484375,2.3619604110717773,-0.6010160446166992,-0.41127485036849976
1684109436337488600,4.703488525390625,2.107177257537842,-0.36049938201904297,-0.11645108461380005
1684109436347530000,4.713530029296875,1.7898427248001099,-0.24132537841796875,0.11990416049957275
1684109436357571600,4.723571533203125,1.4453545808792114,-0.21016407012939453,0.13923707604408264
1684109436367613000,4.733613037109375,1.2656621932983398,-0.21716022491455078,0.09898310899734497
1684109436377654500,4.743654541015625,1.2611746788024902,0.02168560028076172,0.028098315000534058
1684109436387695900,4.75369580078125,1.3192481994628906,0.2574195861816406,-0.03943866491317749
1684109436397737200,4.7637373046875,1.3156328201293945,0.5258932113647461,-0.17487412691116333
1684109436407778800,4.77377880859375,1.1044840812683105,0.704930305480957,-0.36380523443222046
1684109436417820200,4.783820068359375,0.9110057353973389,0.9113264083862305,-0.5652496814727783
1684109436427861800,4.79386181640625,0.7621144652366638,1.1257514953613281,-0.7884109616279602
1684109436437903000,4.803903076171875,0.6737719774246216,1.2981157302856445,-0.9638890027999878
1684109436447944700,4.81394482421875,0.565940260887146,1.4000015258789062,-1.2628285884857178
1684109436457986000,4.823986083984375,0.4709773063659668,1.4078617095947266,-1.5764775276184082
1684109436468027600,4.834027587890625,0.3946577310562134,1.3317432403564453,-1.84760320186615
1684109436478069000,4.844069091796875,0.3215259313583374,1.3320798873901367,-2.064546823501587
1684109436488110300,4.8541103515625,0.21269547939300537,1.2154569625854492,-2.1574883460998535
1684109436498152000,4.86415185546875,0.13471317291259766,1.046834945678711,-2.1454851627349854
1684109436508193300,4.874193359375,0.11073160171508789,0.7788791656494141,-2.029078483581543
1684109436518235000,4.88423486328125,0.023137331008911133,0.5530471801757812,-1.8330566883087158
1684109436528276200,4.894276123046875,-0.08961677551269531,0.3478670120239258,-1.6356024742126465
1684109436538317600,4.904317626953125,-0.19089651107788086,0.19651412963867188,-1.4706792831420898
1684109436548359200,4.914359130859375,-0.21774935722351074,0.0698404312133789,-1.2798306941986084
1684109436558400500,4.924400390625,-0.14231038093566895,-0.01299285888671875,-0.947594165802002
1684109436568442000,4.934442138671875,-0.03932619094848633,-0.18556499481201172,-0.5769596099853516
1684109436578483500,4.9444833984375,0.037995338439941406,-0.3041219711303711,-0.303056538105011
1684109436588525000,4.954525146484375,0.17702054977416992,-0.3804817199707031,-0.04869115352630615
1684109436598566400,4.96456640625,0.2932007312774658,-0.40027809143066406,0.1828075349330902
1684109436608608000,4.97460791015625,0.3434925079345703,-0.4496479034423828,0.304270476102829
1684109436618649300,4.9846494140625,0.3066673278808594,-0.49036312103271484,0.48367512226104736
1684109436628691000,4.99469091796875,0.22113466262817383,-0.08548164367675781,0.4305315911769867
1684109436638732300,5.004732177734375,0.22573423385620117,0.2766256332397461,0.2697557210922241
1684109436648773600,5.014773681640625,0.2842073440551758,0.41225433349609375,0.15591511130332947
1684109436658815200,5.024815185546875,0.26498329639434814,0.5559759140014648,0.05066406726837158
1684109436668856600,5.034856689453125,0.16836333274841309,0.6455783843994141,0.04749947786331177
1684109436678898200,5.044898193359375,0.0682668685913086,0.6716337203979492,0.12491369247436523
1684109436688939500,5.054939453125,-0.05973243713378906,0.6629877090454102,0.2851616144180298
1684109436698981000,5.064981201171875,-0.25815701484680176,0.6290798187255859,0.5497705340385437
1684109436709022500,5.0750224609375,-0.396190881729126,0.45247554779052734,0.8876079320907593
1684109436719064000,5.08506396484375,-0.363814115524292,0.16879940032958984,1.1896404027938843
1684109436729105400,5.09510546875,-0.3386671543121338,-0.06714820861816406,1.4697849750518799
1684109436739146800,5.105146728515625,-0.4866293668746948,-0.16274356842041016,1.6120370626449585
1684109436749188400,5.115188232421875,-0.6606452465057373,-0.07286834716796875,1.425640344619751
1684109436759229700,5.125229736328125,-0.8501192331314087,0.14978885650634766,1.1700153350830078
1684109436769271300,5.135271240234375,-1.1996420621871948,0.2589569091796875,0.8469306230545044
1684109436779312600,5.145312744140625,-1.8430417776107788,0.14447402954101562,0.5686025619506836
1684109436789354200,5.155354248046875,-2.816222667694092,-0.30179595947265625,0.44986772537231445
1684109436799395600,5.1653955078125,-3.438288688659668,-0.6666946411132812,0.1483386754989624
1684109436809437200,5.175437255859375,-3.0457944869995117,-0.8111457824707031,-0.28328365087509155
1684109436819478500,5.185478515625,-1.1463953256607056,-0.3971385955810547,-1.3001973628997803
1684109436829520000,5.195519775390625,1.0307016372680664,0.5346641540527344,-2.1668848991394043
1684109436839561500,5.2055615234375,2.3644020557403564,0.9871797561645508,-2.6299421787261963
1684109436849602800,5.215602783203125,2.6579103469848633,0.6220932006835938,-3.0593881607055664
1684109436859644400,5.22564453125,2.2818284034729004,-0.017267227172851562,-3.405585765838623
1684109436869685800,5.235685791015625,1.8870620727539062,-0.5498218536376953,-3.6778721809387207
1684109436879727400,5.245727294921875,1.2988821268081665,-0.9143257141113281,-3.6262872219085693
1684109436889768700,5.255768798828125,0.3152027130126953,-1.1191902160644531,-3.5533525943756104
1684109436899810300,5.265810302734375,-0.6851521730422974,-1.2327661514282227,-3.300974130630493
1684109436909851600,5.2758515625,-1.66386079788208,-1.2039594650268555,-2.7509331703186035
1684109436919893000,5.28589306640625,-2.6951191425323486,-0.9247140884399414,-1.513839840888977
1684109436929934600,5.2959345703125,-3.579059362411499,-0.6392526626586914,0.18149900436401367
1684109436939976000,5.305975830078125,-3.4225430488586426,-0.011795997619628906,1.6023025512695312
1684109436950017500,5.316017578125,-2.2118401527404785,0.6085700988769531,2.522660493850708
1684109436960059000,5.326058837890625,-0.6307376623153687,0.9691276550292969,2.880011558532715
1684109436970100200,5.336100341796875,0.7631133794784546,0.9840526580810547,2.7676913738250732
1684109436980141800,5.346141845703125,1.8933136463165283,0.7961416244506836,2.335376024246216
1684109436990183400,5.356183349609375,2.6539976596832275,0.6952228546142578,1.8568344116210938
1684109437000224800,5.366224853515625,3.135512590408325,0.7669143676757812,1.2417490482330322
1684109437010266000,5.37626611328125,3.2367806434631348,0.8862285614013672,0.8511954545974731
1684109437020307700,5.3863076171875,3.110072135925293,0.7637643814086914,0.6793462634086609
1684109437030349000,5.39634912109375,2.9466772079467773,0.5410022735595703,0.5729387998580933
1684109437040390700,5.406390625,2.72664213180542,0.1034402847290039,0.44629496335983276
1684109437050432000,5.416431884765625,2.4477038383483887,-0.1260852813720703,0.24066150188446045
1684109437060473600,5.4264736328125,2.1578516960144043,-0.4496917724609375,0.08298254013061523
1684109437070515000,5.436514892578125,1.8424466848373413,-0.6433467864990234,-0.12282991409301758
1684109437080556300,5.446556396484375,1.509360432624817,-0.5423269271850586,-0.16127777099609375
1684109437090598000,5.456597900390625,0.8797870874404907,-0.23814868927001953,-0.14805257320404053
1684109437100639200,5.46663916015625,-0.18526986241340637,-0.01974201202392578,-0.18289124965667725
1684109437110680800,5.476680908203125,-1.3289529085159302,0.025465965270996094,-0.311651349067688
1684109437120722200,5.48672216796875,-2.278350830078125,-0.04726219177246094,-0.4859771728515625
1684109437130763800,5.496763671875,-2.758650302886963,-0.11467456817626953,-0.6255600452423096
1684109437140805000,5.50680517578125,-2.682800531387329,-0.1373424530029297,-0.6609293222427368
1684109437150846700,5.5168466796875,-2.0254008769989014,-0.12198829650878906,-0.45349550247192383
1684109437160888000,5.52688818359375,-1.0532190799713135,-0.10190296173095703,0.07945740222930908
1684109437170929400,5.536929443359375,-0.21500901877880096,-0.017144203186035156,0.6434705257415771
1684109437180971000,5.546970947265625,0.37553784251213074,0.07029438018798828,1.015639305114746
1684109437191012400,5.557012451171875,0.7154038548469543,-0.009024620056152344,1.0856947898864746
1684109437201054000,5.567053955078125,0.9119777083396912,-0.11619377136230469,0.9599253535270691
1684109437211095300,5.57709521484375,1.017212152481079,-0.05553436279296875,0.6715325117111206
1684109437221137000,5.587136962890625,1.0909032821655273,-0.0021371841430664062,0.30924034118652344
1684109437231178200,5.59717822265625,1.118108868598938,0.18229293823242188,0.022921323776245117
1684109437241219800,5.6072197265625,1.1313639879226685,0.34467411041259766,-0.1881422996520996
1684109437251261200,5.61726123046875,1.1738085746765137,0.3368988037109375,-0.41662168502807617
1684109437261302500,5.627302490234375,1.2302240133285522,0.4098367691040039,-0.588864803314209
1684109437271344000,5.63734423828125,1.3138651847839355,0.46292686462402344,-0.5161223411560059
1684109437281385700,5.6473857421875,1.3912049531936646,0.3507194519042969,-0.35077571868896484
1684109437291427000,5.657427001953125,1.4369840621948242,0.2742118835449219,-0.2267519235610962
1684109437301468400,5.667468505859375,1.4740970134735107,0.25247764587402344,0.013301610946655273
1684109437311510000,5.677510009765625,1.4990078210830688,0.22346782684326172,0.29875099658966064
1684109437321551400,5.68755126953125,1.4666697978973389,0.23037433624267578,0.5327658653259277
1684109437331593000,5.697593017578125,1.3794472217559814,0.20154380798339844,0.703039288520813
1684109437341634300,5.70763427734375,1.2937438488006592,0.1299123764038086,0.8405167460441589
1684109437351676000,5.717676025390625,1.1652499437332153,0.11348628997802734,0.8686413168907166
1684109437361717200,5.72771728515625,1.0144253969192505,0.004054069519042969,0.8900904059410095
1684109437371758800,5.7377587890625,0.8620754480361938,-0.10984611511230469,0.8403573036193848
1684109437381800200,5.74780029296875,0.6700080633163452,-0.1184225082397461,0.8010071516036987
1684109437391841500,5.757841552734375,0.4184179902076721,-0.24161148071289062,0.7289943695068359
1684109437401883100,5.767883056640625,0.18643492460250854,-0.28801631927490234,0.7010626196861267
1684109437411924500,5.777924560546875,-0.015774190425872803,-0.3460884094238281,0.6124711036682129
1684109437421966000,5.787966064453125,-0.1471881866455078,-0.28435420989990234,0.5738930702209473
1684109437432007400,5.79800732421875,-0.18930837512016296,-0.22960472106933594,0.5189895033836365
1684109437442049000,5.808049072265625,-0.17012518644332886,-0.11488056182861328,0.47429823875427246
1684109437452090400,5.81809033203125,-0.035511672496795654,-0.05497264862060547,0.4207608699798584
1684109437462132000,5.828132080078125,0.1288575530052185,-0.03550243377685547,0.4228137731552124
1684109437472173300,5.83817333984375,0.32528865337371826,-0.032584190368652344,0.3581686019897461
1684109437482214700,5.848214599609375,0.49620765447616577,-0.032001495361328125,0.341558575630188
1684109437492256300,5.85825634765625,0.6135597229003906,-0.002819061279296875,0.3059917688369751
1684109437502297600,5.868297607421875,0.7030559182167053,0.019014358520507812,0.3136941194534302
1684109437512339200,5.878339111328125,0.7577601671218872,0.00010776519775390625,0.30476903915405273
1684109437522380500,5.888380615234375,0.8254283666610718,0.0384521484375,0.2936990261077881
1684109437532422100,5.898422119140625,0.862450122833252,-0.08104324340820312,0.22066032886505127
1684109437542463500,5.90846337890625,0.8896889686584473,-0.09303092956542969,0.16751623153686523
1684109437552505000,5.918505126953125,0.8446788191795349,-0.09808063507080078,0.12211334705352783
1684109437562546400,5.92854638671875,0.7731360793113708,-0.11769676208496094,0.0867767333984375
1684109437572587800,5.938587890625,0.6264676451683044,-0.1302776336669922,0.06401169300079346
1684109437582629400,5.94862939453125,0.46608108282089233,-0.15967369079589844,0.03975999355316162
1684109437592670700,5.958670654296875,0.35294079780578613,-0.19617652893066406,0.07835006713867188
1684109437602712300,5.96871240234375,0.27806687355041504,-0.1943979263305664,0.08922815322875977
1684109437612753700,5.978753662109375,0.23674023151397705,-0.18784236907958984,0.17031431198120117
1684109437622795300,5.988795166015625,0.20970892906188965,-0.12392997741699219,0.23750066757202148
1684109437632836600,5.998836669921875,0.2104710340499878,-0.07206344604492188,0.31197798252105713
1684109437642878200,6.008878173828125,0.20481610298156738,-0.029771804809570312,0.35246455669403076
1684109437652919600,6.01891943359375,0.17770498991012573,0.04527473449707031,0.3515218496322632
1684109437662961200,6.028961181640625,0.18884682655334473,0.034468650817871094,0.3591294288635254
1684109437673002500,6.03900244140625,0.20012903213500977,-0.05368328094482422,0.31628334522247314
1684109437683043800,6.0490439453125,0.22620737552642822,-0.10727596282958984,0.23841369152069092
1684109437693085400,6.05908544921875,0.2295900583267212,-0.030320167541503906,0.17543494701385498
1684109437703126800,6.069126708984375,0.27010947465896606,-0.027441978454589844,0.15557587146759033
1684109437713168400,6.07916845703125,0.34809935092926025,-0.14675426483154297,0.13559234142303467
1684109437723209700,6.089209716796875,0.44871097803115845,-0.19085693359375,0.07563304901123047
1684109437733251300,6.099251220703125,0.5730146169662476,-0.19884300231933594,0.047655582427978516
1684109437743292700,6.109292724609375,0.7006446719169617,-0.19965457916259766,-0.01710057258605957
1684109437753334300,6.119334228515625,0.8047596216201782,-0.13701248168945312,-0.03534519672393799
1684109437763375600,6.129375732421875,0.8495214581489563,0.10328960418701172,-0.03594934940338135
1684109437773417000,6.1394169921875,0.8645488023757935,-0.10775947570800781,-0.02712535858154297
1684109437783458600,6.14945849609375,0.8452149629592896,-0.03993034362792969,-0.07730448246002197
1684109437793500200,6.159500244140625,0.801001250743866,0.031244277954101562,-0.13061773777008057
1684109437803541500,6.16954150390625,0.74624103307724,0.12440967559814453,-0.1957157850265503
1684109437813582800,6.179582763671875,0.6441314220428467,0.1380605697631836,-0.16912317276000977
1684109437823624400,6.18962451171875,0.548186182975769,0.16065692901611328,-0.17690730094909668
1684109437833665800,6.199665771484375,0.45697861909866333,0.10032844543457031,-0.14092552661895752
1684109437843707400,6.209707275390625,0.4252675175666809,0.10913372039794922,-0.09698104858398438
1684109437853748700,6.219748779296875,0.43102574348449707,0.16943073272705078,0.02079486846923828
1684109437863790300,6.229790283203125,0.45967286825180054,0.12501239776611328,0.07215917110443115
1684109437873831700,6.239831787109375,0.5485518574714661,-0.07876968383789062,0.21764063835144043
1684109437883873300,6.249873291015625,0.6489026546478271,0.022231101989746094,0.3325519561767578
1684109437893914600,6.25991455078125,0.7566015720367432,0.05327033996582031,0.45708751678466797
1684109437903956000,6.2699560546875,0.808634340763092,0.04846000671386719,0.5363039970397949
1684109437913997600,6.27999755859375,0.8277716636657715,0.015368461608886719,0.5543115139007568
1684109437924039000,6.290038818359375,0.75272536277771,-0.010257720947265625,0.5120733976364136
1684109437934080500,6.30008056640625,0.609224796295166,-0.047331809997558594,0.5141562223434448
1684109437944121900,6.310121826171875,0.46556180715560913,-0.02965259552001953,0.4491431713104248
1684109437954163500,6.32016357421875,0.31612807512283325,0.004179954528808594,0.41779422760009766
1684109437964204800,6.330204833984375,0.1768951416015625,-0.011925697326660156,0.38215136528015137
1684109437974246400,6.340246337890625,0.14585429430007935,-0.020580291748046875,0.34746253490448
1684109437984287700,6.350287841796875,0.14188873767852783,-0.01955890655517578,0.32822728157043457
1684109437994329000,6.3603291015625,0.2000705599784851,0.05927276611328125,0.37122631072998047
1684109438004370700,6.37037060546875,0.2951335906982422,0.03332996368408203,0.37394893169403076
1684109438014412000,6.380412109375,0.3946182131767273,0.03852653503417969,0.46134746074676514
1684109438024453600,6.39045361328125,0.4897193908691406,0.05549430847167969,0.5207040309906006
1684109438034495000,6.400494873046875,0.5555651187896729,0.06517696380615234,0.5425611734390259
1684109438044536600,6.41053662109375,0.5516334176063538,0.04178428649902344,0.5107235908508301
1684109438054578000,6.420577880859375,0.5117434859275818,0.02824878692626953,0.4376499652862549
1684109438064619500,6.43061962890625,0.4106934666633606,0.019621849060058594,0.3221282958984375
1684109438074660900,6.440660888671875,0.29272395372390747,0.0229339599609375,0.19556045532226562
1684109438084702500,6.450702392578125,0.17785048484802246,-0.006740570068359375,0.11502683162689209
1684109438094743800,6.460743896484375,0.07630330324172974,0.008859634399414062,0.0353316068649292
1684109438104785400,6.470785400390625,-0.05139797925949097,0.07377243041992188,0.010515570640563965
1684109438114826800,6.48082666015625,-0.1596803069114685,0.20374584197998047,-0.07363677024841309
1684109438124868000,6.4908681640625,-0.28363102674484253,0.2023334503173828,-0.14542198181152344
1684109438134909700,6.50090966796875,-0.34987640380859375,0.28826045989990234,-0.22350335121154785
1684109438144951000,6.510950927734375,-0.40859556198120117,0.3517894744873047,-0.23240506649017334
1684109438154992600,6.52099267578125,-0.4829723834991455,0.33914661407470703,-0.3472331762313843
1684109438165034000,6.531033935546875,-0.5417687892913818,0.30559825897216797,-0.40042662620544434
1684109438175075600,6.54107568359375,-0.5359991788864136,0.2301959991455078,-0.4749467372894287
1684109438185117000,6.551116943359375,-0.47673270106315613,0.10413837432861328,-0.4478945732116699
1684109438195158500,6.561158447265625,-0.38225188851356506,0.055362701416015625,-0.47191500663757324
1684109438205200000,6.571199951171875,-0.29599952697753906,0.026006698608398438,-0.45889806747436523
1684109438215241500,6.581241455078125,-0.18491387367248535,0.013433456420898438,-0.37676823139190674
1684109438225282800,6.59128271484375,-0.11028367280960083,0.041008949279785156,-0.2859635353088379
1684109438235324400,6.601324462890625,-0.026619374752044678,0.011495590209960938,-0.18631434440612793
1684109438245365800,6.61136572265625,0.004200756549835205,0.02947521209716797,-0.07375192642211914
1684109438255407000,6.621406982421875,0.04145592451095581,0.016571044921875,-0.015128612518310547
1684109438265448700,6.63144873046875,-0.016172826290130615,-0.06441688537597656,0.0848919153213501
1684109438275490000,6.641489990234375,-0.09372824430465698,-0.014630317687988281,0.06585252285003662
1684109438285531600,6.65153173828125,-0.22785812616348267,-0.06692123413085938,0.15574920177459717
1684109438295573000,6.661572998046875,-0.3300556242465973,-0.04051971435546875,0.12847566604614258
1684109438305614600,6.671614501953125,-0.4311125874519348,0.020862579345703125,0.10624480247497559
1684109438315656000,6.681656005859375,-0.48832184076309204,0.05775928497314453,0.11268305778503418
1684109438325697500,6.691697509765625,-0.5158777832984924,0.11999130249023438,0.07224106788635254
1684109438335739000,6.70173876953125,-0.5068781971931458,0.1976757049560547,0.04709887504577637
1684109438345780500,6.711780517578125,-0.4266982078552246,0.20116519927978516,0.06471824645996094
1684109438355821800,6.72182177734375,-0.2987247705459595,0.1622762680053711,0.13822686672210693
1684109438365863400,6.731863525390625,-0.10425472259521484,0.13586807250976562,0.155572772026062
1684109438375904800,6.74190478515625,0.043446242809295654,0.09110832214355469,0.15282464027404785
1684109438385946000,6.751946044921875,0.1722155213356018,0.051789283752441406,0.15164458751678467
1684109438395987700,6.76198779296875,0.24393370747566223,0.0037631988525390625,0.16811347007751465
1684109438406029000,6.772029052734375,0.3257544934749603,-0.010428428649902344,0.20202302932739258
1684109438416070700,6.782070556640625,0.37136828899383545,-0.05009937286376953,0.19159913063049316
1684109438426112000,6.792112060546875,0.4178164601325989,-0.046462059020996094,0.17266499996185303
1684109438436153600,6.802153564453125,0.4992113411426544,-0.0966939926147461,0.15935909748077393
1684109438446195000,6.81219482421875,0.575886607170105,-0.09634017944335938,0.05065286159515381
1684109438456236500,6.822236572265625,0.6366688013076782,-0.09822940826416016,-0.05430114269256592
1684109438466278000,6.83227783203125,0.675048828125,-0.20135879516601562,-0.1971297264099121
1684109438476319500,6.842319580078125,0.6700040102005005,-0.154571533203125,-0.3745241165161133
1684109438486360800,6.85236083984375,0.6096329092979431,-0.11585712432861328,-0.5078164339065552
1684109438496402400,6.86240234375,0.48744937777519226,-0.18877029418945312,-0.6702790260314941
1684109438506443800,6.87244384765625,0.35659059882164,-0.24919509887695312,-0.9618724584579468
1684109438516485000,6.882485107421875,0.1427912414073944,-0.2974090576171875,-1.1753236055374146
1684109438526526700,6.892526611328125,-0.08592472970485687,-0.34761714935302734,-1.2821022272109985
1684109438536568000,6.902568115234375,-0.22364124655723572,-0.35031986236572266,-1.4280102252960205
1684109438546609700,6.912609619140625,-0.36932262778282166,-0.31815528869628906,-1.5134239196777344
1684109438556651000,6.922651123046875,-0.46514663100242615,-0.3034944534301758,-1.5301775932312012
1684109438566692600,6.932692626953125,-0.5555698275566101,-0.2794036865234375,-1.5772712230682373
1684109438576734000,6.94273388671875,-0.6359028816223145,-0.301055908203125,-1.4899256229400635
1684109438586775600,6.952775634765625,-0.7056347131729126,-0.28231143951416016,-1.4168283939361572
1684109438596817000,6.96281689453125,-0.7665038108825684,-0.3192319869995117,-1.3680379390716553
1684109438606858500,6.9728583984375,-0.7272764444351196,-0.34978294372558594,-1.1995398998260498
1684109438616899800,6.98289990234375,-0.6167935132980347,-0.3044900894165039,-0.941521406173706
1684109438626941400,6.99294140625,-0.5083986520767212,-0.1809711456298828,-0.7290105819702148
1684109438636982800,7.002982666015625,-0.3843200206756592,-0.053345680236816406,-0.5818138122558594
1684109438647024000,7.013024169921875,-0.2866867482662201,-0.02904987335205078,-0.5313827991485596
1684109438657065700,7.023065673828125,-0.21949782967567444,0.011455535888671875,-0.5225026607513428
1684109438667107000,7.033107177734375,-0.15365618467330933,0.03435993194580078,-0.5780704021453857
1684109438677148700,7.043148681640625,-0.07801985740661621,-0.013087272644042969,-0.6088442802429199
1684109438687190000,7.05318994140625,-0.013274610042572021,0.027311325073242188,-0.5067546367645264
1684109438697231600,7.063231689453125,0.05843997001647949,0.06509017944335938,-0.431685209274292
1684109438707273000,7.07327294921875,0.14785528182983398,0.052822113037109375,-0.32254815101623535
1684109438717314600,7.083314453125,0.1895151138305664,0.13147354125976562,-0.2314286231994629
1684109438727356000,7.09335595703125,0.20925873517990112,0.24824047088623047,-0.03607177734375
1684109438737397500,7.1033974609375,0.23530101776123047,0.2527484893798828,0.11477303504943848
1684109438747438800,7.11343896484375,0.2705675959587097,0.1762218475341797,0.19042730331420898
1684109438757480400,7.12348046875,0.3258114457130432,0.0712900161743164,0.26256442070007324
1684109438767521800,7.133521728515625,0.3637751340866089,-0.11192512512207031,0.3775053024291992
1684109438777563400,7.1435634765625,0.3912038803100586,-0.1912698745727539,0.5548208951950073
1684109438787604700,7.153604736328125,0.4299255609512329,-0.211944580078125,0.7004882097244263
1684109438797646300,7.163646240234375,0.5110419988632202,-0.0997152328491211,0.7858881950378418
1684109438807687700,7.173687744140625,0.7357310652732849,-0.08599662780761719,0.8862619400024414
1684109438817729000,7.18372900390625,1.035961627960205,-0.043643951416015625,0.7739126682281494
1684109438827770600,7.1937705078125,1.3336690664291382,-0.14200305938720703,0.5972391366958618
1684109438837812000,7.20381201171875,1.629744291305542,-0.24915122985839844,0.3302164077758789
1684109438847853600,7.213853515625,1.8335704803466797,-0.29152584075927734,-0.15403175354003906
1684109438857895000,7.22389501953125,1.9982928037643433,-0.2800254821777344,-0.909571647644043
1684109438867936500,7.2339365234375,2.0622029304504395,-0.17517852783203125,-1.5678160190582275
1684109438877977900,7.243977783203125,2.0869362354278564,-0.015286445617675781,-1.9372447729110718
1684109438888019500,7.25401953125,2.1581263542175293,0.2555561065673828,-1.9062044620513916
1684109438898060800,7.264060791015625,2.393096923828125,0.512054443359375,-1.7534754276275635
1684109438908102400,7.274102294921875,2.510455369949341,0.5738897323608398,-1.3070099353790283
1684109438918143700,7.284143798828125,1.6090143918991089,0.5882568359375,-1.0670183897018433
1684109438928185300,7.294185302734375,0.3147541284561157,0.6121110916137695,-0.6301710605621338
1684109438938226700,7.304226806640625,-0.920791745185852,0.5164070129394531,-0.10074245929718018
1684109438948268300,7.314268310546875,-1.4239592552185059,0.3699932098388672,0.3541930913925171
1684109438958309600,7.3243095703125,-1.0363348722457886,0.16484928131103516,0.6155444979667664
1684109438968351000,7.33435107421875,-0.24261879920959473,0.07268905639648438,0.6169381141662598
1684109438978392600,7.344392578125,0.28380775451660156,-0.041825294494628906,0.35051894187927246
1684109438988434000,7.354433837890625,0.3387225866317749,-0.11446952819824219,0.0802202820777893
1684109438998475500,7.3644755859375,-0.09052169322967529,-0.13937759399414062,0.004839181900024414
1684109439008516900,7.374516845703125,-0.7926151752471924,-0.051372528076171875,0.002950906753540039
1684109439018558500,7.384558349609375,-1.4651732444763184,0.06891345977783203,-0.032195448875427246
1684109439028599800,7.394599853515625,-1.5680782794952393,0.04453849792480469,0.06856867671012878
1684109439038641400,7.404641357421875,-1.3043748140335083,0.05816173553466797,0.29239511489868164
1684109439048682800,7.414682861328125,-0.9363893270492554,0.060235023498535156,0.290709912776947
1684109439058724400,7.424724365234375,-0.8954989910125732,0.06738090515136719,0.15183435380458832
1684109439068765700,7.434765625,-0.7905633449554443,0.1320819854736328,-0.2462823987007141
1684109439078807300,7.444807373046875,-0.5137670040130615,0.4074592590332031,-0.9812276363372803
1684109439088848600,7.4548486328125,-0.20552289485931396,0.7122087478637695,-1.3773746490478516
1684109439098890200,7.46489013671875,-0.07013189792633057,0.9442577362060547,-1.6230336427688599
1684109439108931600,7.474931640625,0.06628942489624023,1.0590600967407227,-1.7549996376037598
1684109439118973200,7.48497314453125,0.26648080348968506,1.1102571487426758,-1.7061636447906494
1684109439129014500,7.4950146484375,0.4605814218521118,1.1201000213623047,-1.4908944368362427
1684109439139055900,7.505055908203125,0.5796990394592285,1.0409259796142578,-1.097540020942688
1684109439149097500,7.515097412109375,0.6104259490966797,0.8318052291870117,-0.7126672863960266
1684109439159138800,7.525138916015625,0.6568939685821533,0.6070337295532227,-0.3479560315608978
1684109439169180400,7.535180419921875,0.6762572526931763,0.4402132034301758,-0.038927286863327026
1684109439179221800,7.5452216796875,0.7154126167297363,0.3667564392089844,0.14369119703769684
1684109439189263400,7.555263427734375,0.7557691931724548,0.42453479766845703,0.25791919231414795
1684109439199304700,7.5653046875,0.7757314443588257,0.5845699310302734,0.2567135691642761
1684109439209346300,7.57534619140625,0.7818796634674072,0.8132553100585938,0.13827696442604065
1684109439219387600,7.5853876953125,0.7780541181564331,0.9362258911132812,-0.06678256392478943
1684109439229429200,7.59542919921875,0.771024763584137,0.982447624206543,-0.2259385883808136
1684109439239470600,7.605470703125,0.5727436542510986,0.994964599609375,-0.3832777738571167
1684109439249512200,7.61551220703125,0.2946666479110718,0.9497556686401367,-0.4725443124771118
1684109439259553500,7.625553466796875,-0.0360792875289917,0.8706855773925781,-0.47698524594306946
1684109439269595100,7.63559521484375,-0.31884169578552246,0.7458105087280273,-0.44189950823783875
1684109439279636500,7.645636474609375,-0.4975548982620239,0.6326894760131836,-0.3957342207431793
1684109439289678000,7.655677978515625,-0.649991512298584,0.4382896423339844,-0.3314925730228424
1684109439299719400,7.665719482421875,-0.7959309816360474,0.24651813507080078,-0.22447913885116577
1684109439309761000,7.675760986328125,-0.985144853591919,0.004876136779785156,-0.03684365749359131
1684109439319802400,7.68580224609375,-1.1639838218688965,-0.32240867614746094,0.01009058952331543
1684109439329843700,7.69584375,-1.2341794967651367,-0.5918760299682617,0.062385499477386475
1684109439339885300,7.70588525390625,-1.2645410299301147,-0.8037118911743164,0.1838449239730835
1684109439349926700,7.7159267578125,-1.2111784219741821,-0.8075532913208008,0.40048450231552124
1684109439359968300,7.72596826171875,-1.1093991994857788,-0.7232437133789062,0.483532190322876
1684109439370009600,7.736009521484375,-1.0667462348937988,-0.6130104064941406,0.4880193769931793
1684109439380051200,7.74605126953125,-1.1258227825164795,-0.5390663146972656,0.35764601826667786
1684109439390092500,7.756092529296875,-1.2241798639297485,-0.4035320281982422,0.13248342275619507
1684109439400134100,7.766134033203125,-1.1720006465911865,-0.1777658462524414,-0.10007292032241821
1684109439410175500,7.776175537109375,-1.003307580947876,0.02610015869140625,-0.35520416498184204
1684109439420217000,7.786217041015625,-0.7782500982284546,0.19648075103759766,-0.5713265538215637
1684109439430258400,7.796258544921875,-0.534561276435852,0.26200008392333984,-0.821015477180481
1684109439440300000,7.806300048828125,-0.2299795150756836,0.21097660064697266,-1.0193032026290894
1684109439450341400,7.81634130859375,0.07808351516723633,0.16543197631835938,-1.1134357452392578
1684109439460383000,7.826383056640625,0.2271822690963745,0.13729190826416016,-1.1922529935836792
1684109439470424300,7.83642431640625,0.13696885108947754,0.1526803970336914,-1.2464724779129028
1684109439480466000,7.8464658203125,-0.10984551906585693,0.2660980224609375,-1.3636330366134644
1684109439490507300,7.85650732421875,-0.4115791320800781,0.2739543914794922,-1.4064874649047852
1684109439500548900,7.866548828125,-0.7957240343093872,0.07121753692626953,-1.4567705392837524
1684109439510590200,7.876590087890625,-1.3268376588821411,-0.3657674789428711,-1.4439115524291992
1684109439520631800,7.8866318359375,-1.9790796041488647,-0.972442626953125,-1.2336153984069824
1684109439530673200,7.896673095703125,-2.2744455337524414,-1.6408939361572266,-0.5668848752975464
1684109439540714500,7.906714599609375,-2.10758638381958,-2.2508697509765625,0.3037976026535034
1684109439550756000,7.916756103515625,-1.645613431930542,-2.6082687377929688,1.186070442199707
1684109439560797700,7.926797607421875,-0.9905303716659546,-2.3954334259033203,2.182435989379883
1684109439570839000,7.936839111328125,-0.23481392860412598,-1.7257699966430664,3.1087629795074463
1684109439580880400,7.94688037109375,0.6095497608184814,-0.703251838684082,3.636608839035034
1684109439590922000,7.956921875,1.482935905456543,0.2962913513183594,3.6880104541778564
1684109439600963300,7.96696337890625,2.078442335128784,0.7232723236083984,3.007201671600342
1684109439611005000,7.9770048828125,2.423311948776245,0.6804933547973633,1.7305474281311035
1684109439621046300,7.98704638671875,2.51517915725708,0.4691781997680664,0.7109594345092773
1684109439631087900,7.997087890625,2.4174647331237793,0.4127349853515625,0.20138168334960938
1684109439641129200,8.007129150390625,2.2643723487854004,0.5789384841918945,-0.07014274597167969
1684109439651170800,8.0171708984375,2.059990644454956,0.8877334594726562,-0.31429219245910645
1684109439661212200,8.027212158203126,1.811171293258667,1.0897607803344727,-0.593904972076416
1684109439671253800,8.037253662109375,1.5174224376678467,1.0546483993530273,-0.9132518768310547
1684109439681295000,8.047295166015624,1.1639056205749512,0.9107866287231445,-1.3138856887817383
1684109439691336700,8.057336669921876,0.6996429562568665,0.7233562469482422,-1.4694221019744873
1684109439701378000,8.0673779296875,0.2564610242843628,0.5169906616210938,-1.485658884048462
1684109439711419600,8.077419677734374,-0.06021857261657715,0.33109569549560547,-1.486264944076538
1684109439721461000,8.0874609375,-0.24523377418518066,0.15040016174316406,-1.635984182357788
1684109439731502600,8.097502685546875,-0.36079370975494385,0.0818929672241211,-1.7735772132873535
1684109439741544000,8.1075439453125,-0.3607989549636841,0.04426288604736328,-1.8966562747955322
1684109439751585500,8.11758544921875,-0.27495908737182617,0.076324462890625,-1.9011529684066772
1684109439761627000,8.127626953125,-0.12543249130249023,0.13568496704101562,-1.747644066810608
1684109439771668500,8.13766845703125,0.02562195062637329,0.2778167724609375,-1.4849872589111328
1684109439781709800,8.147709716796875,0.15945076942443848,0.2615375518798828,-1.2689130306243896
1684109439791751400,8.15775146484375,0.25566935539245605,0.1659555435180664,-1.0683274269104004
1684109439801792800,8.167792724609376,0.383382111787796,0.10570049285888672,-0.7996129989624023
1684109439811834400,8.17783447265625,0.5823428630828857,0.08318138122558594,-0.48338472843170166
1684109439821875700,8.187875732421874,0.7877140641212463,0.038926124572753906,-0.21445679664611816
1684109439831917000,8.1979169921875,1.011620283126831,0.1596670150756836,0.07071065902709961
1684109439841958700,8.207958740234375,1.1477786302566528,0.2423868179321289,0.2737867832183838
1684109439852000300,8.218000244140624,1.2287297248840332,0.2469644546508789,0.4637356996536255
1684109439862041600,8.22804150390625,1.2113332748413086,0.1929464340209961,0.5901386737823486
1684109439872083000,8.2380830078125,1.0928099155426025,0.13298606872558594,0.6580729484558105
1684109439882124500,8.24812451171875,0.8651636242866516,0.08357715606689453,0.7206121683120728
1684109439892166000,8.258165771484375,0.6003817915916443,0.049172401428222656,0.7136335372924805
1684109439902207500,8.26820751953125,0.3296900987625122,-0.00643157958984375,0.7073194980621338
1684109439912248800,8.278248779296876,0.08391794562339783,-0.061946868896484375,0.661752462387085
1684109439922290400,8.28829052734375,-0.13083451986312866,-0.0697336196899414,0.5582488775253296
1684109439932331800,8.298331787109374,-0.3281269073486328,0.02016735076904297,0.3710296154022217
1684109439942373400,8.308373291015625,-0.42181724309921265,-0.014712333679199219,0.17037856578826904
1684109439952414700,8.318414794921875,-0.478835791349411,0.05263996124267578,0.0624239444732666
1684109439962456300,8.328456298828126,-0.4607897400856018,0.0834970474243164,0.03731667995452881
1684109439972497700,8.33849755859375,-0.3886294364929199,0.08997726440429688,0.046672940254211426
1684109439982539300,8.348539306640625,-0.2502451539039612,-0.0758514404296875,0.06868338584899902
1684109439992580600,8.35858056640625,-0.07504495978355408,-0.19379234313964844,0.14384782314300537
1684109440002622200,8.368622314453125,0.0898962989449501,-0.1562337875366211,0.2781376838684082
1684109440012663600,8.37866357421875,0.23319780826568604,-0.28098392486572266,0.35600149631500244
1684109440022705200,8.388705078125,0.3174606263637543,-0.26661109924316406,0.4487771987915039
1684109440032746500,8.39874658203125,0.34140533208847046,-0.19927120208740234,0.5031411647796631
1684109440042788000,8.4087880859375,0.3189965486526489,-0.12677288055419922,0.5354033708572388
1684109440052829400,8.418829345703125,0.22183643281459808,-0.04678916931152344,0.47406530380249023
1684109440062871000,8.42887109375,0.0629827156662941,-0.023946762084960938,0.4272928237915039
1684109440072912400,8.438912353515626,-0.12534552812576294,-0.02237987518310547,0.2903439998626709
1684109440082954000,8.4489541015625,-0.2897419035434723,0.07723140716552734,0.14526605606079102
1684109440092995300,8.458995361328125,-0.44843482971191406,0.038064002990722656,-0.03577697277069092
1684109440103037000,8.469036865234376,-0.5905499458312988,0.048964500427246094,-0.16821610927581787
1684109440113078300,8.479078369140625,-0.6763412356376648,0.030973434448242188,-0.30675995349884033
1684109440123119900,8.489119873046874,-0.7090816497802734,0.03905200958251953,-0.4055647850036621
1684109440133161200,8.4991611328125,-0.6471529603004456,0.09462642669677734,-0.4381760358810425
1684109440143202800,8.509202880859375,-0.5124179124832153,0.06627082824707031,-0.4143643379211426
1684109440153244200,8.519244140625,-0.3017677366733551,0.07128334045410156,-0.3489954471588135
1684109440163285800,8.52928564453125,-0.0695796012878418,0.11203956604003906,-0.22113800048828125
1684109440173327000,8.5393271484375,0.14480294287204742,0.09539985656738281,-0.0911712646484375
1684109440183368700,8.54936865234375,0.3649387061595917,0.050246238708496094,0.00461125373840332
1684109440193410000,8.55941015625,0.5618710517883301,-0.011424064636230469,0.08785450458526611
1684109440203451600,8.56945166015625,0.7372853755950928,-0.09666061401367188,0.19394898414611816
1684109440213493000,8.579492919921876,0.8806691765785217,-0.12890338897705078,0.2793360948562622
1684109440223534300,8.589534423828125,1.0093563795089722,-0.1607646942138672,0.27912354469299316
1684109440233576000,8.599575927734374,1.0874078273773193,-0.0943918228149414,0.2556818723678589
1684109440243617500,8.609617431640626,1.0842806100845337,-0.025726318359375,0.16673779487609863
1684109440253659000,8.619658935546875,0.9666333794593811,0.021209716796875,0.020160555839538574
1684109440263700200,8.6297001953125,0.7773967981338501,0.036853790283203125,-0.05221819877624512
1684109440273741800,8.639741943359375,0.560029923915863,0.011725425720214844,-0.14592468738555908
1684109440283783400,8.649783447265625,0.34809568524360657,-0.011072158813476562,-0.27262985706329346
1684109440293824800,8.65982470703125,0.17639565467834473,-0.026697158813476562,-0.3082209825515747
1684109440303866000,8.6698662109375,0.026781827211380005,-0.0041294097900390625,-0.3911170959472656
1684109440313907700,8.67990771484375,-0.07153308391571045,0.020773887634277344,-0.4066801071166992
1684109440323949300,8.68994921875,-0.1135302186012268,0.0098114013671875,-0.4433325529098511
1684109440333990700,8.69999072265625,-0.1346874237060547,-0.06560707092285156,-0.45768237113952637
1684109440344032000,8.710031982421874,-0.1056545078754425,-0.20052146911621094,-0.4210091829299927
1684109440354073600,8.720073486328126,-0.028110146522521973,-0.27771663665771484,-0.35974109172821045
1684109440364115000,8.730114990234375,0.047770947217941284,-0.3522024154663086,-0.3291512727737427
1684109440374156500,8.740156494140624,0.16906768083572388,-0.46218109130859375,-0.27452194690704346
1684109440384198000,8.750197998046875,0.28679317235946655,-0.5001983642578125,-0.2768465280532837
1684109440394239500,8.760239501953125,0.43325668573379517,-0.5405511856079102,-0.22832942008972168
1684109440404281000,8.770281005859376,0.6097946166992188,-0.5689468383789062,-0.21508276462554932
1684109440414322400,8.780322509765625,0.7509229183197021,-0.66656494140625,-0.14913642406463623
1684109440424363800,8.79036376953125,0.8559720516204834,-0.7257747650146484,-0.16445839405059814
1684109440434405400,8.8004052734375,0.9670394659042358,-0.7992496490478516,-0.22257816791534424
1684109440444446700,8.81044677734375,0.9947562217712402,-0.8893861770629883,-0.28981029987335205
1684109440454488300,8.82048828125,0.9812670946121216,-1.0200424194335938,-0.3828577995300293
1684109440464529700,8.83052978515625,0.8662352561950684,-1.2245330810546875,-0.4803043603897095
1684109440474571300,8.8405712890625,0.663946270942688,-1.323563575744629,-0.5510830879211426
1684109440484612600,8.850612548828124,0.40373939275741577,-1.3604745864868164,-0.6137645244598389
1684109440494654200,8.860654296875,0.13753573596477509,-1.2852497100830078,-0.6156913042068481
1684109440504695600,8.870695556640625,-0.08221329748630524,-1.1578044891357422,-0.5929081439971924
1684109440514737200,8.880737060546876,-0.2891414165496826,-0.9399776458740234,-0.5002667903900146
1684109440524778500,8.890778564453125,-0.45580369234085083,-0.7942399978637695,-0.38639652729034424
1684109440534820000,8.900820068359375,-0.5435768365859985,-0.7249784469604492,-0.3122779130935669
1684109440544861400,8.910861328125,-0.5381612181663513,-0.6149253845214844,-0.23047375679016113
1684109440554903000,8.920903076171875,-0.36635786294937134,-0.5286588668823242,-0.07411229610443115
1684109440564944400,8.9309443359375,-0.04007270187139511,-0.5854825973510742,0.2184234857559204
1684109440574986000,8.940986083984376,0.34577229619026184,-0.5486564636230469,0.4793802499771118
1684109440585027300,8.95102734375,0.6201542615890503,-0.34229564666748047,0.6547845602035522
1684109440595069000,8.96106884765625,0.7138491868972778,0.044877052307128906,0.7433128356933594
1684109440605110300,8.9711103515625,0.643947184085846,0.4048271179199219,0.7111039757728577
1684109440615151900,8.98115185546875,0.12671266496181488,0.5922126770019531,0.4932454824447632
1684109440625193200,8.991193115234376,-0.7588448524475098,0.7457304000854492,0.23265612125396729
1684109440635234800,9.00123486328125,-0.898566722869873,1.0656147003173828,0.12496423721313477
1684109440645276200,9.011276123046875,-0.21166568994522095,1.3625822067260742,0.16705000400543213
1684109440655317800,9.02131787109375,0.8351418972015381,1.4642229080200195,0.03755974769592285
1684109440665359000,9.031359130859375,1.7046408653259277,1.3898725509643555,0.0964357852935791
1684109440675400700,9.041400634765624,2.2762606143951416,1.2503347396850586,0.3052455186843872
1684109440685442000,9.051442138671876,2.5764832496643066,1.079911231994629,0.395893931388855
1684109440695483600,9.061483642578125,2.679960250854492,0.917475700378418,0.23609435558319092
1684109440705525000,9.07152490234375,2.724550485610962,0.7444667816162109,-0.0759282112121582
1684109440715566600,9.081566650390625,2.6204135417938232,0.5281286239624023,-0.4234602451324463
1684109440725608000,9.09160791015625,2.258371353149414,0.2546854019165039,-0.9361542463302612
1684109440735649500,9.1016494140625,1.5782837867736816,0.031103134155273438,-1.5207936763763428
1684109440745691000,9.11169091796875,0.8693445920944214,-0.06520652770996094,-2.0282347202301025
1684109440755732500,9.121732421875,0.19259440898895264,-0.03319358825683594,-2.327397584915161
1684109440765773800,9.13177392578125,-0.3382526934146881,0.03073406219482422,-2.465074062347412
1684109440775815400,9.1418154296875,-0.634122371673584,0.1261768341064453,-2.4450275897979736
1684109440785856800,9.151856689453124,-0.5774562358856201,0.26245689392089844,-2.144831657409668
1684109440795898400,9.1618984375,-0.20816263556480408,0.33704566955566406,-1.5474265813827515
1684109440805939700,9.171939697265625,0.3271479904651642,0.2453298568725586,-0.950975775718689
1684109440815981300,9.181981201171874,0.8053421974182129,0.062003135681152344,-0.32980287075042725
1684109440826022700,9.192022705078125,1.1580121517181396,-0.02830791473388672,0.2663465738296509
1684109440836064300,9.202064208984375,1.3350765705108643,-0.022748947143554688,0.7655383944511414
1684109440846105600,9.212105712890626,1.3653759956359863,-0.0047168731689453125,1.0471534729003906
1684109440856147200,9.222147216796875,1.2441134452819824,0.028272628784179688,1.252342700958252
1684109440866188500,9.2321884765625,0.996503472328186,0.03320884704589844,1.4240858554840088
1684109440876230100,9.242230224609376,0.668281614780426,0.11758804321289062,1.5286643505096436
1684109440886271500,9.252271484375,0.3211093246936798,0.19512939453125,1.6542222499847412
1684109440896313000,9.26231298828125,0.05881994962692261,0.27047157287597656,1.7119783163070679
1684109440906354700,9.272354736328126,-0.01274135708808899,0.46515560150146484,1.7072209119796753
1684109440916396000,9.28239599609375,0.052838921546936035,0.6902503967285156,1.6604171991348267
1684109440926437400,9.292437255859374,0.22155003249645233,0.7808113098144531,1.6155964136123657
1684109440936479000,9.30247900390625,0.35347652435302734,0.8496417999267578,1.5631991624832153
1684109440946520600,9.3125205078125,0.42196303606033325,0.8636665344238281,1.4454874992370605
1684109440956562000,9.32256201171875,0.38256844878196716,0.9806423187255859,1.2200803756713867
1684109440966603300,9.332603271484375,0.2974593937397003,1.1880016326904297,1.0415372848510742
1684109440976644900,9.342644775390625,0.19204513728618622,1.4111442565917969,0.8509230613708496
1684109440986686500,9.3526865234375,0.13277274370193481,1.5637426376342773,0.6989617347717285
1684109440996727800,9.362727783203125,0.1824253797531128,1.6719775199890137,0.5310530662536621
1684109441006769200,9.37276904296875,0.3013983964920044,1.8764715194702148,0.403415322303772
1684109441016810800,9.382810791015626,0.4691082239151001,1.9760956764221191,0.3171008825302124
1684109441026852400,9.392852294921875,0.6541509628295898,1.9045400619506836,0.33273422718048096
1684109441036893700,9.402893798828124,0.8347675800323486,1.7702102661132812,0.30935215950012207
1684109441046935300,9.412935302734375,1.0064423084259033,1.57342529296875,0.2586405277252197
1684109441056976600,9.4229765625,1.1546764373779297,1.4743976593017578,0.1978607177734375
1684109441067018000,9.43301806640625,1.3148608207702637,1.3441848754882812,0.21523785591125488
1684109441077059600,9.4430595703125,1.4003520011901855,1.2978878021240234,0.3339674472808838
1684109441087101200,9.45310107421875,1.4574012756347656,1.2928037643432617,0.4880843162536621
1684109441097142500,9.463142578125,1.419311761856079,1.3222246170043945,0.754233717918396
1684109441107183900,9.473183837890625,1.3533046245574951,0.8968362808227539,0.9295562505722046
1684109441117225500,9.4832255859375,1.2571667432785034,0.23778343200683594,1.1103606224060059
1684109441127267000,9.49326708984375,1.1885185241699219,-0.39363670349121094,1.2736530303955078
1684109441137308400,9.503308349609375,1.152762770652771,-1.082961082458496,1.4731566905975342
1684109441147350000,9.51335009765625,1.099172592163086,-1.7579526901245117,1.5742721557617188
1684109441157391400,9.523391357421875,0.9838670492172241,-2.4281234741210938,1.582625150680542
1684109441167433000,9.533432861328125,0.868873655796051,-3.1486167907714844,1.4279119968414307
1684109441177474300,9.543474365234376,0.6277657747268677,-3.76010799407959,1.0507787466049194
1684109441187516000,9.553515869140625,0.2258600890636444,-3.9367408752441406,0.6093481779098511
1684109441197557200,9.56355712890625,-0.21623533964157104,-3.499201774597168,0.07265949249267578
1684109441207598800,9.573598876953126,-0.867435097694397,-2.6719589233398438,-0.4500410556793213
1684109441217640200,9.58364013671875,-1.4707204103469849,-1.7715139389038086,-0.8631453514099121
1684109441227681800,9.593681884765624,-2.0332608222961426,-0.9390373229980469,-1.2457029819488525
1684109441237723100,9.60372314453125,-2.481152296066284,-0.28186607360839844,-1.5811035633087158
1684109441247764700,9.6137646484375,-2.5923070907592773,0.25263023376464844,-1.8302302360534668
1684109441257806000,9.62380615234375,-2.446539878845215,0.6907243728637695,-1.9521138668060303
1684109441267847700,9.63384765625,-2.0135629177093506,0.9843864440917969,-2.0387725830078125
1684109441277889000,9.643888916015625,-1.3854224681854248,1.1382160186767578,-1.9353621006011963
1684109441287930600,9.6539306640625,-0.6602211594581604,1.0905303955078125,-1.6153500080108643
1684109441297972000,9.663971923828125,0.027103960514068604,1.0117578506469727,-1.2317659854888916
1684109441308013600,9.674013671875,0.6024347543716431,1.026824951171875,-0.8119239807128906
1684109441318055000,9.684054931640626,1.037712574005127,1.043156623840332,-0.37462687492370605
1684109441328096500,9.694096435546875,1.3611303567886353,1.0783185958862305,0.005867958068847656
1684109441338137900,9.704137939453124,1.599972128868103,0.9947719573974609,0.436814546585083
1684109441348179500,9.714179443359376,1.758863091468811,0.7701396942138672,0.7170631885528564
1684109441358220800,9.724220703125,1.8501851558685303,0.4391965866088867,0.828189492225647
1684109441368262400,9.734262451171874,1.8393845558166504,0.09328079223632812,0.7611914873123169
1684109441378303700,9.7443037109375,1.753867745399475,-0.16048431396484375,0.5252453088760376
1684109441388345300,9.754345458984375,1.528285264968872,-0.22765541076660156,0.31349408626556396
1684109441398386700,9.76438671875,1.25727379322052,-0.2885732650756836,0.12235355377197266
1684109441408428300,9.77442822265625,0.9895679950714111,-0.31734657287597656,-0.09505033493041992
1684109441418469600,9.7844697265625,0.6771191358566284,-0.3286151885986328,-0.3114442825317383
1684109441428511200,9.79451123046875,0.34030693769454956,-0.4111452102661133,-0.5619320869445801
1684109441438552600,9.804552490234375,-0.020289301872253418,-0.4721088409423828,-0.7528603076934814
1684109441448594200,9.81459423828125,-0.38145196437835693,-0.5932292938232422,-0.9751279354095459
1684109441458635800,9.8246357421875,-0.7102500200271606,-0.7364940643310547,-1.1120352745056152
1684109441468677000,9.834677001953125,-0.9310305714607239,-0.8927059173583984,-1.2376925945281982
1684109441478718500,9.844718505859374,-1.0461300611495972,-1.0022945404052734,-1.3022499084472656
1684109441488760000,9.854760009765625,-1.0219430923461914,-0.9937076568603516,-1.3633811473846436
1684109441498801700,9.8648017578125,-0.8821661472320557,-1.015275001525879,-1.4443583488464355
1684109441508843000,9.874843017578126,-0.7135301828384399,-0.9784765243530273,-1.484715223312378
1684109441518884600,9.884884521484375,-0.4445176124572754,-0.7351369857788086,-1.4608705043792725
1684109441528926000,9.894926025390625,-0.21796822547912598,-0.44774818420410156,-1.352651596069336
1684109441538967600,9.904967529296876,0.003156304359436035,-0.14245891571044922,-1.349419355392456
1684109441549009000,9.9150087890625,0.186551034450531,0.14981746673583984,-1.3197579383850098
1684109441559050500,9.925050537109374,0.30259692668914795,0.3959035873413086,-1.259378433227539
1684109441569091800,9.935091796875,0.3527073860168457,0.6629753112792969,-1.2521066665649414
1684109441579133400,9.945133544921875,0.3030698299407959,0.8747644424438477,-1.2194781303405762
1684109441589174800,9.9551748046875,0.24727129936218262,0.9742021560668945,-1.238440990447998
1684109441599216400,9.96521630859375,0.18855667114257812,0.9496355056762695,-1.2018513679504395
1684109441609257700,9.9752578125,0.15183043479919434,0.8299884796142578,-1.2463290691375732
1684109441619299300,9.98529931640625,0.10183799266815186,0.6631374359130859,-1.261704683303833
1684109441629340700,9.995340576171875,0.043462276458740234,0.4753379821777344,-1.3025124073028564
1684109441639382300,10.00538232421875,-0.04444539546966553,0.3236875534057617,-1.3678481578826904
1684109441649423600,10.015423583984376,-0.0872042179107666,0.16488265991210938,-1.449995517730713
1684109441659465200,10.02546533203125,-0.07726144790649414,0.09212493896484375,-1.3775885105133057
1684109441669506600,10.035506591796874,-0.04144287109375,0.25344181060791016,-1.2303786277770996
1684109441679548200,10.045548095703126,0.05232644081115723,0.40001678466796875,-0.9891922473907471
1684109441689589500,10.055589599609375,0.16898953914642334,0.4317588806152344,-0.8330705165863037
1684109441699631000,10.065631103515624,0.2637516260147095,0.2631387710571289,-0.7634813785552979
1684109441709672400,10.07567236328125,0.354839563369751,0.1641836166381836,-0.7876091003417969
1684109441719714000,10.085714111328125,0.36279594898223877,0.18444347381591797,-0.7118065357208252
1684109441729755400,10.09575537109375,0.3191089630126953,0.3164558410644531,-0.5435080528259277
1684109441739797000,10.105796875,0.2508699893951416,0.4309425354003906,-0.3906843662261963
1684109441749838600,10.115838623046875,0.2690950632095337,0.3173809051513672,-0.4530816078186035
1684109441759880000,10.1258798828125,0.31704938411712646,0.16942691802978516,-0.5216732025146484
1684109441769921500,10.135921630859375,0.3544090986251831,0.12079524993896484,-0.6274640560150146
1684109441779963000,10.145962890625,0.2880321741104126,0.19993019104003906,-0.8016872406005859
1684109441790004500,10.15600439453125,0.08729302883148193,0.3134765625,-0.8705587387084961
1684109441800045800,10.1660458984375,-0.26271092891693115,0.4351940155029297,-0.8623619079589844
1684109441810087400,10.17608740234375,-0.673019528388977,0.4672422409057617,-0.7535152435302734
1684109441820128800,10.186128662109375,-1.1736228466033936,0.3840503692626953,-0.4268059730529785
1684109441830170400,10.19617041015625,-1.6870417594909668,0.1602649688720703,-0.011748790740966797
1684109441840211700,10.206211669921874,-1.629500150680542,-0.03362846374511719,0.30638623237609863
1684109441850253300,10.21625341796875,-1.178440809249878,-0.15365982055664062,0.6341166496276855
1684109441860294700,10.226294677734375,-0.5412929058074951,-0.3061199188232422,1.1668452024459839
1684109441870336300,10.236336181640626,-0.23656296730041504,-0.42301464080810547,1.9663000106811523
1684109441880377600,10.246377685546875,-0.23773193359375,-0.4808320999145508,2.7993242740631104
1684109441890419200,10.256419189453124,-0.510575532913208,-0.7180233001708984,3.2718658447265625
1684109441900460500,10.26646044921875,-0.49504613876342773,-0.9815998077392578,4.026210784912109
1684109441910502100,10.276502197265625,0.03697681427001953,-1.0794267654418945,4.552373886108398
1684109441920543500,10.28654345703125,0.5581340789794922,-1.0099515914916992,4.459158897399902
1684109441930585000,10.296585205078125,1.0865898132324219,-0.7964620590209961,4.023939609527588
1684109441940626400,10.30662646484375,1.2196884155273438,-0.5887155532836914,3.4429678916931152
1684109441950668000,10.31666796875,1.17122483253479,-0.40822410583496094,2.857861280441284
1684109441960709600,10.326709716796875,0.8527439832687378,-0.22578144073486328,2.030940532684326
1684109441970751000,10.3367509765625,0.3346874713897705,-0.01987934112548828,1.1983540058135986
1684109441980792300,10.346792236328126,-0.41689419746398926,0.14445972442626953,0.434420108795166
1684109441990834000,10.356833984375,-1.185774803161621,0.32857322692871094,-0.22250628471374512
1684109442000875500,10.36687548828125,-1.726351261138916,0.49582767486572266,-0.671051025390625
1684109442010916900,10.376916748046876,-1.8740538358688354,0.6416025161743164,-0.8622751235961914
1684109442020958500,10.38695849609375,-1.6089638471603394,0.7360219955444336,-0.8273136615753174
1684109442030999800,10.396999755859374,-1.0976413488388062,0.770599365234375,-0.7326369285583496
1684109442041041400,10.40704150390625,-0.5809506177902222,0.823969841003418,-0.8675899505615234
1684109442051082800,10.417082763671875,-0.14403915405273438,0.9244804382324219,-0.7730264663696289
1684109442061124400,10.427124267578124,0.41382789611816406,1.0060186386108398,-0.515005350112915
1684109442071165700,10.437165771484375,0.8719248175621033,0.9260292053222656,-0.392228364944458
1684109442081207300,10.447207275390625,1.1064751148223877,0.8303737640380859,-0.44214892387390137
1684109442091248600,10.45724853515625,1.212486743927002,0.7446718215942383,-0.5388600826263428
1684109442101290200,10.467290283203125,1.2441707849502563,0.690185546875,-0.6420128345489502
1684109442111331600,10.47733154296875,1.1288402080535889,0.6052360534667969,-0.6371176242828369
1684109442121373200,10.487373291015626,0.8968625664710999,0.5735368728637695,-0.7140545845031738
1684109442131414500,10.49741455078125,0.49671781063079834,0.4153318405151367,-0.8449316024780273
1684109442141456100,10.5074560546875,0.07491123676300049,0.16388607025146484,-0.8824243545532227
1684109442151497500,10.51749755859375,-0.2685818672180176,-0.06374835968017578,-0.8592531681060791
1684109442161539000,10.5275390625,-0.5252233743667603,-0.25560855865478516,-0.7754113674163818
1684109442171580700,10.53758056640625,-0.6289899349212646,-0.3614368438720703,-0.64096999168396
1684109442181622000,10.5476220703125,-0.6381919384002686,-0.49823665618896484,-0.43030333518981934
1684109442191663600,10.55766357421875,-0.5581185817718506,-0.5225582122802734,-0.2393500804901123
1684109442201705000,10.567705078125,-0.4243506193161011,-0.5494899749755859,-0.027152538299560547
1684109442211746600,10.57774658203125,-0.22447097301483154,-0.5218372344970703,0.1920166015625
1684109442221788000,10.587787841796874,-0.07982540130615234,-0.46355724334716797,0.4272487163543701
1684109442231829500,10.59782958984375,0.09382444620132446,-0.42954254150390625,0.6565022468566895
1684109442241870800,10.607870849609375,0.21306419372558594,-0.4077014923095703,0.8603689670562744
1684109442251912400,10.617912353515624,0.3065463900566101,-0.3285074234008789,1.0239522457122803
1684109442261953800,10.627953857421875,0.29083240032196045,-0.23003482818603516,1.2133888006210327
1684109442271995400,10.637995361328125,0.2544872760772705,-0.17426204681396484,1.3064215183258057
1684109442282036700,10.64803662109375,0.2257823646068573,-0.1751699447631836,1.4030232429504395
1684109442292078300,10.658078369140625,0.13252729177474976,-0.1369466781616211,1.419309139251709
1684109442302119700,10.66811962890625,0.05276775360107422,-0.07862567901611328,1.422031283378601
1684109442312161300,10.678161376953126,-0.06481969356536865,-0.08147048950195312,1.325454592704773
1684109442322202600,10.68820263671875,-0.19022667407989502,-0.13120460510253906,1.2260578870773315
1684109442332244200,10.698244140625,-0.366799920797348,-0.22552108764648438,1.0455080270767212
1684109442342285800,10.708285888671876,-0.6201729774475098,-0.4716930389404297,0.8359792232513428
1684109442352327200,10.7183271484375,-0.856155276298523,-0.6498641967773438,0.5692758560180664
1684109442362368800,10.72836865234375,-1.1303093433380127,-0.7560615539550781,0.2352757453918457
1684109442372410000,10.73841015625,-1.5774688720703125,-0.7648439407348633,-0.03987288475036621
1684109442382451700,10.74845166015625,-2.1272799968719482,-0.8079738616943359,-0.06953740119934082
1684109442392493000,10.7584931640625,-2.575737953186035,-0.7990655899047852,0.09952235221862793
1684109442402534700,10.76853466796875,-2.495673656463623,-0.6590194702148438,0.2629389762878418
1684109442412576000,10.778575927734375,-1.9341411590576172,-0.5433149337768555,0.25611090660095215
1684109442422617600,10.78861767578125,-1.3418855667114258,-0.44458961486816406,0.14616155624389648
1684109442432659000,10.798658935546875,-0.9653918743133545,-0.3841085433959961,0.05948233604431152
1684109442442700500,10.808700439453125,-0.7455621957778931,-0.28299522399902344,-0.0849752426147461
1684109442452742100,10.8187421875,-0.6089627742767334,-0.09383296966552734,-0.18593335151672363
1684109442462783500,10.828783447265625,-0.5012610554695129,-0.00565338134765625,-0.23825645446777344
1684109442472824800,10.838824951171874,-0.3825070858001709,0.15360450744628906,-0.2822730541229248
1684109442482866400,10.848866455078126,-0.21701717376708984,0.2212972640991211,-0.26757049560546875
1684109442492907800,10.85890771484375,-0.0897439643740654,0.1953144073486328,-0.14186334609985352
1684109442502949400,10.868949462890624,-0.04701930284500122,0.13568782806396484,0.06086397171020508
1684109442512991000,10.878990966796875,-0.007360018789768219,0.1118917465209961,0.37340283393859863
1684109442523032300,10.8890322265625,0.003920018672943115,0.054770469665527344,0.6897082328796387
1684109442533074000,10.899073974609376,0.03522451967000961,0.08866596221923828,0.9163461923599243
1684109442543115300,10.909115234375,0.15263110399246216,0.12747573852539062,1.0842567682266235
1684109442553156900,10.919156982421875,0.276020348072052,0.1569967269897461,1.1238900423049927
1684109442563198200,10.9291982421875,0.38728195428848267,0.1653003692626953,1.1789324283599854
1684109442573239800,10.93923974609375,0.46403318643569946,0.2026071548461914,1.1728887557983398
1684109442583281200,10.94928125,0.4584144651889801,0.23295974731445312,1.1514678001403809
1684109442593322800,10.95932275390625,0.42304956912994385,0.1870565414428711,1.0790654420852661
1684109442603364000,10.969364013671875,0.4244263768196106,0.12952613830566406,0.9798058271408081
1684109442613405700,10.97940576171875,0.3905864357948303,0.13190937042236328,0.8469812870025635
1684109442623447300,10.989447265625,0.37435081601142883,0.050705909729003906,0.6927673816680908
1684109442633488600,10.999488525390625,0.3331959843635559,0.08657169342041016,0.4842255115509033
1684109442643530200,11.0095302734375,0.3037833273410797,0.05078125,0.35428500175476074
1684109442653571600,11.019571533203125,0.3060767948627472,0.02698230743408203,0.14069676399230957
1684109442663613200,11.02961328125,0.27088961005210876,0.03639411926269531,0.021265029907226562
1684109442673654500,11.039654541015626,0.2699365019798279,0.07649803161621094,-0.03277182579040527
1684109442683696000,11.049696044921875,0.25366318225860596,0.13756561279296875,-0.009271383285522461
1684109442693737500,11.059737548828124,0.24742737412452698,0.1241140365600586,0.036382198333740234
1684109442703779000,11.069779052734376,0.26652950048446655,0.09377288818359375,0.13240528106689453
1684109442713820400,11.0798203125,0.317901611328125,0.14213275909423828,0.1783146858215332
1684109442723862000,11.089862060546874,0.3671218454837799,0.16154193878173828,0.20996856689453125
1684109442733903400,11.0999033203125,0.3608292043209076,0.2452259063720703,0.2678489685058594
1684109442743945000,11.109945068359375,0.3513864278793335,0.1518421173095703,0.31353330612182617
1684109442753986600,11.119986572265624,0.3506183922290802,0.14449214935302734,0.28265929222106934
1684109442764028000,11.13002783203125,0.3180621564388275,0.14415740966796875,0.19687318801879883
1684109442774069500,11.140069580078125,0.2942405045032501,0.05295562744140625,0.13248491287231445
1684109442784110800,11.15011083984375,0.2526300847530365,-0.01906108856201172,-0.015620231628417969
1684109442794152400,11.16015234375,0.14544463157653809,-0.08635997772216797,-0.19199895858764648
1684109442804193800,11.17019384765625,0.01640862226486206,-0.05580615997314453,-0.2938377857208252
1684109442814235400,11.1802353515625,-0.16660958528518677,-0.08043384552001953,-0.3164479732513428
1684109442824276700,11.19027685546875,-0.3514048159122467,-0.08612537384033203,-0.41681575775146484
1684109442834318300,11.200318359375,-0.4136929512023926,-0.10872077941894531,-0.44113636016845703
1684109442844359700,11.210359619140625,-0.3994733393192291,-0.11460208892822266,-0.3749978542327881
1684109442854401300,11.2204013671875,-0.27232712507247925,-0.12514305114746094,-0.28092432022094727
1684109442864442600,11.230442626953124,-0.05098402500152588,-0.157012939453125,-0.192962646484375
1684109442874484200,11.240484130859375,0.17528003454208374,-0.16718387603759766,-0.08332228660583496
1684109442884525800,11.25052587890625,0.35098928213119507,-0.15108966827392578,-0.0836794376373291
1684109442894567200,11.260567138671876,0.4530857801437378,-0.1567859649658203,-0.04523134231567383
1684109442904608800,11.27060888671875,0.5055752396583557,-0.16021347045898438,-0.025997400283813477
1684109442914650000,11.280650146484374,0.5329099297523499,-0.029848098754882812,-0.0003352165222167969
1684109442924691700,11.290691650390626,0.5261337161064148,0.14332866668701172,-0.06646394729614258
1684109442934733000,11.300733154296875,0.5182344913482666,0.29031848907470703,-0.212982177734375
1684109442944774700,11.310774658203124,0.4974961280822754,0.3356199264526367,-0.3348078727722168
1684109442954816300,11.320816162109375,0.5017668604850769,0.33959388732910156,-0.4338955879211426
1684109442964857600,11.330857666015625,0.5263633131980896,0.34058570861816406,-0.49158525466918945
1684109442974899000,11.34089892578125,0.5196380019187927,0.4068136215209961,-0.49381303787231445
1684109442984940500,11.3509404296875,0.5225727558135986,0.46180152893066406,-0.4693593978881836
1684109442994982100,11.360982177734375,0.5444377660751343,0.5339183807373047,-0.4136848449707031
1684109443005023500,11.3710234375,0.5281973481178284,0.4367380142211914,-0.3762180805206299
1684109443015065000,11.381065185546875,0.5093801021575928,0.2930793762207031,-0.3283662796020508
1684109443025106400,11.3911064453125,0.42170339822769165,0.05905723571777344,-0.20027852058410645
1684109443035148000,11.40114794921875,0.29462194442749023,-0.1977558135986328,-0.0693063735961914
1684109443045189400,11.411189453125,0.13814055919647217,-0.35431861877441406,0.17167973518371582
1684109443055231000,11.42123095703125,-0.012001514434814453,-0.598088264465332,0.40935957431793213
1684109443065272300,11.431272216796875,-0.1731286644935608,-0.7815036773681641,0.6946494579315186
1684109443075314000,11.44131396484375,-0.3532004952430725,-0.9851284027099609,1.0760799646377563
1684109443085355500,11.45135546875,-0.5652704238891602,-1.1706123352050781,1.3286001682281494
1684109443095396900,11.46139697265625,-0.7749322056770325,-1.2861356735229492,1.6160411834716797
1684109443105438500,11.4714384765625,-1.0562973022460938,-1.3486394882202148,1.923719048500061
1684109443115479800,11.481479736328126,-1.4420242309570312,-1.5466289520263672,2.1751880645751953
1684109443125521400,11.491521484375,-1.8924121856689453,-1.5829954147338867,2.4497554302215576
1684109443135562800,11.501562744140625,-2.296666383743286,-1.5958900451660156,2.631760597229004
1684109443145604400,11.511604248046876,-2.618180274963379,-1.5274276733398438,2.697605848312378
1684109443155645700,11.521645751953125,-2.6791839599609375,-1.3605709075927734,2.739964246749878
1684109443165687300,11.531687255859374,-2.4078750610351562,-1.0094490051269531,2.624709129333496
1684109443175729000,11.54172900390625,-1.8536720275878906,-0.5584239959716797,2.2897236347198486
1684109443185770200,11.551770263671875,-1.1606956720352173,-0.2234945297241211,1.6776962280273438
1684109443195811800,11.561811767578124,-0.5372721552848816,0.0272979736328125,0.9322881698608398
1684109443205853200,11.571853271484375,-0.1085885763168335,0.23087310791015625,0.38012099266052246
1684109443215894800,11.581894775390625,0.20993077754974365,0.3893699645996094,0.04830598831176758
1684109443225936100,11.59193603515625,0.3930475115776062,0.5080232620239258,-0.05719757080078125
1684109443235977700,11.601977783203125,0.5359811782836914,0.6014909744262695,-0.11592674255371094
1684109443246019000,11.61201904296875,0.5641949772834778,0.6243581771850586,-0.22909235954284668
1684109443256060700,11.622060791015626,0.5365219712257385,0.6387434005737305,-0.3520960807800293
1684109443266102000,11.63210205078125,0.5256519317626953,0.5801029205322266,-0.45290589332580566
1684109443276143600,11.6421435546875,0.4578893184661865,0.4391050338745117,-0.5482051372528076
1684109443286185000,11.65218505859375,0.3807559609413147,0.23030376434326172,-0.5236012935638428
1684109443296226600,11.6622265625,0.2650870084762573,0.044808387756347656,-0.3447291851043701
1684109443306268200,11.67226806640625,0.13929063081741333,-0.09796142578125,-0.12613582611083984
1684109443316309500,11.6823095703125,0.03488057851791382,-0.25280189514160156,0.0905447006225586
1684109443326351000,11.69235107421875,-0.09465193748474121,-0.3288450241088867,0.25291168689727783
1684109443336392400,11.702392333984376,-0.20428818464279175,-0.4359302520751953,0.4684063196182251
1684109443346434000,11.71243408203125,-0.2997173070907593,-0.5045137405395508,0.6672881841659546
1684109443356475400,11.722475341796875,-0.3160613775253296,-0.5178689956665039,0.8660036325454712
1684109443366517000,11.73251708984375,-0.24673187732696533,-0.41636180877685547,1.0592855215072632
1684109443376558600,11.74255859375,-0.15192407369613647,-0.28145408630371094,1.201543927192688
1684109443386600000,11.752599853515624,-0.04096108675003052,-0.22310447692871094,1.2907425165176392
1684109443396641500,11.7626416015625,0.10551166534423828,-0.22443675994873047,1.3487205505371094
1684109443406683000,11.772682861328125,0.23696982860565186,-0.23038959503173828,1.428006649017334
1684109443416724500,11.782724365234374,0.364818811416626,-0.2982063293457031,1.475517749786377
1684109443426765800,11.792765869140625,0.48084336519241333,-0.36566638946533203,1.4886317253112793
1684109443436807400,11.802807373046875,0.589038610458374,-0.4257078170776367,1.4890891313552856
1684109443446848800,11.812848876953124,0.6673335433006287,-0.6314554214477539,1.2797114849090576
1684109443456890400,11.822890380859375,0.6695656180381775,-0.4403343200683594,1.318771481513977
1684109443466932000,11.832931884765625,0.6147774457931519,-0.05837821960449219,1.3915945291519165
1684109443476973300,11.842973388671876,0.5563900470733643,0.05782318115234375,1.3311469554901123
1684109443487015000,11.853014892578125,0.4667055606842041,0.12874603271484375,1.3143726587295532
1684109443497056300,11.86305615234375,0.42061465978622437,0.04215431213378906,1.0768128633499146
1684109443507097900,11.873097900390626,0.3993571996688843,-0.06322002410888672,0.8778088092803955
1684109443517139200,11.88313916015625,0.3504713177680969,-0.06321239471435547,0.6841493844985962
1684109443527180800,11.893180908203124,0.3289172053337097,-0.0035295486450195312,0.5319075584411621
1684109443537222100,11.90322216796875,0.3035389184951782,-0.030078887939453125,0.37356269359588623
1684109443547263700,11.913263671875,0.29312849044799805,-0.020842552185058594,0.23045825958251953
1684109443557305300,11.923305419921874,0.27807337045669556,0.038369178771972656,0.14083361625671387
1684109443567346700,11.9333466796875,0.291601300239563,-0.0171966552734375,0.10622310638427734
1684109443577388300,11.94338818359375,0.33097654581069946,-0.10119915008544922,0.009045600891113281
1684109443587429600,11.9534296875,0.349884569644928,-0.04637908935546875,0.004382610321044922
1684109443597471200,11.96347119140625,0.35240936279296875,0.03937530517578125,-0.06783533096313477
1684109443607512600,11.9735126953125,0.36895298957824707,0.07460498809814453,-0.10412859916687012
1684109443617554200,11.98355419921875,0.3562002182006836,0.04747581481933594,-0.1905043125152588
1684109443627595500,11.993595458984375,0.31922489404678345,0.06576728820800781,-0.2534148693084717
1684109443637637000,12.00363720703125,0.2588394284248352,0.06027412414550781,-0.2933957576751709
1684109443647678500,12.013678466796875,0.20222806930541992,0.08118724822998047,-0.3723113536834717
1684109443657720000,12.023719970703125,0.13816869258880615,0.0709829330444336,-0.5083744525909424
1684109443667761700,12.03376171875,0.08360987901687622,0.14661026000976562,-0.5646357536315918
1684109443677803000,12.043802978515625,0.002565741539001465,0.19071102142333984,-0.6578497886657715
1684109443687844600,12.0538447265625,-0.05469614267349243,0.23449993133544922,-0.7500653266906738
1684109443697886000,12.063885986328126,-0.1283712387084961,0.2279500961303711,-0.822589635848999
1684109443707927600,12.073927490234375,-0.20801550149917603,0.1925497055053711,-0.9009757041931152
1684109443717969000,12.083968994140625,-0.2620104253292084,0.17826557159423828,-0.96014404296875
1684109443728010500,12.094010498046876,-0.33291614055633545,0.14442825317382812,-0.9211657047271729
1684109443738052000,12.104052001953125,-0.3603942394256592,0.02682781219482422,-0.8376226425170898
1684109443748093400,12.114093505859374,-0.3752748966217041,-0.08348560333251953,-0.6813082695007324
1684109443758135000,12.124135009765626,-0.37308135628700256,-0.12912273406982422,-0.4791722297668457
1684109443768176400,12.13417626953125,-0.33119818568229675,-0.15075969696044922,-0.3012537956237793
1684109443778218000,12.144218017578124,-0.29207706451416016,-0.1483783721923828,-0.10044622421264648
1684109443788259300,12.15425927734375,-0.2526812255382538,-0.07901191711425781,0.046244144439697266
1684109443798301000,12.164301025390625,-0.2690581977367401,-0.026340484619140625,0.19580411911010742
1684109443808342500,12.174342529296876,-0.31498265266418457,-0.0166778564453125,0.17901062965393066
1684109443818384000,12.1843837890625,-0.38955146074295044,0.012177467346191406,0.1732006072998047
1684109443828425500,12.194425537109375,-0.48211729526519775,0.08646869659423828,0.13789033889770508
1684109443838466800,12.204466796875,-0.5607538223266602,0.1368846893310547,0.1160898208618164
1684109443848508400,12.21450830078125,-0.6630920767784119,0.13247203826904297,0.026587486267089844
1684109443858549800,12.2245498046875,-0.7258408069610596,0.14723777770996094,-0.024513959884643555
1684109443868591400,12.23459130859375,-0.7624266147613525,0.09503459930419922,-0.031835317611694336
1684109443878633000,12.244633056640625,-0.7738926410675049,0.06931209564208984,-0.05070829391479492
1684109443888674300,12.25467431640625,-0.739933431148529,0.10836601257324219,0.0044896602630615234
1684109443898716000,12.2647158203125,-0.667715311050415,0.16894912719726562,0.02166914939880371
1684109443908757200,12.27475732421875,-0.5230264067649841,0.2989501953125,0.10973429679870605
1684109443918798800,12.284798828125,-0.39888614416122437,0.3691549301147461,0.10360908508300781
1684109443928840200,12.294840087890625,-0.25361061096191406,0.3820180892944336,0.06330418586730957
1684109443938881800,12.3048818359375,-0.1122296154499054,0.41652584075927734,-0.02331066131591797
1684109443948923400,12.31492333984375,-0.0015591084957122803,0.3697319030761719,-0.14824795722961426
1684109443958964700,12.32496484375,0.0618707537651062,0.3156318664550781,-0.2746243476867676
1684109443969006300,12.33500634765625,0.10717630386352539,0.25886058807373047,-0.35878634452819824
1684109443979047700,12.345047607421876,0.14887499809265137,0.18753719329833984,-0.33892035484313965
1684109443989089300,12.35508935546875,0.16741234064102173,0.14502334594726562,-0.2853975296020508
1684109443999130600,12.365130615234374,0.18295270204544067,0.16657447814941406,-0.20885062217712402
1684109444009172200,12.375172119140625,0.15431901812553406,0.16161251068115234,-0.10018301010131836
1684109444019213600,12.385213623046875,0.10268747806549072,0.14457416534423828,-0.016024112701416016
1684109444029255200,12.395255126953124,0.016365855932235718,0.12268733978271484,0.04646944999694824
1684109444039296800,12.405296875,-0.07521937787532806,0.11729240417480469,0.14628958702087402
1684109444049338000,12.415338134765625,-0.18517599999904633,0.07392120361328125,0.2289142608642578
1684109444059379700,12.425379638671876,-0.3094158470630646,0.05916309356689453,0.27579665184020996
1684109444069421000,12.435421142578125,-0.4158053994178772,-0.017022132873535156,0.27158021926879883
1684109444079462700,12.445462646484375,-0.49915996193885803,-0.0074253082275390625,0.36470890045166016
1684109444089504000,12.45550390625,-0.5828797817230225,-0.03310108184814453,0.45084571838378906
1684109444099545600,12.465545654296875,-0.6364634037017822,-0.04848766326904297,0.4703984260559082
1684109444109587000,12.4755869140625,-0.6836709976196289,-0.15495777130126953,0.450345516204834
1684109444119628500,12.485628662109375,-0.7167305946350098,-0.44025611877441406,0.31073570251464844
1684109444129670100,12.495670166015625,-0.7750219106674194,-0.5978069305419922,0.2659275531768799
