time,seconds_elapsed,z,y,x
1684109996909107000,0.03310693359375,0,0,0
1684109996919148000,0.04314794921875,0.09833621978759766,-0.0449528694152832,-0.011013507843017578
1684109996929189400,0.053189453125,0.08202934265136719,0.2194218635559082,-0.05399298667907715
1684109996939230500,0.06323046875,0.010546207427978516,-0.14432096481323242,0.483431339263916
1684109996949271800,0.073271728515625,-0.1889963150024414,0.008987903594970703,0.2735292911529541
1684109996959313000,0.08331298828125,0.13463973999023438,0.22780084609985352,0.13332295417785645
1684109996969354200,0.093354248046875,0.2901616096496582,0.2729978561401367,0.11870527267456055
1684109996979395600,0.1033955078125,0.031981468200683594,0.27651166915893555,0.055443763732910156
1684109996989436700,0.113436767578125,-0.26639890670776367,0.5166683197021484,-0.2145683765411377
1684109996999478000,0.12347802734375,-0.06674432754516602,0.32889795303344727,0.12323665618896484
1684109997009519000,0.13351904296875,-0.013622760772705078,0.31081104278564453,-0.13757085800170898
1684109997019560400,0.143560546875,0.13433313369750977,0.32047557830810547,-0.28017663955688477
1684109997029601500,0.1536015625,0.5193829536437988,0.37512826919555664,0.1028904914855957
1684109997039643000,0.163642822265625,0.2906155586242676,0.3940262794494629,0.009729862213134766
1684109997049684200,0.173684326171875,0.12969970703125,1.044924020767212,0.24929475784301758
1684109997059725300,0.183725341796875,-0.5210933685302734,1.3316543102264404,0.34627294540405273
1684109997069766700,0.1937666015625,-0.8962898254394531,0.3624241352081299,0.2419719696044922
1684109997079807700,0.203807861328125,-0.5962462425231934,0.44156646728515625,-0.5985274314880371
1684109997089849000,0.21384912109375,-0.408571720123291,0.05553603172302246,-0.5836944580078125
1684109997099890200,0.22389013671875,-0.12197732925415039,-1.1223506927490234,-0.7919673919677734
1684109997109931500,0.233931640625,0.41466188430786133,-0.028145551681518555,-1.2462677955627441
1684109997119972600,0.24397265625,0.7990188598632812,0.9491066932678223,-0.6969232559204102
1684109997130014000,0.254013916015625,0.33789777755737305,-0.5728561878204346,0.8475642204284668
1684109997140055300,0.26405517578125,-0.2974872589111328,-0.12952613830566406,1.2851958274841309
1684109997150096400,0.274096435546875,-0.6885604858398438,0.42160773277282715,0.6849451065063477
1684109997160137700,0.2841376953125,-0.6774349212646484,0.5721461772918701,0.03514575958251953
1684109997170178800,0.2941787109375,-0.18820571899414062,0.17644906044006348,-0.7225737571716309
1684109997180220200,0.30422021484375,0.012796878814697266,0.07661604881286621,-0.975224494934082
1684109997190261200,0.31426123046875,0.2634263038635254,-0.16465425491333008,-0.6867384910583496
1684109997200302600,0.324302490234375,0.4080624580383301,-0.05576610565185547,-0.7534747123718262
1684109997210343700,0.33434375,0.4794144630432129,0.11507582664489746,-1.7363553047180176
1684109997220385000,0.344385009765625,-0.4332723617553711,-0.9935188293457031,-1.2393321990966797
1684109997230426000,0.354426025390625,-0.14783811569213867,-1.526374340057373,-2.0687155723571777
1684109997240467500,0.364467529296875,0.2278909683227539,-1.1649360656738281,-0.07771635055541992
1684109997250508800,0.3745087890625,0.36118602752685547,-0.5984392166137695,0.5953164100646973
1684109997260550000,0.3845498046875,-0.3798203468322754,-0.08943033218383789,0.8636612892150879
1684109997270591200,0.39459130859375,-1.5238213539123535,-0.1474900245666504,1.1868014335632324
1684109997280632300,0.40463232421875,-1.5707392692565918,-0.22333955764770508,1.014258861541748
1684109997290673700,0.414673583984375,-1.0425407886505127,-0.5176258087158203,0.9656782150268555
1684109997300715000,0.424715087890625,-0.5519375801086426,-0.41711950302124023,0.6573896408081055
1684109997310756000,0.434756103515625,-0.3340771198272705,-0.5852704048156738,0.5565943717956543
1684109997320797400,0.44479736328125,-0.23398804664611816,-0.7699708938598633,0.6071157455444336
1684109997330838500,0.454838623046875,-0.3145411014556885,-0.6181974411010742,0.5125579833984375
1684109997340880000,0.4648798828125,-0.3565220832824707,-0.45070791244506836,0.4828453063964844
1684109997350921000,0.4749208984375,-0.5913863182067871,-0.17769861221313477,0.19899415969848633
1684109997360962300,0.48496240234375,-0.5350933074951172,-0.09800529479980469,0.2930440902709961
1684109997371003600,0.495003662109375,-0.198744535446167,-0.09834909439086914,0.3983135223388672
1684109997381044700,0.505044677734375,0.22902822494506836,-0.07458114624023438,0.25354957580566406
1684109997391086000,0.515086181640625,0.5024034976959229,0.23750567436218262,-0.19277048110961914
1684109997401127200,0.525127197265625,0.7286255359649658,0.3067901134490967,-0.1135721206665039
1684109997411168500,0.53516845703125,0.7008111476898193,0.3374779224395752,-0.0630044937133789
1684109997421209600,0.545209716796875,0.6791572570800781,0.2845168113708496,-0.15266036987304688
1684109997431251000,0.5552509765625,0.7219784259796143,0.28128552436828613,-0.0910940170288086
1684109997441292300,0.565292236328125,0.609201192855835,0.3936436176300049,-0.21827125549316406
1684109997451333400,0.57533349609375,0.25319409370422363,0.5384986400604248,-0.28384876251220703
1684109997461374700,0.585374755859375,0.11922168731689453,0.585625171661377,-0.12941741943359375
1684109997471415800,0.595415771484375,0.12609648704528809,0.7318530082702637,-0.4649372100830078
1684109997481457200,0.60545703125,0.37205004692077637,0.6715457439422607,-0.19135665893554688
1684109997491498200,0.615498291015625,0.48749423027038574,0.31601691246032715,0.32390880584716797
1684109997501539600,0.62553955078125,0.27187085151672363,0.0942525863647461,0.5823783874511719
1684109997511580700,0.63558056640625,0.1520369052886963,0.11504602432250977,0.5817060470581055
1684109997521622000,0.6456220703125,-0.16009008884429932,0.36428165435791016,0.2609577178955078
1684109997531663400,0.655663330078125,-0.3539775609970093,0.27661657333374023,0.2958669662475586
1684109997541704400,0.665704345703125,-0.3626152276992798,0.05424046516418457,0.1995534896850586
1684109997551745800,0.675745849609375,-0.44217240810394287,-0.045236825942993164,-0.037322044372558594
1684109997561787000,0.685786865234375,-0.5904300808906555,-0.17376255989074707,0.038002967834472656
1684109997571828200,0.695828125,-0.7685033082962036,-0.047096967697143555,-0.12394905090332031
1684109997581869300,0.705869384765625,-1.0339308977127075,0.07764148712158203,-0.06346797943115234
1684109997591910700,0.71591064453125,-1.1918489933013916,0.30919718742370605,0.034328460693359375
1684109997601952000,0.725951904296875,-1.2291638851165771,0.10596394538879395,0.4453411102294922
1684109997611993000,0.7359931640625,-1.006791114807129,-0.2673969268798828,0.6911134719848633
1684109997622034400,0.746034423828125,-0.6645795106887817,-0.5278863906860352,0.6611137390136719
1684109997632075500,0.756075439453125,-0.3549313247203827,-0.6198625564575195,0.42232704162597656
1684109997642116900,0.766116943359375,0.03106844425201416,-0.653111457824707,0.28200340270996094
1684109997652158000,0.776157958984375,0.24941933155059814,-0.6196379661560059,0.2689189910888672
1684109997662199300,0.78619921875,0.1784203052520752,-0.5105211734771729,0.2491769790649414
1684109997672240400,0.796240478515625,0.18058475852012634,-0.360306978225708,0.08772945404052734
1684109997682281700,0.80628173828125,0.1898215413093567,-0.13290047645568848,0.12718486785888672
1684109997692323000,0.816322998046875,0.34917211532592773,-0.008757829666137695,0.29106903076171875
1684109997702364200,0.8263642578125,0.27203503251075745,0.06214404106140137,0.2179727554321289
1684109997712405500,0.836405517578125,0.03386417031288147,0.18095612525939941,0.17719745635986328
1684109997722446600,0.846446533203125,-0.1514209508895874,0.207688570022583,0.1126699447631836
1684109997732488000,0.856488037109375,-0.12540456652641296,0.1660289764404297,0.1376485824584961
1684109997742529300,0.866529296875,0.027251213788986206,0.22030305862426758,-0.018622398376464844
1684109997752570400,0.8765703125,0.22474220395088196,0.16727375984191895,-0.26602745056152344
1684109997762611700,0.88661181640625,0.22225022315979004,0.09555268287658691,-0.37648677825927734
1684109997772652800,0.89665283203125,0.2881208062171936,0.025714397430419922,-0.42540836334228516
1684109997782694100,0.906694091796875,0.43535107374191284,0.03734254837036133,-0.5477275848388672
1684109997792735200,0.9167353515625,0.5208844542503357,-0.09107398986816406,-0.38416481018066406
1684109997802776600,0.926776611328125,0.5061067342758179,-0.304013729095459,-0.16736412048339844
1684109997812818000,0.93681787109375,0.3786945343017578,-0.30770063400268555,0.11896038055419922
1684109997822859000,0.94685888671875,0.045687735080718994,-0.04587602615356445,0.19485855102539062
1684109997832900400,0.956900390625,-0.2533339858055115,0.07665777206420898,0.3367443084716797
1684109997842941400,0.96694140625,-0.43189749121665955,0.2601661682128906,0.333984375
1684109997852982800,0.976982666015625,-0.27586764097213745,0.35193490982055664,0.19570446014404297
1684109997863023900,0.98702392578125,0.0803990364074707,0.16799259185791016,0.11595630645751953
1684109997873065200,0.997065185546875,0.32954248785972595,-0.08929443359375,0.15219688415527344
1684109997883106600,1.0071064453125,0.3792753517627716,-0.31807756423950195,0.17362308502197266
1684109997893147600,1.017147705078125,0.4946208596229553,-0.47391748428344727,0.041687965393066406
1684109997903189000,1.02718896484375,0.5552922487258911,-0.4018087387084961,-0.26009082794189453
1684109997913230000,1.03722998046875,0.5644110441207886,-0.369905948638916,-0.29648303985595703
1684109997923271400,1.047271484375,0.5524992346763611,-0.39353227615356445,-0.2239542007446289
1684109997933312800,1.057312744140625,0.4141571521759033,-0.35098791122436523,-0.03176116943359375
1684109997943353900,1.067353759765625,0.3698159456253052,-0.24304485321044922,-0.049358367919921875
1684109997953395200,1.077395263671875,0.12973642349243164,-0.2714996337890625,0.037566184997558594
1684109997963436300,1.087436279296875,0.07530134916305542,-0.42537641525268555,0.27808570861816406
1684109997973477600,1.0974775390625,0.31763625144958496,-0.3789834976196289,0.06100273132324219
1684109997983518700,1.107518798828125,0.39019644260406494,-0.5810647010803223,0.1276998519897461
1684109997993560000,1.11756005859375,0.46138352155685425,-0.4478626251220703,-0.2892723083496094
1684109998003601400,1.127601318359375,0.507310688495636,-0.43149900436401367,-0.30596256256103516
1684109998013642500,1.137642578125,0.518939197063446,-0.365664005279541,-0.18279743194580078
1684109998023683800,1.147683837890625,0.6915276646614075,-0.2935357093811035,0.027733802795410156
1684109998033725000,1.157724853515625,0.7158211469650269,-0.4720168113708496,0.3070192337036133
1684109998043766300,1.167766357421875,0.512308657169342,-0.4768819808959961,0.20055294036865234
1684109998053807400,1.177807373046875,0.4295912981033325,-0.4046816825866699,0.27188682556152344
1684109998063848700,1.1878486328125,0.36946237087249756,-0.4624195098876953,0.49553775787353516
1684109998073890000,1.19789013671875,0.40003758668899536,-0.37346839904785156,0.1911916732788086
1684109998083931100,1.20793115234375,0.3252851963043213,-0.45844507217407227,0.045195579528808594
1684109998093972500,1.217972412109375,0.3707237243652344,-0.5586433410644531,-0.03488349914550781
1684109998104013600,1.228013671875,0.3598635196685791,-0.598412036895752,-0.15192127227783203
1684109998114055000,1.238054931640625,0.26226717233657837,-0.5024909973144531,-0.43265342712402344
1684109998124096300,1.24809619140625,0.17101150751113892,-0.5363254547119141,-0.3468437194824219
1684109998134137300,1.258137451171875,0.08158433437347412,-0.4349327087402344,-0.36898326873779297
1684109998144178700,1.2681787109375,-0.16956955194473267,-0.32527780532836914,-0.4898357391357422
1684109998154219800,1.2782197265625,-0.2359907627105713,-0.3509054183959961,-0.47303104400634766
1684109998164261000,1.28826123046875,0.009862124919891357,-0.04587125778198242,-0.5825762748718262
1684109998174302500,1.298302490234375,0.13177382946014404,0.31658029556274414,-0.8047866821289062
1684109998184343600,1.308343505859375,0.39046353101730347,0.14091825485229492,-0.3786582946777344
1684109998194385000,1.318385009765625,0.5174677968025208,0.272885799407959,0.04044818878173828
1684109998204426000,1.328426025390625,0.4856870174407959,0.40622472763061523,0.6233930587768555
1684109998214467300,1.33846728515625,0.19358736276626587,0.37393951416015625,1.0460138320922852
1684109998224508700,1.3485087890625,0.026414573192596436,0.24658727645874023,0.9986076354980469
1684109998234549800,1.3585498046875,-0.08080393075942993,0.09102630615234375,0.5077610015869141
1684109998244591000,1.368591064453125,-0.33426207304000854,-0.13008832931518555,0.24039554595947266
1684109998254632200,1.378632080078125,-0.5674340724945068,-0.1292400360107422,0.12598705291748047
1684109998264673500,1.388673583984375,-0.4959242641925812,0.49419498443603516,-0.17446231842041016
1684109998274715000,1.39871484375,-0.32881981134414673,1.0962681770324707,-0.2178969383239746
1684109998284756000,1.408755859375,-0.037066519260406494,1.2837481498718262,-0.0022211074829101562
1684109998294797300,1.41879736328125,-0.07539969682693481,0.8932681083679199,0.2706942558288574
1684109998304838400,1.42883837890625,0.2456863522529602,0.16446256637573242,0.7200899124145508
1684109998314879700,1.438879638671875,0.35101306438446045,0.03374528884887695,0.612180233001709
1684109998324921000,1.448921142578125,0.12434101104736328,-0.03322124481201172,0.5009984970092773
1684109998334962200,1.458962158203125,-0.33121931552886963,-0.09978866577148438,0.38220787048339844
1684109998345003500,1.46900341796875,-0.581596851348877,0.35631370544433594,-0.30647754669189453
1684109998355044600,1.479044677734375,-0.891326367855072,0.4863910675048828,-0.30312442779541016
1684109998365086000,1.4890859375,-2.0484204292297363,2.9327621459960938,-0.2750563621520996
1684109998375127300,1.499127197265625,-1.369685411453247,0.23919153213500977,0.4848294258117676
1684109998385168400,1.50916845703125,-0.1723712682723999,-0.872922420501709,0.9447369575500488
1684109998395209700,1.519209716796875,0.28689390420913696,-0.06947565078735352,0.22157716751098633
1684109998405250800,1.529250732421875,0.025694727897644043,-0.27928829193115234,0.11809873580932617
1684109998415292200,1.539292236328125,-0.492203950881958,-0.34059762954711914,-0.2209787368774414
1684109998425333200,1.549333251953125,-0.9312427043914795,-0.19679832458496094,-0.4682483673095703
1684109998435374600,1.55937451171875,-1.2152683734893799,-0.1638011932373047,-0.5632796287536621
1684109998445416000,1.569416015625,-1.2614121437072754,0.09680604934692383,-0.29238414764404297
1684109998455457000,1.57945703125,-1.0186620950698853,-0.058207035064697266,0.377166748046875
1684109998465498400,1.589498291015625,-0.8158180713653564,-0.18591022491455078,0.8847923278808594
1684109998475539500,1.59953955078125,-0.595150887966156,0.10696840286254883,0.8013968467712402
1684109998485580800,1.609580810546875,-0.2038595974445343,-0.02279520034790039,0.8918600082397461
1684109998495622100,1.6196220703125,0.6814314126968384,-0.26331567764282227,1.019413948059082
1684109998505663200,1.629663330078125,-0.19916552305221558,-0.31487083435058594,0.2701535224914551
1684109998515704600,1.63970458984375,-0.07861793041229248,-0.038242340087890625,0.410703182220459
1684109998525745700,1.64974560546875,0.06920123100280762,0.1764087677001953,0.22325563430786133
1684109998535787000,1.659787109375,0.033330678939819336,-0.20098543167114258,0.1433887481689453
1684109998545828400,1.669828369140625,0.11135214567184448,-0.1577281951904297,0.2298264503479004
1684109998555869400,1.679869384765625,0.30944186449050903,0.17005538940429688,0.3647341728210449
1684109998565910800,1.689910888671875,0.5318627953529358,0.34023427963256836,0.5623588562011719
1684109998575952000,1.699951904296875,0.5304024815559387,0.36379480361938477,0.6946125030517578
1684109998585993200,1.7099931640625,0.3881286382675171,0.6358351707458496,0.7396364212036133
1684109998596034600,1.72003466796875,0.07524991035461426,0.8815069198608398,0.7744312286376953
1684109998606075600,1.73007568359375,-0.24144265055656433,0.9173030853271484,0.7558531761169434
1684109998616117000,1.740116943359375,-0.3901158273220062,1.1175613403320312,0.5859875679016113
1684109998626158000,1.750157958984375,-0.337372362613678,1.265665054321289,0.7425751686096191
1684109998636199400,1.760199462890625,-0.06862348318099976,1.3280086517333984,0.7756834030151367
1684109998646240800,1.77024072265625,0.1987539529800415,1.0291271209716797,0.6855850219726562
1684109998656281900,1.78028173828125,0.6932766437530518,1.036376953125,0.5281109809875488
1684109998666323200,1.7903232421875,0.8230369091033936,0.9675698280334473,0.43091535568237305
1684109998676364300,1.8003642578125,0.6864354014396667,0.9761276245117188,0.5234007835388184
1684109998686405600,1.810405517578125,0.5731423497200012,0.8458833694458008,0.6361212730407715
1684109998696447000,1.820447021484375,0.6217096447944641,0.7190303802490234,0.5954017639160156
1684109998706488000,1.830488037109375,0.8359422087669373,0.6695775985717773,0.5541229248046875
1684109998716529400,1.840529296875,1.0332717895507812,0.19270944595336914,0.48176002502441406
1684109998726570500,1.850570556640625,1.1465073823928833,0.5105862617492676,0.2903141975402832
1684109998736611800,1.86061181640625,1.0703551769256592,0.31594038009643555,0.5902004241943359
1684109998746653200,1.870653076171875,0.9300879240036011,0.46274757385253906,0.958038330078125
1684109998756694300,1.8806943359375,0.5269795656204224,0.6383833885192871,1.582033634185791
1684109998766735600,1.890735595703125,-0.15574514865875244,1.2596735954284668,1.6565032005310059
1684109998776776700,1.900776611328125,-0.7329747080802917,1.2573151588439941,1.3007268905639648
1684109998786818000,1.910818115234375,-0.4421369731426239,0.5139656066894531,0.6127023696899414
1684109998796859400,1.920859375,-0.24035406112670898,0.3825254440307617,-0.09966135025024414
1684109998806900500,1.930900390625,-0.23471160233020782,0.39260292053222656,-0.4033088684082031
1684109998816941800,1.94094189453125,-0.34012314677238464,0.3935565948486328,-0.41970205307006836
1684109998826983200,1.950983154296875,-0.6224526166915894,1.4503378868103027,-1.0312190055847168
1684109998837024300,1.961024169921875,-0.95939040184021,0.6700916290283203,-0.7775626182556152
1684109998847065600,1.971065673828125,-1.1080567836761475,-0.15141630172729492,-0.5412921905517578
1684109998857106700,1.981106689453125,-0.9577881097793579,-0.47779369354248047,-0.3547964096069336
1684109998867148000,1.99114794921875,-0.4310438632965088,0.01316213607788086,0.004622936248779297
1684109998877189400,2.001189453125,-0.1319080889225006,0.1050572395324707,-0.1739497184753418
1684109998887230500,2.01123046875,-0.1126449853181839,-0.32489871978759766,0.268373966217041
1684109998897271800,2.021271728515625,-0.016552716493606567,-0.6181511878967285,0.3642845153808594
1684109998907313000,2.03131298828125,-0.12744492292404175,-1.0050458908081055,0.6792473793029785
1684109998917354200,2.041354248046875,-0.35402512550354004,-1.248319149017334,0.692072868347168
1684109998927395300,2.051395263671875,-0.6066029071807861,-1.3521232604980469,0.3347597122192383
1684109998937436700,2.061436767578125,-0.6508047580718994,-1.5600595474243164,-0.17119169235229492
1684109998947478000,2.07147802734375,-0.607835590839386,-1.8148036003112793,-0.4893355369567871
1684109998957519000,2.08151904296875,-0.5544100403785706,-2.099245071411133,-0.3986024856567383
1684109998967560400,2.091560546875,-0.6108728051185608,-1.8506269454956055,0.26442432403564453
1684109998977601800,2.101601806640625,-0.08303922414779663,-1.3064451217651367,-0.2687664031982422
1684109998987643000,2.111642822265625,0.198266863822937,-1.1462430953979492,-0.5465078353881836
1684109998997684200,2.121684326171875,0.010898351669311523,-1.20463228225708,-0.21175098419189453
1684109999007725600,2.1317255859375,-0.2244246006011963,-0.9698963165283203,-0.433011531829834
1684109999017766700,2.1417666015625,-0.4930853843688965,-0.7359685897827148,-0.40596961975097656
1684109999027808000,2.15180810546875,-0.7034295797348022,-0.5772542953491211,-0.6002583503723145
1684109999037849000,2.16184912109375,-1.1945714950561523,-0.6818342208862305,-1.1833553314208984
1684109999047890400,2.171890380859375,-1.0726852416992188,-0.7520599365234375,-1.3883600234985352
1684109999057931800,2.181931884765625,-0.7234221696853638,-0.7173819541931152,-1.256030559539795
1684109999067972900,2.191972900390625,-0.4715452194213867,-0.8185076713562012,-1.2152605056762695
1684109999078014200,2.20201416015625,-0.5828965902328491,-0.9103379249572754,-0.9948205947875977
1684109999088055300,2.21205517578125,-0.9067929983139038,-0.42466068267822266,-0.8102540969848633
1684109999098096600,2.2220966796875,-0.6970654726028442,-0.8681354522705078,-0.35771608352661133
1684109999108137700,2.2321376953125,-0.19534826278686523,-1.0191097259521484,-0.18396854400634766
1684109999118179000,2.242178955078125,0.1540299654006958,-1.0743565559387207,-0.8285093307495117
1684109999128220400,2.252220458984375,0.4287121295928955,-1.6057181358337402,-1.510267734527588
1684109999138261500,2.262261474609375,0.759675145149231,-1.7976269721984863,-1.699007511138916
1684109999148302800,2.272302734375,0.855982780456543,-1.6173014640808105,-1.6041126251220703
1684109999158344200,2.28234423828125,0.795683741569519,-1.056732177734375,-0.7994685173034668
1684109999168385300,2.29238525390625,0.6577825546264648,-0.45461463928222656,-0.4048452377319336
1684109999178426600,2.302426513671875,0.6222643852233887,-0.253420352935791,-0.24855995178222656
1684109999188468000,2.312468017578125,0.609557032585144,-0.18703317642211914,-0.1755967140197754
1684109999198509000,2.322509033203125,0.596381425857544,-0.2510828971862793,-0.24266529083251953
1684109999208550400,2.33255029296875,0.7862527370452881,-0.20969629287719727,-0.3184046745300293
1684109999218591500,2.342591552734375,0.8112555742263794,0.3631620407104492,-0.18430185317993164
1684109999228632800,2.3526328125,0.5804517269134521,-0.3619809150695801,-0.8254876136779785
1684109999238674200,2.362674072265625,0.6383814811706543,-0.31273889541625977,-1.0896968841552734
1684109999248715300,2.37271533203125,0.6714109182357788,-0.3566727638244629,-1.0704751014709473
1684109999258756600,2.382756591796875,0.6836622953414917,-0.05172443389892578,-1.3975868225097656
1684109999268797700,2.392797607421875,0.761975884437561,0.2510643005371094,-1.4554944038391113
1684109999278839000,2.402839111328125,0.6920908689498901,0.6709833145141602,-1.6679353713989258
1684109999288880400,2.41288037109375,0.26256024837493896,0.45585155487060547,-1.8071656227111816
1684109999298921500,2.42292138671875,0.15639948844909668,0.4613165855407715,-1.7545342445373535
1684109999308962800,2.432962890625,0.21755623817443848,0.5254435539245605,-1.5459370613098145
1684109999319004200,2.443004150390625,0.17533588409423828,0.4367542266845703,-1.1914434432983398
1684109999329045200,2.453045166015625,0.1593782901763916,0.2900099754333496,-0.8174920082092285
1684109999339086600,2.463086669921875,0.11360692977905273,0.15876197814941406,-0.31552982330322266
1684109999349127700,2.473127685546875,0.05054068565368652,-0.10941314697265625,0.10508012771606445
1684109999359169000,2.4831689453125,-0.05821728706359863,-0.3319740295410156,0.5556626319885254
1684109999369210400,2.49321044921875,-0.14887022972106934,0.008939266204833984,0.6977128982543945
1684109999379251500,2.50325146484375,-0.3701670169830322,0.1158747673034668,0.5580544471740723
1684109999389292800,2.513292724609375,-0.4991140365600586,0.20336389541625977,0.27725648880004883
1684109999399334000,2.523333984375,-0.41185903549194336,0.2548947334289551,0.09971857070922852
1684109999409375200,2.533375244140625,-0.31128835678100586,-0.04366159439086914,0.06956148147583008
1684109999419416600,2.54341650390625,-0.24974346160888672,0.10968017578125,-0.12761306762695312
1684109999429457700,2.553457763671875,-0.22324728965759277,0.14087724685668945,-0.10462570190429688
1684109999439499000,2.5634990234375,-0.07816791534423828,0.15661191940307617,0.04560041427612305
1684109999449540400,2.573540283203125,-0.08856916427612305,0.2350625991821289,0.012040138244628906
1684109999459581400,2.58358154296875,0.38465213775634766,-0.17130184173583984,0.15595102310180664
1684109999469622800,2.593622802734375,0.6138706207275391,-0.14197969436645508,0.49885988235473633
1684109999479663900,2.603663818359375,0.32829809188842773,0.15353822708129883,0.5997133255004883
1684109999489705200,2.613705322265625,0.039427995681762695,0.3667488098144531,0.6600122451782227
1684109999499746600,2.62374658203125,-0.3341665267944336,0.5741310119628906,0.6716866493225098
1684109999509787600,2.63378759765625,-0.6988673210144043,0.7196044921875,0.31559181213378906
1684109999519829000,2.6438291015625,-0.8467741012573242,0.7046914100646973,0.06780004501342773
1684109999529870300,2.653870361328125,-0.8536605834960938,0.7821393013000488,-0.13671159744262695
1684109999539911400,2.663911376953125,-0.8208730220794678,0.6852984428405762,-0.35938453674316406
1684109999549952800,2.673952880859375,-0.5142464637756348,0.6759209632873535,-0.5311794281005859
1684109999559994000,2.683994140625,-0.2518646717071533,0.9362034797668457,-0.55694580078125
1684109999570035200,2.69403515625,-0.19266939163208008,0.9715981483459473,-0.48109006881713867
1684109999580076500,2.70407666015625,-0.3841259479522705,1.1358304023742676,-0.49934816360473633
1684109999590117600,2.71411767578125,-0.7481167316436768,1.1865744590759277,-0.4815201759338379
1684109999600159000,2.724158935546875,-1.1015698909759521,0.8130693435668945,-0.3808445930480957
1684109999610200300,2.734200439453125,-0.9456586837768555,0.2270355224609375,-0.37656402587890625
1684109999620241400,2.744241455078125,-0.7587184906005859,0.04861879348754883,-0.3457345962524414
1684109999630282800,2.75428271484375,-0.7515490055084229,0.0019326210021972656,-0.3835902214050293
1684109999640323800,2.76432373046875,-0.7726404666900635,-0.04637575149536133,-0.3328413963317871
1684109999650365200,2.774365234375,-0.8265650272369385,-0.035239219665527344,-0.4725189208984375
1684109999660406500,2.784406494140625,-0.7710046768188477,-0.17817401885986328,-0.6732573509216309
1684109999670447600,2.794447509765625,-0.739851713180542,-0.4078097343444824,-0.6829180717468262
1684109999680489000,2.804489013671875,-0.7539470195770264,-0.48544931411743164,-0.7305765151977539
1684109999690530300,2.8145302734375,-0.7316036224365234,-0.43792104721069336,-0.6807065010070801
1684109999700571400,2.8245712890625,-0.6195108890533447,-0.3217129707336426,-0.49167394638061523
1684109999710612700,2.83461279296875,-0.49344801902770996,-0.2207503318786621,-0.3567771911621094
1684109999720653800,2.84465380859375,-0.1656184196472168,0.038580894470214844,-0.13239383697509766
1684109999730695200,2.854695068359375,-0.11654996871948242,-0.17491769790649414,0.2745089530944824
1684109999740736500,2.864736572265625,-0.15886926651000977,-0.3405284881591797,0.5713834762573242
1684109999750777600,2.874777587890625,-0.24787020683288574,-0.5703868865966797,0.8453874588012695
1684109999760819000,2.88481884765625,-0.26439952850341797,-0.5093784332275391,1.2115306854248047
1684109999770860300,2.8948603515625,-0.3832225799560547,-0.2129993438720703,1.3560333251953125
1684109999780901400,2.9049013671875,-0.5626778602600098,-0.053742408752441406,1.217881202697754
1684109999790942700,2.914942626953125,-0.7205691337585449,0.2928915023803711,0.8980884552001953
1684109999800984000,2.924984130859375,-0.8802001476287842,0.5307197570800781,0.5659775733947754
1684109999811025200,2.935025146484375,-1.1366162300109863,0.3309898376464844,0.911308765411377
1684109999821066500,2.94506640625,-1.4667859077453613,0.24397945404052734,1.3674383163452148
1684109999831107600,2.955107666015625,-1.874049425125122,0.1971426010131836,1.78314208984375
1684109999841149000,2.96514892578125,-2.0490055084228516,0.005612373352050781,1.9767675399780273
1684109999851190300,2.975190185546875,-1.900602102279663,-0.15265846252441406,2.016996383666992
1684109999861231400,2.9852314453125,-1.5565991401672363,-0.39767932891845703,1.8644590377807617
1684109999871272700,2.995272705078125,-1.3995072841644287,-0.5720787048339844,1.5278992652893066
1684109999881314000,3.00531396484375,-1.2993857860565186,1.2197751998901367,0.5115818977355957
1684109999891355100,3.015355224609375,-1.7437586784362793,-0.23123741149902344,-0.647336483001709
1684109999901396500,3.025396484375,-1.2573484182357788,-0.25708675384521484,-1.1747188568115234
1684109999911437600,3.0354375,-0.9109600782394409,0.033644676208496094,-1.6812291145324707
1684109999921479000,3.04547900390625,-0.6595087051391602,0.14164257049560547,-2.08963680267334
1684109999931520300,3.055520263671875,-0.35341501235961914,0.10572433471679688,-2.216845989227295
1684109999941561300,3.065561279296875,-0.2159360647201538,0.21732425689697266,-2.4157822132110596
1684109999951602700,3.075602783203125,-0.3496345281600952,0.057496070861816406,-2.3598666191101074
1684109999961644000,3.08564404296875,-0.4651414155960083,-0.119110107421875,-2.1167657375335693
1684109999971685000,3.09568505859375,-0.4042609930038452,-0.15468120574951172,-1.6607537269592285
1684109999981726500,3.1057265625,-0.20829153060913086,-0.33855533599853516,-1.0524072647094727
1684109999991767800,3.115767822265625,0.15873098373413086,-0.4523591995239258,-0.6074275970458984
1684110000001809000,3.125808837890625,0.6076849699020386,-0.5600795745849609,-0.3021574020385742
1684110000011850200,3.135850341796875,0.9488182663917542,-0.3612375259399414,-0.15601348876953125
1684110000021891300,3.145891357421875,1.2154033184051514,-0.18232059478759766,-0.21396541595458984
1684110000031932700,3.1559326171875,1.356183409690857,-0.11796283721923828,-0.33129358291625977
1684110000041974000,3.16597412109375,1.5066276788711548,-0.15687084197998047,-0.39820432662963867
1684110000052015000,3.17601513671875,1.5541331768035889,-0.2509927749633789,-0.44402599334716797
1684110000062056400,3.186056396484375,1.4974126815795898,-0.28464603424072266,-0.1635422706604004
1684110000072097800,3.196097900390625,1.4204827547073364,-0.24868202209472656,0.10094404220581055
1684110000082139000,3.206138916015625,1.2699109315872192,-0.3615427017211914,0.36915111541748047
1684110000092180200,3.21618017578125,1.090378761291504,-0.3289642333984375,0.4583907127380371
1684110000102221600,3.2262216796875,0.8356262445449829,-0.15285682678222656,0.6184248924255371
1684110000112262700,3.2362626953125,0.33575958013534546,-0.04971885681152344,0.34658241271972656
1684110000122304000,3.246303955078125,-0.08431738615036011,-0.12093544006347656,-0.03575563430786133
1684110000132345000,3.256344970703125,-0.351631760597229,-0.30972862243652344,-0.3658566474914551
1684110000142386400,3.266386474609375,-0.40658241510391235,-0.35817623138427734,-0.5322971343994141
1684110000152427800,3.276427734375,-0.35486507415771484,-0.24598312377929688,-0.7998056411743164
1684110000162468900,3.28646875,-0.29872721433639526,-0.1925649642944336,-1.1506478786468506
1684110000172510200,3.29651025390625,-0.21918749809265137,-0.178314208984375,-1.3192188739776611
1684110000182551600,3.306551513671875,-0.12207531929016113,-0.17213058471679688,-1.3470182418823242
1684110000192592600,3.316592529296875,-0.14049893617630005,-0.10244369506835938,-1.2253527641296387
1684110000202634000,3.326634033203125,-0.14634424448013306,-0.19125652313232422,-1.0667304992675781
1684110000212675000,3.336675048828125,-0.15587791800498962,-0.2365398406982422,-0.744868278503418
1684110000222716400,3.34671630859375,-0.26516100764274597,0.09893035888671875,-1.1781606674194336
1684110000232757800,3.3567578125,0.023783951997756958,-0.17899608612060547,-0.9676642417907715
1684110000242798800,3.366798828125,-0.018781989812850952,-0.12682723999023438,-0.8479170799255371
1684110000252840200,3.376840087890625,0.003676891326904297,-0.018752098083496094,-1.0217790603637695
1684110000262881500,3.386881591796875,0.07130792737007141,-0.040203094482421875,-0.854163646697998
1684110000272922600,3.396922607421875,0.25420641899108887,0.11402034759521484,-0.5741856098175049
1684110000282964000,3.4069638671875,0.45151519775390625,0.3186788558959961,-0.36238861083984375
1684110000293005300,3.41700537109375,0.581042468547821,0.33525657653808594,-0.22746753692626953
1684110000303046400,3.42704638671875,0.8678017854690552,0.4056129455566406,-0.12105083465576172
1684110000313087700,3.437087646484375,0.9532216191291809,0.27971458435058594,-0.17285442352294922
1684110000323128800,3.44712890625,1.0606616735458374,0.0731964111328125,-0.07823467254638672
1684110000333170200,3.457170166015625,1.2782576084136963,0.026828765869140625,0.1422262191772461
1684110000343211500,3.46721142578125,1.4632898569107056,-0.17847824096679688,0.509824275970459
1684110000353252900,3.4772529296875,1.6526449918746948,-0.30515193939208984,0.9826960563659668
1684110000363294000,3.4872939453125,1.5606920719146729,-0.30744075775146484,1.2058968544006348
1684110000373335300,3.497335205078125,1.3358733654022217,-0.14393234252929688,1.3136224746704102
1684110000383376400,3.50737646484375,1.0952845811843872,0.06337547302246094,1.2683672904968262
1684110000393417700,3.517417724609375,0.8127285242080688,0.21947765350341797,0.9929838180541992
1684110000403459000,3.527458984375,0.4956601560115814,0.33054542541503906,0.5264787673950195
1684110000413500200,3.537500244140625,0.23935262858867645,0.31075572967529297,-0.030188560485839844
1684110000423541500,3.54754150390625,0.37029626965522766,0.3110809326171875,-0.3538084030151367
1684110000433582800,3.557582763671875,0.6024370193481445,0.3365974426269531,-0.2985384464263916
1684110000443624000,3.5676240234375,0.6147436499595642,0.333251953125,-0.09517478942871094
1684110000453665300,3.577665283203125,0.6579960584640503,0.6192827224731445,0.15433931350708008
1684110000463706600,3.58770654296875,0.5029387474060059,0.3339881896972656,0.007287025451660156
1684110000473747700,3.597747802734375,0.6318313479423523,0.4344663619995117,0.13212060928344727
1684110000483789000,3.6077890625,0.4981561303138733,0.21199512481689453,-0.004062175750732422
1684110000493830100,3.617830078125,0.5148205757141113,0.36672306060791016,-0.10988950729370117
1684110000503871500,3.62787158203125,0.631460964679718,0.5328397750854492,-0.1198720932006836
1684110000513912800,3.637912841796875,0.5579720735549927,0.6149072647094727,-0.15109515190124512
1684110000523954200,3.6479541015625,0.30453354120254517,0.5892353057861328,-0.29673314094543457
1684110000533995300,3.657995361328125,0.006452038884162903,0.22522354125976562,-0.4760150909423828
1684110000544036600,3.66803662109375,-0.057825811207294464,-0.3197469711303711,-0.49231505393981934
1684110000554077700,3.67807763671875,-0.025037281215190887,-0.8244800567626953,-0.4006195068359375
1684110000564119000,3.688119140625,0.13058553636074066,-0.9199428558349609,0.11910319328308105
1684110000574160400,3.698160400390625,0.1660640835762024,-0.7951908111572266,0.6867218017578125
1684110000584201500,3.708201416015625,0.05664374306797981,-0.8400564193725586,1.131148338317871
1684110000594242800,3.718242919921875,0.0021292120218276978,-0.7427959442138672,1.44866943359375
1684110000604284200,3.7282841796875,-0.11351409554481506,-0.7690343856811523,1.4788007736206055
1684110000614325200,3.7383251953125,-0.10744411498308182,-0.784296989440918,1.366487741470337
1684110000624366600,3.74836669921875,-0.02044812962412834,-0.6854000091552734,1.316347360610962
1684110000634407700,3.75840771484375,0.04952539876103401,-0.49800682067871094,1.1156394481658936
1684110000644449000,3.768448974609375,0.0069285291247069836,-0.4214820861816406,0.7231857776641846
1684110000654490400,3.778490478515625,-0.3008505403995514,-0.04337310791015625,0.21027827262878418
1684110000664531700,3.78853173828125,-0.5554548501968384,0.05113983154296875,0.09459638595581055
1684110000674572800,3.79857275390625,-0.6468813419342041,0.15681743621826172,0.23269367218017578
1684110000684614100,3.8086142578125,-0.6570494771003723,0.22297191619873047,0.4196152687072754
1684110000694655200,3.8186552734375,-0.6767458915710449,0.3301992416381836,0.6128110885620117
1684110000704696600,3.828696533203125,-0.6392093896865845,0.43041515350341797,0.735274076461792
1684110000714738000,3.838738037109375,-0.7075363397598267,0.5785055160522461,0.7273809909820557
1684110000724779000,3.848779052734375,-0.7112748026847839,0.48506641387939453,0.8248820304870605
1684110000734820400,3.8588203125,-0.5000888705253601,0.5346879959106445,0.9162917137145996
1684110000744861700,3.86886181640625,-0.1706816554069519,0.5388584136962891,0.9218471050262451
1684110000754902800,3.87890283203125,0.054631464183330536,0.5577316284179688,1.0123693943023682
1684110000764944100,3.888944091796875,0.20706303417682648,0.5291738510131836,1.1423468589782715
1684110000774985500,3.8989853515625,0.18468943238258362,0.4795808792114258,1.3093523979187012
1684110000785026600,3.909026611328125,-0.02188863605260849,0.48687076568603516,1.5701885223388672
1684110000795068000,3.91906787109375,-0.1964268684387207,0.46426868438720703,1.7076294422149658
1684110000805109200,3.929109130859375,-0.18153783679008484,0.5247316360473633,1.6450536251068115
1684110000815150300,3.939150390625,-0.07064172625541687,0.5845794677734375,1.672203540802002
1684110000825191700,3.949191650390625,0.04625388979911804,0.6576690673828125,1.6297104358673096
1684110000835233000,3.95923291015625,0.17582929134368896,0.7250251770019531,1.5038726329803467
1684110000845274000,3.969274169921875,0.30544233322143555,0.5462121963500977,1.4404654502868652
1684110000855315500,3.9793154296875,0.23733876645565033,0.4434337615966797,1.3916590213775635
1684110000865356500,3.9893564453125,0.008413150906562805,0.3309288024902344,1.1985197067260742
1684110000875398000,3.99939794921875,-0.02495788037776947,0.4022197723388672,1.1742899417877197
1684110000885439200,4.009439208984375,0.058986470103263855,0.2451915740966797,1.1773509979248047
1684110000895480600,4.01948046875,0.025833219289779663,0.2951927185058594,1.0409152507781982
1684110000905521700,4.029521728515625,-0.12527057528495789,0.3994741439819336,0.8746440410614014
1684110000915563000,4.03956298828125,-0.2864370346069336,0.3935060501098633,0.6344549655914307
1684110000925604000,4.04960400390625,-0.4195951819419861,0.45241832733154297,0.4032456874847412
1684110000935645400,4.0596455078125,-0.4483188986778259,0.31017398834228516,0.42697596549987793
1684110000945686800,4.069686767578125,-0.14974644780158997,0.43554115295410156,0.2980387210845947
1684110000955728000,4.079727783203125,0.18235164880752563,-0.33188819885253906,0.43393492698669434
1684110000965769200,4.089769287109375,0.7151610255241394,-0.6937465667724609,0.4570138454437256
1684110000975810600,4.099810546875,0.711082935333252,-0.7047319412231445,0.4109044075012207
1684110000985851600,4.1098515625,0.1847841739654541,-0.7093687057495117,0.5014338493347168
1684110000995893000,4.11989306640625,-0.06580835580825806,-0.9639520645141602,0.5985510349273682
1684110001005934300,4.129934326171875,0.18803098797798157,-1.0792665481567383,0.7647299766540527
1684110001015975400,4.139975341796875,0.620313286781311,-1.4601526260375977,0.8513422012329102
1684110001026016800,4.150016845703125,1.3569414615631104,-0.8608331680297852,0.7284834384918213
1684110001036058000,4.16005810546875,1.417569875717163,-0.6135692596435547,1.1010854244232178
1684110001046099200,4.17009912109375,1.0341788530349731,-0.4319276809692383,1.1474189758300781
1684110001056140500,4.180140625,0.4479949474334717,-0.25864219665527344,0.8811032772064209
1684110001066182000,4.190181884765625,-0.018520712852478027,-0.3091773986816406,0.8423535823822021
1684110001076223000,4.200222900390625,-0.1835399568080902,-0.12204456329345703,0.8871190547943115
1684110001086264300,4.210264404296875,-0.39820146560668945,-0.020119667053222656,0.9178435802459717
1684110001096305700,4.2203056640625,-0.6780316233634949,-0.012445449829101562,0.8852057456970215
1684110001106346800,4.2303466796875,-0.9983854293823242,0.1710672378540039,0.8556637763977051
1684110001116388000,4.24038818359375,-1.2589279413223267,0.29828357696533203,0.6495413780212402
1684110001126429200,4.25042919921875,-1.4003736972808838,0.42977237701416016,0.4323582649230957
1684110001136470500,4.260470458984375,-1.3729064464569092,0.5949029922485352,0.4408845901489258
1684110001146512000,4.270511962890625,-1.1605809926986694,0.5352964401245117,0.7165219783782959
1684110001156553200,4.28055322265625,-0.862565815448761,0.6901655197143555,0.7838191986083984
1684110001166594300,4.29059423828125,-0.6931456327438354,0.7912788391113281,0.7121713161468506
1684110001176635600,4.3006357421875,-0.7536905407905579,0.6955776214599609,0.5045325756072998
1684110001186676700,4.3106767578125,-0.7667543292045593,0.8474416732788086,0.3109145164489746
1684110001196718000,4.320718017578125,-0.7316720485687256,0.6827297210693359,0.05343198776245117
1684110001206759400,4.330759521484375,-0.6207976937294006,0.44390392303466797,-0.2847275733947754
1684110001216800800,4.34080078125,-0.11885444819927216,1.3582515716552734,-0.4104430675506592
1684110001226841900,4.350841796875,0.7950794696807861,3.770555019378662,1.0676443576812744
1684110001236883200,4.36088330078125,-0.5211001634597778,0.30188941955566406,1.045278549194336
1684110001246924300,4.37092431640625,-1.1037410497665405,-1.1886825561523438,0.4561154842376709
1684110001256965600,4.380965576171875,-1.3355720043182373,-1.0250844955444336,0.006960391998291016
1684110001267007000,4.391007080078125,-1.6144440174102783,-0.9911041259765625,-0.8241331577301025
1684110001277048000,4.401048095703125,-1.3332208395004272,-0.5886812210083008,-0.8597118854522705
1684110001287089400,4.41108935546875,-0.907817006111145,-0.40910816192626953,-1.0959420204162598
1684110001297130800,4.421130859375,-0.3981453776359558,-0.0992136001586914,-1.300767183303833
1684110001307171800,4.431171875,-0.11217468976974487,-0.5251169204711914,-1.2072491645812988
1684110001317213200,4.441213134765625,-0.09139001369476318,-0.9748344421386719,-1.3209664821624756
1684110001327254500,4.451254638671875,-0.1902700662612915,-1.2184724807739258,-1.3876891136169434
1684110001337295600,4.461295654296875,-0.23684537410736084,-1.2410430908203125,-1.2486701011657715
1684110001347337000,4.4713369140625,-0.1408700942993164,-1.0413904190063477,-1.0393366813659668
1684110001357378300,4.48137841796875,0.10270082950592041,-0.7494344711303711,-1.1307001113891602
1684110001367419400,4.49141943359375,0.411953330039978,-0.5207538604736328,-1.3287580013275146
1684110001377460700,4.501460693359375,0.753416121006012,-0.7315435409545898,-1.4846296310424805
1684110001387502000,4.511502197265625,1.4663221836090088,-0.7778873443603516,-1.162628173828125
1684110001397543200,4.521543212890625,1.0979585647583008,-0.9183254241943359,-0.4019777774810791
1684110001407584500,4.53158447265625,-0.7370901107788086,-1.0660467147827148,0.10054945945739746
1684110001417625900,4.5416259765625,-1.089064598083496,-0.8787965774536133,0.34756946563720703
1684110001427667000,4.5516669921875,-1.0560728311538696,-0.5106849670410156,0.47841691970825195
1684110001437708300,4.561708251953125,-0.7622534036636353,-0.21442604064941406,0.5477924346923828
1684110001447749600,4.57174951171875,-0.24064898490905762,0.0696249008178711,0.3876643180847168
1684110001457790700,4.581790771484375,0.42232632637023926,0.6198139190673828,0.04125022888183594
1684110001467832000,4.59183203125,0.8782702684402466,0.9438090324401855,-0.34361886978149414
1684110001477873400,4.601873291015625,1.0621486902236938,1.4873895645141602,-0.7269680500030518
1684110001487914500,4.61191455078125,1.2389907836914062,1.9662275314331055,-0.9460330009460449
1684110001497955800,4.621955810546875,1.2316795587539673,1.8710103034973145,-1.0198612213134766
1684110001507997200,4.6319970703125,1.147560715675354,0.6469192504882812,-0.8026647567749023
1684110001518038300,4.642038330078125,1.1217702627182007,-0.20573902130126953,-0.5294399261474609
1684110001528079600,4.65207958984375,1.0516334772109985,-0.5255880355834961,-0.13636088371276855
1684110001538121000,4.662120849609375,0.7873454093933105,-0.30106449127197266,0.008762598037719727
1684110001548162000,4.672162109375,0.549793004989624,0.10306453704833984,0.038155555725097656
1684110001558203400,4.682203369140625,0.34412670135498047,0.30801963806152344,-0.2634768486022949
1684110001568244700,4.69224462890625,0.13602375984191895,0.3609781265258789,-0.5372135639190674
1684110001578285800,4.702285888671875,-0.13605761528015137,0.2030181884765625,-0.7271392345428467
1684110001588327200,4.7123271484375,-0.3744792938232422,0.0921010971069336,-0.7641348838806152
1684110001598368500,4.722368408203125,-0.5104513168334961,0.3240947723388672,-0.7216842174530029
1684110001608409600,4.73240966796875,-0.5130195617675781,0.5017004013061523,-0.5267176628112793
1684110001618451000,4.742450927734375,-0.47370457649230957,0.27851200103759766,-0.3341562747955322
1684110001628492300,4.7524921875,-0.3606698513031006,-0.05147075653076172,-0.10204434394836426
1684110001638533400,4.762533447265625,-0.14963555335998535,-0.2875556945800781,0.09866452217102051
1684110001648574700,4.77257470703125,-0.003493785858154297,-0.2928628921508789,0.10604453086853027
1684110001658616000,4.782615966796875,0.037735700607299805,-0.18368148803710938,0.010453462600708008
1684110001668657200,4.7926572265625,-0.01054525375366211,0.09790897369384766,-0.015057563781738281
1684110001678698500,4.802698486328125,-0.033614158630371094,0.12487983703613281,-0.20286035537719727
1684110001688739800,4.81273974609375,0.06805849075317383,0.4644498825073242,-0.25075602531433105
1684110001698781000,4.822781005859375,0.03766822814941406,0.7133727073669434,-0.30173301696777344
1684110001708822300,4.832822265625,-0.16083431243896484,0.7103323936462402,-0.345660924911499
1684110001718863600,4.842863525390625,-0.09289264678955078,0.7004966735839844,-0.29689669609069824
1684110001728904700,4.85290478515625,0.08871722221374512,0.8721156120300293,-0.145219087600708
1684110001738946000,4.862946044921875,0.2167830467224121,1.0833334922790527,-0.09815073013305664
1684110001748987400,4.8729873046875,0.2680375576019287,1.4287891387939453,0.39008021354675293
1684110001759028500,4.883028564453125,0.27184152603149414,1.2800679206848145,0.6189262866973877
1684110001769069800,4.89306982421875,0.37369608879089355,0.6481723785400391,0.7325534820556641
1684110001779111200,4.903111083984375,0.6724936962127686,0.5222082138061523,0.9109013080596924
1684110001789152300,4.91315234375,0.9354047775268555,0.8299999237060547,1.2082483768463135
1684110001799193600,4.923193603515625,0.8684561252593994,1.0145635604858398,1.25657320022583
1684110001809235000,4.93323486328125,0.6696326732635498,0.9660992622375488,1.296358585357666
1684110001819276000,4.943276123046875,0.32878708839416504,0.5865421295166016,1.347806692123413
1684110001829317400,4.9533173828125,0.319047212600708,0.5644693374633789,1.3514480590820312
1684110001839358700,4.963358642578125,0.22869491577148438,0.43521690368652344,1.2545642852783203
1684110001849399800,4.97339990234375,0.09210395812988281,0.37627124786376953,1.1408677101135254
1684110001859441200,4.983441162109375,-0.09316539764404297,0.2682781219482422,1.0788919925689697
1684110001869482500,4.993482421875,-0.2868382930755615,0.2382192611694336,1.1800541877746582
1684110001879523600,5.003523681640625,-0.43186044692993164,0.20962142944335938,1.1797127723693848
1684110001889565000,5.01356494140625,-0.43863868713378906,0.16796398162841797,1.002225399017334
1684110001899606300,5.023606201171875,-0.3469529151916504,0.1857900619506836,0.7041738033294678
1684110001909647400,5.0336474609375,-0.31311678886413574,0.2903156280517578,0.3356814384460449
1684110001919688700,5.043688720703125,-0.3427236080169678,0.25092601776123047,-0.08157825469970703
1684110001929730000,5.05372998046875,-0.4680495262145996,0.2741689682006836,-0.4437570571899414
1684110001939771400,5.063771484375,-0.6249957084655762,0.22602462768554688,-0.7802469730377197
1684110001949812500,5.0738125,-0.8180327415466309,0.06706523895263672,-1.0064363479614258
1684110001959853800,5.083853759765625,-0.9736385345458984,-0.10079097747802734,-1.0981459617614746
1684110001969895000,5.09389501953125,-0.8655562400817871,0.0034513473510742188,-0.9741010665893555
1684110001979936300,5.103936279296875,-0.7150378227233887,0.1585845947265625,-0.7796220779418945
1684110001989977600,5.1139775390625,-0.6140775680541992,0.423095703125,-0.3367152214050293
1684110002000019000,5.12401904296875,-0.578850507736206,0.3746614456176758,0.046773672103881836
1684110002010060000,5.13406005859375,-0.6237905025482178,0.1874856948852539,0.2300701141357422
1684110002020101400,5.144101318359375,-0.6488146781921387,0.047916412353515625,0.3488445281982422
1684110002030142700,5.154142822265625,-0.545853853225708,-0.1919393539428711,0.46893858909606934
1684110002040183800,5.164183837890625,-0.38281846046447754,-0.40548133850097656,0.6672883033752441
1684110002050225200,5.17422509765625,-0.30239105224609375,-0.6357212066650391,0.6433391571044922
1684110002060266500,5.1842666015625,-0.26840829849243164,-0.6274595260620117,0.5552282333374023
1684110002070307600,5.1943076171875,-0.3349008560180664,-0.5237789154052734,0.6480503082275391
1684110002080349000,5.204348876953125,-0.29123401641845703,-0.27410316467285156,0.6368551254272461
1684110002090390300,5.214390380859375,-0.07992696762084961,-0.6116905212402344,0.6901631355285645
1684110002100431400,5.224431396484375,0.12528204917907715,-0.9130449295043945,0.8603980541229248
1684110002110472700,5.23447265625,-0.0008139610290527344,-1.0088863372802734,1.0882372856140137
1684110002120514000,5.24451416015625,-0.7595034837722778,-1.1282196044921875,1.4452731609344482
1684110002130555100,5.25455517578125,-1.9500964879989624,-0.8357553482055664,2.10662841796875
1684110002140596500,5.264596435546875,-2.728158473968506,-1.1003408432006836,2.1888773441314697
1684110002150637800,5.274637939453125,-2.4065604209899902,-1.2686729431152344,1.8909599781036377
1684110002160679200,5.28467919921875,-1.4375063180923462,-0.8471240997314453,1.3151781558990479
1684110002170720300,5.29472021484375,-0.5888451337814331,-0.37033557891845703,0.5686547756195068
1684110002180761600,5.30476171875,0.04078030586242676,-0.12096309661865234,-0.15551996231079102
1684110002190802700,5.314802734375,0.3923778533935547,-0.02386951446533203,-0.8809385299682617
1684110002200844000,5.324843994140625,0.3798145055770874,0.13257980346679688,-1.4556329250335693
1684110002210885400,5.334885498046875,0.05593311786651611,0.3236207962036133,-1.8624610900878906
1684110002220926700,5.3449267578125,-0.34429633617401123,0.5167417526245117,-2.147824764251709
1684110002230967800,5.3549677734375,-0.7638139724731445,0.7681636810302734,-2.1326744556427
1684110002241009200,5.365009033203125,-1.0560835599899292,0.729924201965332,-2.195591926574707
1684110002251050500,5.375050537109375,-1.0070416927337646,0.6160087585449219,-2.233431577682495
1684110002261091600,5.385091552734375,-0.7204115390777588,0.6445674896240234,-2.091764450073242
1684110002271133000,5.3951328125,-0.2493147850036621,0.56500244140625,-1.9162524938583374
1684110002281174300,5.40517431640625,0.26053619384765625,0.43331050872802734,-1.797165870666504
1684110002291215400,5.41521533203125,0.7495082020759583,0.27649402618408203,-1.6124935150146484
1684110002301256700,5.425256591796875,1.2844305038452148,0.47994041442871094,-1.480936050415039
1684110002311298000,5.435298095703125,1.3445947170257568,0.06176185607910156,-1.262812852859497
1684110002321339100,5.445339111328125,1.5371296405792236,-0.06337547302246094,-0.8612642288208008
1684110002331380500,5.45538037109375,1.5095880031585693,-0.18291187286376953,-0.6105599403381348
1684110002341421800,5.465421875,1.204148292541504,-0.25463008880615234,-0.31270766258239746
1684110002351463000,5.475462890625,0.990986704826355,-0.25800228118896484,0.04703235626220703
1684110002361504300,5.485504150390625,0.8719390034675598,-0.22922515869140625,0.4002718925476074
1684110002371545600,5.495545654296875,0.9638131856918335,0.5621528625488281,0.6372082233428955
1684110002381586700,5.505586669921875,0.746816873550415,0.2879009246826172,0.5837993621826172
1684110002391628000,5.5156279296875,0.384584903717041,-0.8241167068481445,0.6878571510314941
1684110002401669400,5.52566943359375,0.14530563354492188,-1.2065763473510742,0.9321684837341309
1684110002411710700,5.535710693359375,-0.08823591470718384,-0.6459102630615234,0.9615154266357422
1684110002421751800,5.545751708984375,-0.38517165184020996,-0.18994426727294922,0.4116239547729492
1684110002431793200,5.555793212890625,-0.5995980501174927,-0.07738113403320312,-0.2945213317871094
1684110002441834200,5.565834228515625,-0.7014409303665161,-0.13898658752441406,-0.6758518218994141
1684110002451875600,5.57587548828125,-0.7078980803489685,-0.25490665435791016,-0.6548042297363281
1684110002461917000,5.5859169921875,-0.7204000949859619,-0.2682209014892578,-0.3117032051086426
1684110002471958300,5.595958251953125,-0.7581683993339539,-0.47418975830078125,0.04515480995178223
1684110002481999400,5.605999267578125,-0.6347699761390686,-0.33811092376708984,0.3367798328399658
1684110002492040700,5.616040771484375,-0.5598759651184082,-0.10831451416015625,0.1289527416229248
1684110002502082000,5.62608203125,-0.2839793264865875,0.21966171264648438,0.0671849250793457
1684110002512123100,5.636123046875,-0.06966166198253632,-0.11367988586425781,-0.27816152572631836
1684110002522164500,5.64616455078125,0.1370384395122528,0.1737079620361328,-0.4657478332519531
1684110002532205800,5.656205810546875,0.5713126063346863,0.25804805755615234,-0.7150492668151855
1684110002542247000,5.666246826171875,0.9037544131278992,0.14531230926513672,-0.7730224132537842
1684110002552288300,5.676288330078125,1.171803593635559,-0.04222869873046875,-0.773993730545044
1684110002562329600,5.68632958984375,1.596165418624878,-0.003936767578125,-0.45929765701293945
1684110002572371000,5.696370849609375,1.7932355403900146,0.029407501220703125,-0.1456291675567627
1684110002582412000,5.706412109375,1.8135355710983276,0.02371978759765625,-0.05003929138183594
1684110002592453400,5.716453369140625,1.774222731590271,0.025010108947753906,-0.22278380393981934
1684110002602494500,5.726494384765625,1.6569130420684814,-0.07051753997802734,-0.3127567768096924
1684110002612535800,5.736535888671875,1.4174672365188599,-0.12369537353515625,-0.13973426818847656
1684110002622577200,5.7465771484375,1.0261790752410889,-0.17800140380859375,0.0842442512512207
1684110002632618500,5.756618408203125,0.718558669090271,-0.13312911987304688,0.3041799068450928
1684110002642659600,5.76665966796875,0.40966859459877014,-0.16121196746826172,0.4749486446380615
1684110002652701000,5.776700927734375,-0.0008729659020900726,-0.336578369140625,0.6286075115203857
1684110002662742300,5.7867421875,-0.3117234408855438,-0.2394733428955078,0.759812593460083
1684110002672783400,5.796783447265625,-0.385179728269577,0.25107288360595703,0.685032844543457
1684110002682824700,5.80682470703125,-0.6225143074989319,0.31531810760498047,0.6450469493865967
1684110002692866000,5.816865966796875,-0.7910563945770264,-0.03525352478027344,0.5169739723205566
1684110002702907100,5.8269072265625,-0.6730162501335144,-0.31885242462158203,0.29064249992370605
1684110002712948500,5.836948486328125,-0.17759743332862854,-0.21067237854003906,-0.006844282150268555
1684110002722989800,5.84698974609375,0.3676961660385132,0.09381961822509766,-0.25380945205688477
1684110002733031000,5.857031005859375,0.7282640933990479,0.08922672271728516,-0.43149852752685547
1684110002743072300,5.867072265625,0.9503471255302429,-0.0029706954956054688,-0.47234034538269043
1684110002753113600,5.877113525390625,1.0010358095169067,-0.1365499496459961,-0.4059934616088867
1684110002763155000,5.887155029296875,0.8261597752571106,-0.31634998321533203,-0.3792695999145508
1684110002773196000,5.897196044921875,0.5907015800476074,-0.48082828521728516,-0.322429895401001
1684110002783237400,5.9072373046875,0.4112873673439026,-0.46872615814208984,-0.18872785568237305
1684110002793278700,5.91727880859375,0.3967610001564026,-0.44119834899902344,-0.3031885623931885
1684110002803319800,5.92731982421875,0.5334538817405701,-0.36472320556640625,-0.5671803951263428
1684110002813361200,5.937361083984375,0.6643327474594116,-0.2696075439453125,-0.862983226776123
1684110002823402500,5.947402587890625,0.7699178457260132,-0.18857574462890625,-1.0781683921813965
1684110002833443600,5.957443603515625,0.7503658533096313,-0.16659164428710938,-1.044278860092163
1684110002843485000,5.96748486328125,0.6258719563484192,-0.2132863998413086,-0.8744480609893799
1684110002853526300,5.9775263671875,0.43849238753318787,-0.25502967834472656,-0.7330600023269653
1684110002863567400,5.9875673828125,0.2936418950557709,-0.22540283203125,-0.7075438499450684
1684110002873608700,5.997608642578125,0.22994890809059143,-0.18639659881591797,-0.7036402225494385
1684110002883650000,6.007650146484375,0.47848838567733765,0.47272396087646484,-0.63856041431427
1684110002893691400,6.01769140625,0.5736793279647827,0.3770561218261719,-0.10472869873046875
1684110002903732500,6.027732421875,0.7361281514167786,0.47501277923583984,0.3798704147338867
1684110002913773800,6.03777392578125,0.8072457313537598,0.3120288848876953,0.49654626846313477
1684110002923815200,6.047815185546875,0.825927197933197,0.2571258544921875,0.3847541809082031
1684110002933856300,6.057856201171875,0.9627419710159302,0.3414316177368164,0.3330204486846924
1684110002943897600,6.067897705078125,1.1312321424484253,0.4495210647583008,0.42066264152526855
1684110002953939000,6.07793896484375,1.1117832660675049,0.3729877471923828,0.4803154468536377
1684110002963980000,6.08797998046875,0.9379355907440186,0.30066967010498047,0.5205163955688477
1684110002974021400,6.098021484375,0.7133130431175232,0.2922964096069336,0.5247812271118164
1684110002984062700,6.108062744140625,0.4904329776763916,0.3479747772216797,0.4537532329559326
1684110002994104000,6.11810400390625,0.24594460427761078,0.28877830505371094,0.38550758361816406
1684110003004145200,6.128145263671875,0.07211045920848846,0.26558399200439453,0.40661025047302246
1684110003014186500,6.1381865234375,-0.09304366260766983,0.05626392364501953,0.3736693859100342
1684110003024227800,6.148227783203125,-0.15587423741817474,-0.21703147888183594,0.4006996154785156
1684110003034269000,6.15826904296875,-0.23743154108524323,-0.2747211456298828,0.4417402744293213
1684110003044310300,6.168310302734375,-0.3067097067832947,-0.2604084014892578,0.4924440383911133
1684110003054351600,6.1783515625,-0.3023179769515991,0.07201957702636719,0.570775032043457
1684110003064392700,6.188392822265625,-0.13339710235595703,0.3681764602661133,0.7624742984771729
1684110003074434000,6.19843408203125,0.07934710383415222,0.5463743209838867,0.9913568496704102
1684110003084475400,6.208475341796875,0.2448369711637497,0.6231622695922852,1.1292634010314941
1684110003094516500,6.2185166015625,0.3051760196685791,0.5675525665283203,1.244913101196289
1684110003104557800,6.228557861328125,0.26231512427330017,0.4204902648925781,1.3355846405029297
1684110003114599200,6.23859912109375,0.1647069752216339,0.2396717071533203,1.4061012268066406
1684110003124640500,6.248640625,0.18646860122680664,0.13527202606201172,1.5288455486297607
1684110003134681600,6.258681640625,0.2633046805858612,0.09775543212890625,1.6427052021026611
1684110003144723000,6.268722900390625,0.23753008246421814,0.1390085220336914,1.698723316192627
1684110003154764300,6.278764404296875,0.22801408171653748,0.2899894714355469,1.7413809299468994
1684110003164805400,6.288805419921875,0.14407947659492493,0.3929004669189453,1.6713788509368896
1684110003174846700,6.2988466796875,-0.059829115867614746,0.3881959915161133,1.5579907894134521
1684110003184888000,6.30888818359375,-0.3003794848918915,0.36925411224365234,1.3547818660736084
1684110003194929200,6.31892919921875,-0.4922218918800354,0.3360757827758789,1.1731619834899902
1684110003204970500,6.328970458984375,-0.5859401226043701,0.36522388458251953,1.0583577156066895
1684110003215011800,6.33901171875,-0.624663770198822,0.3754005432128906,0.9577181339263916
1684110003225053200,6.34905322265625,-0.6254752278327942,0.32370567321777344,0.8784801959991455
1684110003235094300,6.35909423828125,-0.5630825161933899,0.2867155075073242,0.8135960102081299
1684110003245135600,6.369135498046875,-0.4866667091846466,0.21893882751464844,0.7820627689361572
1684110003255177000,6.379177001953125,-0.38806936144828796,0.20160293579101562,0.6764636039733887
1684110003265218000,6.389218017578125,-0.30382534861564636,0.22752761840820312,0.5717065334320068
1684110003275259400,6.39925927734375,-0.2579731047153473,0.2609424591064453,0.4184741973876953
1684110003285300700,6.40930078125,-0.2598562240600586,0.21610450744628906,0.36614441871643066
1684110003295341800,6.419341796875,-0.35821905732154846,0.02169036865234375,0.3958091735839844
1684110003305383200,6.429383056640625,-0.3895101547241211,-0.09278011322021484,0.3419933319091797
1684110003315424500,6.439424560546875,-0.22348767518997192,-0.0060291290283203125,0.16320228576660156
1684110003325465900,6.4494658203125,0.0742245614528656,0.15448760986328125,0.06873512268066406
1684110003335507000,6.4595068359375,0.3522557020187378,0.22581100463867188,0.06889235973358154
1684110003345548300,6.46954833984375,0.5656120777130127,0.2943696975708008,0.07637310028076172
1684110003355589600,6.479589599609375,0.6567870378494263,0.3418121337890625,0.11864805221557617
1684110003365630700,6.489630615234375,0.7336456775665283,0.36849117279052734,0.34042227268218994
1684110003375672000,6.499672119140625,0.7896077036857605,0.3053474426269531,0.6402350664138794
1684110003385713400,6.50971337890625,0.8111037611961365,0.42714881896972656,0.9633429050445557
1684110003395754500,6.51975439453125,0.8095501661300659,0.5561695098876953,1.2789946794509888
1684110003405795800,6.5297958984375,0.7286545634269714,0.5577850341796875,1.4750094413757324
1684110003415837200,6.539837158203125,0.6380587816238403,0.4832725524902344,1.6319960355758667
1684110003425878500,6.54987841796875,0.6213696002960205,0.3863039016723633,1.7942794561386108
1684110003435919600,6.559919677734375,0.6336244344711304,0.407806396484375,1.918888807296753
1684110003445961000,6.5699609375,0.5980316996574402,0.3968086242675781,1.9698642492294312
1684110003456002300,6.580002197265625,0.3413192629814148,0.3175945281982422,1.8477747440338135
1684110003466043400,6.59004345703125,0.05842691659927368,0.2517242431640625,1.7427163124084473
1684110003476084700,6.600084716796875,-0.2248886525630951,0.14202117919921875,1.6406066417694092
1684110003486126000,6.6101259765625,-0.4830053746700287,0.03437328338623047,1.4540972709655762
1684110003496167200,6.620167236328125,-0.6668125987052917,-0.07545948028564453,1.2731010913848877
1684110003506208500,6.63020849609375,-0.7181975245475769,-0.14392852783203125,1.1584599018096924
1684110003516249900,6.640249755859375,-0.7371746897697449,-0.18497943878173828,1.017500638961792
1684110003526291200,6.650291259765625,-0.7352690696716309,-0.20310688018798828,0.8978732824325562
1684110003536332300,6.660332275390625,-0.660717785358429,-0.2508392333984375,0.8319082260131836
1684110003546373600,6.67037353515625,-0.5450922846794128,-0.2590303421020508,0.7728894948959351
1684110003556415000,6.6804150390625,-0.3973459005355835,-0.25661659240722656,0.677698016166687
1684110003566456000,6.6904560546875,-0.24682658910751343,-0.22477245330810547,0.5945266485214233
1684110003576497400,6.700497314453125,-0.05942428112030029,-0.13765716552734375,0.5212701559066772
1684110003586538800,6.710538818359375,0.12469267845153809,-0.06730365753173828,0.4324227571487427
1684110003596580000,6.720580078125,0.3083924651145935,-0.025814056396484375,0.3240516185760498
1684110003606621200,6.73062109375,0.4764755368232727,-0.05125713348388672,0.17886054515838623
1684110003616662500,6.74066259765625,0.5651102662086487,-0.10974311828613281,0.016121387481689453
1684110003626704000,6.750703857421875,0.5316628813743591,-0.16485595703125,-0.18707823753356934
1684110003636745200,6.7607451171875,0.4418196678161621,-0.2159566879272461,-0.469076931476593
1684110003646786300,6.770786376953125,0.36150020360946655,-0.22202014923095703,-0.6871111392974854
1684110003656827600,6.78082763671875,0.28691190481185913,-0.20215320587158203,-0.8666255474090576
1684110003666869000,6.790868896484375,0.19489270448684692,-0.09930610656738281,-1.0428242683410645
1684110003676910000,6.80091015625,0.04854464530944824,0.10716819763183594,-1.0850762128829956
1684110003686951400,6.810951416015625,-0.10520565509796143,0.33945655822753906,-1.0281014442443848
1684110003696992800,6.82099267578125,-0.2697290778160095,0.505192756652832,-0.7150053381919861
1684110003707033900,6.831033935546875,-0.4284789264202118,0.7081537246704102,-0.2275596261024475
1684110003717075200,6.8410751953125,-0.5794954299926758,0.6965341567993164,0.23072010278701782
1684110003727116500,6.851116455078125,-0.6620259881019592,0.5398445129394531,0.6845253705978394
1684110003737157600,6.86115771484375,-0.7851415872573853,0.308319091796875,1.114227294921875
1684110003747199000,6.871198974609375,-0.9645642042160034,-0.03711509704589844,1.4882512092590332
1684110003757240300,6.881240234375,-1.2196491956710815,-0.4754142761230469,1.5670981407165527
1684110003767281700,6.89128173828125,-1.4989943504333496,-0.9092426300048828,1.4772647619247437
1684110003777322800,6.90132275390625,-1.802607536315918,-1.230036735534668,1.1115349531173706
1684110003787364000,6.911364013671875,-2.090085506439209,-1.3516721725463867,0.5671778917312622
1684110003797405400,6.921405517578125,-2.3269286155700684,-1.3465538024902344,-0.18051189184188843
1684110003807446500,6.931446533203125,-2.5035605430603027,-1.354410171508789,-1.088197946548462
1684110003817488000,6.94148779296875,-2.508357048034668,-1.073150634765625,-1.8825262784957886
1684110003827529200,6.951529296875,-2.356555461883545,-0.8293371200561523,-2.3135147094726562
1684110003837570600,6.961570556640625,-1.9704481363296509,-0.6903562545776367,-2.338655948638916
1684110003847611600,6.971611572265625,-1.448891520500183,-0.3887195587158203,-1.9595528841018677
1684110003857653000,6.981653076171875,-0.9395413398742676,-0.1279315948486328,-1.5156795978546143
1684110003867694300,6.9916943359375,-0.48914220929145813,-0.005839347839355469,-1.0434929132461548
1684110003877735700,7.001735595703125,-0.09011441469192505,0.4581460952758789,-0.32149821519851685
1684110003887776800,7.01177685546875,0.037907183170318604,0.8574953079223633,0.1364552080631256
1684110003897818000,7.021818115234375,-0.08393198251724243,0.8845376968383789,0.40845054388046265
1684110003907859500,7.031859375,-0.3687891960144043,0.7074708938598633,0.37640029191970825
1684110003917900500,7.041900634765625,-0.4862268567085266,0.6442642211914062,0.041140347719192505
1684110003927942000,7.05194189453125,-0.30034470558166504,0.47706031799316406,-0.451497346162796
1684110003937983200,7.061983154296875,0.18089032173156738,0.2203073501586914,-1.026688575744629
1684110003948024600,7.072024658203125,0.647845447063446,-0.21162986755371094,-1.5373725891113281
1684110003958065700,7.082065673828125,0.8545193672180176,-0.6509628295898438,-2.0042004585266113
1684110003968107000,7.09210693359375,1.0170273780822754,-0.9469108581542969,-2.4966278076171875
1684110003978148400,7.1021484375,1.0976492166519165,-1.43109130859375,-2.6249024868011475
1684110003988189400,7.112189453125,0.9956268668174744,-1.8347768783569336,-2.6964409351348877
1684110003998230800,7.122230712890625,0.9881323575973511,-2.0881948471069336,-2.6528897285461426
1684110004008272100,7.132272216796875,1.05670166015625,-2.172117233276367,-2.4812703132629395
1684110004018313200,7.142313232421875,1.2155768871307373,-2.0532760620117188,-2.2535746097564697
1684110004028354600,7.1523544921875,1.357155680656433,-1.5053739547729492,-2.0763165950775146
1684110004038396000,7.16239599609375,1.4473717212677002,-0.6327075958251953,-1.8618943691253662
1684110004048437200,7.172437255859375,1.3070437908172607,0.25731563568115234,-1.6834819316864014
1684110004058478300,7.182478271484375,1.0546391010284424,0.9489278793334961,-1.7299809455871582
1684110004068519700,7.192519775390625,0.7901788949966431,1.513753890991211,-1.9611899852752686
1684110004078561000,7.20256103515625,0.6297352313995361,1.8704943656921387,-2.190537214279175
1684110004088602000,7.21260205078125,0.5654457807540894,2.1174440383911133,-2.426337480545044
1684110004098643500,7.2226435546875,0.6509060859680176,2.221912384033203,-2.4551949501037598
1684110004108684800,7.232684814453125,0.838019609451294,2.149289131164551,-2.399477958679199
1684110004118726100,7.24272607421875,0.9815069437026978,1.7910542488098145,-2.2320995330810547
1684110004128767200,7.252767333984375,1.114190697669983,1.4186277389526367,-1.9792230129241943
1684110004138808600,7.26280859375,1.3154369592666626,1.1664972305297852,-1.5836279392242432
1684110004148850000,7.272849853515625,1.591310739517212,1.0301713943481445,-1.221575140953064
1684110004158891000,7.28289111328125,1.7158199548721313,0.8828163146972656,-0.9135514497756958
1684110004168932400,7.292932373046875,1.5453760623931885,0.7546501159667969,-0.6708073616027832
1684110004178973700,7.3029736328125,1.0970700979232788,0.5151176452636719,-0.4665231704711914
1684110004189015000,7.31301513671875,0.6102834939956665,0.14856624603271484,-0.23097878694534302
1684110004199056100,7.32305615234375,0.27968907356262207,-0.10903453826904297,0.05747544765472412
1684110004209097500,7.333097412109375,0.2517690658569336,-0.14787769317626953,0.36950790882110596
1684110004219138800,7.343138916015625,0.4019566774368286,-0.25658130645751953,0.6817263960838318
1684110004229180200,7.35318017578125,0.578610897064209,-0.4099407196044922,0.8995356559753418
1684110004239221200,7.36322119140625,0.7556129693984985,-0.5377006530761719,1.0342990159988403
1684110004249262600,7.3732626953125,0.9248397350311279,-0.6083059310913086,1.1475348472595215
1684110004259304000,7.383303955078125,0.9969635009765625,-0.5263233184814453,1.2199074029922485
1684110004269345000,7.393344970703125,0.9021891355514526,-0.4478740692138672,1.2419359683990479
1684110004279386400,7.403386474609375,0.7439931631088257,-0.37365055084228516,1.2931699752807617
1684110004289427700,7.413427734375,0.5108342170715332,-0.1679677963256836,1.3119975328445435
1684110004299469000,7.423468994140625,0.3217775821685791,0.1544933319091797,1.3593833446502686
1684110004309510100,7.43351025390625,0.23937630653381348,0.4051523208618164,1.4772791862487793
1684110004319551500,7.443551513671875,0.03757905960083008,0.5842790603637695,1.5002870559692383
1684110004329592800,7.4535927734375,-0.2881040573120117,0.7250537872314453,1.4668307304382324
1684110004339634200,7.46363427734375,-0.7583215236663818,0.8508615493774414,1.482581615447998
1684110004349675300,7.47367529296875,-1.3487205505371094,0.8633193969726562,1.5645313262939453
1684110004359716600,7.483716552734375,-1.7541627883911133,0.6290378570556641,1.7356700897216797
1684110004369758000,7.493758056640625,-1.801259994506836,0.2711524963378906,1.8544816970825195
1684110004379799000,7.503799072265625,-1.825199842453003,-0.07329750061035156,1.9994781017303467
1684110004389840400,7.51384033203125,-2.0236759185791016,-0.15375804901123047,2.21632981300354
1684110004399881700,7.5238818359375,-2.328277587890625,-0.06976795196533203,2.4037363529205322
1684110004409923000,7.533923095703125,-2.7141573429107666,0.011996269226074219,2.3282580375671387
1684110004419964200,7.543964111328125,-2.920548439025879,-0.06719207763671875,2.1034560203552246
1684110004430005500,7.554005615234375,-2.6827945709228516,-0.2612743377685547,1.7215888500213623
1684110004440046800,7.564046875,-2.093442440032959,-0.39192962646484375,1.1914129257202148
1684110004450088000,7.574087890625,-1.4194245338439941,-0.10679149627685547,0.6228162050247192
1684110004460129300,7.58412939453125,-0.8622701168060303,0.2981405258178711,0.16368073225021362
1684110004470170600,7.594170654296875,-0.45117735862731934,0.6276082992553711,-0.10829782485961914
1684110004480212000,7.6042119140625,-0.12242817878723145,0.6505851745605469,-0.26737886667251587
1684110004490253000,7.614253173828125,0.11492037773132324,0.3774118423461914,-0.3798198699951172
1684110004500294400,7.62429443359375,0.22448992729187012,0.049637794494628906,-0.39340728521347046
1684110004510335700,7.634335693359375,0.1806957721710205,-0.2378368377685547,-0.4119746685028076
1684110004520377000,7.644377197265625,0.03391695022583008,-0.4713630676269531,-0.27036750316619873
1684110004530418200,7.654418212890625,-0.17678320407867432,-0.5867366790771484,-0.08460545539855957
1684110004540459500,7.66445947265625,-0.3115297555923462,-0.5887393951416016,0.1478818953037262
1684110004550500900,7.6745009765625,-0.47671544551849365,-0.4894084930419922,0.27802151441574097
1684110004560542000,7.6845419921875,-0.6303989887237549,-0.3873748779296875,0.30764269828796387
1684110004570583300,7.694583251953125,-0.6446927785873413,-0.29785728454589844,0.47944608330726624
1684110004580624600,7.704624755859375,-0.5658981800079346,-0.25026416778564453,0.728304386138916
1684110004590666000,7.714666015625,-0.596027135848999,-0.25206470489501953,1.1924338340759277
1684110004600707000,7.72470703125,-0.8646830320358276,-0.49636363983154297,1.8976057767868042
1684110004610748400,7.73474853515625,-1.2735217809677124,-0.6142778396606445,2.547468423843384
1684110004620789800,7.744789794921875,-1.59375,-0.6677637100219727,3.015451431274414
1684110004630830800,7.754830810546875,-1.5688055753707886,-0.6806344985961914,3.0490972995758057
1684110004640872200,7.7648720703125,-1.0902485847473145,-0.6384334564208984,2.738619804382324
1684110004650913500,7.77491357421875,-0.7083721160888672,-0.7896327972412109,2.2179617881774902
1684110004660955000,7.784954833984375,-0.5739240646362305,-1.0981521606445312,1.5132970809936523
1684110004670996000,7.794995849609375,-0.7383981943130493,-1.4182844161987305,0.5148406028747559
1684110004681037300,7.805037353515625,-1.0610603094100952,-1.4087400436401367,-0.6064227819442749
1684110004691078700,7.81507861328125,-1.2864409685134888,-1.0896492004394531,-1.5286414623260498
1684110004701120000,7.8251201171875,-1.1154985427856445,-0.6194686889648438,-2.178687810897827
1684110004711161000,7.8351611328125,-0.671209454536438,-0.1132364273071289,-2.7355122566223145
1684110004721202400,7.845202392578125,-0.17180216312408447,0.41936302185058594,-3.0768561363220215
1684110004731243800,7.855243896484375,0.3008081912994385,0.8517360687255859,-3.1005680561065674
1684110004741285000,7.86528515625,0.6377131342887878,1.256134033203125,-2.8553526401519775
1684110004751326200,7.875326171875,0.8675981760025024,1.4185447692871094,-2.345489263534546
1684110004761367600,7.885367431640625,1.0261664390563965,1.3430891036987305,-1.7207374572753906
1684110004771409000,7.895408935546875,1.1534565687179565,1.3126726150512695,-1.174076795578003
1684110004781450200,7.9054501953125,1.1965852975845337,1.433548927307129,-1.1518841981887817
1684110004791491300,7.9154912109375,1.262235164642334,1.2816877365112305,-0.8705930113792419
1684110004801532700,7.92553271484375,1.3978599309921265,0.9079399108886719,-0.30689215660095215
1684110004811574000,7.935573974609375,1.4402095079421997,0.5184659957885742,0.1044817566871643
1684110004821615400,7.945615478515625,1.3873887062072754,0.25665950775146484,0.42471468448638916
1684110004831656400,7.955656494140625,1.5473601818084717,-0.1353759765625,0.7127196192741394
1684110004841697800,7.96569775390625,1.7595040798187256,-0.4348125457763672,0.8405047059059143
1684110004851739100,7.9757392578125,1.9289665222167969,-0.47479248046875,0.6651197671890259
1684110004861780200,7.9857802734375,2.080070972442627,-0.5524234771728516,0.5168433785438538
1684110004871821600,7.995821533203125,2.1116042137145996,-0.5317878723144531,0.2960183024406433
1684110004881863000,8.00586279296875,2.0906901359558105,-0.32969188690185547,0.170853853225708
1684110004891904300,8.015904296875,2.011132001876831,-0.12089920043945312,0.16783899068832397
1684110004901945300,8.0259453125,1.8165627717971802,0.07791996002197266,0.26223307847976685
1684110004911986700,8.035986572265625,1.458631992340088,0.15459060668945312,0.4857295751571655
1684110004922028000,8.046028076171876,0.9730314016342163,0.21921348571777344,0.7103023529052734
1684110004932069400,8.0560693359375,0.3800877630710602,0.24541378021240234,0.862770140171051
1684110004942110500,8.0661103515625,-0.19480794668197632,0.30716609954833984,0.9313499927520752
1684110004952151800,8.07615185546875,-0.7685704827308655,0.27277183532714844,0.8480192422866821
1684110004962193200,8.086193115234375,-1.2236566543579102,0.2162771224975586,0.5469999313354492
1684110004972234200,8.096234130859376,-1.4981166124343872,0.21411991119384766,0.04512852430343628
1684110004982275600,8.106275634765625,-1.557418942451477,0.18746280670166016,-0.5310367345809937
1684110004992317000,8.11631689453125,-1.4756838083267212,0.04339599609375,-0.9749715924263
1684110005002358300,8.126358154296875,-1.2078912258148193,0.03297615051269531,-1.3256444931030273
1684110005012399400,8.1363994140625,-0.7747193574905396,-0.02565288543701172,-1.5076322555541992
1684110005022440700,8.146440673828126,-0.2931497097015381,0.061087608337402344,-1.5520111322402954
1684110005032482000,8.15648193359375,0.24319002032279968,0.3597126007080078,-1.4878036975860596
1684110005042523400,8.1665234375,0.7204490303993225,0.5186786651611328,-1.3371106386184692
1684110005052564500,8.176564453125,1.1445214748382568,0.6936130523681641,-1.1243526935577393
1684110005062605800,8.186605712890625,1.5026174783706665,0.7914571762084961,-0.7835397720336914
1684110005072647200,8.196647216796874,1.865749716758728,0.8149499893188477,-0.4950336813926697
1684110005082688500,8.2066884765625,2.1473963260650635,0.7118701934814453,-0.2136143445968628
1684110005092729600,8.2167294921875,2.34818172454834,0.3750619888305664,-0.03849935531616211
1684110005102771000,8.22677099609375,2.4037365913391113,-0.08996868133544922,0.04698556661605835
1684110005112812300,8.236812255859375,2.3478856086730957,-0.561065673828125,0.24536633491516113
1684110005122853600,8.246853515625,2.3053815364837646,-0.9473133087158203,0.5015314221382141
1684110005132894700,8.256894775390625,2.1879777908325195,-1.1293907165527344,0.7225184440612793
1684110005142936000,8.26693603515625,2.0367417335510254,-1.1531219482421875,0.9308750629425049
1684110005152977400,8.276977294921876,1.8164465427398682,-1.0237140655517578,1.0663865804672241
1684110005163018800,8.287018798828125,1.5352436304092407,-0.7942829132080078,1.053979516029358
1684110005173059800,8.297059814453124,1.1302763223648071,-0.6014413833618164,1.0031391382217407
1684110005183101200,8.30710107421875,0.7179175615310669,-0.4450721740722656,0.9631562232971191
1684110005193142500,8.317142578125,0.3475053906440735,-0.2914562225341797,0.9036811590194702
1684110005203183600,8.32718359375,0.1359681934118271,-0.018776893615722656,0.737803041934967
1684110005213225000,8.337224853515625,0.09773708879947662,0.17681312561035156,0.6035968065261841
1684110005223266300,8.347266357421875,0.20466502010822296,0.34093189239501953,0.5173215866088867
1684110005233307600,8.3573076171875,0.32700613141059875,0.48322200775146484,0.48757204413414
1684110005243349000,8.367348876953125,0.3894008994102478,0.5248527526855469,0.382932186126709
1684110005253390000,8.37739013671875,0.33867958188056946,0.5161714553833008,0.3064786195755005
1684110005263431400,8.387431396484375,0.21746176481246948,0.4262104034423828,0.15627455711364746
1684110005273472800,8.39747265625,0.0996953547000885,0.2861900329589844,0.09107387065887451
1684110005283514000,8.40751416015625,-0.0015612542629241943,0.14638614654541016,0.05386263132095337
1684110005293555200,8.41755517578125,-0.07663929462432861,-0.009934425354003906,0.02104705572128296
1684110005303596500,8.427596435546874,-0.1424371600151062,-0.10156917572021484,0.043320655822753906
1684110005313638000,8.437637939453126,-0.18455928564071655,-0.1238698959350586,0.062954843044281
1684110005323679000,8.447678955078125,-0.2053874433040619,-0.14863109588623047,0.16340339183807373
1684110005333720300,8.45772021484375,-0.2002982497215271,-0.2259378433227539,0.2769216299057007
1684110005343761700,8.46776171875,-0.18853846192359924,-0.22664165496826172,0.43865346908569336
1684110005353803000,8.477802978515625,-0.13685733079910278,-0.26309776306152344,0.6165575385093689
1684110005363844000,8.487843994140626,-0.07874670624732971,-0.28980350494384766,0.755283534526825
1684110005373885400,8.497885498046875,-0.000531315803527832,-0.2996082305908203,0.8856424689292908
1684110005383926800,8.5079267578125,0.06601551175117493,-0.28780078887939453,0.9240550994873047
1684110005393968000,8.517968017578125,0.14645501971244812,-0.2879161834716797,0.9616670608520508
1684110005404009200,8.52800927734375,0.1711665391921997,-0.2975893020629883,0.9296295046806335
1684110005414050600,8.538050537109376,0.1899368166923523,-0.3049306869506836,0.8597184419631958
1684110005424092000,8.548091796875,0.18335390090942383,-0.2765474319458008,0.8095144629478455
1684110005434133200,8.55813330078125,0.12989282608032227,-0.1767292022705078,0.755257248878479
1684110005444174600,8.568174560546876,0.03719821572303772,-0.08207511901855469,0.7232996225357056
1684110005454215700,8.578215576171875,-0.04599493741989136,-0.023550033569335938,0.6870743036270142
1684110005464257000,8.588257080078124,-0.1240088939666748,0.013232231140136719,0.6542943716049194
1684110005474298400,8.59829833984375,-0.1924036741256714,0.06650161743164062,0.6919502019882202
1684110005484339500,8.60833935546875,-0.2704320549964905,0.0669717788696289,0.701797604560852
1684110005494380800,8.618380859375,-0.3766186237335205,-0.0043392181396484375,0.6746849417686462
1684110005504422100,8.628422119140625,-0.4525536298751831,-0.0660562515258789,0.6542448997497559
1684110005514463500,8.63846337890625,-0.49953538179397583,-0.10143089294433594,0.6524137258529663
1684110005524504600,8.648504638671875,-0.4981154501438141,-0.036454200744628906,0.7071612477302551
1684110005534546000,8.6585458984375,-0.4299503266811371,0.04502105712890625,0.7584109306335449
1684110005544587300,8.668587158203126,-0.3057861924171448,0.07604694366455078,0.7987817525863647
1684110005554628600,8.678628662109375,-0.19593527913093567,0.04719829559326172,0.8325393199920654
1684110005564669700,8.688669677734374,-0.047881484031677246,0.0852041244506836,0.8834182024002075
1684110005574711000,8.6987109375,0.07871603965759277,0.092041015625,0.9724470973014832
1684110005584752400,8.70875244140625,0.21941381692886353,0.07015609741210938,1.004012107849121
1684110005594793700,8.718793701171874,0.3755952715873718,-0.044940948486328125,1.0381760597229004
1684110005604834800,8.728834716796875,0.5126451849937439,-0.08596992492675781,1.0897165536880493
1684110005614876200,8.738876220703125,0.6012747883796692,-0.20361804962158203,1.1514484882354736
1684110005624917500,8.74891748046875,0.6136729717254639,-0.2013568878173828,1.2012051343917847
1684110005634958800,8.758958740234375,0.604934811592102,-0.1593189239501953,1.1917039155960083
1684110005645000000,8.769,0.5667397975921631,-0.10165786743164062,1.1991124153137207
1684110005655041300,8.779041259765625,0.5044318437576294,0.049121856689453125,1.2461861371994019
1684110005665082600,8.78908251953125,0.4345620274543762,0.09375,1.2282006740570068
1684110005675124000,8.7991240234375,0.3334195017814636,0.07641029357910156,1.2092647552490234
1684110005685165000,8.8091650390625,0.1894494891166687,-0.05599784851074219,1.1372992992401123
1684110005695206400,8.819206298828124,0.04081928730010986,-0.10143756866455078,1.0529348850250244
1684110005705247700,8.829247802734375,-0.10542643070220947,-0.12726974487304688,0.9467682838439941
1684110005715289000,8.8392890625,-0.27020126581192017,-0.0914306640625,0.8968552947044373
1684110005725330200,8.849330078125,-0.4150214195251465,-0.004352569580078125,0.815322756767273
1684110005735371500,8.85937158203125,-0.5580171346664429,0.01299285888671875,0.7131844162940979
1684110005745412900,8.869412841796875,-0.6906120777130127,-0.0029811859130859375,0.6417914032936096
1684110005755454200,8.8794541015625,-0.8206800818443298,-0.0069675445556640625,0.6087559461593628
1684110005765495300,8.889495361328125,-0.8900454044342041,-0.10032176971435547,0.6329673528671265
1684110005775536600,8.89953662109375,-0.9012817740440369,-0.1661062240600586,0.7392900586128235
1684110005785578000,8.909577880859375,-0.8276478052139282,-0.2023305892944336,0.9134721159934998
1684110005795619300,8.919619384765625,-0.6877825260162354,-0.16236209869384766,1.0712130069732666
1684110005805660700,8.92966064453125,-0.5775144100189209,-0.1275653839111328,1.2363418340682983
1684110005815701800,8.93970166015625,-0.45408496260643005,-0.19429302215576172,1.379774808883667
1684110005825743000,8.9497431640625,-0.3174912631511688,-0.2100057601928711,1.5383656024932861
1684110005835784400,8.959784423828125,-0.15641385316848755,-0.2271728515625,1.6821184158325195
1684110005845825500,8.969825439453125,0.009239614009857178,-0.1727447509765625,1.6975175142288208
1684110005855867000,8.979866943359376,0.15881294012069702,-0.17276382446289062,1.7132492065429688
1684110005865908200,8.989908203125,0.2784227728843689,-0.16277408599853516,1.7443453073501587
1684110005875949600,8.999949462890624,0.3874403238296509,-0.20655345916748047,1.702183485031128
1684110005885990700,9.00999072265625,0.4466954469680786,-0.2916097640991211,1.4890953302383423
1684110005896032000,9.020031982421875,0.4448588490486145,-0.3726968765258789,1.2051223516464233
1684110005906073300,9.0300732421875,0.3488713502883911,-0.4381275177001953,0.9813965559005737
1684110005916114700,9.04011474609375,0.27093350887298584,-0.4198293685913086,0.7115837335586548
1684110005926156000,9.050156005859375,0.17087393999099731,-0.37560367584228516,0.43953078985214233
1684110005936197000,9.060197021484376,0.1027103066444397,-0.1787424087524414,0.1311696171760559
1684110005946238500,9.070238525390625,0.06914061307907104,0.08092975616455078,-0.1914425492286682
1684110005956279800,9.08027978515625,0.08413064479827881,0.2938251495361328,-0.6353567242622375
1684110005966321200,9.090321044921875,0.09300518035888672,0.4134368896484375,-1.0282578468322754
1684110005976362200,9.1003623046875,0.12904685735702515,0.40942859649658203,-1.3221213817596436
1684110005986403600,9.110403564453126,0.15613579750061035,0.3931112289428711,-1.7155976295471191
1684110005996445000,9.12044482421875,0.2111753225326538,0.31671619415283203,-2.0349996089935303
1684110006006486300,9.130486328125,0.2492741346359253,0.13259410858154297,-2.2969000339508057
1684110006016527400,9.14052734375,0.2960623502731323,-0.10427379608154297,-2.5558958053588867
1684110006026568700,9.150568603515625,0.34964704513549805,-0.3486490249633789,-2.843514919281006
1684110006036610000,9.160610107421874,0.41639596223831177,-0.5864105224609375,-3.004091262817383
1684110006046651400,9.1706513671875,0.444821298122406,-0.8270273208618164,-3.021193504333496
1684110006056692500,9.1806923828125,0.4427090287208557,-0.96978759765625,-2.9303016662597656
1684110006066733800,9.19073388671875,0.35341876745224,-1.0715131759643555,-2.7680013179779053
1684110006076775200,9.200775146484375,0.17377203702926636,-1.1505756378173828,-2.604696750640869
1684110006086816500,9.21081640625,-0.15857422351837158,-1.0943622589111328,-2.4736485481262207
1684110006096857600,9.220857666015625,-0.511863648891449,-0.47690486907958984,-2.552363395690918
1684110006106899000,9.23089892578125,-0.8554216623306274,-0.06721782684326172,-2.2007503509521484
1684110006116940300,9.240940185546876,-1.0837385654449463,0.16469764709472656,-1.4047458171844482
1684110006126981600,9.250981689453125,-1.0913721323013306,0.2512388229370117,-0.7635468244552612
1684110006137023000,9.26102294921875,-0.968888521194458,0.3289527893066406,-0.3996293544769287
1684110006147064000,9.27106396484375,-0.727770209312439,0.27330970764160156,-0.10875129699707031
1684110006157105400,9.28110546875,-0.40787211060523987,0.28011226654052734,0.12077903747558594
1684110006167146800,9.291146728515624,-0.09298399090766907,0.37279224395751953,0.2956348657608032
1684110006177187800,9.301187744140625,0.18584752082824707,0.41007232666015625,0.40098655223846436
1684110006187229200,9.311229248046875,0.41958677768707275,0.4254732131958008,0.47488367557525635
1684110006197270500,9.3212705078125,0.5990251302719116,0.5003452301025391,0.4478820562362671
1684110006207312000,9.331311767578125,0.7654560208320618,0.6585597991943359,0.3416701555252075
1684110006217353200,9.341353271484374,0.9178828597068787,0.8569488525390625,0.14272570610046387
1684110006227394300,9.351394287109375,1.0332286357879639,0.9448623657226562,-0.021037817001342773
1684110006237435600,9.361435546875,1.0634046792984009,0.9512243270874023,-0.08242404460906982
1684110006247477000,9.37147705078125,1.065023422241211,0.8118495941162109,-0.1708531379699707
1684110006257518300,9.381518310546875,0.9892186522483826,0.6227798461914062,-0.1697695255279541
1684110006267559400,9.391559326171874,0.8411554098129272,0.4464387893676758,-0.1949622631072998
1684110006277600800,9.401600830078126,0.6587150692939758,0.28282928466796875,-0.2584010362625122
1684110006287642000,9.41164208984375,0.4736936092376709,0.19400310516357422,-0.28130221366882324
1684110006297683500,9.421683349609374,0.30313432216644287,0.07462787628173828,-0.34726977348327637
1684110006307724800,9.431724853515625,0.22208254039287567,-0.02995586395263672,-0.46298277378082275
1684110006317766000,9.441765869140625,0.12505178153514862,-0.10320568084716797,-0.5989363193511963
1684110006327807200,9.45180712890625,0.006570249795913696,-0.16682147979736328,-0.6970131397247314
1684110006337848600,9.4618486328125,-0.10780155658721924,-0.17313480377197266,-0.7162567377090454
1684110006347890000,9.471889892578124,-0.23516309261322021,-0.11512565612792969,-0.7452142238616943
1684110006357931000,9.481930908203125,-0.35118359327316284,-0.05264854431152344,-0.6886740922927856
1684110006367972400,9.491972412109375,-0.41899415850639343,0.014308929443359375,-0.6740388870239258
1684110006378013700,9.502013671875,-0.4637554883956909,0.03545856475830078,-0.665259599685669
1684110006388055000,9.512054931640625,-0.4129158854484558,0.11100959777832031,-0.6593135595321655
1684110006398096100,9.52209619140625,-0.2857077121734619,0.1260662078857422,-0.6678410768508911
1684110006408137500,9.532137451171875,-0.0884583592414856,0.1738605499267578,-0.6377754211425781
1684110006418178800,9.5421787109375,0.12136417627334595,0.2544527053833008,-0.5980315208435059
1684110006428220200,9.55222021484375,0.30762630701065063,0.26772117614746094,-0.6063193082809448
1684110006438261500,9.562261474609375,0.4180445373058319,0.22601985931396484,-0.6292145252227783
1684110006448302600,9.572302490234375,0.4755038619041443,0.14396953582763672,-0.6880300045013428
1684110006458344000,9.582343994140626,0.47525453567504883,0.12916278839111328,-0.739206075668335
1684110006468385300,9.59238525390625,0.44731611013412476,0.05722999572753906,-0.7710874080657959
1684110006478426600,9.602426513671874,0.43150073289871216,0.016709327697753906,-0.6941307783126831
1684110006488467700,9.6124677734375,0.4860878586769104,-0.006793975830078125,-0.6932320594787598
1684110006498509000,9.622509033203125,0.5752261281013489,-0.0061931610107421875,-0.7298184633255005
1684110006508550400,9.63255029296875,0.6983262896537781,0.0566253662109375,-0.7886824607849121
1684110006518591700,9.642591796875,0.7923876643180847,0.10035324096679688,-0.8405253887176514
1684110006528633000,9.652633056640624,0.8349104523658752,0.10844135284423828,-0.8515870571136475
1684110006538674200,9.662674072265625,0.8130962252616882,0.09064292907714844,-0.8383402824401855
1684110006548715500,9.672715576171875,0.7099416851997375,0.04711437225341797,-0.7506314516067505
1684110006558756900,9.6827568359375,0.5262165665626526,0.023305892944335938,-0.6846438646316528
1684110006568798200,9.692798095703125,0.3539223074913025,-0.0024232864379882812,-0.6309547424316406
1684110006578839300,9.70283935546875,0.17992961406707764,-0.015901565551757812,-0.5847001075744629
1684110006588880600,9.712880615234376,0.029603242874145508,0.03277587890625,-0.5862385034561157
1684110006598922000,9.722921875,-0.05262720584869385,0.1431560516357422,-0.6752090454101562
1684110006608963300,9.73296337890625,-0.05390572547912598,0.26720142364501953,-0.6868479251861572
1684110006619004700,9.743004638671875,-0.023520827293395996,0.36902713775634766,-0.7896531820297241
1684110006629045800,9.753045654296875,0.03902888298034668,0.3866596221923828,-0.9968723058700562
1684110006639087000,9.763087158203126,0.11918509006500244,0.4207191467285156,-1.237748622894287
1684110006649128400,9.77312841796875,0.16831564903259277,0.3663005828857422,-1.6425421237945557
1684110006659169800,9.783169677734374,0.061530351638793945,0.32155799865722656,-2.107663631439209
1684110006669211000,9.7932109375,-0.12933504581451416,0.2670783996582031,-2.6110994815826416
1684110006679252200,9.803252197265625,-0.39433586597442627,0.15950298309326172,-3.046257495880127
1684110006689293600,9.81329345703125,-0.6347161531448364,0.03199481964111328,-3.4816112518310547
1684110006699335000,9.8233349609375,-0.7282248735427856,-0.08484458923339844,-3.783539295196533
1684110006709376000,9.8333759765625,-0.751505970954895,-0.1269054412841797,-3.893974542617798
1684110006719417300,9.843417236328126,-0.6780977249145508,-0.08024024963378906,-3.8318839073181152
1684110006729458700,9.853458740234375,-0.5626498460769653,0.159759521484375,-3.7361056804656982
1684110006739500000,9.8635,-0.38871073722839355,0.5017614364624023,-3.488292694091797
1684110006749541400,9.873541259765625,-0.15502679347991943,0.6783266067504883,-3.1065783500671387
1684110006759582500,9.88358251953125,0.18643999099731445,0.7383184432983398,-2.7344799041748047
1684110006769623800,9.893623779296876,0.5945420265197754,0.7354669570922852,-2.3735437393188477
1684110006779665200,9.9036650390625,0.9949965476989746,0.7353096008300781,-2.021933078765869
1684110006789706500,9.91370654296875,1.267439603805542,0.6620388031005859,-1.760694980621338
1684110006799747800,9.923747802734376,1.3574421405792236,0.5973329544067383,-1.452433705329895
1684110006809789000,9.933788818359375,1.30716872215271,0.5076704025268555,-1.1881619691848755
1684110006819830300,9.943830322265624,1.2259657382965088,0.3593864440917969,-0.902796745300293
1684110006829871600,9.95387158203125,1.193791389465332,0.22633075714111328,-0.6095981597900391
1684110006839913000,9.963912841796875,1.2537264823913574,-0.0064029693603515625,-0.29271507263183594
1684110006849954000,9.9739541015625,1.3340082168579102,-0.1811513900756836,0.12787318229675293
1684110006859995400,9.983995361328125,1.3749120235443115,-0.42217350006103516,0.5584509372711182
1684110006870036700,9.99403662109375,1.41621994972229,-0.5950603485107422,0.947291374206543
1684110006880078000,10.004078125,1.51102614402771,-0.6060237884521484,1.323630928993225
1684110006890119200,10.014119140625,1.5435974597930908,-0.5720233917236328,1.5862985849380493
1684110006900160500,10.024160400390626,1.4029728174209595,-0.45537471771240234,1.7247532606124878
1684110006910201900,10.034201904296875,1.191840410232544,-0.23814868927001953,1.785213589668274
1684110006920243200,10.0442431640625,0.8118023872375488,-0.06011772155761719,1.811734676361084
1684110006930284500,10.054284423828125,0.4092826843261719,0.11667633056640625,1.8057669401168823
1684110006940325600,10.06432568359375,0.0853118896484375,0.28803253173828125,1.8548582792282104
1684110006950367000,10.074366943359376,-0.19835305213928223,0.40020179748535156,1.9531521797180176
1684110006960408300,10.084408203125,-0.3324012756347656,0.48308849334716797,1.948118805885315
1684110006970449700,10.09444970703125,-0.30645251274108887,0.4396038055419922,1.8599306344985962
1684110006980491000,10.104490966796876,-0.15987420082092285,0.3995342254638672,1.7736412286758423
1684110006990532000,10.114531982421875,-0.09877610206604004,0.29845142364501953,1.6866413354873657
1684110007000573400,10.124573486328124,-0.15080571174621582,0.32684803009033203,1.5191473960876465
1684110007010614800,10.13461474609375,-0.2584195137023926,0.43082332611083984,1.2751500606536865
1684110007020656000,10.14465625,-0.3195481300354004,0.48273372650146484,1.040297269821167
1684110007030697200,10.154697265625,-0.38893771171569824,0.5394916534423828,0.8404597043991089
1684110007040738600,10.164738525390625,-0.4986133575439453,0.5914726257324219,0.6482136249542236
1684110007050780000,10.17477978515625,-0.6240681409835815,0.5456657409667969,0.4411255121231079
1684110007060821200,10.1848212890625,-0.7655198574066162,0.4501190185546875,0.2003403902053833
1684110007070862300,10.1948623046875,-1.0232120752334595,0.36203670501708984,-0.10619175434112549
1684110007080903700,10.204903564453126,-1.4125186204910278,0.2307882308959961,-0.3336249589920044
1684110007090945000,10.214945068359375,-1.8311553001403809,0.10623455047607422,-0.4409674406051636
1684110007100986400,10.224986328125,-2.2149338722229004,-0.06931495666503906,-0.4666658639907837
1684110007111027700,10.23502783203125,-2.5518364906311035,-0.1649789810180664,-0.45791399478912354
1684110007121068800,10.24506884765625,-2.7591748237609863,-0.18143463134765625,-0.3659825325012207
1684110007131110100,10.255110107421874,-2.8163866996765137,-0.1355142593383789,-0.16467535495758057
1684110007141151500,10.2651513671875,-2.543545722961426,0.023344039916992188,-0.01143646240234375
1684110007151192800,10.27519287109375,-1.9742019176483154,0.19072341918945312,0.06682181358337402
1684110007161234200,10.285234130859376,-1.2666593790054321,0.3224153518676758,0.05257678031921387
1684110007171275300,10.295275146484375,-0.6910871267318726,0.48848628997802734,-0.009333491325378418
1684110007181316600,10.305316650390624,-0.32730042934417725,0.6483240127563477,-0.045816659927368164
1684110007191358000,10.31535791015625,-0.21366918087005615,0.4005250930786133,0.03298687934875488
1684110007201399300,10.3253994140625,-0.17536211013793945,-0.16564178466796875,0.03104877471923828
1684110007211440600,10.335440673828124,-0.36090898513793945,-0.6674623489379883,-0.10528981685638428
1684110007221481700,10.345481689453125,-0.8038690090179443,-1.0026273727416992,-0.32653582096099854
1684110007231523000,10.355523193359375,-1.3390074968338013,-1.0621042251586914,-0.5444262027740479
1684110007241564400,10.365564453125,-1.7121461629867554,-0.9711179733276367,-0.6934241056442261
1684110007251605800,10.375605712890625,-1.7921804189682007,-0.9979543685913086,-0.78814697265625
1684110007261647000,10.385647216796874,-1.590634822845459,-1.283707618713379,-0.7340762615203857
1684110007271688200,10.395688232421875,-1.4829766750335693,-1.5535030364990234,-0.57480788230896
1684110007281729500,10.4057294921875,-1.6840049028396606,-1.470778465270996,-0.09676575660705566
1684110007291771000,10.41577099609375,-1.9630818367004395,-1.0649499893188477,0.8543241024017334
1684110007301812200,10.425812255859375,-2.0973191261291504,-0.6088657379150391,1.779837727546692
1684110007311853600,10.435853515625,-1.754542589187622,-0.34801387786865234,2.4394919872283936
1684110007321894700,10.445894775390625,-0.775353193283081,-0.2689933776855469,2.61452579498291
1684110007331936000,10.45593603515625,0.3117179870605469,-0.14361190795898438,2.492988109588623
1684110007341977300,10.465977294921874,1.2617590427398682,-0.05512523651123047,2.1046998500823975
1684110007352018700,10.476018798828125,1.9474859237670898,0.09918022155761719,1.609107494354248
1684110007362060000,10.48606005859375,2.3312928676605225,0.318695068359375,0.9396297931671143
1684110007372101000,10.49610107421875,2.4591758251190186,0.5239849090576172,0.26422345638275146
1684110007382142500,10.506142578125,2.38077974319458,0.7721090316772461,-0.34978187084198
1684110007392183800,10.516183837890624,2.143812417984009,0.8982677459716797,-0.8715819120407104
1684110007402225200,10.52622509765625,1.790818452835083,0.9917755126953125,-1.2262728214263916
1684110007412266200,10.536266357421875,1.4547003507614136,1.0275802612304688,-1.4863454103469849
1684110007422307600,10.5463076171875,1.0450366735458374,1.0162200927734375,-1.6515873670578003
1684110007432349000,10.556348876953125,0.4993646740913391,0.9090070724487305,-1.7721003293991089
1684110007442390300,10.566390380859374,-0.130271315574646,0.8111295700073242,-1.8576698303222656
1684110007452431600,10.576431640625,-0.5998408794403076,0.6631669998168945,-1.7335995435714722
1684110007462472700,10.58647265625,-0.8212922811508179,0.5143566131591797,-1.463931918144226
1684110007472514000,10.59651416015625,-0.7032868266105652,0.31210899353027344,-1.2394871711730957
1684110007482555400,10.606555419921875,-0.3570108413696289,0.08112335205078125,-0.9761737585067749
1684110007492596700,10.6165966796875,0.08551400899887085,-0.041291236877441406,-0.6860998868942261
1684110007502638000,10.62663818359375,0.5060802698135376,-0.045098304748535156,-0.5361438989639282
1684110007512679200,10.63667919921875,0.8133271336555481,0.010036468505859375,-0.3755042552947998
1684110007522720500,10.646720458984374,0.9574095010757446,0.041169166564941406,-0.13610541820526123
1684110007532761900,10.656761962890625,0.991582989692688,-0.1633615493774414,0.10767519474029541
1684110007542803200,10.66680322265625,0.9275720119476318,-0.32814693450927734,0.30986809730529785
1684110007552844500,10.676844482421876,0.8024568557739258,-0.5106887817382812,0.36734938621520996
1684110007562885600,10.6868857421875,0.5840232968330383,-0.4558849334716797,0.28143465518951416
1684110007572927000,10.696927001953124,0.3216455578804016,-0.34383392333984375,0.2801457643508911
1684110007582968300,10.70696826171875,0.05157630145549774,-0.19379901885986328,0.4246401786804199
1684110007593009700,10.717009765625,-0.1952938288450241,-0.07744026184082031,0.45825815200805664
1684110007603051000,10.727051025390624,-0.39650964736938477,0.010173797607421875,0.512065052986145
1684110007613092000,10.737092041015625,-0.5243716239929199,0.06430244445800781,0.46463215351104736
1684110007623133400,10.747133544921875,-0.5597057342529297,0.10645484924316406,0.3983266353607178
1684110007633174800,10.7571748046875,-0.43818941712379456,0.16767120361328125,0.3021254539489746
1684110007643216100,10.767216064453125,-0.20862260460853577,0.171478271484375,0.23873662948608398
1684110007653257500,10.777257568359374,0.021774858236312866,0.16106700897216797,0.09575200080871582
1684110007663298600,10.787298583984375,0.2375548630952835,0.1603841781616211,-0.03837907314300537
1684110007673340000,10.79733984375,0.4108787477016449,0.1430206298828125,-0.2490098476409912
1684110007683381200,10.80738134765625,0.5377350449562073,0.13751983642578125,-0.46820127964019775
1684110007693422600,10.817422607421875,0.6695950031280518,0.12221145629882812,-0.6329488754272461
1684110007703464000,10.8274638671875,0.7924171090126038,0.23322105407714844,-0.7193139791488647
1684110007713505000,10.837505126953126,0.9341595768928528,0.3102264404296875,-0.7680749893188477
1684110007723546400,10.84754638671875,1.0570478439331055,0.3604698181152344,-0.7531071901321411
1684110007733587700,10.857587646484374,1.1711156368255615,0.36011695861816406,-0.710451602935791
1684110007743629000,10.867629150390625,1.2082167863845825,0.23290157318115234,-0.633440375328064
1684110007753670400,10.87767041015625,1.170843482017517,0.14632415771484375,-0.5273069143295288
1684110007763711500,10.88771142578125,1.0535171031951904,0.05975151062011719,-0.4260246753692627
1684110007773752800,10.8977529296875,0.8583794832229614,-0.02198028564453125,-0.337039589881897
1684110007783794200,10.907794189453124,0.6873544454574585,-0.012904167175292969,-0.26734817028045654
1684110007793835500,10.91783544921875,0.5198549628257751,0.005587577819824219,-0.19782888889312744
1684110007803876600,10.927876708984375,0.3665768802165985,0.007282257080078125,-0.11191582679748535
1684110007813918000,10.93791796875,0.2956797182559967,-0.06978321075439453,-0.02165234088897705
1684110007823959300,10.947959228515625,0.24818569421768188,-0.09395599365234375,0.041664958000183105
1684110007834000600,10.958000732421874,0.2883729934692383,-0.04385089874267578,0.13542568683624268
1684110007844042000,10.9680419921875,0.3341537117958069,-0.008001327514648438,0.1639244556427002
1684110007854083000,10.9780830078125,0.40397635102272034,-0.043682098388671875,0.19169867038726807
1684110007864124400,10.98812451171875,0.47074106335639954,-0.021752357482910156,0.2543588876724243
1684110007874165800,10.998165771484375,0.5337339043617249,-0.07851409912109375,0.26349425315856934
1684110007884207000,11.00820703125,0.6155713200569153,-0.14694786071777344,0.28836607933044434
1684110007894248400,11.01824853515625,0.6310537457466125,-0.1579141616821289,0.31973063945770264
1684110007904289500,11.02828955078125,0.6148276329040527,-0.08780956268310547,0.3339797258377075
1684110007914331000,11.038330810546874,0.5429346561431885,-0.09444141387939453,0.3356896638870239
1684110007924372200,11.048372314453125,0.4125581383705139,-0.15364551544189453,0.29625678062438965
1684110007934413600,11.05841357421875,0.3046361207962036,-0.19355010986328125,0.2922992706298828
1684110007944455000,11.068454833984376,0.21585392951965332,-0.15195655822753906,0.22788846492767334
1684110007954496300,11.078496337890625,0.1798298954963684,-0.1222076416015625,0.19171011447906494
1684110007964537300,11.088537353515624,0.15527093410491943,-0.03268146514892578,0.11698925495147705
1684110007974578700,11.09857861328125,0.18439459800720215,-0.03639411926269531,0.018018007278442383
1684110007984620000,11.1086201171875,0.1898074746131897,-0.0043182373046875,-0.13787007331848145
1684110007994661400,11.118661376953124,0.15878939628601074,0.025140762329101562,-0.23319196701049805
1684110008004702700,11.12870263671875,0.13160645961761475,0.07344627380371094,-0.3635958433151245
1684110008014743800,11.138743896484375,0.09177297353744507,0.08319950103759766,-0.45938146114349365
1684110008024785200,11.14878515625,0.02586972713470459,0.09991455078125,-0.549117922782898
1684110008034826500,11.158826416015625,-0.03884035348892212,0.09259033203125,-0.5801655054092407
1684110008044867800,11.168867919921874,-0.08985739946365356,0.04459190368652344,-0.554850697517395
1684110008054909200,11.1789091796875,-0.11004060506820679,0.022943496704101562,-0.5163496732711792
1684110008064950300,11.1889501953125,-0.13571226596832275,0.057788848876953125,-0.45331239700317383
1684110008074991600,11.19899169921875,-0.12154752016067505,0.07795238494873047,-0.3928440809249878
1684110008085033000,11.209032958984375,-0.08764338493347168,0.08601093292236328,-0.33746254444122314
1684110008095074300,11.21907421875,-0.07008671760559082,0.06569099426269531,-0.30383479595184326
1684110008105115600,11.22911572265625,-0.05465054512023926,0.040966033935546875,-0.253750205039978
1684110008115156700,11.23915673828125,-0.01795440912246704,-0.023428916931152344,-0.2250906229019165
1684110008125198000,11.249197998046874,0.0018110275268554688,-0.025656700134277344,-0.2101510763168335
1684110008135239400,11.259239501953125,0.05944424867630005,-0.06798076629638672,-0.16849815845489502
1684110008145280800,11.26928076171875,0.11440807580947876,-0.0884256362915039,-0.11528563499450684
1684110008155322000,11.279322021484376,0.15945690870285034,-0.09680366516113281,-0.045956969261169434
1684110008165363200,11.28936328125,0.20119190216064453,-0.0745382308959961,-0.019588112831115723
1684110008175404500,11.299404541015624,0.22972792387008667,-0.0009756088256835938,0.06086599826812744
1684110008185446000,11.30944580078125,0.2212640643119812,0.054732322692871094,0.07667875289916992
1684110008195487200,11.3194873046875,0.19510328769683838,0.07635021209716797,0.10451507568359375
1684110008205528600,11.329528564453126,0.16823822259902954,0.05275535583496094,0.12725794315338135
1684110008215570000,11.33956982421875,0.10091197490692139,0.015321731567382812,0.1403135061264038
1684110008225611000,11.349611083984374,0.013049900531768799,0.0067310333251953125,0.20715773105621338
1684110008235652400,11.35965234375,-0.04733699560165405,0.00067901611328125,0.15256834030151367
1684110008245693700,11.369693603515625,-0.10133194923400879,-0.007569313049316406,0.1459674835205078
1684110008255735000,11.379735107421874,-0.12949997186660767,-0.05792713165283203,0.09944784641265869
1684110008265776400,11.3897763671875,-0.12728649377822876,-0.08150196075439453,0.08270156383514404
1684110008275817500,11.3998173828125,-0.11410379409790039,-0.0857858657836914,0.11624538898468018
1684110008285858800,11.40985888671875,-0.09488826990127563,-0.10407638549804688,0.09104835987091064
1684110008295900200,11.419900146484375,-0.06314271688461304,-0.06089305877685547,0.12371158599853516
1684110008305941500,11.42994140625,-0.005915701389312744,-0.025638580322265625,0.16863441467285156
1684110008315982800,11.43998291015625,0.016872942447662354,0.020600318908691406,0.21143507957458496
1684110008326024200,11.450024169921875,0.03151434659957886,0.004608154296875,0.28061187267303467
1684110008336065300,11.460065185546876,0.03608006238937378,0.00047016143798828125,0.3636665344238281
1684110008346106600,11.470106689453125,0.049783945083618164,0.0009307861328125,0.4463484287261963
1684110008356148000,11.48014794921875,0.04671478271484375,-0.022365570068359375,0.47478634119033813
1684110008366189300,11.490189208984376,0.0691491961479187,-0.06428241729736328,0.5694838166236877
1684110008376230700,11.500230712890625,0.08056873083114624,-0.11750411987304688,0.6020858883857727
1684110008386271700,11.510271728515624,0.05446678400039673,-0.13954734802246094,0.6630859375
1684110008396313000,11.52031298828125,-0.01835399866104126,-0.17330455780029297,0.6787267923355103
1684110008406354400,11.5303544921875,-0.052119433879852295,-0.13367462158203125,0.7195088267326355
1684110008416395800,11.540395751953126,-0.13397157192230225,-0.066558837890625,0.7614974975585938
1684110008426437000,11.55043701171875,-0.1914464235305786,-0.035895347595214844,0.7554001212120056
1684110008436478500,11.560478515625,-0.25943970680236816,-0.06688976287841797,0.7749998569488525
1684110008446519600,11.57051953125,-0.2972845435142517,-0.06662178039550781,0.8149852156639099
1684110008456561000,11.580560791015625,-0.3457643985748291,-0.08505630493164062,0.7948768138885498
1684110008466602200,11.590602294921876,-0.36777377128601074,-0.1243600845336914,0.7348096370697021
1684110008476643600,11.6006435546875,-0.408686101436615,-0.1630687713623047,0.6781572699546814
1684110008486685000,11.610684814453125,-0.47507935762405396,-0.1470804214477539,0.5945651531219482
1684110008496726000,11.62072607421875,-0.5516378879547119,-0.15737056732177734,0.5345789790153503
1684110008506767400,11.630767333984375,-0.5881891846656799,-0.13699722290039062,0.4487478733062744
1684110008516808700,11.64080859375,-0.6204482913017273,-0.1429300308227539,0.46920275688171387
1684110008526850000,11.65085009765625,-0.651020884513855,-0.08054924011230469,0.47624993324279785
1684110008536891400,11.660891357421875,-0.6564937233924866,-0.0899038314819336,0.48423314094543457
1684110008546932700,11.6709326171875,-0.6511122584342957,-0.120330810546875,0.5260735750198364
1684110008556973800,11.680973876953125,-0.644165575504303,-0.105499267578125,0.5421483516693115
1684110008567015200,11.69101513671875,-0.5934101939201355,-0.05088233947753906,0.5846433639526367
1684110008577056500,11.701056396484375,-0.53307044506073,-0.04191303253173828,0.6175656318664551
1684110008587097900,11.711097900390625,-0.4635825753211975,-0.04480266571044922,0.6969516277313232
1684110008597139200,11.72113916015625,-0.4207119941711426,-0.09462642669677734,0.7510000467300415
1684110008607180300,11.73118017578125,-0.38334864377975464,-0.056427955627441406,0.7846217155456543
1684110008617221600,11.7412216796875,-0.3517078161239624,-0.05875110626220703,0.8118396401405334
1684110008627263000,11.751262939453126,-0.3232526183128357,-0.01603221893310547,0.8602748513221741
1684110008637304300,11.76130419921875,-0.2974500060081482,-0.06301498413085938,0.8745915293693542
1684110008647345700,11.771345703125,-0.2666931748390198,-0.09682273864746094,0.84772789478302
1684110008657387000,11.781386962890625,-0.252036452293396,-0.17649459838867188,0.7685185670852661
1684110008667428000,11.791427978515625,-0.20174425840377808,-0.28727054595947266,0.5818866491317749
1684110008677469400,11.801469482421876,-0.15478265285491943,-0.4123706817626953,0.387020468711853
1684110008687510800,11.8115107421875,-0.08084160089492798,-0.4812021255493164,0.19489896297454834
1684110008697552100,11.82155224609375,-0.031890273094177246,-0.41008949279785156,0.10769617557525635
1684110008707593500,11.831593505859376,0.02960062026977539,-0.34458351135253906,0.2283029556274414
1684110008717634600,11.841634521484375,0.09850788116455078,-0.19689273834228516,0.43322837352752686
1684110008727676000,11.851676025390624,0.16710472106933594,-0.14476299285888672,0.5137252807617188
1684110008737717200,11.86171728515625,0.28512656688690186,-0.19635581970214844,0.46924006938934326
1684110008747758600,11.871758544921875,0.4225205183029175,-0.3524484634399414,0.44801366329193115
1684110008757800000,11.881800048828126,0.6046759486198425,-0.4207935333251953,0.4115639925003052
1684110008767841300,11.89184130859375,0.771354079246521,-0.47618675231933594,0.27115678787231445
1684110008777882400,11.90188232421875,0.9388144016265869,-0.5075712203979492,0.07492542266845703
1684110008787923700,11.911923828125,1.0624947547912598,-0.41210174560546875,-0.09269261360168457
1684110008797965000,11.921965087890625,1.0697224140167236,-0.22716140747070312,-0.1831526756286621
1684110008808006400,11.93200634765625,1.0130045413970947,-0.020009994506835938,-0.3793283700942993
1684110008818047700,11.9420478515625,0.9212939739227295,0.19975852966308594,-0.5336356163024902
1684110008828089000,11.952089111328124,0.7692439556121826,0.36857128143310547,-0.7409076690673828
1684110008838130200,11.962130126953125,0.6186292171478271,0.43318653106689453,-0.9052954912185669
1684110008848171500,11.972171630859375,0.5438278913497925,0.4534187316894531,-1.1077604293823242
1684110008858212900,11.982212890625,0.48768824338912964,0.3416872024536133,-1.300354242324829
1684110008868254200,11.992254150390625,0.4628446102142334,0.16736507415771484,-1.4828435182571411
1684110008878295600,12.002295654296875,0.4183417558670044,0.033104896545410156,-1.5413901805877686
1684110008888337000,12.0123369140625,0.3317570686340332,0.024512290954589844,-1.6371465921401978
1684110008898378000,12.0223779296875,0.12293219566345215,-0.04522132873535156,-1.6932390928268433
1684110008908419300,12.03241943359375,-0.407420814037323,-0.17556476593017578,-1.8384594917297363
1684110008918460700,12.042460693359375,-1.1009126901626587,-0.13694381713867188,-2.0045132637023926
1684110008928502000,12.052501953125,-1.7197585105895996,-0.041792869567871094,-2.0239076614379883
1684110008938543400,12.06254345703125,-2.1354782581329346,0.04416656494140625,-1.5736058950424194
1684110008948584400,12.07258447265625,-2.3292529582977295,0.1341228485107422,-0.9536511898040771
1684110008958625800,12.082625732421874,-2.212573528289795,0.180694580078125,-0.3687906265258789
1684110008968667100,12.092667236328126,-1.810478687286377,0.19076919555664062,0.14296376705169678
1684110008978708500,12.10270849609375,-1.283889651298523,0.17806720733642578,0.5268632173538208
1684110008988749800,12.112749755859374,-0.7071985602378845,0.2804584503173828,0.7789818048477173
1684110008998791200,12.122791259765625,-0.22953033447265625,0.3514251708984375,0.865327775478363
1684110009008832300,12.132832275390625,0.14270347356796265,0.3883495330810547,0.9050165414810181
1684110009018873600,12.14287353515625,0.39716261625289917,0.41994190216064453,0.8923752903938293
1684110009028915000,12.1529150390625,0.6200803518295288,0.34832096099853516,0.898574948310852
1684110009038956300,12.162956298828124,0.7618047595024109,0.23575115203857422,0.8139657974243164
1684110009048997600,12.17299755859375,0.8073906302452087,0.16597461700439453,0.7510285377502441
1684110009059039000,12.1830390625,0.7953145503997803,0.15093708038330078,0.6833703517913818
1684110009069080000,12.193080078125,0.7129557728767395,-0.2630338668823242,0.5297287702560425
1684110009079121400,12.203121337890625,0.5248522758483887,-0.5946779251098633,0.31170177459716797
1684110009089162800,12.213162841796875,0.2463223934173584,-0.9080963134765625,0.09233677387237549
1684110009099204000,12.2232041015625,-0.038236260414123535,-1.4967279434204102,-0.47037386894226074
1684110009109245400,12.233245361328125,-0.42185524106025696,-1.3856029510498047,-1.1092338562011719
1684110009119286800,12.243286865234374,-0.9065660238265991,-0.40564537048339844,-1.0244598388671875
1684110009129327900,12.253327880859375,-1.369672417640686,0.6915349960327148,-1.2602853775024414
1684110009139369200,12.263369140625,-1.7027955055236816,1.0246772766113281,-1.9959781169891357
1684110009149410600,12.27341064453125,-1.850504755973816,0.7013969421386719,-2.60286283493042
1684110009159452000,12.283451904296875,-1.8757750988006592,0.6359777450561523,-2.574983596801758
1684110009169493200,12.2934931640625,-1.8260079622268677,1.1251821517944336,-2.234537124633789
1684110009179534600,12.30353466796875,-1.6509122848510742,1.0557565689086914,-2.002354621887207
1684110009189575700,12.31357568359375,-1.3664543628692627,0.5266714096069336,-2.194648504257202
1684110009199617000,12.323616943359376,-1.0354855060577393,0.4351491928100586,-2.4846372604370117
1684110009209658400,12.333658447265625,-0.7451472282409668,0.6781558990478516,-2.4171385765075684
1684110009219699700,12.34369970703125,-0.6558375954627991,0.7200603485107422,-2.0630524158477783
1684110009229741000,12.353740966796876,-0.631807804107666,0.7270421981811523,-1.7063111066818237
1684110009239782400,12.363782470703125,-0.606773853302002,0.4631175994873047,-1.463077425956726
1684110009249823500,12.373823486328124,-0.59536212682724,-0.028081893920898438,-1.235406517982483
1684110009259864800,12.38386474609375,-0.5253733992576599,-0.45247936248779297,-1.1045506000518799
1684110009269906200,12.39390625,-0.3521782159805298,-0.6887292861938477,-0.9582200050354004
1684110009279947500,12.403947509765626,-0.02981579303741455,-0.8065242767333984,-0.8711346387863159
1684110009289988900,12.41398876953125,0.4458872079849243,-0.808140754699707,-0.9006232023239136
1684110009300030200,12.4240302734375,0.8464128375053406,-0.8912973403930664,-0.8624570369720459
1684110009310071300,12.4340712890625,1.0655676126480103,-0.9285125732421875,-0.8615502119064331
1684110009320112600,12.444112548828125,1.1581463813781738,-0.9029922485351562,-0.908332347869873
1684110009330154000,12.454154052734374,1.1767470836639404,-0.7122621536254883,-0.9786695241928101
1684110009340195300,12.4641953125,1.1192734241485596,-0.39493846893310547,-0.8963202238082886
1684110009350236700,12.474236572265625,1.0348951816558838,-0.027667999267578125,-0.7355968952178955
1684110009360278000,12.484278076171876,0.9829943180084229,0.37271976470947266,-0.5523680448532104
1684110009370319400,12.4943193359375,0.9800498485565186,0.6674137115478516,-0.4781837463378906
1684110009380360400,12.5043603515625,1.0326491594314575,0.8635702133178711,-0.4839891195297241
1684110009390401800,12.51440185546875,1.0677192211151123,0.9730949401855469,-0.5423883199691772
