time,seconds_elapsed,z,y,x
1683931744776202200,0.0422021484375,0,0,0
1683931744786244400,0.052244384765625,-0.3001270294189453,-0.2730538845062256,0.6598186492919922
1683931744796286500,0.062286376953125,0.2884702682495117,0.5658266544342041,-0.5420663356781006
1683931744806328600,0.07232861328125,0.6045494079589844,-1.4001588821411133,0.9203224182128906
1683931744816371000,0.082370849609375,0.47223472595214844,0.5031027793884277,-0.6377902030944824
1683931744826413000,0.0924130859375,1.0903196334838867,-1.1002509593963623,0.08177709579467773
1683931744836455200,0.102455078125,0.3011035919189453,0.035196542739868164,-0.4558379650115967
1683931744846497300,0.112497314453125,-0.4972047805786133,-0.9986593723297119,0.9702050685882568
1683931744856539400,0.122539306640625,-0.6925859451293945,-0.1722424030303955,-0.36098337173461914
1683931744866581500,0.13258154296875,-1.1803102493286133,-0.5648810863494873,0.6976637840270996
1683931744876623600,0.14262353515625,-1.1245455741882324,-1.1285405158996582,0.5932581424713135
1683931744886666000,0.152666015625,-1.200305461883545,-0.09830164909362793,-0.21635055541992188
1683931744896708000,0.1627080078125,-0.5036139488220215,-0.20018529891967773,0.005319833755493164
1683931744906750200,0.172750244140625,0.5844049453735352,0.11791682243347168,0.8335967063903809
1683931744916792300,0.182792236328125,0.950160026550293,0.5362403392791748,1.1760988235473633
1683931744926834400,0.19283447265625,0.8954124450683594,1.4534648656845093,1.052119255065918
1683931744936876500,0.20287646484375,0.3975954055786133,0.10275435447692871,1.6928825378417969
1683931744946918700,0.212918701171875,-0.34971141815185547,0.5961905717849731,1.1312832832336426
1683931744956961000,0.2229609375,-1.2968902587890625,0.3605358600616455,0.5549430847167969
1683931744967003100,0.233003173828125,-0.7729110717773438,0.2636265754699707,-0.3749065399169922
1683931744977045200,0.243045166015625,0.2063121795654297,0.09738612174987793,-0.1649646759033203
1683931744987087400,0.25308740234375,0.5737686157226562,0.27720212936401367,-0.7683305740356445
1683931744997129500,0.26312939453125,0.6951360702514648,0.13506269454956055,-1.2429134845733643
1683931745007171600,0.273171630859375,0.5462455749511719,-0.6551876068115234,-0.9037513732910156
1683931745017213700,0.283213623046875,0.24712133407592773,-0.7745106220245361,-0.7139182090759277
1683931745027255800,0.293255859375,-0.2633938789367676,-0.5417306423187256,-0.5571579933166504
1683931745037298200,0.303298095703125,-0.4151134490966797,-0.39852023124694824,-0.28478384017944336
1683931745047340300,0.31334033203125,-0.2109060287475586,-0.31053757667541504,0.20368671417236328
1683931745057382400,0.32338232421875,-0.07279157638549805,0.035346031188964844,0.6159505844116211
1683931745067424500,0.333424560546875,-0.3514728546142578,0.5501853227615356,0.4969353675842285
1683931745077466600,0.343466552734375,-0.47742319107055664,0.7852954864501953,0.6231412887573242
1683931745087508700,0.3535087890625,-0.4769606590270996,0.6762434244155884,0.6871562004089355
1683931745097551000,0.363551025390625,-0.47115468978881836,0.2510157823562622,0.5459799766540527
1683931745107593200,0.37359326171875,-0.26330137252807617,-0.06945264339447021,0.3540372848510742
1683931745117635300,0.38363525390625,0.08299446105957031,-0.2601966857910156,0.1903223991394043
1683931745127677400,0.393677490234375,0.16165637969970703,-0.5855399370193481,0.12254619598388672
1683931745137719600,0.403719482421875,0.35498714447021484,-1.0836799144744873,0.20741510391235352
1683931745147761700,0.41376171875,0.22768259048461914,-1.289535403251648,-0.006969451904296875
1683931745157803800,0.4238037109375,0.21500349044799805,-1.4217321872711182,-0.22585344314575195
1683931745167846100,0.43384619140625,0.1845111846923828,-1.1883628368377686,-0.23579740524291992
1683931745177888300,0.44388818359375,0.008603096008300781,-0.8854060173034668,-0.11688899993896484
1683931745187930400,0.453930419921875,-0.16462230682373047,-0.5448436737060547,0.023338794708251953
1683931745197972500,0.463972412109375,-0.1410531997680664,-0.2917640209197998,0.16088533401489258
1683931745208014600,0.4740146484375,-0.19535303115844727,0.04008078575134277,0.10085821151733398
1683931745218056700,0.484056640625,-0.19005775451660156,-0.013031721115112305,0.22895431518554688
1683931745228098800,0.494098876953125,-0.08481502532958984,-0.3674185276031494,0.24859905242919922
1683931745238141000,0.504140869140625,0.22496986389160156,-0.6248133182525635,0.18945741653442383
1683931745248183300,0.514183349609375,0.43999338150024414,-0.5544085502624512,0.1128382682800293
1683931745258225400,0.524225341796875,0.4663844108581543,-0.379913330078125,-0.007568836212158203
1683931745268267500,0.534267578125,0.4891648292541504,-0.37235569953918457,0.12644672393798828
1683931745278309600,0.5443095703125,0.17769241333007812,-0.37038302421569824,0.08574914932250977
1683931745288351700,0.554351806640625,-0.3908100128173828,-0.27092957496643066,-0.018853187561035156
1683931745298393900,0.564393798828125,-0.8129096031188965,-0.12812471389770508,0.10211372375488281
1683931745308436000,0.57443603515625,-0.7225255966186523,-0.05000114440917969,0.07270193099975586
1683931745318478300,0.584478271484375,-0.5006966590881348,0.04607105255126953,0.0365595817565918
1683931745328520400,0.5945205078125,0.3310694694519043,0.12479329109191895,0.06661272048950195
1683931745338562600,0.6045625,0.14353466033935547,0.2411811351776123,0.14226245880126953
1683931745348604700,0.614604736328125,-0.27866172790527344,0.2715318202972412,0.30743885040283203
1683931745358646800,0.624646728515625,-0.2813835144042969,0.011447668075561523,0.3280768394470215
1683931745368689000,0.63468896484375,0.027682781219482422,-0.09802556037902832,0.1749110221862793
1683931745378731000,0.64473095703125,-0.118560791015625,-0.10809612274169922,0.042258262634277344
1683931745388773400,0.6547734375,0.07187461853027344,-0.05869746208190918,-0.24411773681640625
1683931745398815500,0.6648154296875,0.41183042526245117,-0.02610039710998535,-0.39742374420166016
1683931745408857600,0.674857666015625,0.20415830612182617,0.07689332962036133,-0.3787064552307129
1683931745418899700,0.684899658203125,0.07145881652832031,0.3314056396484375,-0.24076509475708008
1683931745428941800,0.69494189453125,-0.22881412506103516,0.4282715320587158,-0.035613059997558594
1683931745438984000,0.70498388671875,-0.1962299346923828,0.29623889923095703,-0.1534862518310547
1683931745449026000,0.715026123046875,-0.1801161766052246,0.20531010627746582,0.12868547439575195
1683931745459068200,0.725068115234375,-0.3336315155029297,0.03960895538330078,-0.015711307525634766
1683931745469110500,0.735110595703125,-0.27719640731811523,-0.20076680183410645,-0.27799129486083984
1683931745479152600,0.745152587890625,-0.22369813919067383,-0.0942535400390625,-0.26818227767944336
1683931745489194800,0.75519482421875,-0.20726919174194336,-0.037923336029052734,-0.1612701416015625
1683931745499236900,0.76523681640625,-0.15801763534545898,-0.012116670608520508,-0.17681169509887695
1683931745509279000,0.775279052734375,0.10097026824951172,-0.02968144416809082,-0.0543212890625
1683931745519321000,0.785321044921875,0.18664884567260742,-0.11756277084350586,-0.02674722671508789
1683931745529363200,0.79536328125,0.30661535263061523,-0.19875669479370117,-0.3561735153198242
1683931745539405600,0.805405517578125,0.3123660087585449,-0.26358795166015625,-0.6083288192749023
1683931745549447700,0.81544775390625,0.1275920867919922,-0.25246214866638184,-0.8052711486816406
1683931745559489800,0.82548974609375,-0.15695428848266602,-0.13388562202453613,-1.184396743774414
1683931745569532000,0.835531982421875,0.2259373664855957,-0.01782393455505371,-1.1316442489624023
1683931745579574000,0.845573974609375,0.5068435668945312,0.07280850410461426,-0.7434282302856445
1683931745589616000,0.8556162109375,0.8634929656982422,0.13403081893920898,-0.586735725402832
1683931745599658200,0.865658203125,1.3025717735290527,0.12818217277526855,-0.5646777153015137
1683931745609700600,0.87570068359375,2.082646369934082,0.10971236228942871,-0.6574068069458008
1683931745619742700,0.88574267578125,2.8938283920288086,0.7633000612258911,-0.6559109687805176
1683931745629784800,0.895784912109375,1.322288990020752,0.22284555435180664,0.2494673728942871
1683931745639827000,0.905826904296875,-0.5329923629760742,0.12180948257446289,1.75368070602417
1683931745649869000,0.915869140625,-2.0425000190734863,1.0620239973068237,2.6948752403259277
1683931745659911200,0.9259111328125,-2.8783702850341797,1.456733226776123,3.2075448036193848
1683931745669953300,0.935953369140625,-3.246567487716675,1.3568345308303833,2.578449249267578
1683931745679995400,0.945995361328125,-3.216749906539917,1.2401819229125977,1.6876215934753418
1683931745690037800,0.956037841796875,-2.8052706718444824,1.1025253534317017,1.142871379852295
1683931745700079900,0.966079833984375,-1.9156126976013184,0.8355133533477783,0.8487405776977539
1683931745710122000,0.9761220703125,-1.129033088684082,0.644556999206543,0.4467320442199707
1683931745720164000,0.9861640625,-0.2151193618774414,0.7149320840835571,0.20221233367919922
1683931745730206200,0.996206298828125,1.1458501815795898,0.7373752593994141,-0.310915470123291
1683931745740248300,1.006248291015625,2.154910087585449,0.6509357690811157,-0.7110919952392578
1683931745750290700,1.016290771484375,2.966312885284424,0.3911632299423218,-0.9713802337646484
1683931745760332800,1.026332763671875,2.720925807952881,0.2692258358001709,-1.3811330795288086
1683931745770375000,1.036375,1.6841158866882324,0.17843890190124512,-1.6930007934570312
1683931745780417000,1.0464169921875,0.5241031646728516,0.2720259428024292,-1.6957354545593262
1683931745790459100,1.056459228515625,0.015583038330078125,0.2272588014602661,-1.256995677947998
1683931745800501200,1.066501220703125,-0.33343935012817383,0.1859116554260254,-0.6966862678527832
1683931745810543400,1.07654345703125,-0.9660959243774414,0.31652140617370605,-0.0042743682861328125
1683931745820585700,1.086585693359375,-1.386068344116211,0.34229421615600586,0.47441959381103516
1683931745830627800,1.0966279296875,-1.6440629959106445,0.40095949172973633,0.7847270965576172
1683931745840670000,1.106669921875,-1.0950417518615723,-0.09308195114135742,0.8868751525878906
1683931745850712000,1.116712158203125,0.03863859176635742,-0.2811248302459717,0.33986663818359375
1683931745860754200,1.126754150390625,0.7321624755859375,-0.5838580131530762,0.06361246109008789
1683931745870796300,1.13679638671875,0.7060127258300781,-0.8632879257202148,-0.35274267196655273
1683931745880838400,1.14683837890625,0.5770978927612305,-0.8162510395050049,-0.6327433586120605
1683931745890880500,1.156880615234375,0.35689401626586914,-0.7405991554260254,-0.4474940299987793
1683931745900922600,1.166922607421875,0.21204519271850586,-0.5657830238342285,-0.31525182723999023
1683931745910965000,1.176965087890625,0.26722097396850586,-0.31931138038635254,-0.31298828125
1683931745921007000,1.187007080078125,0.4191427230834961,-0.2764291763305664,-0.3478078842163086
1683931745931049200,1.19704931640625,0.40006446838378906,-0.16305160522460938,-0.6055459976196289
1683931745941091300,1.20709130859375,0.3637809753417969,-0.08532404899597168,-0.5843667984008789
1683931745951133400,1.217133544921875,0.34993982315063477,0.0458676815032959,-0.44320106506347656
1683931745961175600,1.227175537109375,0.48408031463623047,0.29307305812835693,-0.47420406341552734
1683931745971218000,1.237218017578125,0.378448486328125,0.5622061491012573,-0.835148811340332
1683931745981260000,1.247260009765625,0.34958839416503906,0.1707533597946167,-0.5974969863891602
1683931745991302100,1.25730224609375,0.37547779083251953,0.03443002700805664,-0.8282666206359863
1683931746001344300,1.26734423828125,0.8113646507263184,-0.05650973320007324,-0.12340164184570312
1683931746011386400,1.277386474609375,0.6239876747131348,0.34300267696380615,0.3336963653564453
1683931746021428500,1.287428466796875,0.2233719825744629,1.273960828781128,0.20201587677001953
1683931746031470600,1.297470703125,0.03829813003540039,0.25845134258270264,0.9004611968994141
1683931746041513000,1.307512939453125,0.33067798614501953,-0.28180861473083496,1.143477439880371
1683931746051555000,1.31755517578125,0.2289886474609375,0.02530384063720703,0.7327423095703125
1683931746061597200,1.32759716796875,0.05122661590576172,0.17548775672912598,0.31202125549316406
1683931746071639300,1.337639404296875,-0.2713766098022461,0.17399120330810547,-0.12363719940185547
1683931746081681400,1.347681396484375,-0.3918647766113281,0.22316694259643555,-0.4987812042236328
1683931746091723500,1.3577236328125,0.20767807960510254,0.02817678451538086,-0.35945892333984375
1683931746101765600,1.367765625,1.1402242183685303,-0.34562063217163086,-0.2578592300415039
1683931746111807700,1.377807861328125,2.189136028289795,-0.8034353256225586,-0.3568716049194336
1683931746121850000,1.38785009765625,1.8537957668304443,-0.9029524326324463,-0.5163164138793945
1683931746131892200,1.397892333984375,1.0869131088256836,-0.8354589939117432,-0.837066650390625
1683931746141934300,1.407934326171875,0.35015225410461426,-0.5539407730102539,-1.0540704727172852
1683931746151976400,1.4179765625,-0.11968374252319336,-0.16485190391540527,-1.3166298866271973
1683931746162018600,1.4280185546875,-0.683159589767456,0.06771087646484375,-1.3262195587158203
1683931746172060700,1.438060791015625,-1.0112457275390625,-0.04851984977722168,-0.4993133544921875
1683931746182102800,1.448102783203125,-1.3261737823486328,0.12960600852966309,-0.2514352798461914
1683931746192145200,1.458145263671875,-1.4088749885559082,0.280256986618042,0.4106588363647461
1683931746202187300,1.468187255859375,-1.0501912832260132,0.644049882888794,0.7016115188598633
1683931746212229400,1.4782294921875,-0.5328061580657959,0.7923834323883057,0.8908271789550781
1683931746222271500,1.488271484375,-0.011229991912841797,0.4177718162536621,1.575643539428711
1683931746232313600,1.498313720703125,0.40055346488952637,-0.29761219024658203,1.8345746994018555
1683931746242355700,1.508355712890625,0.5057132244110107,-0.6837036609649658,1.5935125350952148
1683931746252398000,1.518398193359375,0.43893635272979736,-0.809035062789917,1.2574577331542969
1683931746262440200,1.528440185546875,0.14264976978302002,-0.7767794132232666,0.5985870361328125
1683931746272482300,1.538482421875,-0.3750162124633789,-0.3382837772369385,-0.5510482788085938
1683931746282524400,1.5485244140625,-0.5240644812583923,0.037535905838012695,-1.1227083206176758
1683931746292566500,1.55856640625,-0.5570446252822876,0.6243634223937988,-2.0584497451782227
1683931746302608600,1.568608642578125,-0.2747252583503723,0.49863338470458984,-1.5784525871276855
1683931746312650800,1.578650634765625,0.011437714099884033,0.6958065032958984,-1.6696338653564453
1683931746322692900,1.58869287109375,0.2403346300125122,0.6395478248596191,-0.8924484252929688
1683931746332735000,1.59873486328125,0.36189383268356323,0.5557651519775391,-0.38111019134521484
1683931746342777300,1.60877734375,0.05215030908584595,0.6408803462982178,-0.08606338500976562
1683931746352819500,1.6188193359375,-0.2558130621910095,0.7336277961730957,0.008907318115234375
1683931746362861600,1.628861572265625,-0.43280208110809326,0.91141676902771,-0.41651439666748047
1683931746372903700,1.638903564453125,-0.31379514932632446,1.234410047531128,-0.8528618812561035
1683931746382945800,1.64894580078125,-0.433390349149704,1.2894864082336426,-0.8876485824584961
1683931746392988000,1.65898779296875,-0.4866061210632324,1.2834665775299072,-0.4113321304321289
1683931746403030300,1.6690302734375,-0.6053552627563477,1.3744101524353027,-0.11766624450683594
1683931746413072400,1.679072265625,-0.4918370842933655,1.1021013259887695,-0.5021166801452637
1683931746423114500,1.689114501953125,0.15259891748428345,0.34369897842407227,0.27422237396240234
1683931746433156600,1.699156494140625,0.7670186758041382,0.04409933090209961,1.5288629531860352
1683931746443198700,1.70919873046875,1.250704288482666,0.316042423248291,2.3660945892333984
1683931746453240800,1.71924072265625,0.756872296333313,0.4029231071472168,3.6674094200134277
1683931746463283000,1.729282958984375,0.25457483530044556,1.050504207611084,3.9006991386413574
1683931746473325300,1.7393251953125,-0.2599206268787384,1.622701644897461,2.7293896675109863
1683931746483367400,1.749367431640625,-0.5166658163070679,1.9406929016113281,1.7535557746887207
1683931746493409500,1.759409423828125,-0.7302951812744141,1.9697704315185547,0.7810287475585938
1683931746503451600,1.76945166015625,-1.0372357368469238,1.4243130683898926,0.016878604888916016
1683931746513493800,1.77949365234375,-0.9530577659606934,0.5133962631225586,-0.09366035461425781
1683931746523536000,1.789535888671875,-0.6287616491317749,0.2103748321533203,-0.49956178665161133
1683931746533578000,1.799577880859375,-0.02878950908780098,0.14721059799194336,-0.5307750701904297
1683931746543620000,1.8096201171875,0.5483323931694031,-0.0357666015625,-0.07579565048217773
1683931746553662200,1.819662109375,0.8351197838783264,-0.2476339340209961,0.4534902572631836
1683931746563704600,1.82970458984375,1.1079860925674438,-0.3047037124633789,0.5901460647583008
1683931746573746700,1.83974658203125,1.2544920444488525,-0.3783283233642578,0.6081876754760742
1683931746583788800,1.849788818359375,1.2101823091506958,-0.5678515434265137,0.689537525177002
1683931746593831000,1.859830810546875,0.6708186864852905,-1.2225451469421387,0.5577125549316406
1683931746603873000,1.869873046875,0.23947349190711975,-1.3151764869689941,0.4743318557739258
1683931746613915100,1.8799150390625,0.04765474423766136,-1.247805118560791,0.22555828094482422
1683931746623957500,1.88995751953125,-0.0022004134953022003,-1.059816837310791,-0.0670309066772461
1683931746633999600,1.89999951171875,-0.10933957993984222,-0.37806224822998047,-0.2772817611694336
1683931746644041700,1.910041748046875,-0.18229083716869354,-1.2317280769348145,-0.5440998077392578
1683931746654083800,1.920083740234375,0.2259892076253891,-1.8551993370056152,-0.9554028511047363
1683931746664126000,1.9301259765625,0.5298463702201843,-1.615692138671875,-0.7238278388977051
1683931746674168000,1.94016796875,0.9338546991348267,-1.6622772216796875,-0.41879892349243164
1683931746684210200,1.950210205078125,0.2374117374420166,-1.3755645751953125,-0.3990659713745117
1683931746694252500,1.96025244140625,-0.6999911069869995,-0.6255655288696289,0.2813553810119629
1683931746704294700,1.970294677734375,-0.6378968358039856,0.14271783828735352,1.0027942657470703
1683931746714336800,1.980336669921875,-0.3970262110233307,0.46453189849853516,0.8690142631530762
1683931746724379000,1.99037890625,-0.027967631816864014,0.4145059585571289,0.21133184432983398
1683931746734421000,2.0004208984375,0.05048772692680359,0.25603818893432617,-0.508418083190918
1683931746744463000,2.010463134765625,0.01505085825920105,0.2607560157775879,-0.9139699935913086
1683931746754505200,2.020505126953125,-0.09293621778488159,0.1579599380493164,-0.9811725616455078
1683931746764547300,2.03054736328125,0.029569923877716064,-0.17131614685058594,-0.5240426063537598
1683931746774589700,2.040589599609375,0.1364288032054901,-0.40341615676879883,-0.15236997604370117
1683931746784631800,2.0506318359375,0.1544298529624939,-0.5418596267700195,0.05478858947753906
1683931746794674000,2.060673828125,-0.03963202238082886,-0.550285816192627,0.34216737747192383
1683931746804716000,2.070716064453125,-0.46165716648101807,-0.48277711868286133,0.6012444496154785
1683931746814758100,2.080758056640625,-0.7201585173606873,-0.4278907775878906,0.7418885231018066
1683931746824800300,2.09080029296875,-0.8084139227867126,-0.3954658508300781,0.8309979438781738
1683931746834842400,2.10084228515625,-0.8918527960777283,0.7392067909240723,0.3447427749633789
1683931746844884700,2.110884765625,-0.7024096846580505,-0.8874478340148926,0.7935032844543457
1683931746854926800,2.1209267578125,-0.30531901121139526,-1.0571656227111816,0.8623313903808594
1683931746864969000,2.130968994140625,-0.46300381422042847,-1.1089816093444824,0.44799375534057617
1683931746875011000,2.141010986328125,-0.6223680973052979,-1.1160821914672852,0.3234267234802246
1683931746885053200,2.15105322265625,-0.6575620174407959,-0.9484472274780273,0.005340099334716797
1683931746895095300,2.16109521484375,-0.6510252356529236,-0.01898050308227539,-0.5304031372070312
1683931746905137700,2.1711376953125,-0.7596875429153442,-0.5693464279174805,-0.2124934196472168
1683931746915179800,2.1811796875,-0.687888503074646,-1.2766995429992676,-0.10484886169433594
1683931746925222000,2.191221923828125,-0.5231903791427612,-0.7762675285339355,-0.43398571014404297
1683931746935264000,2.201263916015625,-0.46230101585388184,-0.3950681686401367,-0.5359973907470703
1683931746945306000,2.21130615234375,-0.6380976438522339,0.04360055923461914,-0.5871214866638184
1683931746955348200,2.22134814453125,-0.5135136842727661,0.3570747375488281,-0.17049598693847656
1683931746965390300,2.231390380859375,-0.7396707534790039,0.41663217544555664,-0.22806596755981445
1683931746975432400,2.241432373046875,-0.7039247751235962,0.443511962890625,-0.25900745391845703
1683931746985474800,2.251474853515625,-0.5373544692993164,0.10871124267578125,-0.15268754959106445
1683931746995517000,2.261516845703125,-0.21483755111694336,-0.4136505126953125,-0.17836523056030273
1683931747005559000,2.27155908203125,0.04122722148895264,-0.7004284858703613,0.03607177734375
1683931747015601200,2.28160107421875,0.22005844116210938,-0.5956687927246094,-0.008391857147216797
1683931747025643300,2.291643310546875,0.006096839904785156,-0.5397763252258301,0.13854026794433594
1683931747035685400,2.301685302734375,-0.7455159425735474,-0.34982776641845703,0.046549320220947266
1683931747045727500,2.3117275390625,-0.6419875621795654,-0.033145904541015625,-0.1921219825744629
1683931747055769900,2.321769775390625,-0.7938966751098633,0.5593533515930176,-0.5014128684997559
1683931747065812000,2.33181201171875,-1.2318226099014282,0.15665054321289062,-0.6857285499572754
1683931747075854000,2.34185400390625,-0.3695288896560669,-0.5660204887390137,-0.9950141906738281
1683931747085896200,2.351896240234375,0.3075173497200012,-0.050079345703125,-0.9495253562927246
1683931747095938300,2.361938232421875,0.23278677463531494,-0.2813382148742676,-0.7798647880554199
1683931747105980400,2.37198046875,-0.07162278890609741,-0.6751546859741211,-0.6073713302612305
1683931747116022500,2.3820224609375,-0.387378990650177,-0.46382713317871094,-0.07273244857788086
1683931747126065000,2.39206494140625,-1.0715993642807007,-0.24654006958007812,0.09308481216430664
1683931747136107000,2.40210693359375,-1.2105696201324463,-0.5105090141296387,0.06853389739990234
1683931747146149000,2.412149169921875,-0.32742953300476074,-0.3206181526184082,-0.3274388313293457
1683931747156191200,2.422191162109375,-0.2946709394454956,-0.4321556091308594,0.15909767150878906
1683931747166233300,2.4322333984375,-0.384954571723938,-0.5050888061523438,-0.20459985733032227
1683931747176275500,2.442275390625,-0.466176837682724,-0.353945255279541,-0.47546958923339844
1683931747186317600,2.452317626953125,-0.2268834412097931,-0.3410682678222656,-0.41109800338745117
1683931747196360000,2.46235986328125,-0.48672768473625183,-0.424407958984375,-0.5147624015808105
1683931747206402000,2.472402099609375,-0.5274467468261719,-1.0207853317260742,-0.566500186920166
1683931747216444200,2.482444091796875,-0.30051183700561523,-0.9382429122924805,-0.6739287376403809
1683931747226486300,2.492486328125,-0.39335694909095764,-0.5430717468261719,-0.642573356628418
1683931747236528400,2.5025283203125,-0.5691834688186646,-0.36136579513549805,-0.37749290466308594
1683931747246570500,2.512570556640625,-0.7319506406784058,-0.2883152961730957,0.13518095016479492
1683931747256612600,2.522612548828125,-1.1766273975372314,0.008513450622558594,-0.002514362335205078
1683931747266654700,2.53265478515625,-1.0071347951889038,-0.11772441864013672,-0.36424684524536133
1683931747276697000,2.542697021484375,-0.6535351872444153,-0.5154256820678711,-0.8257932662963867
1683931747286739200,2.5527392578125,-0.4656679630279541,-0.578458309173584,-1.3049664497375488
1683931747296781300,2.56278125,0.019545674324035645,-0.6143031120300293,-1.508986473083496
1683931747306823400,2.572823486328125,0.15817058086395264,-0.3439774513244629,-1.702465534210205
1683931747316865500,2.582865478515625,0.21697497367858887,-0.1485905647277832,-1.954988956451416
1683931747326907600,2.59290771484375,0.23388123512268066,-0.20836210250854492,-2.1311540603637695
1683931747336949800,2.60294970703125,0.5538372993469238,-0.12355422973632812,-2.0512828826904297
1683931747346992000,2.6129921875,0.5966174602508545,-0.038482666015625,-2.0683627128601074
1683931747357034200,2.6230341796875,0.5482743978500366,-0.05287790298461914,-1.686943531036377
1683931747367076400,2.633076416015625,0.5092552900314331,-0.2078237533569336,-0.8862295150756836
1683931747377118500,2.643118408203125,0.29083824157714844,-0.27832555770874023,-0.43399953842163086
1683931747387160600,2.65316064453125,0.17312836647033691,-0.18145418167114258,-0.19197940826416016
1683931747397202700,2.66320263671875,-0.1350001096725464,-0.30922651290893555,-0.46776247024536133
1683931747407245000,2.6732451171875,-0.33339571952819824,-0.12531375885009766,-0.43580102920532227
1683931747417287200,2.683287109375,-0.5707887411117554,0.17760181427001953,-0.19879436492919922
1683931747427329300,2.693329345703125,-0.4551055431365967,0.42568397521972656,0.15262126922607422
1683931747437371400,2.703371337890625,0.06528210639953613,0.2869114875793457,0.4626755714416504
1683931747447413500,2.71341357421875,0.0751497745513916,0.24328231811523438,0.31341075897216797
1683931747457455600,2.72345556640625,0.2618367671966553,0.12438774108886719,0.24303245544433594
1683931747467497700,2.733497802734375,0.47115230560302734,0.0179443359375,-0.036889076232910156
1683931747477539800,2.743539794921875,0.23491859436035156,-0.13035011291503906,-0.2468733787536621
1683931747487582200,2.753582275390625,-0.13011932373046875,-0.03285646438598633,-0.18988656997680664
1683931747497624300,2.763624267578125,0.25832438468933105,-0.019689083099365234,-0.044475555419921875
1683931747507666400,2.77366650390625,-0.4418414831161499,-0.2949538230895996,-0.2347702980041504
1683931747517708500,2.78370849609375,-0.18746662139892578,-0.5003147125244141,-0.04128217697143555
1683931747527750700,2.793750732421875,-0.34938979148864746,-0.5846824645996094,-0.18137741088867188
1683931747537792800,2.803792724609375,-0.10440611839294434,-0.6625456809997559,0.04630565643310547
1683931747547835000,2.8138349609375,0.05451536178588867,-0.46839189529418945,0.18080663681030273
1683931747557877200,2.823877197265625,-0.3442702293395996,-0.17722749710083008,-0.3113570213317871
1683931747567919400,2.83391943359375,-0.8252274990081787,0.017121315002441406,-0.24086713790893555
1683931747577961500,2.84396142578125,-0.5307176113128662,-0.02714681625366211,-0.01981353759765625
1683931747588003600,2.854003662109375,-1.2624565362930298,0.19990110397338867,0.07250356674194336
1683931747598045700,2.864045654296875,-0.5215997695922852,0.3615269660949707,0.3255271911621094
1683931747608087800,2.874087890625,-0.26753902435302734,-0.222076416015625,0.5177173614501953
1683931747618130000,2.8841298828125,-0.4861776828765869,-0.18130016326904297,0.19985151290893555
1683931747628172300,2.89417236328125,-0.08073616027832031,-0.22939682006835938,0.1681661605834961
1683931747638214400,2.90421435546875,0.44667792320251465,-0.19698572158813477,0.2747025489807129
1683931747648256500,2.914256591796875,0.20790934562683105,-0.1824650764465332,-0.2266378402709961
1683931747658298600,2.924298583984375,-0.3918323516845703,-0.5720014572143555,-0.3578653335571289
1683931747668340700,2.9343408203125,0.7096939086914062,-0.1019892692565918,-0.09554624557495117
1683931747678382800,2.9443828125,-0.030386924743652344,0.1338801383972168,0.01854085922241211
1683931747688425200,2.95442529296875,0.06823205947875977,0.37125635147094727,-0.03520774841308594
1683931747698467300,2.96446728515625,0.06375503540039062,0.2891688346862793,-0.07518863677978516
1683931747708509400,2.974509521484375,-0.021973133087158203,0.17910385131835938,-0.069915771484375
1683931747718551600,2.984551513671875,0.08955979347229004,0.27907419204711914,-0.12612152099609375
1683931747728593700,2.99459375,-0.053292274475097656,0.2802548408508301,0.13656997680664062
1683931747738635800,3.0046357421875,0.16934466361999512,0.33333921432495117,0.05653953552246094
1683931747748678000,3.014677978515625,-0.9058911800384521,0.30517053604125977,0.08558177947998047
1683931747758720300,3.02472021484375,0.5917842388153076,0.03462648391723633,0.6327543258666992
1683931747768762400,3.034762451171875,-0.33406519889831543,-0.00975656509399414,0.08502769470214844
1683931747778804500,3.044804443359375,-0.2028963565826416,0.05844593048095703,-0.11427545547485352
1683931747788846600,3.0548466796875,-0.18864226341247559,0.06458473205566406,-0.19599151611328125
1683931747798888700,3.064888671875,-0.21964573860168457,0.030494213104248047,-0.2556920051574707
1683931747808930800,3.074930908203125,-0.7606678009033203,-0.1855149269104004,-0.19751596450805664
1683931747818973000,3.084972900390625,0.5174744129180908,-0.32708263397216797,0.14122724533081055
1683931747829015300,3.095015380859375,-0.03195953369140625,-0.5669245719909668,-0.08224725723266602
1683931747839057400,3.105057373046875,0.06105756759643555,-0.3636159896850586,-0.15458297729492188
1683931747849099500,3.115099609375,-0.8431737422943115,-0.25038957595825195,-0.029391765594482422
1683931747859141600,3.1251416015625,0.7190113067626953,0.03898906707763672,0.28220272064208984
1683931747869183700,3.135183837890625,-0.5442643165588379,-0.17048311233520508,-0.1305537223815918
1683931747879225900,3.145225830078125,-0.4492921829223633,-0.19212627410888672,-0.16205501556396484
1683931747889268000,3.15526806640625,-0.6179471015930176,-0.05699920654296875,-0.10533952713012695
1683931747899310000,3.16531005859375,0.23988580703735352,0.3450751304626465,0.01233816146850586
1683931747909352400,3.1753525390625,0.07826423645019531,0.02317523956298828,0.048992156982421875
1683931747919394600,3.18539453125,0.03125166893005371,0.052709102630615234,0.011492729187011719
1683931747929436700,3.195436767578125,0.13389182090759277,0.06303787231445312,-0.0469207763671875
1683931747939478800,3.205478759765625,0.5521962642669678,-0.00909280776977539,0.6062278747558594
1683931747949521000,3.21552099609375,-0.013960123062133789,0.26929187774658203,0.22237634658813477
1683931747959563000,3.22556298828125,0.01661062240600586,0.03060007095336914,-0.2222433090209961
1683931747969605400,3.23560546875,0.18903779983520508,-0.003509044647216797,-0.029200077056884766
1683931747979647500,3.2456474609375,0.2549459934234619,0.03578042984008789,-0.12679100036621094
1683931747989689600,3.255689697265625,0.14624404907226562,-0.025864124298095703,-0.20467472076416016
1683931747999731700,3.265731689453125,0.0919497013092041,0.1681385040283203,-0.15347814559936523
1683931748009773800,3.27577392578125,0.07875394821166992,0.13371801376342773,0.1167759895324707
1683931748019816000,3.28581591796875,-0.03775382041931152,0.12567710876464844,0.2791786193847656
1683931748029858000,3.295858154296875,-0.0663905143737793,0.08851194381713867,0.32413482666015625
1683931748039900400,3.305900390625,-0.1726069450378418,0.048323631286621094,0.28309106826782227
1683931748049942500,3.315942626953125,-0.22483229637145996,0.0005440711975097656,0.08483123779296875
1683931748059984600,3.325984619140625,-0.23258566856384277,0.02437877655029297,-0.04678058624267578
1683931748070026800,3.33602685546875,-0.269913911819458,0.08758115768432617,-0.17200899124145508
1683931748080068900,3.34606884765625,-0.2410128116607666,0.06976556777954102,-0.1760416030883789
1683931748090111000,3.356111083984375,-0.25824451446533203,0.017537593841552734,-0.09077930450439453
1683931748100153300,3.3661533203125,-0.194840669631958,-0.08217763900756836,0.1091303825378418
1683931748110195500,3.376195556640625,-0.22667551040649414,-0.09467887878417969,0.12389707565307617
1683931748120237600,3.386237548828125,-0.18568873405456543,-0.07425403594970703,0.12561273574829102
1683931748130279700,3.39627978515625,-0.13946080207824707,-0.1437211036682129,0.08306264877319336
1683931748140321800,3.40632177734375,-0.0960547924041748,-0.10350465774536133,0.050672054290771484
1683931748150364000,3.416364013671875,-0.11283731460571289,-0.04103279113769531,0.10338926315307617
1683931748160406000,3.426406005859375,-0.08523750305175781,-0.00936269760131836,0.03664064407348633
1683931748170448400,3.436448486328125,0.004866600036621094,-0.0012264251708984375,0.0004782676696777344
1683931748180490500,3.446490478515625,0.06107306480407715,0.010402679443359375,0.04854917526245117
1683931748190532600,3.45653271484375,-0.0018694400787353516,0.05611085891723633,0.09996652603149414
1683931748200574700,3.46657470703125,0.008167028427124023,0.08072042465209961,0.15223455429077148
1683931748210616800,3.476616943359375,-0.31777071952819824,0.04551124572753906,0.06035184860229492
1683931748220659000,3.486658935546875,0.07595610618591309,0.04036760330200195,0.17230749130249023
1683931748230701000,3.496701171875,-0.03182172775268555,-0.0919489860534668,0.24430322647094727
1683931748240743200,3.5067431640625,-0.2789313793182373,-0.049840450286865234,0.30882692337036133
1683931748250785500,3.51678564453125,-0.29439353942871094,0.02558279037475586,0.32935142517089844
1683931748260827600,3.52682763671875,-0.25958847999572754,0.001965045928955078,0.508430004119873
1683931748270869800,3.536869873046875,-0.2480921745300293,0.09284353256225586,0.5183854103088379
1683931748280912000,3.546911865234375,-0.2038252353668213,-0.008030414581298828,0.7068142890930176
1683931748290954000,3.5569541015625,-0.1774454116821289,0.29793405532836914,0.6136946678161621
1683931748300996000,3.56699609375,0.14356756210327148,0.18265342712402344,0.7370362281799316
1683931748311038200,3.5770380859375,-0.049660444259643555,0.21388626098632812,0.4703645706176758
1683931748321080600,3.58708056640625,0.13066744804382324,0.10829496383666992,0.21166181564331055
1683931748331122700,3.597122802734375,0.08753538131713867,0.08838653564453125,-0.14074325561523438
1683931748341164800,3.607164794921875,0.15405797958374023,0.033983707427978516,-0.29234981536865234
1683931748351207000,3.61720703125,0.14877724647521973,-0.06692886352539062,-0.1291027069091797
1683931748361249000,3.6272490234375,0.10952997207641602,0.02552175521850586,-0.07202529907226562
1683931748371291100,3.637291015625,-0.05553555488586426,-0.0354461669921875,-0.00829315185546875
1683931748381333200,3.647333251953125,-0.10649251937866211,-0.05676889419555664,0.012377262115478516
1683931748391375600,3.657375732421875,0.031923770904541016,-0.16733264923095703,0.2144622802734375
1683931748401417700,3.667417724609375,-0.3376905918121338,0.0068569183349609375,0.12086725234985352
1683931748411459800,3.6774599609375,-0.4492175579071045,-0.25763607025146484,-0.0543522834777832
1683931748421502000,3.687501953125,-0.3518702983856201,-0.2919754981994629,-0.1643080711364746
1683931748431544000,3.6975439453125,-0.26206445693969727,-0.2930140495300293,-0.047611236572265625
1683931748441586200,3.707586181640625,-0.3146238327026367,-0.3192472457885742,-0.10601329803466797
1683931748451628500,3.717628662109375,-0.2836425304412842,-0.2839622497558594,-0.1411914825439453
1683931748461670700,3.727670654296875,-0.409898042678833,-0.16438007354736328,-0.18552255630493164
1683931748471712800,3.737712646484375,-0.36818456649780273,-0.07034730911254883,-0.16486692428588867
1683931748481755000,3.7477548828125,-0.32120537757873535,-0.04355573654174805,-0.14849328994750977
1683931748491797000,3.757796875,-0.2073967456817627,-0.030330181121826172,-0.19252920150756836
1683931748501839000,3.767839111328125,-0.12563347816467285,-0.12934494018554688,-0.23185062408447266
1683931748511881200,3.777881103515625,-0.2829101085662842,-0.0411982536315918,0.003841876983642578
1683931748521923600,3.787923583984375,0.020474672317504883,-0.059551239013671875,-0.13867855072021484
1683931748531965700,3.797965576171875,0.06492471694946289,0.09328317642211914,-0.14653301239013672
1683931748542007800,3.8080078125,-0.023180484771728516,0.0029401779174804688,-0.16285991668701172
1683931748552050000,3.8180498046875,0.126389741897583,0.1999058723449707,-0.10813045501708984
1683931748562092000,3.828092041015625,0.20013189315795898,0.18163394927978516,0.08755159378051758
1683931748572134100,3.838134033203125,0.10637474060058594,0.09722614288330078,-0.002948284149169922
1683931748582176300,3.84817626953125,0.2602956295013428,0.1095423698425293,-0.10257434844970703
1683931748592218400,3.85821826171875,-0.35028958320617676,0.07996797561645508,0.16556167602539062
1683931748602260700,3.8682607421875,0.24940729141235352,0.10421037673950195,0.04771614074707031
1683931748612302800,3.878302734375,-0.10905861854553223,0.12440824508666992,-0.13585281372070312
1683931748622345000,3.888344970703125,-0.28522253036499023,0.30899858474731445,-0.0816812515258789
1683931748632387000,3.898386962890625,-0.3080027103424072,0.446136474609375,0.011127471923828125
1683931748642429200,3.90842919921875,-0.10159635543823242,0.35426950454711914,0.1393890380859375
1683931748652471300,3.91847119140625,-0.18077731132507324,0.340451717376709,-0.04269886016845703
1683931748662513400,3.928513427734375,0.04575991630554199,0.28490161895751953,-0.2594752311706543
1683931748672555800,3.9385556640625,-0.05941510200500488,0.3060450553894043,-0.22247982025146484
1683931748682598000,3.948597900390625,-0.16225075721740723,0.35411930084228516,-0.2823009490966797
1683931748692640000,3.958639892578125,-0.6232314109802246,0.7735981941223145,0.03693389892578125
1683931748702682000,3.96868212890625,-0.07792425155639648,0.4307065010070801,0.3001894950866699
1683931748712724200,3.97872412109375,-0.2626180648803711,0.433074951171875,0.025851726531982422
1683931748722766300,3.988766357421875,-0.11196351051330566,0.5623421669006348,-0.07356500625610352
1683931748732808700,3.99880859375,-0.14127111434936523,0.5533099174499512,-0.08550405502319336
1683931748742850800,4.008850830078125,-0.018278121948242188,0.5672745704650879,0.003399372100830078
1683931748752893000,4.018892822265625,0.0062296390533447266,0.5462789535522461,0.0005898475646972656
1683931748762935000,4.02893505859375,-0.06490445137023926,0.5789408683776855,-0.0159454345703125
1683931748772977200,4.03897705078125,-0.09936714172363281,0.46158409118652344,0.12730026245117188
1683931748783019300,4.049019287109375,-0.08092951774597168,0.4402031898498535,0.3288726806640625
1683931748793061400,4.059061279296875,-0.13954973220825195,0.31013059616088867,0.40360403060913086
1683931748803103700,4.069103759765625,0.0908670425415039,0.2639198303222656,0.6935815811157227
1683931748813145900,4.079145751953125,-0.4014856815338135,0.040111541748046875,0.26037025451660156
1683931748823188000,4.08918798828125,-0.33336424827575684,0.014490127563476562,0.40196943283081055
1683931748833230000,4.09922998046875,-0.34960460662841797,0.06326532363891602,0.4878530502319336
1683931748843272200,4.109272216796875,-0.3509058952331543,0.025156021118164062,0.3959217071533203
1683931748853314300,4.119314208984375,-0.32395291328430176,-0.033870697021484375,0.3253970146179199
1683931748863356400,4.1293564453125,-0.32120561599731445,-0.07708263397216797,0.3543682098388672
1683931748873398800,4.139398681640625,-0.3838331699371338,-0.02821969985961914,0.344998836517334
1683931748883441000,4.14944091796875,-0.4231722354888916,-0.006146430969238281,0.31316709518432617
1683931748893483000,4.15948291015625,-0.4135453701019287,0.04950571060180664,0.21345996856689453
1683931748903525000,4.169525146484375,-0.6875143051147461,-0.06858253479003906,-0.0010080337524414062
1683931748913567200,4.179567138671875,-0.509406566619873,-0.24236011505126953,-0.4457540512084961
1683931748923609300,4.189609375,-0.4968228340148926,-0.1704692840576172,-0.4891023635864258
1683931748933651500,4.1996513671875,-0.5861854553222656,-0.05213785171508789,-0.6062331199645996
1683931748943693600,4.209693603515625,-0.5212740898132324,0.6673383712768555,0.4046330451965332
1683931748953736000,4.21973583984375,-1.1020970344543457,0.3002033233642578,-0.979982852935791
1683931748963778000,4.229778076171875,-0.4713895320892334,0.40800905227661133,-0.719914436340332
1683931748973820200,4.239820068359375,-0.03710055351257324,0.7536172866821289,-0.5052289962768555
1683931748983862300,4.2498623046875,0.12596797943115234,0.7070064544677734,-0.28646135330200195
1683931748993904400,4.259904296875,0.44029927253723145,0.4529905319213867,0.009483814239501953
1683931749003946500,4.269946533203125,0.8482286930084229,0.38730669021606445,0.366182804107666
1683931749013988900,4.27998876953125,0.9337670803070068,0.10909175872802734,1.19673490524292
1683931749024031000,4.290031005859375,0.9678528308868408,0.014395713806152344,2.4833984375
1683931749034073000,4.300072998046875,1.075984001159668,0.38384532928466797,2.8336610794067383
1683931749044115200,4.310115234375,0.788538932800293,0.610471248626709,2.673915386199951
1683931749054157300,4.3201572265625,0.29978156089782715,1.1152143478393555,1.6792140007019043
1683931749064199400,4.330199462890625,-0.20182013511657715,0.8135261535644531,0.8237347602844238
1683931749074241500,4.340241455078125,-0.26488590240478516,0.7320761680603027,-0.00762939453125
1683931749084284000,4.350283935546875,-0.012883186340332031,0.5267806053161621,-0.13992929458618164
1683931749094326000,4.360325927734375,0.3791024684906006,0.0673360824584961,-0.1105351448059082
1683931749104368000,4.3703681640625,0.5373616218566895,-0.5104107856750488,-0.35564327239990234
1683931749114410200,4.38041015625,0.5756101608276367,-0.9489231109619141,-0.5291657447814941
1683931749124452400,4.390452392578125,0.6726231575012207,-1.1207523345947266,-0.5750446319580078
1683931749134494500,4.400494384765625,0.5963840484619141,-1.1880459785461426,-0.5641493797302246
1683931749144536600,4.41053662109375,0.49488067626953125,-1.4574298858642578,-0.3683147430419922
1683931749154579000,4.420578857421875,0.3658566474914551,-1.527432918548584,-0.09184074401855469
1683931749164621000,4.43062109375,0.22061622142791748,-1.279900074005127,0.05347728729248047
1683931749174663200,4.4406630859375,0.0030384063720703125,-1.1145877838134766,0.08916378021240234
1683931749184705300,4.450705322265625,0.17361927032470703,-0.7176451683044434,-0.13967227935791016
1683931749194747400,4.460747314453125,-0.08816486597061157,-0.32329273223876953,-0.5640106201171875
1683931749204789500,4.47078955078125,-0.3438715934753418,-0.11383485794067383,-0.550147533416748
1683931749214831600,4.48083154296875,-0.12187016010284424,0.9166646003723145,0.5029668807983398
1683931749224873700,4.490873779296875,0.13407626748085022,1.5487594604492188,-1.0065240859985352
1683931749234916000,4.500916015625,-0.5891677737236023,0.3192100524902344,-0.9314913749694824
1683931749244958200,4.510958251953125,-0.1631975769996643,0.165008544921875,-0.8380413055419922
1683931749255000300,4.521000244140625,0.25495147705078125,0.23010492324829102,-1.0754117965698242
1683931749265042400,4.53104248046875,0.2647401988506317,-0.16512298583984375,-1.0208163261413574
1683931749275084500,4.54108447265625,0.2437608540058136,-0.6809391975402832,-0.7780218124389648
1683931749285126700,4.551126708984375,0.36110416054725647,-0.7828521728515625,-0.2880892753601074
1683931749295169000,4.5611689453125,0.6071043014526367,-0.38533973693847656,-0.5528688430786133
1683931749305211100,4.571211181640625,0.2821705937385559,-0.9139156341552734,-0.05728626251220703
1683931749315253200,4.581253173828125,0.7550119161605835,-0.6004972457885742,0.18465423583984375
1683931749325295400,4.59129541015625,0.8441789150238037,-0.18848562240600586,0.7723445892333984
1683931749335337500,4.60133740234375,0.3725709617137909,-0.12868309020996094,1.3540353775024414
1683931749345379600,4.611379638671875,0.36980512738227844,-0.30788660049438477,1.2764244079589844
1683931749355421700,4.621421630859375,0.5012930035591125,-0.4538083076477051,0.4300832748413086
1683931749365463800,4.6314638671875,0.5739031434059143,-0.7259211540222168,-0.5902795791625977
1683931749375506200,4.641506103515625,0.6129769086837769,-1.0335087776184082,-1.2145328521728516
1683931749385548300,4.65154833984375,0.482969731092453,-1.0729703903198242,-1.6663904190063477
1683931749395590400,4.66159033203125,0.2731996178627014,-1.120391845703125,-1.7127571105957031
1683931749405632500,4.671632568359375,-0.09218591451644897,-1.228729248046875,-1.3421950340270996
1683931749415674600,4.681674560546875,-0.24042922258377075,-1.060774803161621,-0.8819880485534668
1683931749425716700,4.691716796875,-0.1602971851825714,-1.022414207458496,-0.2621326446533203
1683931749435758800,4.7017587890625,-0.14234024286270142,-0.5801701545715332,-0.10307121276855469
1683931749445801000,4.711801025390625,-0.12612929940223694,-0.6094350814819336,-0.01708507537841797
1683931749455843300,4.72184326171875,0.047026991844177246,-0.49722862243652344,0.06089448928833008
1683931749465885400,4.731885498046875,0.09775955975055695,-0.7364764213562012,-0.0775442123413086
1683931749475927600,4.741927490234375,-0.19224585592746735,-1.447026252746582,-0.0491032600402832
1683931749485969700,4.7519697265625,-0.0633288323879242,-1.2241291999816895,0.39646053314208984
1683931749496011800,4.76201171875,0.36843040585517883,-0.49147558212280273,0.15459060668945312
1683931749506054000,4.772053955078125,0.7393768429756165,-0.28704309463500977,0.13890933990478516
1683931749516096300,4.78209619140625,0.43113768100738525,-0.07111597061157227,-0.09076547622680664
1683931749526138400,4.792138427734375,0.6014574766159058,0.40136194229125977,-0.25899314880371094
1683931749536180500,4.802180419921875,0.5934991240501404,0.3407011032104492,0.0721898078918457
1683931749546222600,4.81222265625,0.6805381774902344,0.23493337631225586,0.3118252754211426
1683931749556264700,4.8222646484375,0.7258263826370239,0.22589492797851562,0.5809388160705566
1683931749566306800,4.832306884765625,0.8347928524017334,0.28006744384765625,0.6400985717773438
1683931749576349000,4.842348876953125,1.1389262676239014,0.0785531997680664,0.7428522109985352
1683931749586391000,4.85239111328125,1.5281237363815308,-0.16160202026367188,0.7704277038574219
1683931749596433400,4.862433349609375,1.436314582824707,-0.49112749099731445,0.2753453254699707
1683931749606475500,4.8724755859375,1.306644082069397,-0.47957754135131836,-0.47960710525512695
1683931749616517600,4.882517578125,1.1353557109832764,-0.4732356071472168,-0.8533196449279785
1683931749626559700,4.892559814453125,1.0645209550857544,-0.47410011291503906,-1.047563076019287
1683931749636601900,4.902601806640625,1.002712607383728,-0.46987056732177734,-0.779566764831543
1683931749646644000,4.91264404296875,0.9717649221420288,-0.3531322479248047,-0.3008246421813965
1683931749656686000,4.92268603515625,1.0967756509780884,-0.2215437889099121,0.09671449661254883
1683931749666728400,4.932728515625,1.195509433746338,-0.13325214385986328,0.26976633071899414
1683931749676770600,4.9427705078125,1.1554926633834839,-0.18082857131958008,0.44421958923339844
1683931749686812700,4.952812744140625,1.0852915048599243,-0.055844783782958984,0.18976354598999023
1683931749696854800,4.962854736328125,0.919847309589386,0.16595792770385742,-0.31447315216064453
1683931749706897000,4.97289697265625,0.4967145323753357,0.10896778106689453,-0.4897298812866211
1683931749716939000,4.98293896484375,0.4487491846084595,-0.23631048202514648,-0.57830810546875
1683931749726981000,4.992981201171875,0.6737771034240723,-0.5241546630859375,-0.49551868438720703
1683931749737023500,5.0030234375,0.5125167965888977,-0.5346512794494629,-0.3746352195739746
1683931749747065600,5.013065673828125,0.2976449728012085,-0.21828937530517578,-0.2946648597717285
1683931749757107700,5.023107666015625,0.340732216835022,0.0673227310180664,-0.13300323486328125
1683931749767149800,5.03314990234375,0.3200080096721649,0.2905607223510742,-0.06510400772094727
1683931749777192000,5.04319189453125,0.13454097509384155,0.37979698181152344,-0.04028654098510742
1683931749787234000,5.053234130859375,0.09961375594139099,1.404301643371582,-0.1717548370361328
1683931749797276200,5.063276123046875,0.1006762683391571,0.9999442100524902,-0.39746952056884766
1683931749807318300,5.073318359375,0.31448590755462646,0.3812880516052246,-0.10067605972290039
1683931749817360600,5.083360595703125,0.6502000093460083,0.2733926773071289,0.21478700637817383
1683931749827402800,5.09340283203125,1.2095754146575928,-0.16864967346191406,0.6613636016845703
1683931749837444900,5.10344482421875,0.34659603238105774,-0.6976752281188965,0.8156442642211914
1683931749847487000,5.113487060546875,0.09904980659484863,-0.7523088455200195,0.8726286888122559
1683931749857529000,5.123529052734375,0.1899360716342926,-0.5702357292175293,0.6991100311279297
1683931749867571200,5.1335712890625,0.3344661593437195,-0.6461319923400879,0.6178994178771973
1683931749877613300,5.14361328125,0.4598795175552368,0.8231172561645508,0.17428159713745117
1683931749887655700,5.15365576171875,0.30540668964385986,0.2772231101989746,-0.11102771759033203
1683931749897697800,5.16369775390625,0.3645141124725342,-0.4538755416870117,-0.1258101463317871
1683931749907740000,5.173739990234375,0.5485552549362183,-0.6326785087585449,-0.0029191970825195312
1683931749917782000,5.183781982421875,0.5435529947280884,-0.18366432189941406,-0.13626766204833984
1683931749927824100,5.19382421875,0.6444854140281677,0.2613816261291504,-0.2647123336791992
1683931749937866200,5.2038662109375,0.7266352772712708,0.14202308654785156,-0.2896280288696289
1683931749947908400,5.213908447265625,0.6993086338043213,-0.7761201858520508,0.10463142395019531
1683931749957950700,5.22395068359375,0.760230541229248,-1.224804401397705,0.40898704528808594
1683931749967992800,5.233992919921875,0.5329831838607788,-0.5227069854736328,0.13352537155151367
1683931749978035000,5.244034912109375,-0.011866256594657898,-0.116973876953125,0.029834270477294922
1683931749988077000,5.2540771484375,-0.31972527503967285,0.08227777481079102,-0.1288471221923828
1683931749998119200,5.264119140625,-0.09844572842121124,0.092987060546875,-0.2152090072631836
1683931750008161300,5.274161376953125,0.18846063315868378,0.010419368743896484,-0.38274717330932617
1683931750018203400,5.284203369140625,0.5089300274848938,0.056551456451416016,-0.6048717498779297
1683931750028245500,5.29424560546875,0.7375305891036987,-0.05388689041137695,-0.3304009437561035
1683931750038288000,5.304287841796875,0.7356383204460144,-0.6097402572631836,0.4460625648498535
1683931750048330000,5.314330078125,0.6730554699897766,-0.6882314682006836,1.0970683097839355
1683931750058372000,5.3243720703125,0.4828854501247406,-0.3430442810058594,1.0783419609069824
1683931750068414200,5.334414306640625,0.12157312035560608,-0.025183677673339844,0.2570013999938965
1683931750078456300,5.344456298828125,-0.0698399692773819,-0.16807270050048828,-0.03840303421020508
1683931750088498400,5.35449853515625,0.14099106192588806,-0.15728044509887695,-0.1679859161376953
1683931750098540500,5.36454052734375,0.4744434654712677,-0.23982000350952148,-0.21387481689453125
1683931750108583000,5.3745830078125,0.5423528552055359,-0.2564249038696289,-0.2745170593261719
1683931750118625000,5.384625,0.5981581211090088,-0.07789897918701172,-0.026640892028808594
1683931750128667100,5.394667236328125,0.343667209148407,0.6556730270385742,0.18639850616455078
1683931750138709200,5.404709228515625,-0.2283419519662857,-0.6155142784118652,-0.2913799285888672
1683931750148751400,5.41475146484375,-0.1210683286190033,-0.8759331703186035,-0.7761011123657227
1683931750158793500,5.42479345703125,0.17217716574668884,-0.6970024108886719,-0.2219257354736328
1683931750168835600,5.434835693359375,0.33495068550109863,-0.4059467315673828,0.39316797256469727
1683931750178877700,5.444877685546875,0.41331809759140015,-0.11624622344970703,0.7411723136901855
1683931750188920000,5.454920166015625,0.19657212495803833,0.0031681060791015625,0.8519816398620605
1683931750198962200,5.464962158203125,-0.11405110359191895,0.5644006729125977,1.3713488578796387
1683931750209004300,5.47500439453125,-0.1708398163318634,0.7125535011291504,0.8547019958496094
1683931750219046400,5.48504638671875,-0.11864039301872253,0.5078253746032715,0.6637067794799805
1683931750229088500,5.495088623046875,-0.08033785223960876,0.5834536552429199,0.1819467544555664
1683931750239130600,5.505130615234375,-0.1323699951171875,0.5742621421813965,-0.16620206832885742
1683931750249172700,5.5151728515625,-0.036911338567733765,0.5727543830871582,-0.3945035934448242
1683931750259215000,5.525215087890625,0.1247592568397522,0.4887356758117676,-0.39140939712524414
1683931750269257200,5.53525732421875,0.3292660713195801,0.16738128662109375,0.12825775146484375
1683931750279299300,5.54529931640625,0.41348910331726074,0.1285996437072754,0.4949312210083008
1683931750289341400,5.555341552734375,0.38355982303619385,0.5571756362915039,0.4862060546875
1683931750299383600,5.565383544921875,0.1189221739768982,0.9640259742736816,0.22688627243041992
1683931750309425700,5.57542578125,-0.018976867198944092,1.050550937652588,-0.024323463439941406
1683931750319467800,5.5854677734375,-0.11242246627807617,1.15122652053833,-0.19653654098510742
1683931750329510000,5.595510009765625,0.08791536092758179,1.44140625,-0.03828859329223633
1683931750339552300,5.60555224609375,0.3337400555610657,1.8324527740478516,0.06577205657958984
1683931750349594400,5.615594482421875,0.36655193567276,1.6554889678955078,0.161376953125
1683931750359636500,5.625636474609375,0.3574065566062927,0.8260293006896973,0.45122385025024414
1683931750369678600,5.6356787109375,-0.8453235626220703,-0.0733942985534668,0.9982099533081055
1683931750379720700,5.645720703125,-0.0627191960811615,0.6162528991699219,1.971045970916748
1683931750389762800,5.6557626953125,0.98259437084198,1.355302333831787,1.9706974029541016
1683931750399805000,5.665804931640625,0.6977056264877319,0.8216943740844727,1.3742008209228516
1683931750409847300,5.675847412109375,0.5873647928237915,0.7849559783935547,1.2112946510314941
1683931750419889400,5.685889404296875,0.8845489621162415,0.9438328742980957,1.0576910972595215
1683931750429931500,5.695931640625,1.2197288274765015,1.0190458297729492,1.0025057792663574
1683931750439973600,5.7059736328125,1.3007957935333252,1.0468425750732422,0.844841480255127
1683931750450015700,5.716015625,1.0890007019042969,0.7937984466552734,0.5861668586730957
1683931750460057900,5.726057861328125,0.7970491051673889,1.1086888313293457,0.32097959518432617
1683931750470100000,5.736099853515625,0.6224172115325928,0.8880047798156738,0.29695940017700195
1683931750480142000,5.74614208984375,0.5027941465377808,0.47856855392456055,0.3270111083984375
1683931750490184400,5.756184326171875,0.4128229320049286,-0.36051464080810547,0.6327385902404785
1683931750500226600,5.7662265625,0.4989258050918579,-0.091522216796875,2.004520893096924
1683931750510268700,5.7762685546875,0.8057239055633545,-0.682581901550293,2.5902328491210938
1683931750520310800,5.786310791015625,1.0797892808914185,-0.7324843406677246,2.3979015350341797
1683931750530353000,5.796352783203125,1.1530934572219849,-0.41867876052856445,1.4739151000976562
1683931750540395000,5.80639501953125,0.9756535291671753,-0.31148386001586914,0.5295329093933105
1683931750550437000,5.81643701171875,0.7563270330429077,-0.03200721740722656,-0.30158090591430664
1683931750560479500,5.8264794921875,0.6371350288391113,0.12379646301269531,-0.9893503189086914
1683931750570521600,5.836521484375,0.5986905694007874,0.19543170928955078,-1.3751163482666016
1683931750580563700,5.846563720703125,0.6128711700439453,0.22290706634521484,-1.6795272827148438
1683931750590605800,5.856605712890625,0.46243423223495483,0.32808780670166016,-1.768995761871338
1683931750600648000,5.86664794921875,0.20031890273094177,0.40984630584716797,-1.392566204071045
1683931750610690000,5.87668994140625,-0.06349164247512817,0.14109039306640625,-0.9844655990600586
1683931750620732200,5.886732177734375,0.018063634634017944,0.02351665496826172,-0.5130190849304199
1683931750630774300,5.896774169921875,-0.10480491816997528,0.0022649765014648438,-0.28189563751220703
1683931750640816400,5.90681640625,-0.16049450635910034,0.06058979034423828,-0.04908418655395508
1683931750650858800,5.916858642578125,-0.11705067753791809,-0.02580738067626953,0.12085962295532227
1683931750660900900,5.92690087890625,-0.14624899625778198,0.04430389404296875,0.14291095733642578
1683931750670943000,5.93694287109375,-0.2956351041793823,0.09632158279418945,0.27335453033447266
1683931750680985000,5.946985107421875,-0.5551354885101318,0.06818151473999023,0.2469954490661621
1683931750691027200,5.957027099609375,-0.49290281534194946,0.08578252792358398,0.057068824768066406
1683931750701069300,5.9670693359375,-0.42195409536361694,0.05792427062988281,0.11656045913696289
1683931750711111700,5.977111572265625,-0.15068644285202026,0.099151611328125,-0.09859991073608398
1683931750721153800,5.98715380859375,-0.07687413692474365,-0.6665410995483398,-0.6987161636352539
1683931750731196000,5.99719580078125,-0.01584106683731079,-0.5866479873657227,-0.29902076721191406
1683931750741238000,6.007238037109375,-0.06528127193450928,0.6948213577270508,0.5274872779846191
1683931750751280000,6.017280029296875,-0.8247314691543579,-1.1725807189941406,-0.7220606803894043
1683931750761322200,6.027322265625,-0.3429906368255615,-1.0495939254760742,-0.27094364166259766
1683931750771364400,6.0373642578125,-0.7341212034225464,1.313642978668213,-0.3136739730834961
1683931750781406500,6.047406494140625,-0.8069851398468018,1.6652913093566895,-0.15961980819702148
1683931750791448600,6.057448486328125,-1.3951467275619507,-0.2820463180541992,-0.45950937271118164
1683931750801491000,6.067490966796875,-0.7893569469451904,-0.5714435577392578,0.12045812606811523
1683931750811533000,6.077532958984375,-0.21133553981781006,-0.06840133666992188,0.8389697074890137
1683931750821575200,6.0875751953125,-0.15505874156951904,0.6138834953308105,0.7771492004394531
1683931750831617300,6.0976171875,-0.29675281047821045,0.5599298477172852,0.5038514137268066
1683931750841659400,6.107659423828125,-0.19183337688446045,0.6097145080566406,-0.2015700340270996
1683931750851701500,6.117701416015625,0.007316946983337402,0.5702857971191406,-1.063936471939087
1683931750861743600,6.12774365234375,-0.13592195510864258,0.3263254165649414,-1.4339313507080078
1683931750871786000,6.137785888671875,-0.3049147129058838,-0.2993488311767578,-1.4173545837402344
1683931750881828000,6.147828125,-0.18909192085266113,-0.46879100799560547,-1.5575931072235107
1683931750891870200,6.1578701171875,-0.14833402633666992,-0.3511495590209961,-1.776123046875
1683931750901912300,6.167912353515625,-0.07371997833251953,-0.4578561782836914,-1.804656744003296
1683931750911954400,6.177954345703125,-0.07424402236938477,-0.5928773880004883,-1.510258436203003
1683931750921996500,6.18799658203125,-0.10119128227233887,-0.7200641632080078,-1.1766479015350342
1683931750932038700,6.19803857421875,-0.14214849472045898,-0.886378288269043,-0.71512770652771
1683931750942080800,6.208080810546875,0.0018153190612792969,-0.8103513717651367,-0.4400672912597656
1683931750952123100,6.218123046875,0.12786555290222168,-1.472926139831543,0.5552597045898438
1683931750962165200,6.228165283203125,0.4998006820678711,-3.309162139892578,1.020155429840088
1683931750972207400,6.238207275390625,0.9399842023849487,-3.250847816467285,2.0391674041748047
1683931750982249500,6.24824951171875,1.0504003763198853,-2.478640556335449,2.2126498222351074
1683931750992291600,6.25829150390625,0.6428416967391968,0.5597386360168457,3.3773303031921387
1683931751002333700,6.268333740234375,0.336885929107666,-0.9742259979248047,1.0302882194519043
1683931751012375800,6.278375732421875,0.2558293342590332,0.13167953491210938,0.35960865020751953
1683931751022418000,6.28841796875,0.5211119651794434,-1.9050531387329102,-0.902463436126709
1683931751032460300,6.298460205078125,1.038260579109192,-3.2767839431762695,-0.9540963172912598
1683931751042502400,6.30850244140625,1.5189383029937744,-1.4331121444702148,-1.0600342750549316
1683931751052544500,6.31854443359375,1.2059004306793213,-0.19222164154052734,-1.5625019073486328
1683931751062586600,6.328586669921875,1.0291045904159546,-0.009385108947753906,-1.8077783584594727
1683931751072628700,6.338628662109375,0.8041884899139404,-0.36014652252197266,-2.0303690433502197
1683931751082670800,6.3486708984375,0.7042515277862549,-0.790003776550293,-1.655843734741211
1683931751092713000,6.358712890625,0.6431748867034912,-0.4163684844970703,-1.523041009902954
1683931751102755000,6.368755126953125,0.5138905048370361,-0.24764633178710938,-1.549976110458374
1683931751112797400,6.37879736328125,0.41802978515625,-0.24362754821777344,-1.54441237449646
1683931751122839600,6.388839599609375,0.22342228889465332,-0.38049793243408203,-1.4038810729980469
1683931751132881700,6.398881591796875,0.14243721961975098,-0.04007434844970703,-1.4578921794891357
1683931751142923800,6.408923828125,0.09710216522216797,1.123591423034668,-0.980177640914917
1683931751152966000,6.4189658203125,-0.3838372230529785,0.23255157470703125,-1.2065975666046143
1683931751163008000,6.429008056640625,-0.915229320526123,-1.5575799942016602,-1.1586415767669678
1683931751173050000,6.439050048828125,-0.7767698764801025,0.5188264846801758,-0.19815373420715332
1683931751183092200,6.44909228515625,-1.2260563373565674,-3.7087202072143555,0.9401223659515381
1683931751193134600,6.459134521484375,-0.9669616222381592,-2.32766056060791,1.8522589206695557
1683931751203176700,6.4691767578125,-0.7581377029418945,0.18219375610351562,1.1055710315704346
1683931751213218800,6.47921875,-0.7419331073760986,0.010659217834472656,0.5410122871398926
1683931751223261000,6.489260986328125,-0.709418773651123,-0.6350622177124023,-0.0023376941680908203
1683931751233303000,6.499302978515625,-0.748755931854248,-1.8342561721801758,0.26978278160095215
1683931751243345200,6.50934521484375,-0.689155101776123,-0.8235445022583008,0.32789015769958496
1683931751253387300,6.51938720703125,-0.43749523162841797,-0.03524017333984375,-0.44085097312927246
1683931751263429400,6.529429443359375,-0.3590424060821533,-0.5907554626464844,-0.6180918216705322
1683931751273471700,6.5394716796875,-0.2933964729309082,-0.2752809524536133,-0.6026449203491211
1683931751283513900,6.549513916015625,-0.3929934501647949,-0.03216552734375,-0.6963024139404297
1683931751293556000,6.559555908203125,-0.5261259078979492,-0.1519451141357422,-0.6726646423339844
1683931751303598000,6.56959814453125,-0.6366863250732422,-0.2184743881225586,-0.4813377857208252
1683931751313640200,6.57964013671875,-0.6812551021575928,-0.18755626678466797,-0.22023606300354004
1683931751323682300,6.589682373046875,-0.4870765209197998,0.10085296630859375,-0.12369418144226074
1683931751333724400,6.599724365234375,-0.36309242248535156,0.3681192398071289,0.22181367874145508
1683931751343766800,6.609766845703125,-0.30224037170410156,0.3520793914794922,0.4167153835296631
1683931751353809000,6.619808837890625,-0.12632536888122559,0.5161361694335938,0.2673962116241455
1683931751363851000,6.62985107421875,-0.10270214080810547,0.4282512664794922,0.2520773410797119
1683931751373893000,6.63989306640625,0.052567481994628906,0.34046173095703125,-0.26860952377319336
1683931751383935200,6.649935302734375,0.25925278663635254,0.10980415344238281,-0.29976701736450195
1683931751393977300,6.659977294921875,0.845949649810791,0.08843708038330078,-0.08094048500061035
1683931751404019500,6.67001953125,1.2890996932983398,0.5890369415283203,-0.05904412269592285
1683931751414061600,6.6800615234375,1.142176628112793,0.30492591857910156,0.2658095359802246
1683931751424103700,6.690103759765625,1.169954776763916,-1.0196123123168945,0.5932712554931641
1683931751434146000,6.70014599609375,1.262695074081421,-0.2673978805541992,0.2159571647644043
1683931751444188200,6.710188232421875,1.4478484392166138,0.7246184349060059,-0.24526667594909668
1683931751454230300,6.720230224609375,1.1935069561004639,0.9256682395935059,-0.6737103462219238
1683931751464272400,6.7302724609375,0.8951878547668457,0.5648355484008789,-1.0300147533416748
1683931751474314500,6.740314453125,0.6475353240966797,0.17108440399169922,-1.2165298461914062
1683931751484356600,6.750356689453125,0.524061918258667,0.14501285552978516,-1.3657097816467285
1683931751494398700,6.760398681640625,0.3237004280090332,0.07119369506835938,-1.3403801918029785
1683931751504440800,6.77044091796875,0.2060103416442871,0.278045654296875,-1.117600440979004
1683931751514483000,6.78048291015625,0.23764443397521973,0.7982301712036133,-0.8953640460968018
1683931751524525300,6.790525390625,0.2565927505493164,1.084193229675293,-0.6058187484741211
1683931751534567400,6.8005673828125,0.23719382286071777,0.9055471420288086,-0.5155239105224609
1683931751544609500,6.810609619140625,0.40216946601867676,1.609961986541748,-0.04752159118652344
1683931751554651600,6.820651611328125,0.4907491207122803,1.6478638648986816,-0.09189510345458984
1683931751564693800,6.83069384765625,0.3287160396575928,1.6255149841308594,-0.251251220703125
1683931751574736000,6.84073583984375,0.0749053955078125,1.320366382598877,-0.47153735160827637
1683931751584778000,6.850778076171875,-0.20016789436340332,0.8429346084594727,-0.6133847236633301
1683931751594820400,6.8608203125,-0.4465141296386719,0.2545614242553711,-0.9248225688934326
1683931751604862500,6.870862548828125,-0.6247432231903076,-0.16739749908447266,-1.2209804058074951
1683931751614904600,6.880904541015625,-0.642714262008667,-0.3897256851196289,-1.2764105796813965
1683931751624946700,6.89094677734375,-0.5237817764282227,-0.7272653579711914,-1.4122791290283203
1683931751634988800,6.90098876953125,-0.3915071487426758,-0.8747739791870117,-1.5019564628601074
1683931751645031000,6.911031005859375,-0.26369810104370117,-1.0200624465942383,-1.4766356945037842
1683931751655073000,6.921072998046875,-0.23426580429077148,-1.2925996780395508,-1.3224530220031738
1683931751665115100,6.931115234375,-0.3112611770629883,-1.652806282043457,-1.0623016357421875
1683931751675157500,6.941157470703125,-0.40051889419555664,-1.8033685684204102,-0.8218445777893066
1683931751685199600,6.95119970703125,-0.4614369869232178,-1.7535343170166016,-0.726881742477417
1683931751695241700,6.96124169921875,-0.4822521209716797,-1.3166608810424805,-0.8969054222106934
1683931751705283800,6.971283935546875,-0.5319900512695312,-0.17676734924316406,-0.27614760398864746
1683931751715326000,6.981325927734375,-0.819190502166748,-0.22572612762451172,-0.1423172950744629
1683931751725368000,6.9913681640625,-1.1643884181976318,-0.6793966293334961,0.24007487297058105
1683931751735410200,7.00141015625,-1.5541977882385254,-1.458662986755371,0.3219459056854248
1683931751745452300,7.011452392578125,-1.8690602779388428,-1.9188776016235352,0.11426663398742676
1683931751755494400,7.021494384765625,-2.0304598808288574,-2.1397647857666016,-0.235581636428833
1683931751765536800,7.031536865234375,-2.1238889694213867,-1.9497547149658203,-0.0898902416229248
1683931751775579000,7.041578857421875,-2.1363365650177,-3.318937301635742,0.8346364498138428
1683931751785621000,7.05162109375,-1.28904128074646,-0.8981037139892578,0.1329786777496338
1683931751795663000,7.0616630859375,-0.1027688980102539,1.306267261505127,-0.049680233001708984
1683931751805705200,7.071705322265625,0.49936509132385254,0.5692501068115234,0.3941924571990967
1683931751815747300,7.081747314453125,0.9847512245178223,-0.4936485290527344,0.6179714202880859
1683931751825789400,7.09178955078125,1.5245888233184814,-0.3871488571166992,0.4720633029937744
1683931751835831600,7.10183154296875,1.9006688594818115,-0.20158958435058594,0.19961071014404297
1683931751845873700,7.111873779296875,2.042903184890747,-0.2989044189453125,0.04411768913269043
1683931751855916000,7.121916015625,1.760239839553833,-0.23591232299804688,-0.23636126518249512
1683931751865958100,7.131958251953125,1.3820083141326904,0.29741954803466797,-0.6457266807556152
1683931751876000300,7.142000244140625,0.9597240686416626,0.9342803955078125,-0.5552921295166016
1683931751886042400,7.15204248046875,0.692817211151123,1.2923974990844727,-0.3255040645599365
1683931751896084500,7.16208447265625,0.5244817733764648,1.4049501419067383,-0.15242505073547363
1683931751906126600,7.172126708984375,0.5159711837768555,1.3137564659118652,0.051154136657714844
1683931751916168700,7.182168701171875,0.6050282716751099,1.077702522277832,0.28354358673095703
1683931751926210800,7.1922109375,0.675957202911377,0.7204275131225586,0.43671250343322754
1683931751936253200,7.202253173828125,0.7533749341964722,0.2754392623901367,0.5898244380950928
1683931751946295300,7.21229541015625,0.7309188842773438,-0.03468513488769531,0.5733301639556885
1683931751956337400,7.22233740234375,0.7973154783248901,-0.03196144104003906,0.46264100074768066
1683931751966379500,7.232379638671875,0.7969805002212524,-0.04728221893310547,0.5054678916931152
1683931751976421600,7.242421630859375,0.7589223384857178,-0.2251758575439453,0.48033928871154785
1683931751986463700,7.252463623046875,0.5575557947158813,-0.629704475402832,0.26181983947753906
1683931751996505900,7.262505859375,0.2814817428588867,-0.6923923492431641,-0.08339071273803711
1683931752006548000,7.2725478515625,0.12363290786743164,-0.3371591567993164,-0.21677684783935547
1683931752016590000,7.282590087890625,0.1949925422668457,0.09926795959472656,-0.23363327980041504
1683931752026632400,7.292632568359375,0.28006792068481445,0.0964813232421875,-0.11792373657226562
1683931752036674600,7.302674560546875,0.21005940437316895,0.039437294006347656,0.0887300968170166
1683931752046716700,7.312716552734375,-0.1550968885421753,-0.0055904388427734375,0.27890586853027344
1683931752056758800,7.3227587890625,-0.5472081899642944,-0.07958126068115234,0.29892539978027344
1683931752066801000,7.33280078125,-0.8132580518722534,-0.0702352523803711,0.2701733112335205
1683931752076843000,7.342843017578125,-0.9043292999267578,-0.00168609619140625,0.23650121688842773
1683931752086885000,7.352885009765625,-0.6869766712188721,0.08016300201416016,0.28240084648132324
1683931752096927200,7.36292724609375,-0.2941255569458008,0.12002086639404297,0.3014252185821533
1683931752106969600,7.372969482421875,0.15926241874694824,0.09865093231201172,0.38024210929870605
1683931752117011700,7.38301171875,0.5069968700408936,0.03065013885498047,0.32082414627075195
1683931752127053800,7.3930537109375,0.7759451866149902,0.014410018920898438,0.2717320919036865
1683931752137096000,7.403095947265625,1.0225229263305664,0.04553508758544922,0.1902937889099121
1683931752147138000,7.413137939453125,1.1789164543151855,0.08140373229980469,0.236968994140625
1683931752157180200,7.42318017578125,1.305281400680542,0.08885002136230469,0.23488521575927734
1683931752167222300,7.43322216796875,1.3787912130355835,0.03220176696777344,0.2412869930267334
1683931752177264400,7.443264404296875,1.430677890777588,-0.014084815979003906,0.27295541763305664
1683931752187306500,7.453306396484375,1.4671883583068848,-0.004656791687011719,0.2882046699523926
1683931752197348900,7.463348876953125,1.4802520275115967,0.05544281005859375,0.34540748596191406
1683931752207391000,7.473390869140625,1.471038818359375,0.1033487319946289,0.44933605194091797
1683931752217433000,7.48343310546875,1.4916107654571533,0.09553718566894531,0.5033829212188721
1683931752227475200,7.49347509765625,1.3734948635101318,0.05794525146484375,0.5917012691497803
1683931752237517300,7.503517333984375,1.2726624011993408,-0.014047622680664062,0.6299314498901367
1683931752247559400,7.513559326171875,1.1551125049591064,-0.08426094055175781,0.6146574020385742
1683931752257601500,7.5236015625,0.9733877182006836,-0.12137222290039062,0.5277037620544434
1683931752267643600,7.5336435546875,0.8396131992340088,-0.14697933197021484,0.44300293922424316
1683931752277685800,7.543685791015625,0.7522520422935486,-0.14192867279052734,0.3365054130554199
1683931752287728000,7.55372802734375,0.6781954169273376,-0.13465309143066406,0.1824798583984375
1683931752297770200,7.563770263671875,0.5943548083305359,-0.10811710357666016,0.03904891014099121
1683931752307812400,7.573812255859375,0.5429694056510925,-0.13869953155517578,-0.029196500778198242
1683931752317854500,7.5838544921875,0.519764244556427,-0.18071269989013672,-0.08867835998535156
1683931752327896600,7.593896484375,0.4712546765804291,-0.20532894134521484,-0.11722111701965332
1683931752337938700,7.603938720703125,0.41558873653411865,-0.17901992797851562,-0.2122039794921875
1683931752347980800,7.613980712890625,0.3367499113082886,-0.15920162200927734,-0.2778146266937256
1683931752358023000,7.62402294921875,0.2827201783657074,-0.13422489166259766,-0.29122018814086914
1683931752368065300,7.634065185546875,0.25087040662765503,-0.15466594696044922,-0.22762346267700195
1683931752378107400,7.644107421875,0.26788079738616943,-0.15601444244384766,-0.18296504020690918
1683931752388149500,7.6541494140625,0.3440008759498596,-0.15488147735595703,-0.11601901054382324
1683931752398191600,7.664191650390625,0.48410236835479736,-0.07462882995605469,-0.03328418731689453
1683931752408233700,7.674233642578125,0.6653211712837219,-0.0015583038330078125,0.04790520668029785
1683931752418275800,7.68427587890625,0.8306431770324707,0.009246826171875,0.110015869140625
1683931752428318000,7.69431787109375,0.9710667133331299,-0.02061748504638672,0.1837019920349121
1683931752438360000,7.704360107421875,1.0590001344680786,0.006983757019042969,0.2714829444885254
1683931752448402200,7.714402099609375,1.115395426750183,0.06805038452148438,0.30881690979003906
1683931752458444500,7.724444580078125,1.085017204284668,0.06678485870361328,0.32860851287841797
1683931752468486700,7.734486572265625,1.0212904214859009,0.022306442260742188,0.3114607334136963
1683931752478528800,7.74452880859375,0.9353537559509277,-0.031744956970214844,0.24844861030578613
1683931752488571000,7.75457080078125,0.8142320513725281,-0.07610225677490234,0.2453916072845459
1683931752498613000,7.764613037109375,0.7184489965438843,-0.07739639282226562,0.2256946563720703
1683931752508655000,7.774655029296875,0.6676669716835022,-0.05965137481689453,0.20847058296203613
1683931752518697200,7.784697265625,0.6550896763801575,-0.058780670166015625,0.23901867866516113
1683931752528739300,7.7947392578125,0.6611990928649902,-0.041390419006347656,0.24288463592529297
1683931752538781400,7.804781494140625,0.6327396631240845,-0.03855133056640625,0.18427181243896484
1683931752548823800,7.81482373046875,0.6313607692718506,-0.05248737335205078,0.18068218231201172
1683931752558866000,7.824865966796875,0.6356436014175415,-0.025368690490722656,0.18660521507263184
1683931752568908000,7.834907958984375,0.6072342991828918,0.05311012268066406,0.20430755615234375
1683931752578950100,7.8449501953125,0.570242166519165,0.03600883483886719,0.24025583267211914
1683931752588992300,7.8549921875,0.5249520540237427,0.07322025299072266,0.17641830444335938
1683931752599034400,7.865034423828125,0.502541184425354,0.00836944580078125,0.1931452751159668
1683931752609076500,7.875076416015625,0.4815545976161957,0.04049205780029297,0.11595439910888672
1683931752619118600,7.88511865234375,0.46215876936912537,0.0030269622802734375,0.0330660343170166
1683931752629160700,7.89516064453125,0.39177799224853516,-0.3401613235473633,-0.056029558181762695
1683931752639203000,7.905203125,0.34603455662727356,-0.6653032302856445,-0.31070518493652344
1683931752649245200,7.9152451171875,0.42019620537757874,-0.7715520858764648,-0.5555016994476318
1683931752659287300,7.925287353515625,0.6545734405517578,-0.16482830047607422,-0.8257193565368652
1683931752669329400,7.935329345703125,0.7692081928253174,-0.26111507415771484,-0.44863319396972656
1683931752679371500,7.94537158203125,0.6836918592453003,-0.10094070434570312,-0.3771018981933594
1683931752689413600,7.95541357421875,0.5931961536407471,0.019072532653808594,-0.2658369541168213
1683931752699455700,7.965455810546875,0.4810110330581665,-0.029666900634765625,-0.2489933967590332
1683931752709497900,7.975497802734375,0.5318807363510132,0.26218414306640625,-0.13091230392456055
1683931752719540000,7.9855400390625,0.6229072213172913,0.7799854278564453,0.0534365177154541
1683931752729582300,7.995582275390625,0.57911217212677,0.6902637481689453,0.2687418460845947
1683931752739624400,8.00562451171875,0.46772053837776184,0.5159292221069336,0.2730433940887451
1683931752749666600,8.01566650390625,0.3889518976211548,0.5597314834594727,0.46770238876342773
1683931752759708700,8.025708740234375,0.392724871635437,0.516169548034668,0.6501367092132568
1683931752769750800,8.035750732421874,0.2576034665107727,0.45767784118652344,0.40763258934020996
1683931752779793000,8.04579296875,0.22218269109725952,0.19904041290283203,0.33306121826171875
1683931752789835000,8.0558349609375,0.18202540278434753,-0.008869171142578125,0.23663091659545898
1683931752799877000,8.065877197265625,0.1606835126876831,-0.08884239196777344,0.06343531608581543
1683931752809919500,8.07591943359375,0.13836726546287537,0.008994102478027344,-0.10224246978759766
1683931752819961600,8.085961669921875,0.1634606420993805,0.09789752960205078,-0.2259063720703125
1683931752830003700,8.096003662109375,0.15668094158172607,0.17529296875,-0.28844714164733887
1683931752840045800,8.1060458984375,0.1423642933368683,0.2269268035888672,-0.3907444477081299
1683931752850088000,8.116087890625,0.09398230910301208,0.14499759674072266,-0.47983264923095703
1683931752860130000,8.126130126953125,0.11439555883407593,-0.0137176513671875,-0.49315905570983887
1683931752870172200,8.136172119140625,0.17461532354354858,-0.06851863861083984,-0.5173451900482178
1683931752880214300,8.14621435546875,0.12385290861129761,-0.31060218811035156,-0.49291157722473145
1683931752890256400,8.15625634765625,0.12148860096931458,-0.4285011291503906,-0.45145726203918457
1683931752900298500,8.166298583984375,0.15802359580993652,-0.511408805847168,-0.41715264320373535
1683931752910340900,8.1763408203125,0.1552111804485321,-0.38779544830322266,-0.5095863342285156
1683931752920383000,8.186383056640626,0.1733037829399109,0.01912975311279297,-0.6581237316131592
1683931752930425000,8.196425048828125,0.22624486684799194,0.2737703323364258,-0.6760532855987549
1683931752940467200,8.20646728515625,0.28123563528060913,0.09356212615966797,-0.5497260093688965
1683931752950509300,8.21650927734375,0.29731038212776184,-0.1376810073852539,-0.45108747482299805
1683931752960551400,8.226551513671875,0.2804688513278961,-0.38855552673339844,-0.32320642471313477
1683931752970593500,8.236593505859375,0.20721229910850525,-0.49858570098876953,-0.2865283489227295
1683931752980635600,8.2466357421875,0.1482555866241455,-0.5546417236328125,-0.25896406173706055
1683931752990677800,8.256677734375,0.06690537929534912,-0.5105457305908203,-0.25242018699645996
1683931753000720000,8.266719970703125,0.00814276933670044,-0.42444610595703125,-0.2147359848022461
1683931753010762200,8.27676220703125,-0.056084275245666504,-0.3088550567626953,-0.16054749488830566
1683931753020804400,8.286804443359374,-0.1123054027557373,-0.2983713150024414,-0.08008813858032227
1683931753030846500,8.296846435546875,-0.16809779405593872,-0.2786369323730469,0.06307649612426758
1683931753040888600,8.306888671875,-0.21912753582000732,-0.34404659271240234,0.1245577335357666
1683931753050930700,8.3169306640625,-0.2544664144515991,-0.43425941467285156,0.20525312423706055
1683931753060972800,8.326972900390626,-0.2548922300338745,-0.4640665054321289,0.22285079956054688
1683931753071015000,8.337014892578125,-0.2526261806488037,-0.32140159606933594,0.16909289360046387
1683931753081057000,8.34705712890625,-0.235670268535614,-0.1741924285888672,0.142777681350708
1683931753091099100,8.35709912109375,-0.18991166353225708,-0.029935836791992188,0.14883995056152344
1683931753101141500,8.3671416015625,-0.17335712909698486,0.11370372772216797,0.06852579116821289
1683931753111183600,8.37718359375,-0.12234377861022949,0.16972923278808594,-0.011791706085205078
1683931753121225700,8.387225830078124,-0.07726931571960449,0.15373992919921875,-0.05671334266662598
1683931753131267800,8.397267822265626,-0.03089582920074463,0.18235015869140625,-0.16785430908203125
1683931753141310000,8.40731005859375,-0.039411187171936035,0.3019418716430664,-0.29209470748901367
1683931753151352000,8.41735205078125,-0.03838992118835449,0.18598175048828125,-0.33548808097839355
1683931753161394200,8.427394287109376,-0.06443917751312256,0.02903270721435547,-0.4412214756011963
1683931753171436300,8.437436279296875,-0.11618447303771973,-0.1632833480834961,-0.5633563995361328
1683931753181478700,8.447478759765625,-0.26477861404418945,-0.42996978759765625,-0.648902177810669
1683931753191520800,8.457520751953124,-0.44818007946014404,-0.536224365234375,-0.6854963302612305
1683931753201563000,8.46756298828125,-0.5973737239837646,-0.5810041427612305,-0.6520295143127441
1683931753211605000,8.47760498046875,-0.695706844329834,-0.5818614959716797,-0.5872542858123779
1683931753221647000,8.487647216796875,-0.7567781209945679,-0.5138740539550781,-0.5861284732818604
1683931753231689200,8.497689208984376,-0.8424023389816284,-0.4173736572265625,-0.5445830821990967
1683931753241731300,8.5077314453125,-1.0770907402038574,-0.36912059783935547,-0.4976058006286621
1683931753251773400,8.5177734375,-1.5001763105392456,-0.6106786727905273,-0.2982668876647949
1683931753261815600,8.527815673828124,-1.7339298725128174,-0.811894416809082,-0.1083381175994873
1683931753271857700,8.537857666015626,-1.4663175344467163,-0.6645288467407227,-0.15971088409423828
1683931753281899800,8.547899658203125,-0.9745324850082397,-0.22179412841796875,-0.3694899082183838
1683931753291942100,8.557942138671875,-0.5050950050354004,0.11640262603759766,-0.5332105159759521
1683931753301984300,8.567984375,-0.1114203929901123,0.12279701232910156,-0.6272728443145752
1683931753312026400,8.5780263671875,0.19293177127838135,-0.0749673843383789,-0.6301620006561279
1683931753322068500,8.588068359375,0.47904539108276367,-0.1212615966796875,-0.6622648239135742
1683931753332110600,8.598110595703124,0.7532530426979065,0.31280517578125,-0.5944762229919434
1683931753342152700,8.608152587890626,0.9266348481178284,0.5202236175537109,-0.29413342475891113
1683931753352194800,8.61819482421875,0.9362208247184753,0.472412109375,0.20366144180297852
1683931753362237000,8.62823681640625,0.791240930557251,0.42916393280029297,0.6854712963104248
1683931753372279000,8.638279052734376,0.47864532470703125,0.4085273742675781,1.0864520072937012
1683931753382321400,8.6483212890625,0.05684065818786621,0.40990257263183594,1.3314769268035889
1683931753392363500,8.658363525390625,-0.416890025138855,0.3850440979003906,1.4183337688446045
1683931753402405600,8.668405517578124,-0.9230045080184937,0.24748992919921875,1.2526941299438477
1683931753412447700,8.67844775390625,-1.3670405149459839,0.011297225952148438,0.8291504383087158
1683931753422489900,8.68848974609375,-1.6829280853271484,-0.30176448822021484,0.2386624813079834
1683931753432532000,8.698531982421875,-1.7695611715316772,-0.49287891387939453,-0.4353451728820801
1683931753442574000,8.708573974609376,-1.6000163555145264,-0.5237140655517578,-1.038922667503357
1683931753452616200,8.7186162109375,-1.3639516830444336,-0.3634176254272461,-1.424659013748169
1683931753462658300,8.728658203125,-1.1236443519592285,-0.23232078552246094,-1.5515813827514648
1683931753472700400,8.738700439453124,-0.842462420463562,-0.14492321014404297,-1.5602771043777466
1683931753482742500,8.748742431640625,-0.562755823135376,-0.0007181167602539062,-1.3583743572235107
1683931753492785000,8.758784912109375,-0.4327486753463745,0.04997062683105469,-1.161820411682129
1683931753502827000,8.768826904296875,-0.28655946254730225,0.10107898712158203,-0.930508017539978
1683931753512869000,8.778869140625,-0.13993704319000244,0.17948150634765625,-0.676807165145874
1683931753522911200,8.7889111328125,-0.16396868228912354,0.19199085235595703,-0.28479576110839844
1683931753532953300,8.798953369140625,-0.226385235786438,0.25049781799316406,0.18868756294250488
1683931753542995500,8.808995361328124,-0.2719076871871948,0.3661680221557617,0.616178035736084
1683931753553037600,8.81903759765625,-0.35640716552734375,0.5097198486328125,0.9316117763519287
1683931753563079700,8.82907958984375,-0.3878554105758667,0.668919563293457,1.1748197078704834
1683931753573121800,8.839121826171874,-0.39685797691345215,0.812591552734375,1.3736717700958252
1683931753583164200,8.8491640625,-0.3822329044342041,0.8692483901977539,1.4935224056243896
1683931753593206300,8.859206298828125,-0.3107181787490845,0.8321352005004883,1.551854133605957
1683931753603248400,8.869248291015625,-0.26079654693603516,0.7899723052978516,1.5529108047485352
1683931753613290500,8.87929052734375,-0.18565678596496582,0.7954626083374023,1.440457820892334
1683931753623332600,8.88933251953125,-0.13423752784729004,0.7986822128295898,1.2473649978637695
1683931753633374700,8.899374755859375,-0.1339728832244873,0.749821662902832,1.0101046562194824
1683931753643416800,8.909416748046874,-0.19807744026184082,0.6419296264648438,0.7559688091278076
1683931753653459000,8.919458984375,-0.332239031791687,0.3626747131347656,0.66410231590271
1683931753663501000,8.9295009765625,-0.5144413709640503,0.06004905700683594,0.7088205814361572
1683931753673543200,8.939543212890625,-0.8354963064193726,-0.05393218994140625,0.9021170139312744
1683931753683585500,8.94958544921875,-1.1615544557571411,-0.053946495056152344,1.1355819702148438
1683931753693627600,8.959627685546875,-1.3037145137786865,-0.04047203063964844,1.4025969505310059
1683931753703669800,8.969669677734375,-1.225844144821167,0.01525115966796875,1.5751357078552246
1683931753713711900,8.9797119140625,-1.0199530124664307,0.04382133483886719,1.6542704105377197
1683931753723754000,8.98975390625,-0.7748419046401978,0.13112926483154297,1.5597257614135742
1683931753733796000,8.999796142578125,-0.5125712156295776,0.15993785858154297,1.3403382301330566
1683931753743838200,9.009838134765625,-0.3639519214630127,0.15917110443115234,1.0351951122283936
1683931753753880300,9.01988037109375,-0.3414562940597534,0.22492504119873047,0.6408450603485107
1683931753763922400,9.02992236328125,-0.46150124073028564,0.2670402526855469,0.20647287368774414
1683931753773964800,9.03996484375,-0.6289510726928711,0.2910003662109375,-0.2409372329711914
1683931753784007000,9.0500068359375,-0.7667196989059448,0.1681537628173828,-0.6392288208007812
1683931753794049000,9.060049072265626,-0.833460807800293,-0.048735618591308594,-0.9933629035949707
1683931753804091100,9.070091064453125,-0.852665901184082,-0.30223560333251953,-1.3026463985443115
1683931753814133200,9.08013330078125,-0.8720110654830933,-0.48934364318847656,-1.4724619388580322
1683931753824175400,9.09017529296875,-0.8638564348220825,-0.6126613616943359,-1.4933431148529053
1683931753834217500,9.100217529296875,-0.8354743719100952,-0.6248893737792969,-1.3809967041015625
1683931753844259600,9.110259521484375,-0.7070331573486328,-0.5124416351318359,-1.135277509689331
1683931753854301700,9.1203017578125,-0.5329928398132324,-0.29537010192871094,-0.8402316570281982
1683931753864343800,9.13034375,-0.27182579040527344,-0.0868825912475586,-0.5367789268493652
1683931753874386000,9.140385986328125,0.05194360017776489,0.11757278442382812,-0.20910167694091797
1683931753884428300,9.15042822265625,0.35740798711776733,0.15823078155517578,-0.0378873348236084
1683931753894470400,9.160470458984374,0.6827399730682373,0.16012859344482422,0.08129334449768066
1683931753904512500,9.170512451171875,0.905235230922699,0.18349838256835938,0.08993768692016602
1683931753914554600,9.1805546875,1.0165657997131348,0.1331043243408203,-0.0014755725860595703
1683931753924596700,9.1905966796875,0.9755403995513916,0.21239185333251953,-0.07503437995910645
1683931753934638800,9.200638916015626,0.8579763174057007,0.23485088348388672,-0.06141519546508789
1683931753944681000,9.210680908203125,0.7430799007415771,0.21722126007080078,-0.03260159492492676
1683931753954723000,9.22072314453125,0.5886585712432861,0.2624197006225586,-0.006983518600463867
1683931753964765200,9.23076513671875,0.45625731348991394,0.3058633804321289,-0.0053174495697021484
1683931753974807600,9.2408076171875,0.33348190784454346,0.31155872344970703,-0.06813883781433105
1683931753984849700,9.250849609375,0.18354734778404236,0.35111331939697266,-0.1643376350402832
1683931753994891800,9.260891845703124,0.0366591215133667,0.3405771255493164,-0.18698740005493164
1683931754004934000,9.270933837890626,-0.007998824119567871,0.2341623306274414,-0.16642260551452637
1683931754014976000,9.28097607421875,0.07630303502082825,0.08896255493164062,-0.20686721801757812
1683931754025018000,9.29101806640625,0.21906279027462006,0.012627601623535156,-0.3105931282043457
1683931754035060200,9.301060302734374,0.44435200095176697,0.14193058013916016,-0.5517947673797607
1683931754045102300,9.311102294921875,0.6475991010665894,0.2120952606201172,-0.6723952293395996
1683931754055144400,9.32114453125,0.7803279757499695,0.18023109436035156,-0.5558867454528809
1683931754065186600,9.3311865234375,0.828376829624176,0.07736492156982422,-0.47112298011779785
1683931754075228700,9.341228759765626,0.9328615665435791,0.008664131164550781,-0.30359625816345215
1683931754085271000,9.35127099609375,1.0209791660308838,0.017202377319335938,-0.193922758102417
1683931754095313200,9.361313232421875,1.0117350816726685,0.17213726043701172,-0.00798940658569336
1683931754105355300,9.371355224609376,0.8392102718353271,0.23864269256591797,0.32681846618652344
1683931754115397400,9.3813974609375,0.6466801762580872,0.26152515411376953,0.6789419651031494
1683931754125439500,9.391439453125,0.3666995167732239,0.21628761291503906,0.9460701942443848
1683931754135481600,9.401481689453124,0.04895813763141632,0.21971511840820312,1.1727147102355957
1683931754145523700,9.411523681640626,-0.166685551404953,0.15196990966796875,1.2695167064666748
1683931754155565800,9.42156591796875,-0.22459527850151062,0.06109142303466797,1.2486090660095215
1683931754165608000,9.43160791015625,-0.050363000482320786,-0.011832237243652344,1.0944139957427979
1683931754175650000,9.441650146484376,0.2540913224220276,-0.12617874145507812,0.7699570655822754
1683931754185692400,9.4516923828125,0.5937280654907227,-0.16451644897460938,0.3698158264160156
1683931754195734500,9.461734619140625,0.8526914715766907,-0.08094978332519531,-0.003168344497680664
1683931754205776600,9.471776611328124,1.0430116653442383,-0.039984703063964844,-0.2492382526397705
1683931754215818800,9.48181884765625,1.184004545211792,-0.04371166229248047,-0.40148234367370605
1683931754225860900,9.49186083984375,1.2806838750839233,-0.024845123291015625,-0.4710662364959717
1683931754235903000,9.501903076171875,1.3114269971847534,-0.023962974548339844,-0.3671855926513672
1683931754245945000,9.511945068359376,1.3624083995819092,0.04474639892578125,-0.19833588600158691
1683931754255987200,9.5219873046875,1.38016676902771,0.1114358901977539,0.02209162712097168
1683931754266029300,9.532029296875,1.4281190633773804,0.14249134063720703,0.22654986381530762
1683931754276071700,9.54207177734375,1.4223015308380127,0.15694046020507812,0.39546632766723633
1683931754286113800,9.55211376953125,1.3579367399215698,0.1641864776611328,0.5760483741760254
1683931754296156000,9.562156005859375,1.2372794151306152,0.2525815963745117,0.7514092922210693
1683931754306198000,9.572197998046875,1.1280144453048706,0.32639408111572266,0.9286472797393799
1683931754316240100,9.582240234375,1.014652132987976,0.40465354919433594,1.1241514682769775
1683931754326282200,9.5922822265625,0.8783465027809143,0.41794586181640625,1.2730565071105957
1683931754336324400,9.602324462890625,0.7391400933265686,0.3686800003051758,1.4252934455871582
1683931754346366500,9.612366455078124,0.6092997789382935,0.3237895965576172,1.5447793006896973
1683931754356408600,9.62240869140625,0.5066924691200256,0.3096151351928711,1.5482215881347656
1683931754366450700,9.63245068359375,0.43027403950691223,0.32151031494140625,1.5081291198730469
1683931754376492800,9.642492919921875,0.36637240648269653,0.3666667938232422,1.398568868637085
1683931754386535200,9.65253515625,0.28080350160598755,0.39191627502441406,1.2753419876098633
1683931754396577300,9.662577392578125,0.10394287109375,0.31582069396972656,0.9202837944030762
1683931754406619400,9.672619384765625,-0.08922207355499268,0.1679821014404297,0.45552539825439453
1683931754416661500,9.68266162109375,-0.25206464529037476,0.0760488510131836,0.08704233169555664
1683931754426703600,9.69270361328125,-0.3402794301509857,0.023458480834960938,-0.1584172248840332
1683931754436745700,9.702745849609375,-0.36456120014190674,0.01947498321533203,-0.24142885208129883
1683931754446787800,9.712787841796874,-0.3287554383277893,0.059187889099121094,-0.31310415267944336
1683931754456830000,9.722829833984376,-0.21598097681999207,0.09017562866210938,-0.25342631340026855
1683931754466872000,9.7328720703125,-0.03752824664115906,0.09586334228515625,-0.08358550071716309
1683931754476914200,9.7429140625,0.14407271146774292,0.111846923828125,0.20279502868652344
1683931754486956300,9.752956298828124,0.26928094029426575,0.16871356964111328,0.45632410049438477
1683931754496998700,9.76299853515625,0.32804161310195923,0.2494668960571289,0.6431789398193359
1683931754507040800,9.773040771484375,0.34931784868240356,0.3086280822753906,0.84456467628479
1683931754517083000,9.783082763671874,0.3384301960468292,0.3270711898803711,0.9765579700469971
1683931754527125000,9.793125,0.3389298617839813,0.3502235412597656,1.036712408065796
1683931754537167000,9.8031669921875,0.3348563313484192,0.2968578338623047,1.082326889038086
1683931754547209200,9.813209228515625,0.3694133460521698,0.2651481628417969,1.0515475273132324
1683931754557251300,9.823251220703124,0.37740474939346313,0.24798297882080078,0.9880285263061523
1683931754567293400,9.83329345703125,0.37282201647758484,0.19752216339111328,0.9323854446411133
1683931754577335600,9.84333544921875,0.3383554220199585,0.19260883331298828,0.8511338233947754
1683931754587377700,9.853377685546874,0.2715641260147095,0.19270706176757812,0.7879757881164551
1683931754597419800,9.863419677734376,0.2114800214767456,0.16438770294189453,0.814476728439331
1683931754607462100,9.873462158203125,0.18011629581451416,0.16263294219970703,0.8849098682403564
1683931754617504300,9.883504150390625,0.15552538633346558,0.18005084991455078,0.927053689956665
1683931754627546400,9.89354638671875,0.12258285284042358,0.25710487365722656,0.9909839630126953
1683931754637588500,9.90358837890625,0.07393306493759155,0.34339427947998047,1.0644145011901855
1683931754647630600,9.913630615234375,-0.0037425756454467773,0.4435415267944336,1.065453290939331
1683931754657672700,9.923672607421874,-0.10417702794075012,0.48810672760009766,1.1056361198425293
1683931754667714800,9.93371484375,-0.210176020860672,0.46759986877441406,1.06502366065979
1683931754677757000,9.9437568359375,-0.2957221567630768,0.40857791900634766,0.9848940372467041
1683931754687799000,9.953799072265625,-0.36365336179733276,0.3449058532714844,0.909639835357666
1683931754697841200,9.963841064453124,-0.4134122133255005,0.3271465301513672,0.8501744270324707
1683931754707883300,9.97388330078125,-0.41004031896591187,0.3483457565307617,0.8885171413421631
1683931754717925600,9.983925537109375,-0.3238684833049774,0.3697834014892578,0.9371316432952881
1683931754727967700,9.9939677734375,-0.22045433521270752,0.46932411193847656,1.078674554824829
1683931754738009900,10.004009765625,-0.05973535776138306,0.5676517486572266,1.2514283657073975
1683931754748052000,10.014052001953125,0.07020258903503418,0.6079740524291992,1.4066152572631836
1683931754758094000,10.024093994140625,0.18813198804855347,0.6638050079345703,1.5524170398712158
1683931754768136200,10.03413623046875,0.24605560302734375,0.6498613357543945,1.6481997966766357
1683931754778178300,10.04417822265625,0.3048097491264343,0.6543140411376953,1.6712069511413574
1683931754788220400,10.054220458984375,0.32286280393600464,0.613337516784668,1.6514348983764648
1683931754798262500,10.064262451171874,0.3402942419052124,0.5632085800170898,1.6187622547149658
1683931754808304600,10.0743046875,0.2981642782688141,0.5185174942016602,1.6193482875823975
1683931754818346800,10.0843466796875,0.28907492756843567,0.4369182586669922,1.6060450077056885
1683931754828389000,10.09438916015625,0.2813396751880646,0.3448486328125,1.5835976600646973
1683931754838431200,10.10443115234375,0.26038822531700134,0.2091836929321289,1.5721344947814941
1683931754848473300,10.114473388671875,0.29281046986579895,0.12912368774414062,1.4851324558258057
1683931754858515500,10.124515380859375,0.30803221464157104,0.0659494400024414,1.3491511344909668
1683931754868557600,10.1345576171875,0.3403159976005554,-0.029946327209472656,1.2924222946166992
1683931754878599700,10.144599609375,0.4207833409309387,-0.13674163818359375,1.2715060710906982
1683931754888641800,10.154641845703125,0.47825852036476135,-0.22586822509765625,1.236891508102417
1683931754898684000,10.164683837890625,0.5555589199066162,-0.3918600082397461,1.3063139915466309
1683931754908726000,10.17472607421875,0.619134247303009,-0.5299501419067383,1.3294904232025146
1683931754918768000,10.18476806640625,0.6378045678138733,-0.7961616516113281,1.3773667812347412
1683931754928810200,10.194810302734375,0.6462392807006836,-1.0521612167358398,1.439183235168457
1683931754938852600,10.2048525390625,0.5621205568313599,-1.2160186767578125,1.3774991035461426
1683931754948894700,10.214894775390626,0.4452114403247833,-1.3057804107666016,1.288848876953125
1683931754958936800,10.224936767578125,0.23141303658485413,-1.1926136016845703,0.9358804225921631
1683931754968979000,10.23497900390625,-0.035108134150505066,-0.9801015853881836,0.41388487815856934
1683931754979021000,10.24502099609375,-0.3216460049152374,-0.7609586715698242,-0.1373605728149414
1683931754989063200,10.255063232421875,-0.6067168712615967,-0.5352153778076172,-0.6993951797485352
1683931754999105300,10.265105224609375,-0.7663056254386902,-0.3582944869995117,-1.1113475561141968
1683931755009147400,10.2751474609375,-0.8702627420425415,-0.14884090423583984,-1.357725977897644
1683931755019189500,10.285189453125,-0.8686030507087708,0.17400646209716797,-1.686897873878479
1683931755029231600,10.295231689453125,-0.9342337846755981,0.43503284454345703,-1.8961519002914429
1683931755039273700,10.305273681640625,-0.9629092216491699,0.600285530090332,-2.031524419784546
1683931755049315800,10.31531591796875,-0.999824583530426,0.6336536407470703,-2.0999574661254883
1683931755059358200,10.325358154296875,-0.9179004430770874,0.5373668670654297,-1.9146915674209595
1683931755069400300,10.335400390625,-0.8067312240600586,0.5122928619384766,-1.5240072011947632
1683931755079442400,10.3454423828125,-0.7337582111358643,0.601811408996582,-1.0380245447158813
1683931755089484500,10.355484619140626,-0.5134960412979126,0.7415752410888672,-0.5291953086853027
1683931755099526700,10.365526611328125,-0.1936689168214798,0.9193334579467773,-0.09841752052307129
1683931755109568800,10.37556884765625,0.1378493309020996,1.0792341232299805,0.21154522895812988
1683931755119611000,10.38561083984375,0.26701968908309937,1.0481758117675781,0.43168210983276367
1683931755129653000,10.395653076171875,0.2041437327861786,0.7974014282226562,0.4208865165710449
1683931755139695000,10.405695068359375,0.05955757945775986,0.4734210968017578,0.26022791862487793
1683931755149737200,10.4157373046875,-0.04921654239296913,0.15363407135009766,-0.040506601333618164
1683931755159779300,10.425779296875,-0.1272817701101303,-0.11586761474609375,-0.38624000549316406
1683931755169821400,10.435821533203125,-0.15596768260002136,-0.20341205596923828,-0.7113862037658691
1683931755179863800,10.44586376953125,-0.20461446046829224,-0.2098369598388672,-0.9517402648925781
1683931755189906000,10.455906005859376,-0.2921995222568512,-0.25023746490478516,-1.2227859497070312
1683931755199948000,10.465947998046875,-0.40877875685691833,-0.3154029846191406,-1.4324537515640259
1683931755209990100,10.475990234375,-0.4534675180912018,-0.42728328704833984,-1.5034326314926147
1683931755220032300,10.4860322265625,-0.4442845582962036,-0.5407447814941406,-1.5895273685455322
1683931755230074400,10.496074462890626,-0.3469800353050232,-0.6341056823730469,-1.6896641254425049
1683931755240116500,10.506116455078125,-0.23831528425216675,-0.6832447052001953,-1.740510106086731
1683931755250158600,10.51615869140625,-0.17493605613708496,-0.7383441925048828,-1.6942065954208374
1683931755260200700,10.52620068359375,-0.01873570680618286,-0.7396020889282227,-1.5369011163711548
1683931755270242800,10.536242919921875,0.15779584646224976,-0.6866693496704102,-1.3446879386901855
1683931755280285000,10.546284912109375,0.32306861877441406,-0.5716276168823242,-1.0708215236663818
1683931755290327300,10.556327392578124,0.5135530233383179,-0.4391164779663086,-0.7689428329467773
1683931755300369400,10.566369384765625,0.7078416347503662,-0.18364524841308594,-0.4335649013519287
1683931755310411500,10.57641162109375,0.912124514579773,0.04134368896484375,-0.04645562171936035
1683931755320453600,10.58645361328125,1.0942156314849854,0.1593170166015625,0.2581009864807129
1683931755330495700,10.596495849609376,1.0848326683044434,0.1727437973022461,0.515484094619751
1683931755340537900,10.606537841796875,0.9432684183120728,0.1701059341430664,0.7488527297973633
1683931755350580000,10.616580078125,0.8074353933334351,0.18947505950927734,0.8689591884613037
1683931755360622000,10.6266220703125,0.8059341311454773,0.2093057632446289,0.8424122333526611
1683931755370664200,10.636664306640625,0.8603063821792603,0.24659347534179688,0.62027907371521
1683931755380706300,10.646706298828125,0.9145599007606506,0.26352500915527344,0.323991060256958
1683931755390748400,10.65674853515625,1.0443611145019531,0.21953105926513672,0.07117438316345215
1683931755400790800,10.666790771484376,1.0975993871688843,0.20744991302490234,-0.1271953582763672
1683931755410833000,10.6768330078125,1.0338813066482544,0.1859731674194336,-0.23461270332336426
1683931755420875000,10.686875,0.7572684288024902,0.3029184341430664,-0.409820556640625
1683931755430917000,10.696917236328124,0.5367382168769836,0.40268421173095703,-0.5409116744995117
1683931755440959200,10.706959228515625,0.3713723421096802,0.44234657287597656,-0.6066639423370361
1683931755451001300,10.71700146484375,0.15587306022644043,0.41730499267578125,-0.662041187286377
1683931755461043500,10.72704345703125,-0.10374796390533447,0.3203411102294922,-0.6808664798736572
1683931755471085600,10.73708544921875,-0.38586390018463135,0.18464374542236328,-0.696815013885498
1683931755481127700,10.747127685546875,-0.713395357131958,0.02182769775390625,-0.690699577331543
1683931755491169800,10.757169677734375,-1.0312026739120483,-0.09200668334960938,-0.683504581451416
1683931755501212000,10.7672119140625,-1.3853907585144043,-0.20282363891601562,-0.6935338973999023
1683931755511254000,10.77725390625,-1.5731059312820435,-0.4094686508178711,-0.5846121311187744
1683931755521296400,10.78729638671875,-1.5307215452194214,-0.5213079452514648,-0.4673795700073242
1683931755531338500,10.79733837890625,-1.167734146118164,-0.6694192886352539,-0.4512364864349365
1683931755541380600,10.807380615234376,-0.6448005437850952,-0.7400646209716797,-0.5184555053710938
1683931755551422700,10.817422607421875,-0.266132116317749,-0.7799539566040039,-0.5044543743133545
1683931755561464800,10.82746484375,-0.010219931602478027,-0.7907476425170898,-0.34122562408447266
1683931755571507000,10.8375068359375,0.057291507720947266,-0.7220592498779297,-0.16158294677734375
1683931755581549000,10.847549072265625,0.0662999153137207,-0.5336008071899414,-0.013715267181396484
1683931755591591200,10.857591064453125,-0.022414445877075195,-0.37699127197265625,0.26181936264038086
1683931755601633300,10.86763330078125,-0.11738646030426025,-0.20979595184326172,0.4074225425720215
1683931755611675400,10.87767529296875,-0.17325043678283691,0.029839515686035156,0.5083723068237305
1683931755621717500,10.887717529296875,-0.13889288902282715,0.1438760757446289,0.533362865447998
1683931755631759600,10.897759521484375,-0.03928828239440918,0.22682571411132812,0.411191463470459
1683931755641802000,10.907802001953126,0.1559373140335083,0.2370157241821289,0.1491398811340332
1683931755651844000,10.917843994140625,0.3778831958770752,0.30425453186035156,-0.11343002319335938
1683931755661886200,10.92788623046875,0.505672812461853,0.3284311294555664,-0.39563989639282227
1683931755671928300,10.93792822265625,0.562541127204895,0.37876415252685547,-0.6026287078857422
1683931755681970400,10.947970458984376,0.6577746868133545,0.5340909957885742,-0.7371737957000732
1683931755692012500,10.958012451171875,0.8455053567886353,0.6412372589111328,-0.7903990745544434
1683931755702054700,10.9680546875,1.0317294597625732,0.6834650039672852,-0.7559280395507812
1683931755712096800,10.9780966796875,1.1966347694396973,0.7346467971801758,-0.7113394737243652
1683931755722139000,10.988138916015625,1.332392692565918,0.7945947647094727,-0.6023974418640137
1683931755732181000,10.998180908203125,1.478971004486084,0.7989473342895508,-0.5463833808898926
1683931755742223000,11.00822314453125,1.6109760999679565,0.8414978981018066,-0.4951624870300293
1683931755752265200,11.01826513671875,1.6383577585220337,0.8606553077697754,-0.39591455459594727
1683931755762307300,11.028307373046875,1.5932286977767944,0.8305268287658691,-0.32056236267089844
1683931755772349700,11.038349609375,1.4347848892211914,0.6770458221435547,-0.3077354431152344
1683931755782391800,11.048391845703126,1.2014766931533813,0.4762458801269531,-0.29166316986083984
1683931755792434000,11.058433837890625,0.9011273384094238,0.4087505340576172,-0.3168807029724121
1683931755802476000,11.06847607421875,0.6000581979751587,0.35619449615478516,-0.32226037979125977
1683931755812518100,11.07851806640625,0.5063354969024658,0.32245445251464844,-0.32257080078125
1683931755822560300,11.088560302734376,0.4353595972061157,0.1761178970336914,-0.46259212493896484
1683931755832602400,11.098602294921875,0.24464619159698486,-0.008183479309082031,-0.36609315872192383
1683931755842644500,11.10864453125,-0.15023696422576904,-0.189727783203125,-0.3545708656311035
1683931755852686600,11.1186865234375,-0.7422653436660767,-0.4214010238647461,-0.2707061767578125
1683931755862728700,11.128728759765625,-1.173920750617981,-0.6057558059692383,-0.21473979949951172
1683931755872770800,11.138770751953125,-1.1819921731948853,-0.5851116180419922,-0.2522578239440918
1683931755882813200,11.148813232421874,-1.0656265020370483,-0.43315887451171875,-0.3372626304626465
1683931755892855300,11.158855224609376,-1.017185926437378,-0.3673133850097656,-0.293393611907959
1683931755902897400,11.1688974609375,-1.0700149536132812,-0.3928232192993164,-0.12423181533813477
1683931755912939500,11.178939453125,-1.1306763887405396,-0.3319530487060547,-0.055086612701416016
1683931755922981600,11.188981689453126,-0.9980367422103882,-0.10762405395507812,-0.35373783111572266
1683931755933023700,11.199023681640625,-0.6521539688110352,0.011927604675292969,-1.1072235107421875
1683931755943065900,11.20906591796875,-0.14473724365234375,-0.19354820251464844,-1.962855339050293
1683931755953108000,11.21910791015625,0.2209569215774536,-0.3498506546020508,-2.651676654815674
1683931755963150000,11.229150146484375,0.44111526012420654,-0.32785797119140625,-3.029953956604004
1683931755973192200,11.239192138671875,0.557140588760376,-0.2267446517944336,-3.176020383834839
1683931755983234300,11.249234375,0.5580819845199585,-0.21790504455566406,-3.1310834884643555
1683931755993276400,11.2592763671875,0.40998268127441406,-0.5540876388549805,-3.0156869888305664
1683931756003318500,11.269318603515625,0.08147323131561279,-1.279953956604004,-2.695636034011841
1683931756013361000,11.27936083984375,-0.3199033737182617,-2.249420166015625,-2.0216901302337646
1683931756023403000,11.289403076171874,-0.6728500127792358,-3.169613838195801,-0.9782705307006836
1683931756033445000,11.299445068359375,-1.0231167078018188,-3.7155609130859375,-0.036576271057128906
1683931756043487200,11.3094873046875,-1.214554786682129,-3.7416906356811523,0.4365525245666504
1683931756053529300,11.319529296875,-0.9930850267410278,-2.932522773742676,0.44372034072875977
1683931756063571500,11.329571533203126,-0.3041536808013916,-1.6036739349365234,0.24147558212280273
1683931756073613600,11.339613525390625,0.5608435869216919,-0.3538980484008789,-0.04932880401611328
1683931756083655700,11.34965576171875,1.2522848844528198,0.6619863510131836,-0.41821813583374023
1683931756093697800,11.35969775390625,1.7148951292037964,1.265298843383789,-0.5983960628509521
1683931756103740000,11.369739990234375,1.9999905824661255,1.4705719947814941,-0.5372657775878906
1683931756113782000,11.379781982421875,2.1340625286102295,1.461925983428955,-0.37609338760375977
1683931756123824000,11.38982421875,2.1119489669799805,1.369314193725586,-0.29494619369506836
1683931756133866200,11.3998662109375,2.084745407104492,1.2283101081848145,-0.398972749710083
1683931756143908400,11.409908447265625,2.0609350204467773,0.9767313003540039,-0.47893786430358887
1683931756153950700,11.41995068359375,2.0548582077026367,0.6829280853271484,-0.38018083572387695
1683931756163992800,11.429992919921874,2.005199432373047,0.3512725830078125,-0.04397130012512207
1683931756174035000,11.440034912109375,1.8418782949447632,-0.050792694091796875,0.2956416606903076
1683931756184077000,11.4500771484375,1.604783535003662,-0.2663764953613281,0.5134656429290771
1683931756194119200,11.460119140625,1.2839057445526123,-0.1699981689453125,0.5614197254180908
1683931756204161300,11.470161376953126,0.9987013936042786,-0.053963661193847656,0.3846728801727295
1683931756214203400,11.480203369140625,0.79115229845047,0.009835243225097656,0.19658541679382324
1683931756224245500,11.49024560546875,0.6553027033805847,0.11459827423095703,0.048636674880981445
1683931756234287600,11.50028759765625,0.6410735249519348,0.20538806915283203,0.016497135162353516
1683931756244329700,11.510329833984375,0.7541449666023254,0.27080535888671875,0.07096242904663086
1683931756254371800,11.520371826171875,0.8993238806724548,0.2423858642578125,0.22301626205444336
1683931756264414000,11.5304140625,0.9662662744522095,0.31235504150390625,0.3829472064971924
1683931756274456000,11.5404560546875,1.050431251525879,0.24941253662109375,0.6540572643280029
1683931756284498400,11.55049853515625,1.1870677471160889,0.20424556732177734,0.9257855415344238
1683931756294540500,11.56054052734375,1.3476552963256836,0.38185596466064453,1.1328279972076416
1683931756304582700,11.570582763671876,1.469158411026001,0.5685300827026367,1.2352685928344727
1683931756314624800,11.580624755859375,1.5162086486816406,0.7346725463867188,1.2136809825897217
1683931756324667000,11.5906669921875,1.4349730014801025,0.7868118286132812,1.0860626697540283
1683931756334709000,11.600708984375,1.2545814514160156,0.5631122589111328,0.8319461345672607
1683931756344751000,11.610751220703126,1.0833299160003662,0.38210487365722656,0.5240097045898438
1683931756354793200,11.620793212890625,0.9700738787651062,0.25316524505615234,0.2149486541748047
1683931756364835300,11.63083544921875,0.8944799900054932,0.18579673767089844,-0.05900287628173828
1683931756374877400,11.64087744140625,0.8552542924880981,0.1753091812133789,-0.313859224319458
1683931756384919600,11.65091943359375,0.8316580057144165,0.1596822738647461,-0.4511411190032959
1683931756394961700,11.660961669921875,0.8670017719268799,0.05791759490966797,-0.5017228126525879
1683931756405003800,11.671003662109374,0.9003581404685974,-0.045851707458496094,-0.43647170066833496
1683931756415046100,11.681046142578126,0.9202076196670532,-0.07711505889892578,-0.28333091735839844
1683931756425088300,11.691088134765625,0.9406020045280457,-0.06706523895263672,-0.03289222717285156
1683931756435130400,11.70113037109375,0.9366845488548279,0.14389991760253906,0.25185275077819824
1683931756445172500,11.71117236328125,1.0350005626678467,0.3306903839111328,0.45136284828186035
1683931756455214600,11.721214599609375,1.1678838729858398,0.42853736877441406,0.6533706188201904
1683931756465256700,11.731256591796875,1.3789889812469482,0.4515695571899414,0.863823652267456
1683931756475298800,11.741298828125,1.5829699039459229,0.471466064453125,1.029486894607544
1683931756485341000,11.7513408203125,1.773787021636963,0.48818492889404297,1.1498851776123047
1683931756495383000,11.761383056640625,1.8876957893371582,0.5017032623291016,1.1552762985229492
1683931756505425200,11.771425048828124,1.9551234245300293,0.4807558059692383,1.2240018844604492
1683931756515467300,11.78146728515625,1.9445772171020508,0.3967142105102539,1.128814458847046
1683931756525509400,11.79150927734375,1.8982784748077393,0.22373104095458984,0.9928891658782959
1683931756535551500,11.801551513671875,1.857645034790039,0.11507034301757812,0.7528111934661865
1683931756545593900,11.81159375,1.7865855693817139,0.018262863159179688,0.5267548561096191
1683931756555636000,11.821635986328126,1.685152292251587,-0.15255260467529297,0.35568928718566895
1683931756565678000,11.831677978515625,1.5712435245513916,-0.3231067657470703,0.23474931716918945
1683931756575720200,11.84172021484375,1.4173989295959473,-0.46945953369140625,0.14242935180664062
1683931756585762300,11.85176220703125,1.2955901622772217,-0.5176887512207031,0.03557896614074707
1683931756595804400,11.861804443359375,1.2177393436431885,-0.47999000549316406,-0.10008478164672852
1683931756605846500,11.871846435546875,1.150367021560669,-0.425933837890625,-0.20027565956115723
1683931756615888600,11.881888671875,1.1036279201507568,-0.45102787017822266,-0.3914189338684082
1683931756625930800,11.8919306640625,1.041935682296753,-0.29447174072265625,-0.6747541427612305
1683931756635972900,11.901972900390625,0.9055492877960205,-0.20958423614501953,-0.781740665435791
1683931756646015000,11.912014892578124,0.8520030379295349,0.0307464599609375,-1.0135116577148438
1683931756656057000,11.92205712890625,0.7752521634101868,-0.06385135650634766,-1.010382890701294
1683931756666099200,11.93209912109375,0.7161133289337158,-0.07744026184082031,-1.0035512447357178
1683931756676141300,11.942141357421875,0.689004123210907,-0.05814933776855469,-1.0294454097747803
1683931756686183400,11.952183349609374,0.731170117855072,0.11568737030029297,-1.0142505168914795
1683931756696225800,11.962225830078125,0.8568771481513977,0.3359346389770508,-0.9828722476959229
1683931756706268000,11.972267822265625,0.9353514909744263,0.3660593032836914,-0.9639842510223389
1683931756716310000,11.98231005859375,0.9212520122528076,0.05931568145751953,-0.8904871940612793
1683931756726352100,11.99235205078125,0.9041095972061157,-0.27211475372314453,-0.7191741466522217
1683931756736394200,12.002394287109375,0.9303980469703674,-0.1912403106689453,-0.4242391586303711
1683931756746436400,12.012436279296875,0.9264711737632751,-0.027227401733398438,-0.1783738136291504
1683931756756478500,12.022478515625,0.7903858423233032,-0.06954574584960938,-0.06351280212402344
1683931756766520600,12.0325205078125,0.507014274597168,-0.34995555877685547,-0.23586297035217285
1683931756776562700,12.042562744140625,0.24874001741409302,-0.3272409439086914,-0.3623824119567871
1683931756786604800,12.052604736328124,0.045182377099990845,-0.1866769790649414,-0.4689211845397949
1683931756796647000,12.06264697265625,-0.12469707429409027,0.025142669677734375,-0.5798635482788086
1683931756806689000,12.07268896484375,-0.2697579860687256,0.059284210205078125,-0.5940542221069336
1683931756816731100,12.082731201171875,-0.41283687949180603,0.062285423278808594,-0.613666296005249
1683931756826773200,12.092773193359376,-0.44936656951904297,0.09717845916748047,-0.605248212814331
1683931756836815600,12.102815673828125,-0.25484153628349304,0.05877685546875,-0.45891761779785156
1683931756846857700,12.112857666015625,0.06984791159629822,-0.11730194091796875,-0.392275333404541
1683931756856899800,12.12289990234375,0.38740646839141846,-0.28025054931640625,-0.3545687198638916
1683931756866942000,12.13294189453125,0.7065871953964233,-0.4159355163574219,-0.23609018325805664
1683931756876984000,12.142984130859375,0.9852685332298279,-0.5627021789550781,-0.05383014678955078
1683931756887026200,12.153026123046875,1.2193468809127808,-0.5869951248168945,0.13894224166870117
1683931756897068300,12.163068359375,1.3958792686462402,-0.3127775192260742,0.312363862991333
1683931756907110400,12.1731103515625,1.4902679920196533,0.16335773468017578,0.4199657440185547
1683931756917152500,12.183152587890625,1.5072025060653687,0.5662288665771484,0.5666816234588623
1683931756927194600,12.193194580078124,1.4265745878219604,0.695490837097168,0.7573268413543701
1683931756937236700,12.20323681640625,1.2504005432128906,0.7596158981323242,0.9488437175750732
1683931756947278800,12.21327880859375,1.1076993942260742,0.7156696319580078,1.1050488948822021
1683931756957321000,12.223321044921875,1.0201998949050903,0.5755100250244141,1.253584623336792
1683931756967363000,12.233363037109376,0.9063805341720581,0.4514799118041992,1.2578880786895752
1683931756977405200,12.2434052734375,0.7526900768280029,0.28159618377685547,1.0949115753173828
1683931756987447600,12.253447509765625,0.5852852463722229,0.09727764129638672,0.8447055816650391
1683931756997489700,12.26348974609375,0.530870795249939,0.0972137451171875,0.44202613830566406
1683931757007531800,12.27353173828125,0.597409188747406,0.09521198272705078,0.12782883644104004
1683931757017574000,12.283573974609375,0.7442103624343872,0.1439037322998047,-0.06912422180175781
1683931757027616000,12.293615966796875,0.9479817152023315,0.21444988250732422,-0.15642952919006348
1683931757037658000,12.303658203125,1.107183814048767,0.029959678649902344,-0.12181568145751953
1683931757047700200,12.3137001953125,1.2307895421981812,-0.17482566833496094,-0.07281255722045898
1683931757057742300,12.323742431640625,1.2482335567474365,-0.2185077667236328,-0.01712322235107422
1683931757067784400,12.333784423828124,1.1659936904907227,-0.24732112884521484,0.06140565872192383
1683931757077826600,12.34382666015625,1.024606466293335,-0.1420459747314453,0.07863426208496094
1683931757087868700,12.35386865234375,0.8780746459960938,-0.058502197265625,0.1246802806854248
1683931757097910800,12.363910888671874,0.8673357963562012,0.02208423614501953,0.21507716178894043
1683931757107953000,12.373952880859376,0.8641549348831177,0.11362934112548828,0.2695937156677246
1683931757117995000,12.3839951171875,0.8652628660202026,0.2588777542114258,0.26368284225463867
1683931757128037000,12.394037109375,0.845149040222168,0.3862800598144531,0.19097495079040527
1683931757138079500,12.40407958984375,0.8227930665016174,0.44153404235839844,0.11561894416809082
1683931757148121600,12.41412158203125,0.8872771263122559,0.48720645904541016,0.11032986640930176
1683931757158163700,12.424163818359375,0.8859877586364746,0.3898191452026367,0.06831812858581543
1683931757168205800,12.434205810546874,0.8266517519950867,0.03556537628173828,0.12984156608581543
1683931757178248000,12.444248046875,0.7977869510650635,-0.07813358306884766,0.16117453575134277
1683931757188290000,12.4542900390625,0.8468105792999268,-0.04746818542480469,0.2004411220550537
1683931757198332200,12.464332275390625,0.8748778700828552,0.07700824737548828,0.19732451438903809
1683931757208374300,12.474374267578124,0.9655869007110596,0.17294597625732422,0.30852413177490234
1683931757218416400,12.48441650390625,1.1053566932678223,0.20413494110107422,0.4798290729522705
1683931757228458500,12.49445849609375,1.1558325290679932,0.18678569793701172,0.6551029682159424
