time,seconds_elapsed,z,y,x
1684109487127206400,0.024206298828125,0,0,0
1684109487137248000,0.034248046875,0.2663755416870117,0.2769782543182373,0.1478581428527832
1684109487147289300,0.044289306640625,0.2584724426269531,0.5025255680084229,0.09048676490783691
1684109487157331000,0.0543310546875,0.11840534210205078,0.3822507858276367,0.6373209953308105
1684109487167372500,0.06437255859375,-0.28104591369628906,0.4143650531768799,0.9514689445495605
1684109487177414000,0.074413818359375,-0.6212177276611328,0.4073753356933594,0.9415979385375977
1684109487187455500,0.08445556640625,-0.9247188568115234,0.4109833240509033,0.8536465167999268
1684109487197496800,0.094496826171875,-1.0712718963623047,0.19838428497314453,0.7437832355499268
1684109487207538400,0.104538330078125,-0.6865081787109375,-0.07012295722961426,0.792421817779541
1684109487217579800,0.114579833984375,-0.2529783248901367,-0.1413860321044922,0.809335470199585
1684109487227621400,0.124621337890625,0.056792259216308594,-0.09973812103271484,0.9435539245605469
1684109487237663000,0.1346630859375,0.19362735748291016,-0.15217304229736328,1.0697276592254639
1684109487247704300,0.144704345703125,0.04863548278808594,0.388530969619751,0.2776796817779541
1684109487257746000,0.154745849609375,-0.5860605239868164,-1.0660018920898438,1.414672613143921
1684109487267787300,0.164787353515625,-1.0322799682617188,-0.8332641124725342,0.853583574295044
1684109487277828900,0.174828857421875,-1.0704946517944336,-0.7569179534912109,0.5030288696289062
1684109487287870200,0.1848701171875,-0.9389362335205078,-0.1123952865600586,-0.4172487258911133
1684109487297911800,0.194911865234375,-1.107717514038086,-2.1768906116485596,1.059643030166626
1684109487307953400,0.204953369140625,-0.7148551940917969,-1.338059663772583,0.48191261291503906
1684109487317994800,0.214994873046875,-0.8780279159545898,-0.7631065845489502,-0.10065150260925293
1684109487328036400,0.225036376953125,-0.6453037261962891,0.4215214252471924,-0.41828489303588867
1684109487338077700,0.23507763671875,-1.0850715637207031,-2.0188755989074707,1.1808490753173828
1684109487348119300,0.245119384765625,-0.981623649597168,-1.58380126953125,0.6848249435424805
1684109487358160600,0.25516064453125,-0.33201122283935547,-0.4744222164154053,-0.17957258224487305
1684109487368202200,0.2652021484375,-0.29866504669189453,-0.6467106342315674,-0.04938864707946777
1684109487378243800,0.275243896484375,-0.6279563903808594,-0.793459415435791,0.14443588256835938
1684109487388285200,0.28528515625,-0.7713708877563477,-0.3681931495666504,0.12263965606689453
1684109487398326800,0.295326904296875,-1.0171632766723633,0.40111398696899414,-0.18304896354675293
1684109487408368000,0.3053681640625,-1.1565861701965332,-0.6006698608398438,-0.1536569595336914
1684109487418409700,0.31540966796875,-0.8465900421142578,0.3745124340057373,-0.23752284049987793
1684109487428451300,0.325451416015625,-1.443115234375,-0.29193735122680664,0.04162120819091797
1684109487438492700,0.33549267578125,-1.4682040214538574,-0.45473337173461914,0.8656258583068848
1684109487448534300,0.3455341796875,-1.2839670181274414,0.013446807861328125,0.8334541320800781
1684109487458575600,0.35557568359375,-0.6845698356628418,0.836799144744873,0.675227165222168
1684109487468617200,0.3656171875,-1.6002731323242188,-0.9735121726989746,0.9962878227233887
1684109487478658600,0.375658447265625,-1.703852653503418,-0.6184837818145752,0.6128191947937012
1684109487488700200,0.3857001953125,-1.2082490921020508,0.5943348407745361,-0.45420360565185547
1684109487498741800,0.39574169921875,-0.7391681671142578,-0.7045300006866455,0.9449443817138672
1684109487508783000,0.405783203125,-0.038990020751953125,0.5724599361419678,-0.3755507469177246
1684109487518824700,0.41582470703125,-0.1804065704345703,-0.16254043579101562,-0.10316801071166992
1684109487528866300,0.4258662109375,-0.710820198059082,-1.2497735023498535,-0.09600353240966797
1684109487538907600,0.43590771484375,-1.123042106628418,-1.7271318435668945,-0.0090789794921875
1684109487548949200,0.44594921875,-1.330479621887207,-1.3146438598632812,-0.3645944595336914
1684109487558990600,0.455990478515625,-1.78448486328125,-0.8348081111907959,0.02045297622680664
1684109487569032200,0.4660322265625,-5.003713607788086,-0.5275728702545166,0.25360870361328125
1684109487579073500,0.476073486328125,-4.2878570556640625,0.5881147384643555,-0.4286665916442871
1684109487589115100,0.486115234375,-3.8380725383758545,0.5785493850708008,-0.45569610595703125
1684109487599156700,0.49615673828125,-1.6346726417541504,-0.7452502250671387,0.3491215705871582
1684109487609198000,0.506197998046875,0.5415754318237305,-1.8697309494018555,1.082223892211914
1684109487619239700,0.51623974609375,1.0719623565673828,-1.1869354248046875,0.5655107498168945
1684109487629281000,0.526281005859375,1.447218418121338,-0.383512020111084,0.0944833755493164
1684109487639322600,0.536322509765625,1.4890260696411133,-0.19457435607910156,-0.1636509895324707
1684109487649364200,0.5463642578125,1.5913195610046387,-0.29621458053588867,-0.11905479431152344
1684109487659405600,0.556405517578125,1.3099961280822754,-0.2396860122680664,-0.17769765853881836
1684109487669447200,0.566447265625,0.6636161804199219,-0.19885683059692383,-0.32374000549316406
1684109487679488500,0.576488525390625,0.18825197219848633,-0.14529037475585938,-0.4576902389526367
1684109487689530000,0.586530029296875,0.024112701416015625,-0.11139535903930664,-0.6060276031494141
1684109487699571700,0.59657177734375,-0.020109176635742188,-0.10647726058959961,-0.7213644981384277
1684109487709613000,0.606613037109375,-0.1621241569519043,-0.2057657241821289,-0.2235407829284668
1684109487719654700,0.616654541015625,0.1199641227722168,-0.4218482971191406,-0.39350271224975586
1684109487729696000,0.626696044921875,0.4249749183654785,-0.5512151718139648,-0.2856111526489258
1684109487739737600,0.636737548828125,0.6021609306335449,-0.4739718437194824,-0.21498346328735352
1684109487749779200,0.646779296875,0.7808289527893066,-0.3643054962158203,-0.38413381576538086
1684109487759820500,0.656820556640625,1.0300993919372559,-0.27135610580444336,-0.492032527923584
1684109487769862100,0.666862060546875,1.0986227989196777,-0.15129518508911133,-0.4100675582885742
1684109487779903500,0.676903564453125,1.3388581275939941,-0.1212148666381836,-0.21405363082885742
1684109487789945000,0.686945068359375,1.296210765838623,-0.006304264068603516,-0.040253639221191406
1684109487799986700,0.696986572265625,1.030825138092041,0.14699983596801758,-0.031171798706054688
1684109487810028000,0.707028076171875,0.8024992942810059,0.13741064071655273,0.013031482696533203
1684109487820069600,0.717069580078125,0.7572669982910156,0.09681367874145508,-0.05503559112548828
1684109487830111000,0.727111083984375,0.777491569519043,0.19217729568481445,-0.25441741943359375
1684109487840152600,0.737152587890625,0.8706026077270508,0.6351065635681152,-0.8677306175231934
1684109487850194200,0.747194091796875,0.6483864784240723,0.8760571479797363,-1.3147773742675781
1684109487860235500,0.757235595703125,0.05417680740356445,-0.7788634300231934,-1.3178539276123047
1684109487870277000,0.767277099609375,-0.17582178115844727,-1.1565155982971191,-1.7538347244262695
1684109487880318500,0.777318359375,-0.3314175605773926,-1.0154094696044922,-2.034478187561035
1684109487890360000,0.787360107421875,-0.0376582145690918,-0.7606005668640137,-2.4142019748687744
1684109487900401700,0.797401611328125,0.6679291725158691,-0.15115857124328613,-2.69111967086792
1684109487910443000,0.807443115234375,0.9122185707092285,-0.37312793731689453,-2.1440489292144775
1684109487920484600,0.817484619140625,0.8205819129943848,-1.0644686222076416,-1.6019058227539062
1684109487930526000,0.82752587890625,0.5490331649780273,-1.2465872764587402,-1.3961424827575684
1684109487940567600,0.837567626953125,0.05110931396484375,-1.0316307544708252,-1.727454662322998
1684109487950609200,0.847609130859375,-0.4333176612854004,-0.8343307971954346,-1.9781603813171387
1684109487960650500,0.857650390625,-0.8493843078613281,-0.017928600311279297,-2.258592128753662
1684109487970692000,0.867692138671875,-1.0420713424682617,-1.043137550354004,-1.2311668395996094
1684109487980733700,0.877733642578125,-0.47046852111816406,-1.4731380939483643,-0.3040332794189453
1684109487990775000,0.887775146484375,-9.173633575439453,-2.587108612060547,3.277172088623047
1684109488000816600,0.897816650390625,-5.193141460418701,0.32277417182922363,-0.4461512565612793
1684109488010858000,0.90785791015625,1.1588096618652344,1.7497913837432861,-1.9475812911987305
1684109488020899600,0.917899658203125,3.0542831420898438,-0.8263006210327148,-0.8194332122802734
1684109488030941200,0.927941162109375,0.5101776123046875,-2.429248809814453,-0.4133639335632324
1684109488040982500,0.937982421875,0.38468313217163086,-2.0984585285186768,-1.128150463104248
1684109488051024100,0.948024169921875,1.843770980834961,-1.868821382522583,-1.0877432823181152
1684109488061065700,0.958065673828125,2.8247270584106445,-2.3605144023895264,-1.1221137046813965
1684109488071107000,0.968107177734375,2.615475654602051,-2.1906368732452393,-1.5765342712402344
1684109488081148700,0.978148681640625,1.2593069076538086,-1.7322030067443848,-2.5345797538757324
1684109488091190000,0.98818994140625,2.4221057891845703,-1.7260093688964844,-2.0676674842834473
1684109488101231600,0.998231689453125,2.9180502891540527,-1.7633907794952393,-2.223328113555908
1684109488111273200,1.008273193359375,2.995154857635498,-1.4899237155914307,-1.889859676361084
1684109488121314600,1.018314453125,0.8263492584228516,-1.0754377841949463,-1.2745485305786133
1684109488131356200,1.028356201171875,-0.6471047401428223,-0.6785008907318115,-1.2542409896850586
1684109488141397500,1.0383974609375,-1.2699391841888428,0.11017727851867676,-1.0378341674804688
1684109488151439000,1.048439208984375,-1.0946376323699951,0.6194350719451904,-1.0496540069580078
1684109488161480700,1.058480712890625,-0.7621965408325195,0.3694162368774414,-0.620274543762207
1684109488171522000,1.06852197265625,-0.5985243320465088,0.4182734489440918,-0.3516883850097656
1684109488181563600,1.078563720703125,-0.6803469657897949,0.4780733585357666,-0.46822166442871094
1684109488191605000,1.08860498046875,-0.6433675289154053,0.3114333152770996,-0.6764402389526367
1684109488201646600,1.098646484375,0.07871007919311523,0.16103434562683105,-1.0945305824279785
1684109488211688200,1.108688232421875,0.6652956008911133,0.2991633415222168,-1.5752601623535156
1684109488221729500,1.1187294921875,1.0542943477630615,0.4038052558898926,-1.6733899116516113
1684109488231771100,1.128771240234375,1.5993154048919678,0.5663625001907349,-1.4734902381896973
1684109488241812700,1.138812744140625,1.6775994300842285,0.7659788131713867,-1.0267610549926758
1684109488251854000,1.14885400390625,1.5542283058166504,0.8384722471237183,-0.8709430694580078
1684109488261895700,1.158895751953125,1.212371587753296,0.8631283044815063,-1.1540889739990234
1684109488271937000,1.16893701171875,0.9058454036712646,-0.07974791526794434,-1.069188117980957
1684109488281978600,1.178978515625,0.948819637298584,-0.17064476013183594,-1.3157358169555664
1684109488292020200,1.189020263671875,1.1977341175079346,-0.1005699634552002,-1.7629656791687012
1684109488302061600,1.1990615234375,1.0444955825805664,-0.23909640312194824,-2.0914840698242188
1684109488312103200,1.209103271484375,0.5689111948013306,-0.11086726188659668,-2.3481101989746094
1684109488322144800,1.219144775390625,-0.056900978088378906,-0.15711760520935059,-2.122587203979492
1684109488332186000,1.22918603515625,-0.7394677996635437,-0.29550647735595703,-1.6910924911499023
1684109488342227700,1.239227783203125,-1.4747178554534912,-0.190047025680542,-1.756608009338379
1684109488352269000,1.24926904296875,-2.2035973072052,-0.5879173278808594,-1.537628173828125
1684109488362310700,1.259310546875,-2.602463960647583,-0.884286642074585,-1.189549446105957
1684109488372352300,1.269352294921875,-2.1194210052490234,-0.8604884147644043,-0.9456310272216797
1684109488382393600,1.2793935546875,-1.3593906164169312,-1.0510470867156982,-0.4006462097167969
1684109488392435200,1.289435302734375,-0.6245670318603516,-1.130225419998169,-0.17523193359375
1684109488402476800,1.299476806640625,-0.040162503719329834,-1.300818920135498,-0.37975215911865234
1684109488412518100,1.30951806640625,0.2825893461704254,-1.4932057857513428,-0.4242095947265625
1684109488422559700,1.319559814453125,0.2588939070701599,-1.0704829692840576,-0.6158666610717773
1684109488432601000,1.32960107421875,-0.10652494430541992,-0.7822103500366211,-0.7807979583740234
1684109488442642700,1.339642578125,-0.23246535658836365,-0.7133634090423584,-0.902796745300293
1684109488452684300,1.349684326171875,-0.28630927205085754,-1.061004877090454,-0.5745773315429688
1684109488462725600,1.3597255859375,0.11406600475311279,-1.2232141494750977,-0.1184549331665039
1684109488472767200,1.369767333984375,0.9033828973770142,-1.1680922508239746,0.1782665252685547
1684109488482808800,1.379808837890625,1.7644908428192139,-1.0485954284667969,0.3571300506591797
1684109488492850200,1.38985009765625,2.155320644378662,-0.8681535720825195,0.33226490020751953
1684109488502891800,1.399891845703125,2.2928104400634766,-0.9479384422302246,0.7425832748413086
1684109488512933400,1.409933349609375,1.9992412328720093,-0.9457502365112305,1.7016420364379883
1684109488522974700,1.419974609375,1.6091026067733765,-0.45272397994995117,2.017702102661133
1684109488533016300,1.430016357421875,0.8955100178718567,0.02324962615966797,1.7988214492797852
1684109488543057700,1.4400576171875,0.09147723019123077,0.09048032760620117,0.9797153472900391
1684109488553099300,1.450099365234375,-0.4344072937965393,0.031659603118896484,0.34415721893310547
1684109488563140900,1.460140869140625,-0.7333106398582458,0.13814687728881836,-0.30356311798095703
1684109488573182200,1.47018212890625,-1.1996359825134277,0.22371578216552734,-1.0021452903747559
1684109488583223800,1.480223876953125,-1.3810358047485352,-0.10292291641235352,-1.1463584899902344
1684109488593265400,1.490265380859375,-1.5558871030807495,-0.15189409255981445,-0.8773007392883301
1684109488603306800,1.500306640625,-1.0069231986999512,-0.43610620498657227,-0.1077871322631836
1684109488613348400,1.510348388671875,-0.2651249170303345,-0.8463025093078613,0.653965950012207
1684109488623390000,1.520389892578125,0.29339611530303955,-1.0298519134521484,1.1206769943237305
1684109488633431300,1.530431396484375,0.5313776731491089,-1.1282739639282227,1.472494125366211
1684109488643473000,1.540472900390625,0.556844174861908,-1.021873950958252,1.6544456481933594
1684109488653514200,1.55051416015625,0.5320672392845154,-0.8128724098205566,1.7544994354248047
1684109488663555800,1.560555908203125,0.7649939656257629,-0.6794848442077637,1.578439712524414
1684109488673597400,1.570597412109375,0.8701839447021484,-0.6618361473083496,1.03363037109375
1684109488683638800,1.580638671875,0.7597677707672119,-0.6306824684143066,0.5824174880981445
1684109488693680400,1.590680419921875,0.5085586905479431,-0.546074390411377,0.029836654663085938
1684109488703722000,1.600721923828125,0.16445547342300415,-0.5861988067626953,-0.5124788284301758
1684109488713763300,1.610763427734375,0.05171265825629234,-0.7297635078430176,-0.9274401664733887
1684109488723805000,1.620804931640625,0.11620695888996124,-0.7976012229919434,-1.0489158630371094
1684109488733846300,1.63084619140625,0.2511132061481476,-0.8407468795776367,-0.7853331565856934
1684109488743888000,1.640887939453125,0.099154993891716,-0.7317690849304199,-0.34994077682495117
1684109488753929500,1.650929443359375,-0.4806373417377472,-0.5022153854370117,-0.003956317901611328
1684109488763970800,1.660970703125,-1.186923623085022,-0.30692100524902344,0.16374731063842773
1684109488774012400,1.671012451171875,-1.5172479152679443,-0.05101442337036133,0.33509159088134766
1684109488784054000,1.681053955078125,-1.3990001678466797,0.09094429016113281,0.3528566360473633
1684109488794095400,1.691095458984375,-0.9908576011657715,-0.07923316955566406,0.6092824935913086
1684109488804137000,1.701136962890625,-0.3977181613445282,-0.09160137176513672,0.9907398223876953
1684109488814178600,1.711178466796875,0.12271083891391754,-0.1921401023864746,1.3229241371154785
1684109488824220000,1.721219970703125,0.25299856066703796,-0.0782613754272461,1.2767133712768555
1684109488834261500,1.731261474609375,0.42940229177474976,0.511265754699707,0.7709927558898926
1684109488844302800,1.741302734375,-0.2904520332813263,-0.6900992393493652,0.17120838165283203
1684109488854344400,1.751344482421875,-0.6341736912727356,-1.1357245445251465,-0.23831653594970703
1684109488864386000,1.761385986328125,0.17301465570926666,-0.5885195732116699,-0.45223569869995117
1684109488874427400,1.771427490234375,-0.014805912971496582,0.1958627700805664,-0.676912784576416
1684109488884469000,1.781468994140625,-0.48791131377220154,-0.10076045989990234,-0.3509373664855957
1684109488894510600,1.791510498046875,-0.5529593229293823,-0.2032151222229004,-0.19320344924926758
1684109488904552000,1.801552001953125,-0.4554870128631592,-0.5401830673217773,0.017261981964111328
1684109488914593500,1.811593505859375,-0.20676672458648682,-0.2746095657348633,0.3835153579711914
1684109488924635100,1.82163525390625,-0.16005271673202515,-0.15630054473876953,0.5426397323608398
1684109488934676500,1.831676513671875,-0.2551664710044861,-0.2904982566833496,0.5021834373474121
1684109488944718000,1.841718017578125,-0.32852935791015625,-0.33747100830078125,0.27077674865722656
1684109488954759700,1.851759765625,-0.4671560525894165,0.4257826805114746,-0.4322166442871094
1684109488964801000,1.861801025390625,-0.7488588094711304,-0.9212918281555176,-0.26381826400756836
1684109488974842600,1.871842529296875,-0.35433340072631836,-1.2315173149108887,-0.4425778388977051
1684109488984884200,1.88188427734375,0.15499818325042725,-0.3342447280883789,-0.4351048469543457
1684109488994925600,1.891925537109375,-0.3276495933532715,-0.8064875602722168,-0.7396683692932129
1684109489004967200,1.90196728515625,-0.2275325059890747,-1.55472993850708,-0.6563100814819336
1684109489015008500,1.912008544921875,0.38039612770080566,-0.9891958236694336,-0.8856234550476074
1684109489025050000,1.922050048828125,0.18452131748199463,-0.690643310546875,-1.2620124816894531
1684109489035091700,1.932091796875,-0.2515225410461426,-1.1451563835144043,-1.2497706413269043
1684109489045133000,1.942133056640625,0.4982205629348755,-1.002514362335205,-1.492271900177002
1684109489055174700,1.952174560546875,-0.07150352001190186,0.0794830322265625,-0.9188251495361328
1684109489065216300,1.96221630859375,-1.519310474395752,-0.017374515533447266,-0.08323335647583008
1684109489075257600,1.972257568359375,-1.6827988624572754,0.12122964859008789,0.10038995742797852
1684109489085299200,1.98229931640625,-1.159984827041626,0.7833027839660645,-0.08806180953979492
1684109489095340800,1.9923408203125,-0.4798290729522705,0.5159645080566406,-0.5250434875488281
1684109489105382100,2.002382080078125,-0.09263873100280762,0.27004146575927734,-0.728386402130127
1684109489115423700,2.012423828125,-0.013440370559692383,0.2153921127319336,-0.5952596664428711
1684109489125465300,2.02246533203125,0.25249922275543213,0.3418731689453125,-0.5256071090698242
1684109489135506700,2.032506591796875,0.52667236328125,0.5858249664306641,-0.8542003631591797
1684109489145548300,2.04254833984375,0.26889610290527344,0.15782833099365234,-1.0948681831359863
1684109489155590000,2.05258984375,0.4170703887939453,-0.6568794250488281,-0.980618953704834
1684109489165631200,2.06263134765625,0.5283424854278564,-1.3936023712158203,-0.49846601486206055
1684109489175672800,2.0726728515625,0.5859321355819702,-1.522634506225586,-0.45097923278808594
1684109489185714400,2.08271435546875,0.9540483951568604,-1.7258319854736328,-0.5210781097412109
1684109489195755800,2.092755859375,1.184000849723816,-1.85740327835083,-1.0322623252868652
1684109489205797400,2.10279736328125,1.1493637561798096,-1.5121936798095703,-1.3136587142944336
1684109489215838700,2.112838623046875,0.9415451288223267,-1.396599292755127,-1.4452767372131348
1684109489225880300,2.12288037109375,0.7559612989425659,-0.9039363861083984,-1.2595362663269043
1684109489235922000,2.132921875,0.5869307518005371,-0.6981215476989746,-1.1528830528259277
1684109489245963300,2.14296337890625,0.39720773696899414,-0.6216535568237305,-0.9883370399475098
1684109489256004900,2.1530048828125,0.2837789058685303,-0.664893627166748,-0.9256577491760254
1684109489266046500,2.16304638671875,-0.12971138954162598,-0.5208554267883301,-1.1355705261230469
1684109489276087800,2.173087890625,-0.8097121715545654,-0.5921158790588379,-1.3103094100952148
1684109489286129400,2.18312939453125,-1.2525410652160645,-0.6034483909606934,-1.4450578689575195
1684109489296171000,2.1931708984375,-1.2696845531463623,-0.8655204772949219,-1.0458745956420898
1684109489306212400,2.20321240234375,-0.7169504165649414,-0.7601637840270996,-0.5673089027404785
1684109489316254000,2.21325390625,-0.3360629081726074,-0.7271389961242676,-0.20978832244873047
1684109489326295600,2.223295654296875,-0.23540925979614258,-0.43868350982666016,0.13171005249023438
1684109489336337000,2.2333369140625,-0.0364987850189209,0.07002878189086914,-0.5292043685913086
1684109489346378500,2.24337841796875,-0.9027457237243652,1.4355239868164062,-0.04837322235107422
1684109489356420000,2.253420166015625,-1.24226975440979,-0.09664392471313477,0.2003498077392578
1684109489366461400,2.26346142578125,-1.3240158557891846,0.1164388656616211,-0.33611154556274414
1684109489376503000,2.2735029296875,-0.9154872894287109,-0.556370735168457,-1.283102035522461
1684109489386544600,2.283544677734375,-0.4318559169769287,-1.1511149406433105,-1.7189216613769531
1684109489396586000,2.2935859375,0.020235538482666016,-1.296088695526123,-1.9044852256774902
1684109489406627600,2.303627685546875,0.21914243698120117,-1.256502628326416,-1.5856013298034668
1684109489416669200,2.313669189453125,0.3000495433807373,-1.113327980041504,-1.1140198707580566
1684109489426710500,2.32371044921875,0.03825187683105469,-0.7425332069396973,-0.23135137557983398
1684109489436752100,2.333752197265625,0.1645643711090088,-0.09074735641479492,0.963829517364502
1684109489446793700,2.343793701171875,0.7332401275634766,0.47905397415161133,1.985076904296875
1684109489456835000,2.3538349609375,0.9748756885528564,1.3359146118164062,1.4119758605957031
1684109489466876700,2.363876708984375,0.6983041763305664,1.177248477935791,0.2646298408508301
1684109489476918300,2.373918212890625,0.3936295509338379,0.5665302276611328,-0.5252127647399902
1684109489486959600,2.383959716796875,0.5887603759765625,2.058513641357422,-1.6349763870239258
1684109489497001200,2.394001220703125,0.6559653282165527,-0.36431312561035156,-2.077876091003418
1684109489507042800,2.404042724609375,0.7640843391418457,-1.222024917602539,-1.6356306076049805
1684109489517084200,2.414084228515625,0.6110403537750244,-1.0789470672607422,-1.0307221412658691
1684109489527125800,2.424125732421875,0.5231196880340576,-0.1344146728515625,-0.3421492576599121
1684109489537167000,2.4341669921875,0.3607594966888428,0.278231143951416,0.21109437942504883
1684109489547208700,2.444208740234375,0.1985337734222412,0.2295384407043457,0.5015063285827637
1684109489557250300,2.454250244140625,0.08559203147888184,-0.10259485244750977,0.49819374084472656
1684109489567291600,2.464291748046875,0.11247897148132324,-0.33868885040283203,0.11422443389892578
1684109489577333200,2.474333251953125,0.23581957817077637,-0.5735363960266113,-0.3859572410583496
1684109489587374800,2.484374755859375,0.06438398361206055,-1.1735239028930664,-0.6883726119995117
1684109489597416400,2.49441650390625,-0.22252345085144043,-0.5109539031982422,-0.8538608551025391
1684109489607457800,2.504457763671875,-0.49526286125183105,-0.4673194885253906,-1.327505111694336
1684109489617499400,2.51449951171875,-0.7407047748565674,-0.8819031715393066,-1.7226805686950684
1684109489627541000,2.524541015625,-0.7197949886322021,-1.1225147247314453,-1.7772865295410156
1684109489637582300,2.534582275390625,-0.5762040615081787,-0.7468667030334473,-1.66294527053833
1684109489647624000,2.5446240234375,-0.496213436126709,-0.7752132415771484,-1.4459314346313477
1684109489657665300,2.554665283203125,-0.6548702716827393,-0.6424851417541504,-1.2499384880065918
1684109489667707000,2.564706787109375,-1.1094284057617188,-0.28203916549682617,-1.3305878639221191
1684109489677748500,2.57474853515625,-0.9199066162109375,0.3823671340942383,-1.2293553352355957
1684109489687789800,2.584789794921875,-1.1088836193084717,-0.18959522247314453,-1.6180286407470703
1684109489697831400,2.59483154296875,-0.9546170234680176,-0.38072872161865234,-1.811201572418213
1684109489707873000,2.604873046875,-0.1774458885192871,0.03265523910522461,-1.9106450080871582
1684109489717914600,2.61491455078125,-0.22254443168640137,-0.3585243225097656,-2.094273567199707
1684109489727956000,2.6249560546875,-0.1979982852935791,-0.6292357444763184,-1.967045545578003
1684109489737997600,2.63499755859375,-0.006576061248779297,-1.2034778594970703,-1.7249245643615723
1684109489748039200,2.6450390625,0.14767193794250488,-1.3116145133972168,-1.198592185974121
1684109489758080500,2.65508056640625,0.255993127822876,-0.9512438774108887,-0.747581958770752
1684109489768122000,2.6651220703125,0.19089865684509277,-0.5089564323425293,-0.9678287506103516
1684109489778163500,2.67516357421875,-0.46678829193115234,-0.3572816848754883,-1.7251505851745605
1684109489788205000,2.685205078125,-1.00099515914917,0.0032024383544921875,-2.4399285316467285
1684109489798246700,2.69524658203125,-0.502906322479248,0.8841009140014648,-2.049726724624634
1684109489808288000,2.7052880859375,-0.8326065540313721,0.8184523582458496,-2.3332552909851074
1684109489818329600,2.71532958984375,-1.023930549621582,0.39338207244873047,-2.26725697517395
1684109489828371200,2.72537109375,-1.2404985427856445,0.07563972473144531,-1.372448205947876
1684109489838412800,2.735412841796875,-1.3361289501190186,0.22380971908569336,-0.5553903579711914
1684109489848454100,2.7454541015625,-1.6858155727386475,-0.3390789031982422,0.2281184196472168
1684109489858495700,2.755495849609375,-1.6846487522125244,-0.9869232177734375,0.8721871376037598
1684109489868537300,2.765537353515625,-1.5259065628051758,-1.4879179000854492,0.8257617950439453
1684109489878578700,2.77557861328125,-1.642655611038208,-1.9119720458984375,1.3295602798461914
1684109489888620300,2.785620361328125,-1.9948561191558838,-1.9131240844726562,1.5705575942993164
1684109489898661600,2.79566162109375,-2.0919063091278076,-1.0475940704345703,1.8877625465393066
1684109489908703200,2.805703125,-2.3152031898498535,-0.4418458938598633,2.044994831085205
1684109489918744800,2.815744873046875,-2.507296323776245,-0.5374784469604492,2.1324124336242676
1684109489928786200,2.8257861328125,-2.126438856124878,-0.6662330627441406,1.9169974327087402
1684109489938827800,2.835827880859375,-1.4058759212493896,-0.7021093368530273,1.445199966430664
1684109489948869400,2.845869384765625,-0.5146331787109375,-0.5695695877075195,0.724238395690918
1684109489958911000,2.855910888671875,0.6734179258346558,-0.3944997787475586,-0.014533519744873047
1684109489968952300,2.865952392578125,1.821570873260498,-0.16123485565185547,-0.49077272415161133
1684109489978994000,2.875993896484375,2.639632225036621,-0.1086883544921875,-0.6336755752563477
1684109489989035500,2.886035400390625,2.9126999378204346,-0.04299449920654297,-0.6174161434173584
1684109489999076900,2.896076904296875,2.6969549655914307,0.24362850189208984,-0.692535400390625
1684109490009118500,2.906118408203125,2.1071412563323975,0.36626625061035156,-0.4787461757659912
1684109490019160000,2.91616015625,1.1640108823776245,-0.053887367248535156,-0.25586628913879395
1684109490029201400,2.926201416015625,0.6811654567718506,0.020050048828125,0.11511611938476562
1684109490039243000,2.936242919921875,0.5536854267120361,-0.10749530792236328,0.43291497230529785
1684109490049284600,2.94628466796875,0.5312116146087646,0.029295921325683594,0.6195261478424072
1684109490059326000,2.956325927734375,0.5976237058639526,0.4890289306640625,0.34787535667419434
1684109490069367600,2.966367431640625,0.8557429313659668,0.8367366790771484,-0.1757369041442871
1684109490079409200,2.9764091796875,1.1687979698181152,0.5960474014282227,-0.6672768592834473
1684109490089450500,2.986450439453125,1.5110894441604614,0.41347312927246094,-1.1544275283813477
1684109490099492000,2.9964921875,2.1038026809692383,1.9611916542053223,-1.1710665225982666
1684109490109533700,3.00653369140625,1.939972162246704,0.4927864074707031,-1.648712396621704
1684109490119575000,3.016574951171875,1.6084070205688477,-0.6030645370483398,-1.6265039443969727
1684109490129616600,3.02661669921875,1.637088656425476,-0.9623785018920898,-1.5030992031097412
1684109490139658200,3.036658203125,1.6024820804595947,-0.6826705932617188,-1.2491562366485596
1684109490149699600,3.046699462890625,1.3905831575393677,-0.6904764175415039,-1.0030579566955566
1684109490159741200,3.0567412109375,1.2905653715133667,-0.49677276611328125,-0.8188228607177734
1684109490169782800,3.06678271484375,1.2869826555252075,-0.5544300079345703,-0.47861266136169434
1684109490179824000,3.07682421875,1.2798738479614258,-0.4243431091308594,-0.26710081100463867
1684109490189865700,3.08686572265625,1.4347535371780396,-0.7880926132202148,0.3444526195526123
1684109490199907300,3.0969072265625,1.4396039247512817,-0.076385498046875,0.12881064414978027
1684109490209948700,3.10694873046875,1.287430763244629,0.3864898681640625,-0.4264950752258301
1684109490219990300,3.116990234375,1.2410006523132324,0.07387065887451172,-0.5051586627960205
1684109490230032000,3.127031982421875,1.142906665802002,-0.33282470703125,-0.3764834403991699
1684109490240073200,3.1370732421875,0.9806786775588989,-0.8478870391845703,-0.2560250759124756
1684109490250114800,3.14711474609375,0.796785831451416,-1.2414417266845703,-0.26610875129699707
1684109490260156400,3.157156494140625,0.663575291633606,-1.3433256149291992,-0.12175488471984863
1684109490270198000,3.167197998046875,0.5439620018005371,-1.5458240509033203,0.0638418197631836
1684109490280239400,3.1772392578125,0.6259706020355225,-1.4341974258422852,0.28713321685791016
1684109490290281000,3.187281005859375,0.8765020370483398,-0.9123315811157227,0.5036866664886475
1684109490300322300,3.197322265625,0.9994975328445435,-0.7669391632080078,0.49837327003479004
1684109490310364000,3.207364013671875,1.1683809757232666,-0.49464988708496094,0.28582310676574707
1684109490320405500,3.217405517578125,1.3129916191101074,-0.1777820587158203,0.03505253791809082
1684109490330447000,3.227447021484375,1.439544916152954,-0.10190296173095703,-0.08245515823364258
1684109490340488400,3.237488525390625,1.5291752815246582,-0.1682910919189453,0.056262969970703125
1684109490350530000,3.247530029296875,1.5341925621032715,-0.08829212188720703,0.25816917419433594
1684109490360571600,3.257571533203125,1.3998547792434692,-0.08693313598632812,0.545433759689331
1684109490370613000,3.267613037109375,1.4230238199234009,0.012058258056640625,0.5626423358917236
1684109490380654600,3.277654541015625,1.1111708879470825,-0.08258628845214844,0.34213924407958984
1684109490390696200,3.2876962890625,1.1220788955688477,0.5551290512084961,-0.19150233268737793
1684109490400737500,3.297737548828125,0.6385182738304138,0.8181533813476562,-0.21456456184387207
1684109490410779100,3.307779052734375,0.2871283292770386,0.14035415649414062,0.45247745513916016
1684109490420820700,3.31782080078125,0.40246474742889404,0.08041572570800781,0.8860487937927246
1684109490430862000,3.327862060546875,0.516157865524292,-0.9189081192016602,1.7213294506072998
1684109490440903700,3.337903564453125,0.9093705415725708,0.0821695327758789,1.1465766429901123
1684109490450945300,3.3479453125,0.3816315531730652,0.513392448425293,0.7498569488525391
1684109490460987000,3.35798681640625,0.017895936965942383,1.1726408004760742,0.40646982192993164
1684109490471028200,3.3680283203125,-0.4020698666572571,0.32793521881103516,0.49074864387512207
1684109490481069800,3.37806982421875,0.0399358868598938,0.2670612335205078,0.3134422302246094
1684109490491111200,3.388111083984375,0.1051512360572815,-0.0965414047241211,0.004317522048950195
1684109490501152800,3.39815283203125,-0.17170143127441406,-0.6297979354858398,-0.14891743659973145
1684109490511194400,3.4081943359375,-0.13008946180343628,0.006543159484863281,-0.36826348304748535
1684109490521236000,3.418236083984375,-0.3269072473049164,0.3802509307861328,-0.38262271881103516
1684109490531277300,3.42827734375,-0.5743231773376465,0.22881698608398438,-0.07268524169921875
1684109490541319000,3.43831884765625,-0.7154419422149658,0.05147552490234375,0.025379419326782227
1684109490551360500,3.448360595703125,-0.5556395053863525,0.08677291870117188,0.01703953742980957
1684109490561401900,3.45840185546875,-0.07287432253360748,0.8904170989990234,-0.15056324005126953
1684109490571443500,3.468443359375,-0.275603324174881,0.4793977737426758,-0.0948026180267334
1684109490581485000,3.478485107421875,-0.1408591866493225,1.7708683013916016,0.01993250846862793
1684109490591526400,3.4885263671875,-0.22149325907230377,1.1335740089416504,-0.33849120140075684
1684109490601568000,3.498568115234375,-0.31884685158729553,0.8086004257202148,-0.6663756370544434
1684109490611609600,3.508609619140625,-0.32947200536727905,0.47067832946777344,-0.8843960762023926
1684109490621651000,3.51865087890625,-0.2169196456670761,0.517247200012207,-0.9238977432250977
1684109490631692500,3.528692626953125,0.24301138520240784,1.2943730354309082,-0.8574442863464355
1684109490641734100,3.538734130859375,0.10936324298381805,0.963536262512207,-0.44435930252075195
1684109490651775500,3.548775390625,-0.21367935836315155,0.006320953369140625,0.0844721794128418
1684109490661817000,3.558817138671875,-0.6257578730583191,-1.3805665969848633,0.6140055656433105
1684109490671858700,3.568858642578125,-0.7550524473190308,-2.5619516372680664,0.9232025146484375
1684109490681900300,3.578900390625,-0.5310994982719421,-2.9649343490600586,0.7626268863677979
1684109490691941600,3.588941650390625,0.02368171513080597,-2.0320682525634766,0.27376341819763184
1684109490701983200,3.598983154296875,0.4576541483402252,-0.6092023849487305,0.003107786178588867
1684109490712024800,3.60902490234375,0.4004884958267212,0.08601951599121094,-0.07918953895568848
1684109490722066200,3.619066162109375,0.17437799274921417,0.22609901428222656,-0.10655951499938965
1684109490732107800,3.629107666015625,0.03349264711141586,0.17479896545410156,-0.10970926284790039
1684109490742149400,3.6391494140625,0.028910189867019653,0.14029216766357422,0.025667428970336914
1684109490752190700,3.649190673828125,0.026515722274780273,0.13461875915527344,0.07757806777954102
1684109490762232300,3.659232421875,-0.06431908905506134,0.036285400390625,0.04250025749206543
1684109490772274000,3.66927392578125,-0.08292973041534424,0.11768722534179688,0.13069748878479004
1684109490782315300,3.679315185546875,-0.13931116461753845,0.2417306900024414,0.19472312927246094
1684109490792356900,3.68935693359375,-0.18092864751815796,0.4071207046508789,0.34574174880981445
1684109490802398500,3.6993984375,-0.3100300431251526,0.5104732513427734,0.41445040702819824
1684109490812439800,3.709439697265625,-0.3852018713951111,0.3097562789916992,0.3691587448120117
1684109490822481400,3.7194814453125,-0.45774325728416443,0.07106685638427734,0.32791805267333984
1684109490832523000,3.72952294921875,-0.47582030296325684,-0.01909923553466797,0.2744483947753906
1684109490842564600,3.739564697265625,-0.4090891182422638,0.07495689392089844,0.33138179779052734
1684109490852606000,3.74960595703125,-0.43322306871414185,0.2496623992919922,0.5521082878112793
1684109490862647600,3.7596474609375,-0.4962151348590851,0.3083314895629883,0.7717721462249756
1684109490872689200,3.769689208984375,-0.5697808265686035,0.3157806396484375,0.9380009174346924
1684109490882730500,3.77973046875,-0.5929651260375977,0.43950939178466797,1.025402307510376
1684109490892772000,3.789772216796875,-0.6985551118850708,0.44260311126708984,0.9977104663848877
1684109490902813700,3.799813720703125,-0.7720645070075989,0.20379161834716797,0.8725278377532959
1684109490912855000,3.80985498046875,-0.8336878418922424,-0.15217208862304688,0.511805534362793
1684109490922896600,3.819896728515625,-0.8141392469406128,-0.42547130584716797,0.33591461181640625
1684109490932938200,3.829938232421875,-0.7546190023422241,-0.21816158294677734,0.012677669525146484
1684109490942979800,3.839979736328125,-0.7065870761871338,-0.020092010498046875,-0.34964609146118164
1684109490953017600,3.850017578125,-0.6051675081253052,0.19092082977294922,-0.4168510437011719
1684109490963059200,3.86005908203125,-0.47409963607788086,0.3363637924194336,-0.3914945125579834
1684109490973100500,3.8701005859375,-0.28831833600997925,0.4119434356689453,-0.17477750778198242
1684109490983142100,3.88014208984375,-0.06947627663612366,0.384033203125,0.13367438316345215
1684109490993183700,3.890183837890625,0.10719972848892212,0.32244396209716797,0.3376481533050537
1684109491003225300,3.900225341796875,0.1624869406223297,0.2602996826171875,0.469254732131958
1684109491013266700,3.9102666015625,0.19422182440757751,0.20493316650390625,0.6535298824310303
1684109491023308300,3.920308349609375,0.1952616572380066,0.0675191879272461,0.7599492073059082
1684109491033350000,3.930349853515625,0.24891841411590576,0.07030773162841797,0.7502291202545166
1684109491043391200,3.94039111328125,0.33060216903686523,0.17322635650634766,0.6753380298614502
1684109491053432800,3.950432861328125,0.30910181999206543,0.11817264556884766,0.7507669925689697
1684109491063474400,3.960474365234375,0.19327951967716217,-0.13795089721679688,0.9318737983703613
1684109491073515800,3.970515869140625,0.12178511917591095,0.030599594116210938,0.9853711128234863
1684109491083557400,3.980557373046875,0.06718609482049942,0.2192544937133789,0.8638529777526855
1684109491093599000,3.990598876953125,0.01967659592628479,0.2184906005859375,0.8376834392547607
1684109491103640300,4.000640380859375,-0.01048482209444046,0.060280799865722656,0.9991064071655273
1684109491113682000,4.010681884765625,0.012725278735160828,-0.06174659729003906,1.2178611755371094
1684109491123723500,4.0207236328125,0.1041034609079361,-0.09540367126464844,1.3302650451660156
1684109491133765000,4.03076513671875,0.23932354152202606,-0.22246646881103516,1.312375783920288
1684109491143806500,4.040806396484375,0.35037463903427124,-0.39251232147216797,1.2004947662353516
1684109491153848000,4.05084814453125,0.3815566301345825,-0.6578025817871094,1.0767896175384521
1684109491163889700,4.0608896484375,0.3985913395881653,-0.7317323684692383,1.0956382751464844
1684109491173931000,4.070930908203125,0.3584023714065552,-0.6702613830566406,1.1038362979888916
1684109491183972600,4.08097265625,0.3631632924079895,-0.6280231475830078,0.9333963394165039
1684109491194014200,4.09101416015625,0.33131349086761475,-0.6902942657470703,0.7659416198730469
1684109491204055600,4.1010556640625,0.3026307225227356,-0.7068796157836914,0.7662253379821777
1684109491214097200,4.11109716796875,0.2145506888628006,-0.6481304168701172,0.728360652923584
1684109491224138800,4.121138671875,0.022143304347991943,-0.6475143432617188,0.6049489974975586
1684109491234180000,4.13118017578125,-0.1582147181034088,-0.6833486557006836,0.5157923698425293
1684109491244221700,4.1412216796875,-0.2964491844177246,-0.6218204498291016,0.5251286029815674
1684109491254263300,4.15126318359375,-0.4200950860977173,-0.4610424041748047,0.5576839447021484
1684109491264305000,4.161304931640625,-0.5541911125183105,-0.07956886291503906,0.601259708404541
1684109491274346200,4.17134619140625,-0.7533653378486633,0.16471195220947266,0.4140031337738037
1684109491284387800,4.181387939453125,-1.0856082439422607,-0.01436614990234375,0.22216248512268066
1684109491294429400,4.191429443359375,-1.1622543334960938,0.191619873046875,-0.08095598220825195
1684109491304470800,4.201470703125,-1.1266348361968994,0.6126241683959961,-0.3995007276535034
1684109491314512400,4.211512451171875,-1.201383352279663,0.7925825119018555,-0.5437239408493042
1684109491324554000,4.221553955078125,-1.4368009567260742,0.5748615264892578,-0.5937660932540894
1684109491334595300,4.23159521484375,-1.6785649061203003,0.3664836883544922,-0.593350887298584
1684109491344637000,4.241636962890625,-1.8366234302520752,0.13856792449951172,-0.49758362770080566
1684109491354678500,4.251678466796875,-1.8802950382232666,0.09860706329345703,-0.4943138360977173
1684109491364720000,4.26172021484375,-1.6146724224090576,0.7183351516723633,-0.4118988513946533
1684109491374761500,4.271761474609375,-1.3787211179733276,0.9251928329467773,-0.13260865211486816
1684109491384803000,4.281802978515625,-1.2719138860702515,0.9914512634277344,0.10457491874694824
1684109491394844700,4.2918447265625,-1.2991268634796143,0.8807878494262695,0.3322254419326782
1684109491404886000,4.301885986328125,-1.3439850807189941,0.588627815246582,0.3975985050201416
1684109491414927600,4.311927734375,-1.3303905725479126,0.21842384338378906,0.40865492820739746
1684109491424969200,4.32196923828125,-1.2218294143676758,-0.03097820281982422,0.3233053684234619
1684109491435010800,4.3320107421875,-1.1498254537582397,-0.2503986358642578,0.1964867115020752
1684109491445052200,4.34205224609375,-1.0736610889434814,-0.3037261962890625,0.12321913242340088
1684109491455093800,4.35209375,-1.0004864931106567,-0.4588623046875,0.042989373207092285
1684109491465135000,4.362135009765625,-0.9316666126251221,-0.4933757781982422,-0.03327655792236328
1684109491475176700,4.3721767578125,-0.8771125078201294,-0.44580936431884766,-0.20113933086395264
1684109491485218300,4.38221826171875,-0.7572002410888672,-0.27364540100097656,-0.42549991607666016
1684109491495260000,4.392260009765625,-0.621637761592865,-0.08724689483642578,-0.5777379274368286
1684109491505301200,4.40230126953125,-0.45807820558547974,-0.04655933380126953,-0.6625584363937378
1684109491515342800,4.4123427734375,-0.36367082595825195,-0.3303670883178711,-0.7046005725860596
1684109491525384400,4.422384521484375,-0.505885660648346,-0.6159048080444336,-0.6908493041992188
1684109491535425800,4.43242578125,-0.740453839302063,-0.8868989944458008,-0.7149226665496826
1684109491545467400,4.44246728515625,-0.6436270475387573,-1.0117168426513672,-0.7657850980758667
1684109491555509000,4.452509033203125,-0.43887126445770264,-1.0064983367919922,-0.8287419080734253
1684109491565550600,4.462550537109375,-0.21105515956878662,-1.1315317153930664,-0.9282035827636719
1684109491575592000,4.472592041015625,0.20239603519439697,-1.2531013488769531,-0.8634185791015625
1684109491585633500,4.482633544921875,0.6340067386627197,-1.3453092575073242,-0.76237952709198
1684109491595675100,4.492675048828125,1.063063383102417,-1.3885040283203125,-0.766038179397583
1684109491605716500,4.502716552734375,1.2603552341461182,-1.3164710998535156,-0.8629641532897949
1684109491615758000,4.512758056640625,1.4548852443695068,-1.057785987854004,-0.9268757104873657
1684109491625799700,4.522799560546875,1.5977683067321777,-0.8953065872192383,-0.9966914653778076
1684109491635841300,4.53284130859375,1.6646335124969482,-0.5603246688842773,-0.9877399206161499
1684109491645882600,4.542882568359375,1.687861442565918,-0.3590116500854492,-0.9200649261474609
1684109491655924200,4.55292431640625,1.4908052682876587,-0.2564582824707031,-0.9219383001327515
1684109491665965600,4.562965576171875,1.42802095413208,0.06878662109375,-0.9244130849838257
1684109491676007200,4.573007080078125,1.40399169921875,0.4676237106323242,-0.8890872001647949
1684109491686048800,4.583048828125,1.2670869827270508,0.8872566223144531,-0.9157595634460449
1684109491696090400,4.59309033203125,1.1261727809906006,1.1861963272094727,-0.8213448524475098
1684109491706131700,4.603131591796875,0.9466450214385986,1.3279833793640137,-0.7109825611114502
1684109491716173300,4.61317333984375,0.6848130226135254,1.2784805297851562,-0.6491844654083252
1684109491726215000,4.62321484375,0.5389115810394287,1.2543935775756836,-0.58528733253479
1684109491736256300,4.63325634765625,0.5244818925857544,1.2290229797363281,-0.6365096569061279
1684109491746297900,4.6432978515625,0.5867747068405151,1.207310676574707,-0.6847307682037354
1684109491756339500,4.65333935546875,0.5580376386642456,1.1321029663085938,-0.6986293792724609
1684109491766381000,4.663381103515625,0.5192042589187622,1.0991525650024414,-0.6591918468475342
1684109491776422400,4.67342236328125,0.3984922170639038,0.9217548370361328,-0.4888308048248291
1684109491786464000,4.683464111328125,0.06840968132019043,0.690277099609375,-0.3708150386810303
1684109491796505600,4.693505615234375,-0.43381309509277344,0.3486328125,-0.1349341869354248
1684109491806547000,4.703546875,-0.7258983850479126,0.0819082260131836,0.21230149269104004
1684109491816588500,4.713588623046875,-0.5678573846817017,0.02616119384765625,0.27840161323547363
1684109491826630100,4.723630126953125,-0.252691388130188,-0.0036067962646484375,0.22096633911132812
1684109491836671700,4.733671630859375,0.02664804458618164,-0.019285202026367188,0.15865707397460938
1684109491846713000,4.743713134765625,0.22043287754058838,-0.04226875305175781,0.010843038558959961
1684109491856754700,4.753754638671875,0.259479284286499,-0.0636587142944336,-0.19934511184692383
1684109491866796300,4.76379638671875,0.23676049709320068,0.005837440490722656,-0.4546821117401123
1684109491876837600,4.773837646484375,0.07477080821990967,0.1012716293334961,-0.8508851528167725
1684109491886879200,4.783879150390625,-0.08878171443939209,0.26191234588623047,-1.0905206203460693
1684109491896920800,4.7939208984375,-0.1027975082397461,0.3978404998779297,-1.1759796142578125
1684109491906962400,4.80396240234375,-0.0897216796875,0.43892574310302734,-1.2450599670410156
1684109491917003800,4.814003662109375,-0.010637402534484863,0.45900917053222656,-1.2053577899932861
1684109491927045400,4.82404541015625,0.10533034801483154,0.5035381317138672,-1.1814513206481934
1684109491937086700,4.834086669921875,0.15264177322387695,0.563201904296875,-1.1583547592163086
1684109491947128300,4.84412841796875,0.17429232597351074,0.5500621795654297,-1.139693260192871
1684109491957170000,4.854169921875,0.1584833860397339,0.5146417617797852,-1.0389082431793213
1684109491967211500,4.86421142578125,0.09771919250488281,0.5189752578735352,-0.8686347007751465
1684109491977252900,4.8742529296875,0.003149271011352539,0.4410123825073242,-0.625152587890625
1684109491987294500,4.88429443359375,-0.14233648777008057,0.44772815704345703,-0.39589381217956543
1684109491997336000,4.894336181640625,-0.30468130111694336,0.5003738403320312,-0.07628917694091797
1684109492007377400,4.90437744140625,-0.43687963485717773,0.5505781173706055,0.25182390213012695
1684109492017419000,4.9144189453125,-0.5393403768539429,0.5736923217773438,0.7522075176239014
1684109492027460600,4.924460693359375,-0.5458036661148071,0.5690898895263672,1.225250244140625
1684109492037502200,4.934502197265625,-0.44523072242736816,0.5340862274169922,1.615929365158081
1684109492047543600,4.94454345703125,-0.39437735080718994,0.4045219421386719,1.6581487655639648
1684109492057585200,4.954585205078125,-0.3874785900115967,0.2935466766357422,1.477949857711792
1684109492067626800,4.964626708984375,-0.3041355609893799,0.14150714874267578,1.2126367092132568
1684109492077668000,4.974668212890625,-0.14090585708618164,0.13253498077392578,0.784616231918335
1684109492087709700,4.984709716796875,0.03541553020477295,0.15463638305664062,0.3668937683105469
1684109492097751300,4.994751220703125,0.0623546838760376,0.21526336669921875,-0.04424142837524414
1684109492107793000,5.00479296875,-0.2656712532043457,0.22828197479248047,-0.2736513614654541
1684109492117834200,5.014834228515625,-0.935320258140564,0.16252803802490234,-0.4069390296936035
1684109492127875800,5.024875732421875,-1.6000593900680542,0.06591129302978516,-0.4269418716430664
1684109492137917400,5.03491748046875,-1.8666017055511475,-0.23546314239501953,-0.4408125877380371
1684109492147958800,5.044958740234375,-1.6862223148345947,-0.7472047805786133,-0.5091149806976318
1684109492158000400,5.05500048828125,-1.3493187427520752,-1.2597665786743164,-0.6222753524780273
1684109492168042000,5.0650419921875,-1.220027208328247,-1.7247858047485352,-0.6330070495605469
1684109492178083300,5.075083251953125,-1.3227707147598267,-2.0228776931762695,-0.7481992244720459
1684109492188125000,5.085125,-1.4201786518096924,-2.249980926513672,-1.0019516944885254
1684109492198166500,5.09516650390625,-1.742918848991394,-2.5185766220092773,-1.198042631149292
1684109492208208100,5.1052080078125,-2.7748055458068848,-3.024907112121582,-1.4103399515151978
1684109492218249500,5.11524951171875,-3.785581588745117,-3.3710527420043945,-1.4025126695632935
1684109492228291000,5.125291015625,-3.025472402572632,-2.8038692474365234,-0.536391019821167
1684109492238332700,5.135332763671875,-1.1105096340179443,-1.271402359008789,0.46615004539489746
1684109492248374000,5.1453740234375,1.0408748388290405,0.3246574401855469,0.9363846778869629
1684109492258415600,5.15541552734375,2.681887626647949,1.1130342483520508,1.1176297664642334
1684109492268457200,5.165457275390625,3.580620765686035,1.3908138275146484,1.25242280960083
1684109492278498800,5.175498779296875,3.656646728515625,1.7539935111999512,1.126769781112671
1684109492288540200,5.1855400390625,3.3560872077941895,2.075714588165283,0.950110912322998
1684109492298581800,5.195581787109375,2.995154857635498,2.293926239013672,0.7154650688171387
1684109492308623400,5.205623291015625,2.6314706802368164,2.241934299468994,0.48140883445739746
1684109492318664700,5.215664794921875,2.33535099029541,1.9664363861083984,0.2177412509918213
1684109492328706300,5.225706298828125,2.095000982284546,1.458315372467041,0.17238330841064453
1684109492338748000,5.235747802734375,1.7991071939468384,0.9060850143432617,0.10037493705749512
1684109492348789500,5.24578955078125,1.3494434356689453,0.44104766845703125,-0.07777953147888184
1684109492358830800,5.255830810546875,0.6812678575515747,-0.05385017395019531,-0.34306859970092773
1684109492368872400,5.26587255859375,-0.06649583578109741,-0.5472879409790039,-0.6186423301696777
1684109492378914000,5.2759140625,-0.5035492777824402,-0.9243564605712891,-0.8905124664306641
1684109492388955400,5.285955322265625,-0.8758630156517029,-1.1774473190307617,-1.2483155727386475
1684109492398997000,5.2959970703125,-1.3516764640808105,-1.353872299194336,-1.6110470294952393
1684109492409038600,5.30603857421875,-1.8799442052841187,-1.2817258834838867,-1.8634936809539795
1684109492419080200,5.316080078125,-2.1639020442962646,-1.0007333755493164,-1.8885411024093628
1684109492429121500,5.32612158203125,-1.948775291442871,-0.6327190399169922,-1.6311620473861694
1684109492439163100,5.3361630859375,-1.3876938819885254,-0.2992420196533203,-1.3091914653778076
1684109492449204700,5.346204833984375,-0.666229248046875,-0.185546875,-0.8824918270111084
1684109492459246000,5.35624609375,0.06778231263160706,-0.13657188415527344,-0.6804628372192383
1684109492469287700,5.36628759765625,0.715818464756012,-0.1258077621459961,-0.52652907371521
1684109492479329300,5.376329345703125,1.1530957221984863,0.0101318359375,-0.5869355201721191
1684109492489370600,5.38637060546875,1.354053020477295,0.29734039306640625,-0.9151750802993774
1684109492499412200,5.396412109375,1.3756407499313354,0.3916301727294922,-1.0918501615524292
1684109492509453800,5.406453857421875,1.3491970300674438,0.2793121337890625,-0.9565811157226562
1684109492519495400,5.416495361328125,1.356576681137085,0.2131204605102539,-0.7742395401000977
1684109492529536800,5.426536865234375,1.3761175870895386,0.15656280517578125,-0.6737962961196899
1684109492539578400,5.436578369140625,1.4507561922073364,0.1192169189453125,-0.6595543622970581
1684109492549620000,5.446619873046875,1.5876896381378174,0.09163284301757812,-0.5897140502929688
1684109492559661300,5.456661376953125,1.7552330493927002,0.09280776977539062,-0.48378801345825195
1684109492569703000,5.466702880859375,1.8954740762710571,0.053124427795410156,-0.31193745136260986
1684109492579744500,5.47674462890625,1.9677369594573975,0.02744579315185547,-0.1895604133605957
1684109492589786000,5.4867861328125,1.9437586069107056,-0.008215904235839844,-0.04508256912231445
1684109492599827500,5.496827392578125,1.8573628664016724,-0.018012046813964844,0.09529781341552734
1684109492609869000,5.506869140625,1.7206298112869263,-0.00438690185546875,0.21263766288757324
1684109492619910700,5.51691064453125,1.5497305393218994,0.06833744049072266,0.2591207027435303
1684109492629952000,5.526951904296875,1.3582649230957031,0.14023494720458984,0.23013019561767578
1684109492639993600,5.53699365234375,1.1193716526031494,0.18494033813476562,0.2261066436767578
1684109492650035200,5.54703515625,0.8072646856307983,0.14283466339111328,0.17090773582458496
1684109492660076800,5.557076904296875,0.3897078037261963,0.07397174835205078,0.072479248046875
1684109492670118100,5.5671181640625,-0.03795456886291504,0.009708404541015625,-0.046770334243774414
1684109492680159700,5.57715966796875,-0.46568048000335693,-0.04961872100830078,-0.09765815734863281
1684109492690201300,5.587201416015625,-0.7821319103240967,-0.09412193298339844,-0.14465785026550293
1684109492700242700,5.59724267578125,-0.8955205678939819,-0.1210947036743164,-0.16873502731323242
1684109492710284300,5.6072841796875,-0.8353259563446045,-0.08262443542480469,-0.21808075904846191
1684109492720326000,5.617325927734375,-0.612167477607727,0.0474853515625,-0.27576589584350586
1684109492730367200,5.6273671875,-0.286931574344635,0.15890789031982422,-0.2584075927734375
1684109492740408800,5.637408935546875,0.01664823293685913,0.22026729583740234,-0.21186280250549316
1684109492750450400,5.647450439453125,0.26439279317855835,0.2004528045654297,-0.059484243392944336
1684109492760491800,5.65749169921875,0.4094328284263611,0.14017009735107422,0.08881378173828125
1684109492770533400,5.667533447265625,0.477519154548645,0.0993051528930664,0.21938490867614746
1684109492780575000,5.677574951171875,0.4855571985244751,0.11841964721679688,0.43271470069885254
1684109492790616600,5.687616455078125,0.4292874336242676,0.14474201202392578,0.6183242797851562
1684109492800658000,5.697657958984375,0.3908487558364868,0.16377925872802734,0.8184084892272949
1684109492810699500,5.707699462890625,0.27779531478881836,0.2088623046875,0.9461627006530762
1684109492820741000,5.7177412109375,0.14113295078277588,0.2894258499145508,1.010819911956787
1684109492830782700,5.72778271484375,0.0362735390663147,0.34564971923828125,1.0456476211547852
1684109492840824000,5.737823974609375,-0.002685546875,0.33448314666748047,0.9972536563873291
1684109492850865700,5.74786572265625,-0.013092041015625,0.32531261444091797,0.8604042530059814
1684109492860907300,5.7579072265625,0.010157942771911621,0.2537393569946289,0.647352933883667
1684109492870948600,5.767948486328125,0.04783201217651367,0.15346717834472656,0.470991849899292
1684109492880990200,5.777990234375,0.06801784038543701,0.04847240447998047,0.3197488784790039
1684109492891031800,5.78803173828125,0.05039381980895996,-0.05170154571533203,0.17258763313293457
1684109492901073400,5.798073486328125,0.0414884090423584,-0.02997589111328125,0.006577253341674805
1684109492911114800,5.80811474609375,-0.014208316802978516,0.013201713562011719,-0.12471127510070801
1684109492921156400,5.81815625,-0.08289766311645508,0.07791709899902344,-0.20653486251831055
1684109492931198000,5.828197998046875,-0.11806797981262207,0.02337932586669922,-0.26275384426116943
1684109492941239300,5.8382392578125,-0.09934985637664795,-0.04011249542236328,-0.274385929107666
1684109492951281000,5.848281005859375,0.0031517744064331055,-0.016892433166503906,-0.24417507648468018
1684109492961322500,5.858322509765625,0.09434962272644043,0.006805419921875,-0.23250985145568848
1684109492971364000,5.868364013671875,0.22680425643920898,0.02847576141357422,-0.15390968322753906
1684109492981405400,5.878405517578125,0.35415077209472656,0.024109840393066406,-0.13045501708984375
1684109492991447000,5.888447021484375,0.47512078285217285,0.0007457733154296875,-0.08096837997436523
1684109493001488600,5.898488525390625,0.5330086946487427,0.013207435607910156,-0.055329322814941406
1684109493011530000,5.908530029296875,0.519351601600647,0.027899742126464844,-0.05776715278625488
1684109493021571600,5.918571533203125,0.4957393407821655,0.07338809967041016,-0.0810244083404541
1684109493031613200,5.92861328125,0.4242590665817261,0.13053607940673828,-0.0867469310760498
1684109493041654500,5.938654541015625,0.3490487337112427,0.14687538146972656,-0.11568760871887207
1684109493051696000,5.948696044921875,0.2884296178817749,0.1082916259765625,-0.0583343505859375
1684109493061737700,5.95873779296875,0.22936475276947021,0.09869766235351562,-0.06768321990966797
1684109493071779300,5.968779296875,0.17935597896575928,0.11643409729003906,-0.03551650047302246
1684109493081820700,5.978820556640625,0.20273470878601074,0.1576681137084961,0.0008656978607177734
1684109493091862300,5.9888623046875,0.2510523796081543,0.09237861633300781,0.01252126693725586
1684109493101904000,5.99890380859375,0.30477166175842285,0.01642608642578125,0.07500267028808594
1684109493111945200,6.0089453125,0.3397923707962036,-0.07470417022705078,0.08889436721801758
1684109493121986800,6.01898681640625,0.3465615510940552,-0.10072612762451172,0.10469555854797363
1684109493132028400,6.0290283203125,0.37245070934295654,-0.05804443359375,0.10586071014404297
1684109493142070000,6.039070068359375,0.4034351110458374,-0.06073760986328125,0.14447402954101562
1684109493152111400,6.049111328125,0.4157789945602417,-0.049178123474121094,0.1400003433227539
1684109493162153000,6.059153076171875,0.4023549556732178,-0.05417823791503906,0.1429736614227295
1684109493172194600,6.069194580078125,0.39164698123931885,-0.051921844482421875,0.11571264266967773
1684109493182236000,6.07923583984375,0.3506956100463867,-0.037769317626953125,0.056585073471069336
1684109493192277500,6.089277587890625,0.2918902635574341,0.049300193786621094,0.02496170997619629
1684109493202319000,6.099319091796875,0.2390989065170288,0.10929107666015625,-0.05689096450805664
1684109493212360700,6.109360595703125,0.16674363613128662,0.11680030822753906,-0.1151963472366333
1684109493222402000,6.119402099609375,0.11047780513763428,0.07027530670166016,-0.13421142101287842
1684109493232443600,6.129443603515625,0.036896705627441406,0.03175067901611328,-0.17601585388183594
1684109493242485200,6.1394853515625,-0.013768792152404785,-0.06954574584960938,-0.21432781219482422
1684109493252526600,6.149526611328125,-0.07983553409576416,-0.09133625030517578,-0.23026156425476074
1684109493262568200,6.159568115234375,-0.11184751987457275,-0.058501243591308594,-0.299416184425354
1684109493272609800,6.16960986328125,-0.14787077903747559,-0.03790092468261719,-0.36465227603912354
1684109493282651100,6.179651123046875,-0.14535701274871826,0.06477165222167969,-0.3840210437774658
1684109493292692700,6.189692626953125,-0.1544637680053711,0.10918903350830078,-0.4056304693222046
1684109493302734300,6.199734375,-0.13776814937591553,0.07279682159423828,-0.4243398904800415
1684109493312776000,6.20977587890625,-0.14995110034942627,0.04185295104980469,-0.4840564727783203
1684109493322817300,6.2198173828125,-0.15047788619995117,0.01878070831298828,-0.5008591413497925
1684109493332859000,6.22985888671875,-0.13234806060791016,0.05533313751220703,-0.5009118318557739
1684109493342900500,6.239900390625,-0.09314751625061035,0.09164810180664062,-0.501213550567627
1684109493352941800,6.24994189453125,-0.0024085044860839844,0.14416217803955078,-0.4055582284927368
1684109493362983400,6.2599833984375,0.09185445308685303,0.1890249252319336,-0.2839169502258301
1684109493373025000,6.27002490234375,0.21507132053375244,0.16262531280517578,-0.11144137382507324
1684109493383066600,6.280066650390625,0.3475717306137085,0.24031639099121094,0.049831390380859375
1684109493393108000,6.29010791015625,0.47718608379364014,0.2790088653564453,0.22321856021881104
1684109493403149600,6.300149658203125,0.5875394344329834,0.27211475372314453,0.45923006534576416
1684109493413191200,6.310191162109375,0.6556711196899414,0.16142940521240234,0.6923197507858276
1684109493423232500,6.320232421875,0.699032187461853,-0.020806312561035156,0.9334651231765747
1684109493433274000,6.330274169921875,0.7255146503448486,-0.12509918212890625,1.17021906375885
1684109493443315700,6.340315673828125,0.7354873418807983,-0.0774221420288086,1.2635713815689087
1684109493453357300,6.350357421875,0.7547280788421631,0.0018224716186523438,1.3305786848068237
1684109493463398700,6.360398681640625,0.7239179611206055,0.05310630798339844,1.3451716899871826
1684109493473440300,6.370440185546875,0.6384415626525879,0.07443523406982422,1.3388957977294922
1684109493483481900,6.38048193359375,0.5290625095367432,0.1064300537109375,1.2521319389343262
1684109493493523200,6.390523193359375,0.4002652168273926,0.1419963836669922,1.0240767002105713
1684109493503564800,6.400564697265625,0.31869542598724365,0.09182548522949219,0.7992388010025024
1684109493513606400,6.4106064453125,0.27281951904296875,-0.07296371459960938,0.5878175497055054
1684109493523648000,6.42064794921875,0.14264023303985596,-0.08882427215576172,0.3673086166381836
1684109493533689300,6.430689453125,0.05241584777832031,-0.047393798828125,0.18389606475830078
1684109493543731000,6.44073095703125,-0.016919612884521484,0.019811630249023438,0.14750182628631592
1684109493553772500,6.4507724609375,-0.00881052017211914,0.02041149139404297,0.1674962043762207
1684109493563814100,6.460814208984375,-0.036992549896240234,-0.025626182556152344,0.16965186595916748
1684109493573855500,6.47085546875,-0.03900754451751709,-0.1597452163696289,0.12399947643280029
1684109493583897000,6.48089697265625,-0.019949913024902344,-0.1967296600341797,0.11206483840942383
1684109493593938400,6.4909384765625,-0.06296372413635254,-0.2864551544189453,0.09869134426116943
1684109493603980000,6.50097998046875,-0.12722647190093994,-0.31497955322265625,0.14108097553253174
1684109493614021600,6.511021728515625,-0.2618147134780884,-0.39644336700439453,0.2401036024093628
1684109493624063200,6.521063232421875,-0.40844857692718506,-0.4712543487548828,0.3888970613479614
1684109493634104600,6.5311044921875,-0.5453526973724365,-0.48787975311279297,0.48196160793304443
1684109493644146200,6.541146240234375,-0.7616927623748779,-0.5651111602783203,0.615786075592041
1684109493654187800,6.551187744140625,-0.9480327367782593,-0.5774135589599609,0.8638231754302979
1684109493664229400,6.5612294921875,-1.0827035903930664,-0.44756507873535156,1.0073519945144653
1684109493674270700,6.571270751953125,-1.2761163711547852,-0.28464603424072266,1.079262375831604
1684109493684312300,6.581312255859375,-1.4579232931137085,-0.1485128402709961,1.1932576894760132
1684109493694354000,6.59135400390625,-1.5764979124069214,-0.04396247863769531,1.2831435203552246
1684109493704395300,6.601395263671875,-1.6020090579986572,-0.023468017578125,1.3792110681533813
1684109493714436900,6.611436767578125,-1.6078029870986938,0.020689010620117188,1.455319881439209
1684109493724478500,6.621478515625,-1.571988821029663,0.13616180419921875,1.5402777194976807
1684109493734520000,6.63152001953125,-1.4515985250473022,0.26047229766845703,1.5572543144226074
1684109493744561400,6.6415615234375,-1.3228495121002197,0.3240985870361328,1.5702756643295288
1684109493754603000,6.65160302734375,-1.2045996189117432,0.31511783599853516,1.4770960807800293
1684109493764644600,6.66164453125,-1.225285291671753,0.30542659759521484,1.2726789712905884
1684109493774686000,6.67168603515625,-1.3510246276855469,0.33330821990966797,1.0526057481765747
1684109493784727600,6.6817275390625,-1.2191708087921143,0.35304832458496094,0.8819774389266968
1684109493794769200,6.69176904296875,-0.9885902404785156,0.35009765625,0.6800234317779541
1684109493804810800,6.701810791015625,-0.8411180973052979,0.2694406509399414,0.3927798271179199
1684109493814852000,6.71185205078125,-0.7054151296615601,0.09212970733642578,0.10325169563293457
1684109493824893700,6.721893798828125,-0.39672669768333435,-0.1315326690673828,-0.11342573165893555
1684109493834935300,6.731935302734375,0.11516853421926498,-0.3655996322631836,-0.2898094654083252
1684109493844976600,6.7419765625,1.103928804397583,-0.4378786087036133,-0.3225048780441284
1684109493855018200,6.752018310546875,1.945755958557129,-0.43444156646728516,-0.20241940021514893
1684109493865059800,6.762059814453125,2.2785205841064453,-0.39845752716064453,0.05201542377471924
1684109493875101400,6.772101318359375,2.5328922271728516,-0.37287235260009766,0.1493055820465088
1684109493885142800,6.782142822265625,2.6844589710235596,-0.5009727478027344,0.17326176166534424
1684109493895184400,6.792184326171875,2.701040267944336,-0.6180601119995117,0.24112343788146973
1684109493905226000,6.80222607421875,2.6494932174682617,-0.6887426376342773,0.16879546642303467
1684109493915267300,6.812267333984375,2.71140193939209,-0.7011680603027344,-0.013968348503112793
1684109493925309000,6.822308837890625,2.808429479598999,-0.6262779235839844,-0.22863149642944336
1684109493935350500,6.8323505859375,2.898857355117798,-0.5399570465087891,-0.47497546672821045
1684109493945391900,6.842391845703125,2.8453359603881836,-0.45336246490478516,-0.7847566604614258
1684109493955433500,6.85243359375,2.7394137382507324,-0.37310791015625,-1.0153532028198242
1684109493965475000,6.86247509765625,2.5396924018859863,-0.2203235626220703,-1.226548194885254
1684109493975516700,6.8725166015625,2.339332103729248,-0.13688373565673828,-1.0705305337905884
1684109493985558000,6.88255810546875,2.176309823989868,-0.1787128448486328,-0.7892348766326904
1684109493995599600,6.892599609375,2.23897647857666,-0.035468101501464844,-0.5955538749694824
1684109494005641200,6.90264111328125,2.3003828525543213,0.2691354751586914,-0.5975478887557983
1684109494015682600,6.9126826171875,2.270608425140381,0.6240272521972656,-0.7455240488052368
1684109494025724200,6.92272412109375,2.2704896926879883,1.1551332473754883,-1.0961806774139404
1684109494035765800,6.932765869140625,2.1552934646606445,1.4805059432983398,-1.1826943159103394
1684109494045807400,6.942807373046875,1.7681469917297363,1.3029766082763672,-0.958661675453186
1684109494055848700,6.9528486328125,1.0038729906082153,0.6993064880371094,-0.7023102045059204
1684109494065890300,6.962890380859375,0.17409563064575195,0.030594825744628906,-0.48964524269104004
1684109494075932000,6.972931884765625,0.11940956115722656,-0.5313806533813477,-0.4693208932876587
1684109494085973500,6.982973388671875,1.0290089845657349,-0.6081953048706055,-0.8032346963882446
1684109494096014800,6.993014892578125,1.8120546340942383,-0.2744588851928711,-1.403527021408081
1684109494106056400,7.003056396484375,2.19579815864563,0.07328224182128906,-1.8370662927627563
1684109494116098000,7.01309814453125,2.2692296504974365,0.40408897399902344,-2.0072238445281982
1684109494126139400,7.023139404296875,2.1064603328704834,0.8768386840820312,-2.281381130218506
1684109494136181000,7.033180908203125,1.3741557598114014,0.7543478012084961,-2.1471238136291504
1684109494146222600,7.04322265625,0.254580020904541,0.28365325927734375,-1.8209633827209473
1684109494156264200,7.05326416015625,-0.9543683528900146,-0.5146980285644531,-1.4356781244277954
1684109494166305500,7.063305419921875,-1.7088373899459839,-1.4317731857299805,-1.1263519525527954
1684109494176347100,7.07334716796875,-0.9939794540405273,-1.920248031616211,-1.3147118091583252
1684109494186388700,7.083388671875,0.32234418392181396,-1.7457942962646484,-1.9139117002487183
1684109494196430000,7.09343017578125,1.3940136432647705,-1.2437982559204102,-2.534668445587158
1684109494206471700,7.1034716796875,2.033745765686035,-0.7686662673950195,-2.896761655807495
1684109494216513300,7.11351318359375,2.263057231903076,-0.5150165557861328,-2.887807846069336
1684109494226555000,7.123554931640625,2.1672587394714355,-0.22918415069580078,-2.938581705093384
1684109494236596200,7.13359619140625,1.701192855834961,-0.06475543975830078,-2.774221897125244
1684109494246637800,7.143637939453125,0.9932317137718201,0.06853961944580078,-2.555428981781006
1684109494256679400,7.153679443359375,0.28214728832244873,0.13948535919189453,-2.291961193084717
1684109494266721000,7.163720947265625,-0.36222076416015625,0.09653282165527344,-1.975288987159729
1684109494276762400,7.173762451171875,-0.8279621601104736,-0.05273914337158203,-1.7104051113128662
1684109494286804000,7.183803955078125,-1.0629723072052002,-0.004515647888183594,-1.7708115577697754
1684109494296845600,7.193845458984375,-1.131198763847351,-0.09289932250976562,-1.7956925630569458
1684109494306887000,7.203886962890625,-1.1555795669555664,-0.24195194244384766,-1.7141481637954712
1684109494316928500,7.213928466796875,-1.1424661874771118,-0.28405284881591797,-1.6035521030426025
1684109494326970000,7.22397021484375,-1.005867838859558,-0.21984481811523438,-1.5115917921066284
1684109494337011500,7.234011474609375,-0.7749944925308228,-0.18372726440429688,-1.4526318311691284
1684109494347053000,7.244052978515625,-0.49203503131866455,-0.23801231384277344,-1.4388208389282227
1684109494357094700,7.2540947265625,-0.20569896697998047,-0.2872276306152344,-1.4643962383270264
1684109494367136300,7.26413623046875,0.026982665061950684,-0.2576608657836914,-1.39815092086792
1684109494377177600,7.274177490234375,0.18442416191101074,-0.26916027069091797,-1.264726161956787
1684109494387219200,7.28421923828125,0.22880685329437256,-0.2930488586425781,-1.1309059858322144
1684109494397260800,7.2942607421875,0.09717416763305664,-0.3101348876953125,-0.9831479787826538
1684109494407302100,7.30430224609375,-0.13881313800811768,-0.33234310150146484,-0.7812347412109375
1684109494417343700,7.31434375,-0.3591585159301758,-0.3096036911010742,-0.6401329040527344
1684109494427385300,7.32438525390625,-0.41286635398864746,-0.2635526657104492,-0.5402250289916992
1684109494437427000,7.334427001953125,-0.33065271377563477,-0.2323169708251953,-0.5159984827041626
1684109494447468300,7.34446826171875,-0.1380596160888672,-0.17513084411621094,-0.527503252029419
1684109494457510000,7.354510009765625,0.11028790473937988,-0.07993888854980469,-0.56854248046875
1684109494467551500,7.364551513671875,0.3594803810119629,0.02945995330810547,-0.6142292022705078
1684109494477592800,7.3745927734375,0.5465739965438843,0.1007089614868164,-0.5879907608032227
1684109494487634400,7.384634521484375,0.6560899019241333,0.15790843963623047,-0.45257091522216797
1684109494497676000,7.394676025390625,0.6553314924240112,0.25613975524902344,-0.3075615167617798
1684109494507717600,7.404717529296875,0.5979259014129639,0.32619190216064453,-0.12307620048522949
1684109494517759000,7.414759033203125,0.4828484058380127,0.39215087890625,0.016386985778808594
1684109494527800600,7.424800537109375,0.37942636013031006,0.3561077117919922,0.19425082206726074
1684109494537842200,7.43484228515625,0.2575337886810303,0.3663034439086914,0.2915816307067871
1684109494547883800,7.4448837890625,0.20259928703308105,0.3626976013183594,0.3978450298309326
1684109494557925000,7.454925048828125,0.27602720260620117,0.4240989685058594,0.36678457260131836
1684109494567966700,7.464966796875,0.4681483507156372,0.5432453155517578,-0.1397113800048828
1684109494578008300,7.47500830078125,0.53538978099823,0.6364011764526367,-0.2938019037246704
1684109494588049700,7.485049560546875,0.6253337860107422,0.7061004638671875,-0.48843085765838623
1684109494598091300,7.49509130859375,0.602780818939209,0.7407341003417969,-0.5566163063049316
1684109494608132900,7.5051328125,0.46410298347473145,0.7907590866088867,-0.5805293321609497
1684109494618174500,7.515174560546875,0.3747568130493164,0.7870674133300781,-0.4518392086029053
1684109494628215800,7.5252158203125,0.3056831359863281,0.7420663833618164,-0.27043747901916504
1684109494638257400,7.53525732421875,0.2335512638092041,0.6894187927246094,-0.21234512329101562
1684109494648299000,7.545299072265625,0.06315445899963379,0.6167678833007812,-0.07585382461547852
1684109494658340400,7.55534033203125,-0.003660440444946289,0.4488086700439453,0.4401249885559082
1684109494668382000,7.5653818359375,-0.36756110191345215,0.49514102935791016,0.7912347316741943
1684109494678423600,7.575423583984375,-0.8742282390594482,0.44399452209472656,0.9587881565093994
1684109494688465000,7.58546484375,-1.451918363571167,0.24930763244628906,0.9178545475006104
1684109494698506500,7.595506591796875,-1.8395307064056396,-0.00037384033203125,0.6525208950042725
1684109494708548000,7.605548095703125,-1.860600233078003,-0.15169143676757812,0.16065692901611328
1684109494718589700,7.615589599609375,-1.591942548751831,-0.16817474365234375,-0.421347975730896
1684109494728631000,7.625631103515625,-1.0022602081298828,-0.10851764678955078,-0.8716951608657837
1684109494738672600,7.635672607421875,-0.12198424339294434,0.04767894744873047,-1.197878122329712
1684109494748714200,7.64571435546875,0.812211275100708,0.1823902130126953,-1.6493322849273682
1684109494758755600,7.655755615234375,1.4828338623046875,0.2584514617919922,-1.9784542322158813
1684109494768797200,7.665797119140625,1.8310080766677856,0.2354888916015625,-2.011122703552246
1684109494778838800,7.6758388671875,1.8940834999084473,0.12336158752441406,-1.9714860916137695
1684109494788880400,7.68588037109375,1.8282190561294556,0.06138420104980469,-2.032939910888672
1684109494798921700,7.695921630859375,1.5708811283111572,0.08369255065917969,-2.1263720989227295
1684109494808963300,7.70596337890625,1.1167296171188354,0.05699348449707031,-2.223341941833496
1684109494819005000,7.7160048828125,0.5256171226501465,-0.09782886505126953,-2.233632802963257
1684109494829046500,7.726046630859375,-0.02175724506378174,-0.4484729766845703,-2.2710063457489014
1684109494839087900,7.736087890625,-0.3377615213394165,-1.1587209701538086,-2.168581485748291
1684109494849129500,7.74612939453125,-0.46829676628112793,-2.0179195404052734,-1.6089240312576294
1684109494859171000,7.756171142578125,-0.43519341945648193,-3.1414756774902344,-0.20360982418060303
1684109494869212400,7.76621240234375,-0.4357985258102417,-3.7959909439086914,1.4220601320266724
1684109494879254000,7.77625390625,-0.6200237274169922,-3.477959632873535,2.984577178955078
1684109494889295600,7.786295654296875,-1.3250129222869873,-2.1163463592529297,3.8757359981536865
1684109494899337200,7.796337158203125,-2.2328219413757324,-0.5821628570556641,3.7906270027160645
1684109494909378600,7.806378662109375,-2.177586078643799,0.3009366989135742,2.673369884490967
1684109494919420200,7.816420166015625,-1.0293705463409424,0.9423809051513672,1.1999974250793457
1684109494929461800,7.826461669921875,0.2967749834060669,1.4484434127807617,0.03743016719818115
1684109494939503000,7.836503173828125,1.4075440168380737,1.8683819770812988,-0.6789075136184692
1684109494949544700,7.846544677734375,1.9616997241973877,2.0757718086242676,-1.124422311782837
1684109494959586300,7.85658642578125,2.2086968421936035,2.140101432800293,-1.5061699151992798
1684109494969627600,7.866627685546875,2.2415966987609863,2.068758010864258,-1.8194032907485962
1684109494979669200,7.876669189453125,1.9851113557815552,1.6967048645019531,-1.9798139333724976
1684109494989710800,7.8867109375,1.626641035079956,1.069375991821289,-2.05263614654541
1684109494999752400,7.89675244140625,1.3126046657562256,0.34390926361083984,-1.8367810249328613
1684109495009794000,7.9067939453125,1.046994686126709,-0.3734245300292969,-1.279600739479065
1684109495019835400,7.91683544921875,0.7721642255783081,-0.9524755477905273,-0.6074701547622681
1684109495029877000,7.926876953125,0.44674286246299744,-1.3058948516845703,0.08139902353286743
1684109495039918600,7.936918701171875,0.14669030904769897,-1.365382194519043,0.6676605939865112
1684109495049960000,7.9469599609375,0.0013471245765686035,-0.8737373352050781,1.0034210681915283
1684109495060001500,7.95700146484375,0.008714795112609863,0.26697349548339844,0.3050546646118164
1684109495070043100,7.967043212890625,0.26255109906196594,0.5664482116699219,-0.23988991975784302
1684109495080084500,7.97708447265625,0.8153282999992371,0.43036937713623047,0.07302248477935791
1684109495090126000,7.9871259765625,1.2921748161315918,0.36828041076660156,0.33530330657958984
1684109495100167700,7.997167724609375,1.5994888544082642,0.3396024703979492,0.42542213201522827
1684109495110209300,8.007209228515626,1.8292368650436401,0.2177906036376953,0.5423728823661804
1684109495120250600,8.017250732421875,1.9729821681976318,0.16305065155029297,0.6487836241722107
1684109495130292200,8.027292236328124,2.040724277496338,0.16325950622558594,0.7501128315925598
1684109495140333800,8.037333740234375,2.0096335411071777,0.17049694061279297,0.759171187877655
1684109495150375200,8.047375244140625,1.8498280048370361,0.16555213928222656,0.7545508146286011
1684109495160416800,8.057416748046874,1.6241708993911743,0.06715965270996094,0.7105109095573425
1684109495170458400,8.067458251953125,1.4291658401489258,-0.07434272766113281,0.6710792779922485
1684109495180500000,8.0775,1.2805230617523193,-0.25163841247558594,0.6540021896362305
1684109495190541300,8.087541259765626,1.189744234085083,-0.3236370086669922,0.6029528379440308
1684109495200583000,8.0975830078125,1.0815258026123047,-0.3382911682128906,0.5901275277137756
1684109495210624500,8.10762451171875,0.961402416229248,-0.2503814697265625,0.521233320236206
1684109495220665900,8.117665771484376,0.7312129139900208,-0.13909244537353516,0.4289326071739197
1684109495230707500,8.12770751953125,0.456945538520813,-0.1503582000732422,0.3260575532913208
1684109495240749000,8.1377490234375,0.12955725193023682,-0.17176532745361328,0.14912939071655273
1684109495250790700,8.147790771484376,-0.13201755285263062,-0.06698894500732422,-0.19751006364822388
1684109495260832000,8.15783203125,-0.27245035767555237,-0.03660774230957031,-0.421014666557312
1684109495270873600,8.16787353515625,-0.16650642454624176,-0.046924591064453125,-0.3354302644729614
1684109495280915200,8.177915283203125,0.11786512285470963,-0.047763824462890625,-0.1798255443572998
1684109495290956800,8.187956787109375,0.45392584800720215,0.008652687072753906,-0.135065495967865
1684109495300998100,8.197998046875,0.8014913201332092,0.041098594665527344,-0.05080080032348633
1684109495311039700,8.208039794921875,1.0666134357452393,0.040122032165527344,0.08534705638885498
1684109495321081300,8.218081298828125,1.2617515325546265,0.06790351867675781,0.25173085927963257
1684109495331122700,8.228122802734376,1.3243160247802734,0.02881145477294922,0.36662954092025757
1684109495341164300,8.238164306640625,1.29078209400177,0.040022850036621094,0.4922475814819336
1684109495351206000,8.248205810546875,1.171809196472168,0.07514095306396484,0.547546923160553
1684109495361247200,8.258247314453126,1.0115811824798584,0.1675586700439453,0.5571385622024536
1684109495371288800,8.268288818359375,0.8398585915565491,0.23114681243896484,0.5687759518623352
1684109495381330400,8.278330322265624,0.6717294454574585,0.2802896499633789,0.5774645209312439
1684109495391372000,8.2883720703125,0.5292733311653137,0.2290172576904297,0.5565240979194641
1684109495401413400,8.298413330078125,0.3748449385166168,0.18262386322021484,0.5363945960998535
1684109495411455000,8.308455078125,0.1975509226322174,0.15299606323242188,0.5019332766532898
1684109495421496600,8.31849658203125,0.0442093163728714,0.15680503845214844,0.48347777128219604
1684109495431538000,8.328537841796875,-0.06303441524505615,0.15339088439941406,0.390150785446167
1684109495441579500,8.33857958984375,-0.12596027553081512,0.12132644653320312,0.324895441532135
1684109495451621000,8.34862109375,-0.14211219549179077,0.06548786163330078,0.2829781770706177
1684109495461662700,8.358662841796875,-0.11641772091388702,0.009861946105957031,0.16209542751312256
1684109495471704000,8.3687041015625,-0.06796938180923462,0.0022382736206054688,0.06294476985931396
1684109495481745700,8.37874560546875,0.022435396909713745,-0.0028257369995117188,-0.009200692176818848
1684109495491787300,8.388787353515625,0.12569552659988403,0.0042324066162109375,-0.08032965660095215
1684109495501828900,8.398828857421876,0.27949562668800354,0.02576160430908203,-0.09781515598297119
1684109495511870200,8.4088701171875,0.41605567932128906,0.025876998901367188,-0.07373744249343872
1684109495521911800,8.418911865234374,0.5968009829521179,0.016551971435546875,-0.06547272205352783
1684109495531953400,8.428953369140626,0.7682868242263794,0.04790496826171875,-0.032783329486846924
1684109495541994800,8.438994873046875,0.9510072469711304,0.10064888000488281,0.03791171312332153
1684109495552036400,8.449036376953124,1.078214406967163,0.1439199447631836,0.09422403573989868
1684109495562078000,8.459077880859375,1.191712498664856,0.20281314849853516,0.11313652992248535
1684109495572119600,8.46911962890625,1.2510621547698975,0.20643138885498047,0.10497260093688965
1684109495582161000,8.479160888671874,1.2802144289016724,0.2121734619140625,0.11724108457565308
1684109495592202500,8.489202392578125,1.232429027557373,0.21997356414794922,0.12603849172592163
1684109495602244000,8.499244140625,1.10458505153656,0.20392513275146484,0.10356080532073975
1684109495612285700,8.50928564453125,0.9623124599456787,0.12680721282958984,0.06270909309387207
1684109495622327000,8.5193271484375,0.8020519018173218,0.06737995147705078,0.06054222583770752
1684109495632368600,8.52936865234375,0.6203168630599976,0.0018768310546875,-0.032571375370025635
1684109495642410200,8.53941015625,0.43733322620391846,-0.0577239990234375,-0.10850393772125244
1684109495652451600,8.54945166015625,0.3128644824028015,-0.08318710327148438,-0.16474997997283936
1684109495662493200,8.5594931640625,0.21600031852722168,-0.12445831298828125,-0.166090726852417
1684109495672534800,8.56953466796875,0.16335195302963257,-0.13180065155029297,-0.13941019773483276
1684109495682576400,8.579576416015625,0.14256930351257324,-0.1269998550415039,-0.06932079792022705
1684109495692617700,8.58961767578125,0.16701442003250122,-0.13385295867919922,-0.025378882884979248
1684109495702659300,8.599659423828125,0.2097124457359314,-0.05093574523925781,-0.016349196434020996
1684109495712701000,8.609700927734375,0.28176063299179077,-0.0069026947021484375,0.057103633880615234
1684109495722742300,8.6197421875,0.33768147230148315,0.043609619140625,0.12805408239364624
1684109495732783900,8.629783935546875,0.42708873748779297,0.09105396270751953,0.21275579929351807
1684109495742825500,8.639825439453125,0.5348528623580933,0.13075923919677734,0.2899942398071289
1684109495752866800,8.64986669921875,0.6060976982116699,0.13694000244140625,0.36466068029403687
1684109495762908400,8.659908447265625,0.6905209422111511,0.12190532684326172,0.5051161646842957
1684109495772950000,8.669949951171875,0.7593151330947876,0.07891368865966797,0.6323187351226807
1684109495782991600,8.67999169921875,0.8409494161605835,0.06254291534423828,0.7482971549034119
1684109495793033000,8.690032958984375,0.8763061165809631,0.05821037292480469,0.8248000144958496
1684109495803074600,8.700074462890624,0.8777978420257568,0.06098651885986328,0.8527806997299194
1684109495813116200,8.7101162109375,0.8623153567314148,0.06833553314208984,0.8039382696151733
1684109495823157800,8.72015771484375,0.8111583590507507,0.08251476287841797,0.7005267143249512
1684109495833199000,8.73019921875,0.7342904806137085,0.08461189270019531,0.5394365191459656
1684109495843240700,8.74024072265625,0.6298878192901611,0.10076236724853516,0.37631064653396606
1684109495853282300,8.7502822265625,0.50855952501297,0.09312152862548828,0.19026243686676025
1684109495863323600,8.76032373046875,0.4371880292892456,0.1139383316040039,0.050330936908721924
1684109495873365200,8.770365234375,0.36129236221313477,0.09922981262207031,-0.10259690880775452
1684109495883406800,8.78040673828125,0.3374168276786804,0.07079696655273438,-0.25596877932548523
1684109495893448400,8.790448486328126,0.3198357820510864,0.038242340087890625,-0.3747631907463074
1684109495903489800,8.80048974609375,0.3367188572883606,0.065155029296875,-0.42481186985969543
1684109495913531400,8.810531494140625,0.3494303822517395,0.08695125579833984,-0.5201737880706787
1684109495923573000,8.820572998046876,0.3596741557121277,0.09894561767578125,-0.5259711146354675
1684109495933614600,8.830614501953125,0.357658326625824,0.07299995422363281,-0.538402795791626
1684109495943656000,8.840656005859374,0.35295265913009644,-0.018526077270507812,-0.5223523378372192
1684109495953697500,8.850697509765626,0.3199573755264282,-0.134521484375,-0.4365183115005493
1684109495963739100,8.8607392578125,0.28311657905578613,-0.2604246139526367,-0.31282761693000793
1684109495973780500,8.870780517578124,0.2689223289489746,-0.2712593078613281,-0.10481850802898407
1684109495983822000,8.880822021484375,0.2915673851966858,-0.20658206939697266,0.11291250586509705
1684109495993863700,8.89086376953125,0.33926451206207275,-0.13825035095214844,0.3183763921260834
1684109496003905300,8.9009052734375,0.3716508746147156,-0.04984760284423828,0.41240403056144714
1684109496013946600,8.910946533203125,0.4263378977775574,-0.009984970092773438,0.4866807162761688
1684109496023988200,8.92098828125,0.4460718035697937,0.008028984069824219,0.5087805986404419
1684109496034029800,8.93102978515625,0.4360482096672058,-0.033111572265625,0.5151649713516235
1684109496044071200,8.9410712890625,0.48145878314971924,0.008841514587402344,0.5160741806030273
1684109496054112800,8.95111279296875,0.49672725796699524,0.05482292175292969,0.5308432579040527
1684109496064154400,8.961154296875,0.5342007875442505,0.14478302001953125,0.5261906385421753
1684109496074196000,8.971196044921875,0.5816134810447693,0.22617435455322266,0.5513585805892944
1684109496084237300,8.9812373046875,0.6691094040870667,0.29204463958740234,0.5911988019943237
1684109496094279000,8.99127880859375,0.7438345551490784,0.31908512115478516,0.5603381991386414
1684109496104320500,9.001320556640625,0.8241844773292542,0.33147525787353516,0.517051100730896
1684109496114362000,9.011362060546874,0.8621246814727783,0.3388509750366211,0.5207235217094421
1684109496124403500,9.021403564453125,0.8388687372207642,0.3106679916381836,0.47852465510368347
1684109496134445000,9.031445068359375,0.7550870180130005,0.3440265655517578,0.44982215762138367
1684109496144486700,9.041486572265624,0.639884889125824,0.38376617431640625,0.29840898513793945
1684109496154528000,9.051528076171875,0.520232617855072,0.3921699523925781,0.1757335364818573
1684109496164569600,9.061569580078125,0.4085909426212311,0.37686920166015625,0.17385897040367126
1684109496174611200,9.071611083984376,0.37102651596069336,0.33826732635498047,0.16830435395240784
1684109496184652500,9.081652587890625,0.30982843041419983,0.30738162994384766,0.10340413451194763
1684109496194694100,9.091694091796874,0.2911355793476105,0.2699928283691406,0.023798048496246338
1684109496204735700,9.10173583984375,0.2833382487297058,0.2191181182861328,0.05168658494949341
1684109496214777300,9.11177734375,0.24854406714439392,0.1714620590209961,-0.017061010003089905
1684109496224818700,9.121818603515624,0.15032139420509338,0.15994834899902344,-0.07467716932296753
1684109496234860300,9.1318603515625,-0.013789772987365723,0.0803985595703125,-0.1193939745426178
1684109496244902000,9.14190185546875,-0.11693674325942993,0.0022096633911132812,-0.0814693421125412
1684109496254943500,9.151943603515624,-0.2296290397644043,-0.12172126770019531,-0.009609684348106384
1684109496264984800,9.16198486328125,-0.2717170715332031,-0.2482767105102539,0.011532798409461975
1684109496275026400,9.1720263671875,-0.3132173717021942,-0.37745094299316406,0.05419924855232239
1684109496285068000,9.182068115234374,-0.35431385040283203,-0.47393035888671875,0.0826803669333458
1684109496295109400,9.192109375,-0.42541950941085815,-0.535954475402832,0.10847951471805573
1684109496305151000,9.20215087890625,-0.5325051546096802,-0.5617828369140625,0.04460759833455086
1684109496315192600,9.212192626953126,-0.6548045873641968,-0.4861612319946289,-0.004124159924685955
1684109496325234200,9.222234130859375,-0.8753737211227417,-0.4037036895751953,-0.09417702257633209
1684109496335275500,9.232275634765625,-1.013305425643921,-0.26212310791015625,-0.13957324624061584
1684109496345317000,9.242317138671876,-1.1183383464813232,-0.1835155487060547,-0.190583735704422
1684109496355358700,9.252358642578125,-1.1119978427886963,-0.09624385833740234,-0.2737153172492981
1684109496365400300,9.262400390625,-1.0745692253112793,0.021019935607910156,-0.29902684688568115
1684109496375441700,9.272441650390626,-1.108269453048706,0.1036214828491211,-0.4459596872329712
1684109496385483300,9.282483154296875,-1.1668649911880493,0.11095142364501953,-0.6462951898574829
1684109496395524900,9.29252490234375,-1.208216905593872,0.012041091918945312,-0.740982711315155
1684109496405566200,9.302566162109375,-1.1395518779754639,-0.2120208740234375,-0.6377109289169312
1684109496415607800,9.31260791015625,-0.8979429006576538,-0.5202426910400391,-0.3794665038585663
1684109496425649400,9.3226494140625,-0.5356964468955994,-0.7760944366455078,-0.1713499128818512
1684109496435691000,9.33269091796875,-0.16273730993270874,-0.9698543548583984,-0.02153754234313965
1684109496445732400,9.342732421875,0.14809733629226685,-1.132451057434082,0.031227469444274902
1684109496455774000,9.35277392578125,0.37021535634994507,-1.151505470275879,0.034660279750823975
1684109496465815600,9.362815673828125,0.487443745136261,-1.0130939483642578,-0.31918513774871826
1684109496475857200,9.372857177734375,0.5438613295555115,-0.8181638717651367,-0.6770573258399963
1684109496485898500,9.3828984375,0.5548783540725708,-0.505035400390625,-0.9241598844528198
1684109496495940000,9.392940185546875,0.6499897837638855,-0.16249561309814453,-1.0792536735534668
1684109496505981700,9.402981689453124,0.73870849609375,0.03988838195800781,-1.0085067749023438
1684109496516023000,9.41302294921875,0.8050018548965454,-0.04050254821777344,-0.7460135817527771
1684109496526064600,9.423064697265625,0.6572636961936951,-0.1421499252319336,-0.31658875942230225
1684109496536106200,9.433106201171874,0.5049953460693359,-0.03249645233154297,0.31269389390945435
1684109496546147800,9.44314794921875,0.5355396270751953,0.2651634216308594,0.8775954842567444
1684109496556189200,9.453189208984375,0.7192845344543457,0.6315736770629883,1.2377707958221436
1684109496566230800,9.463230712890624,0.9701654314994812,0.8608064651489258,1.3275777101516724
1684109496576272400,9.4732724609375,1.2166752815246582,0.8135995864868164,1.2589707374572754
1684109496586314000,9.48331396484375,1.4817924499511719,0.5636587142944336,1.0221314430236816
1684109496596355300,9.493355224609376,1.8731164932250977,0.3640861511230469,0.6587426662445068
1684109496606397000,9.50339697265625,2.4193670749664307,0.4129791259765625,0.006325840950012207
1684109496616438500,9.5134384765625,2.845675468444824,0.38294506072998047,-0.7073878049850464
1684109496626479900,9.52347998046875,3.158270835876465,0.3773775100708008,-1.180416464805603
1684109496636521500,9.533521484375,3.408709764480591,0.5381765365600586,-1.3689135313034058
1684109496646563000,9.54356298828125,3.776519775390625,0.6278791427612305,-1.0382429361343384
1684109496656604700,9.553604736328126,3.4621996879577637,0.5593090057373047,-0.8197990655899048
1684109496666646000,9.56364599609375,2.1661887168884277,0.4894828796386719,-0.7222808599472046
1684109496676687600,9.5736875,0.43702232837677,0.3132600784301758,-0.6089843511581421
1684109496686729200,9.583729248046875,-1.266452670097351,0.0067310333251953125,-0.3592662215232849
1684109496696770800,9.593770751953125,-2.8255200386047363,-0.43987178802490234,0.16837528347969055
1684109496706812200,9.603812255859374,-2.7210748195648193,-0.6331672668457031,0.15347608923912048
1684109496716853800,9.613853759765625,-1.5195271968841553,-0.7199954986572266,-0.22815029323101044
1684109496726895400,9.623895263671875,-0.4494929313659668,-0.7866439819335938,-0.7228212952613831
1684109496736936700,9.633936767578126,0.21662914752960205,-0.7695913314819336,-1.3034926652908325
1684109496746978300,9.643978271484375,0.4971872568130493,-0.6757984161376953,-1.888363003730774
1684109496757020000,9.65402001953125,0.5090712308883667,-0.46264076232910156,-2.489065647125244
1684109496767061200,9.664061279296876,0.4859287738800049,-0.4029073715209961,-2.702730178833008
1684109496777102800,9.674102783203125,0.4356086254119873,-0.3268413543701172,-2.7093164920806885
1684109496787144400,9.68414453125,0.4536130428314209,-0.2560110092163086,-2.6131112575531006
1684109496797186000,9.69418603515625,0.49420952796936035,-0.08049583435058594,-2.5088956356048584
1684109496807227400,9.704227294921875,0.5406515598297119,0.10163307189941406,-2.274956226348877
1684109496817269000,9.71426904296875,0.6241956949234009,0.19497299194335938,-2.0282442569732666
1684109496827310600,9.724310546875,0.6808739900588989,0.2738332748413086,-1.826448917388916
1684109496837352200,9.734352294921875,0.7732459306716919,0.3025016784667969,-1.6611227989196777
1684109496847393500,9.7443935546875,0.871087908744812,0.3813657760620117,-1.5380865335464478
1684109496857435100,9.75443505859375,0.9571279287338257,0.43415260314941406,-1.477940320968628
1684109496867476700,9.764476806640625,0.9821500778198242,0.5616216659545898,-1.371180772781372
1684109496877518000,9.77451806640625,0.9227917194366455,0.6350002288818359,-1.2466671466827393
1684109496887559700,9.7845595703125,0.8753249645233154,0.6380281448364258,-1.0686471462249756
1684109496897601300,9.794601318359375,0.7915786504745483,0.5661334991455078,-0.9770448207855225
1684109496907643000,9.804642822265626,0.765758752822876,0.4717378616333008,-0.915368378162384
1684109496917684200,9.814684326171875,0.7440366744995117,0.44056034088134766,-0.8286464214324951
1684109496927725800,9.824725830078124,0.6611597537994385,0.41476917266845703,-0.7879780530929565
1684109496937767400,9.834767333984376,0.6373062133789062,0.391845703125,-0.7378126382827759
1684109496947809000,9.84480908203125,0.684098482131958,0.4028806686401367,-0.7497054934501648
1684109496957850400,9.854850341796874,0.7487497329711914,0.40004634857177734,-0.6968738436698914
1684109496967892000,9.86489208984375,0.9710657596588135,0.4648313522338867,-0.5484334230422974
1684109496977933600,9.87493359375,1.077926516532898,0.5471286773681641,-0.4369867742061615
1684109496987975000,9.884974853515626,1.0718387365341187,0.5752925872802734,-0.34786224365234375
1684109496998016500,9.8950166015625,0.9574099779129028,0.5518274307250977,-0.2919568121433258
1684109497008058000,9.90505810546875,0.7692781686782837,0.5336780548095703,-0.18662622570991516
1684109497018099700,9.915099609375,0.5783448219299316,0.4581480026245117,-0.08320248126983643
1684109497028141000,9.92514111328125,0.3875473737716675,0.415863037109375,-0.04833388328552246
1684109497038182700,9.9351826171875,0.14667057991027832,0.2968921661376953,-0.048883140087127686
1684109497048224300,9.945224365234376,-0.10577869415283203,0.08470916748046875,0.01851809024810791
1684109497058265900,9.955265869140625,-0.3356611728668213,-0.0676422119140625,-0.09259957075119019
1684109497068307200,9.96530712890625,-0.42353343963623047,-0.14585018157958984,-0.2575661540031433
1684109497078348800,9.975348876953126,-0.3558497428894043,-0.09488487243652344,-0.5714690089225769
1684109497088390400,9.985390380859375,-0.25771021842956543,-0.0031709671020507812,-0.8433799743652344
1684109497098432000,9.995431884765624,-0.18646240234375,-0.006927490234375,-1.1520438194274902
1684109497108473300,10.005473388671875,-0.16305780410766602,0.010972976684570312,-1.330430030822754
1684109497118515000,10.015514892578125,-0.2297651767730713,-0.0045528411865234375,-1.5264396667480469
1684109497128556500,10.025556640625,-0.43099403381347656,0.02043914794921875,-1.6014254093170166
1684109497138598000,10.035597900390625,-0.6226036548614502,0.09047412872314453,-1.5275530815124512
1684109497148639500,10.045639404296875,-0.7783715724945068,0.214935302734375,-1.3705410957336426
1684109497158681000,10.05568115234375,-0.7962346076965332,0.3388652801513672,-1.2262768745422363
1684109497168722700,10.06572265625,-0.6779804229736328,0.46021366119384766,-1.0729515552520752
1684109497178764000,10.075763916015624,-0.4645657539367676,0.5723772048950195,-0.9220151901245117
1684109497188805600,10.0858056640625,-0.21777868270874023,0.6065397262573242,-0.8134893178939819
1684109497198847200,10.09584716796875,0.06592273712158203,0.6085071563720703,-0.6535879969596863
1684109497208888800,10.105888916015624,0.3711014986038208,0.5140514373779297,-0.5351346731185913
1684109497218930200,10.11593017578125,0.6333117485046387,0.27077198028564453,-0.5626978278160095
1684109497228971800,10.1259716796875,0.8658897876739502,-0.08790969848632812,-0.7523886561393738
1684109497239013400,10.136013427734374,1.0679529905319214,-0.4236736297607422,-0.9427473545074463
1684109497249054700,10.1460546875,1.0496158599853516,-0.6939554214477539,-1.0085856914520264
1684109497259096300,10.156096435546875,0.8716325759887695,-0.6268711090087891,-1.0348197221755981
1684109497269138000,10.166137939453124,0.5446815490722656,-0.37631988525390625,-0.9921568632125854
1684109497279179300,10.17617919921875,0.12685132026672363,-0.3416709899902344,-0.9581954479217529
1684109497289220900,10.186220947265625,-0.6516033411026001,-0.6871356964111328,-0.9357684850692749
1684109497299262500,10.196262451171876,-1.8660211563110352,-1.3429327011108398,-0.5813555121421814
1684109497309304000,10.206303955078125,-2.9705586433410645,-1.7502431869506836,0.29206380248069763
1684109497319345400,10.216345458984375,-3.209662914276123,-1.6689395904541016,1.3781540393829346
1684109497329387000,10.226386962890626,-2.593372344970703,-1.4605751037597656,2.322798252105713
1684109497339428600,10.2364287109375,-1.7830828428268433,-1.2992477416992188,2.99747371673584
1684109497349470200,10.24647021484375,-1.1701315641403198,-0.995849609375,3.0328900814056396
1684109497359511800,10.25651171875,-0.6976045370101929,-0.5697174072265625,2.5612072944641113
1684109497369553200,10.26655322265625,-0.17546594142913818,-0.2860555648803711,2.1361258029937744
1684109497379594800,10.2765947265625,0.5626860857009888,-0.09388542175292969,1.6585606336593628
1684109497389636400,10.28663623046875,1.274757742881775,-0.09044361114501953,1.0050053596496582
1684109497399677700,10.296677734375,1.672181248664856,-0.2729072570800781,0.19665974378585815
1684109497409719300,10.30671923828125,1.7838600873947144,-0.6076593399047852,-0.6363949775695801
1684109497419761000,10.316760986328125,1.8349522352218628,-0.8674297332763672,-1.3166238069534302
1684109497429802200,10.32680224609375,1.7986105680465698,-0.9134120941162109,-1.8144620656967163
1684109497439843800,10.33684375,1.6160372495651245,-0.6882257461547852,-2.1195526123046875
1684109497449885400,10.346885498046875,1.2637075185775757,-0.13497638702392578,-2.1701998710632324
1684109497459927000,10.356927001953125,0.7972354888916016,0.5017328262329102,-2.0864787101745605
1684109497469968400,10.366968505859376,0.22994458675384521,1.1063833236694336,-1.9411720037460327
1684109497480010000,10.377010009765625,-0.24854588508605957,1.4823522567749023,-1.6099213361740112
1684109497490051600,10.387051513671874,-0.49651265144348145,1.6222648620605469,-1.246203899383545
1684109497500093200,10.39709326171875,-0.3939051628112793,1.4928970336914062,-0.8300920724868774
1684109497510134500,10.407134521484375,0.0630033016204834,1.1093864440917969,-0.49678465723991394
1684109497520176000,10.417176025390624,0.6199221014976501,0.6208724975585938,-0.21401071548461914
1684109497530217700,10.4272177734375,1.1420063972473145,0.1881237030029297,-0.030977249145507812
1684109497540259300,10.43725927734375,1.5214240550994873,-0.10021400451660156,0.07306110858917236
1684109497550300700,10.44730078125,1.755981683731079,-0.18924808502197266,0.060271114110946655
1684109497560342300,10.45734228515625,1.8838614225387573,-0.2439441680908203,0.031529754400253296
1684109497570384000,10.4673837890625,1.85947847366333,-0.20676898956298828,0.04356315732002258
1684109497580425200,10.47742529296875,1.7359459400177002,-0.21861553192138672,0.0657510757446289
1684109497590466800,10.487466796875,1.417343020439148,-0.2292919158935547,0.08365759253501892
1684109497600508400,10.49750830078125,0.9227125644683838,-0.19155216217041016,-0.0761665403842926
1684109497610550000,10.507550048828126,0.33687806129455566,-0.20873165130615234,-0.24925273656845093
1684109497620591400,10.51759130859375,-0.2776029706001282,-0.20955371856689453,-0.4522286057472229
1684109497630633000,10.527633056640624,-0.8081256747245789,-0.1157979965209961,-0.667324423789978
1684109497640674600,10.537674560546876,-1.140110969543457,0.019408226013183594,-0.8072483539581299
1684109497650716200,10.547716064453125,-1.1404309272766113,0.06933879852294922,-0.8166518211364746
1684109497660757500,10.557757568359374,-0.8523316383361816,0.07975006103515625,-0.7363943457603455
1684109497670799000,10.567799072265625,-0.35397303104400635,0.18713760375976562,-0.5926346778869629
1684109497680840700,10.5778408203125,0.18835791945457458,0.25067615509033203,-0.45457783341407776
1684109497690882300,10.58788232421875,0.7313776016235352,0.21580791473388672,-0.3962991237640381
1684109497700923600,10.597923583984375,1.1568315029144287,0.23102664947509766,-0.3458056151866913
1684109497710965200,10.60796533203125,1.4506311416625977,0.28677845001220703,-0.28387701511383057
1684109497721006800,10.6180068359375,1.640270709991455,0.3114480972290039,-0.23296743631362915
1684109497731048200,10.628048095703125,1.741668939590454,0.28133106231689453,-0.229650616645813
1684109497741089800,10.63808984375,1.8163938522338867,0.18706989288330078,-0.2407543659210205
1684109497751131400,10.64813134765625,1.8859975337982178,0.06944847106933594,-0.30031436681747437
1684109497761173000,10.658173095703125,1.860457181930542,0.040633201599121094,-0.4903854727745056
1684109497771214300,10.66821435546875,1.8146237134933472,-0.0382080078125,-0.5543859601020813
1684109497781256000,10.678255859375,1.7493302822113037,-0.08808422088623047,-0.5782169103622437
1684109497791297500,10.688297607421875,1.682026743888855,-0.1663360595703125,-0.6184014678001404
1684109497801339100,10.698339111328124,1.6199800968170166,-0.22275638580322266,-0.715503454208374
1684109497811380500,10.70838037109375,1.5607349872589111,-0.2383136749267578,-0.7712852358818054
1684109497821422000,10.718422119140625,1.4608932733535767,-0.16532039642333984,-0.8197337985038757
1684109497831463700,10.728463623046874,1.367525577545166,-0.05410289764404297,-0.828058123588562
1684109497841505300,10.73850537109375,1.257309913635254,0.0905599594116211,-0.8619544506072998
1684109497851546600,10.748546630859375,1.0896321535110474,0.16123104095458984,-0.863572895526886
1684109497861588200,10.758588134765626,0.8093712329864502,0.17711353302001953,-0.89554762840271
1684109497871629800,10.7686298828125,0.468483567237854,0.26912593841552734,-1.0997921228408813
1684109497881671200,10.778671142578125,0.1107746809720993,0.30295848846435547,-1.1176161766052246
1684109497891712800,10.788712646484376,-0.20051205158233643,0.22631454467773438,-0.9646127223968506
1684109497901754400,10.79875439453125,-0.39154791831970215,0.1829233169555664,-0.8015691637992859
1684109497911796000,10.8087958984375,-0.4148517847061157,0.1226644515991211,-0.6565947532653809
1684109497921837300,10.81883740234375,-0.23938703536987305,0.09103965759277344,-0.443763792514801
1684109497931879000,10.82887890625,0.0723842978477478,0.06172466278076172,-0.2663087844848633
1684109497941920500,10.83892041015625,0.40078216791152954,0.07294178009033203,-0.07961666584014893
1684109497951962000,10.848962158203125,0.6829661130905151,0.11745262145996094,0.10341131687164307
1684109497962003500,10.85900341796875,0.9147101640701294,0.18326091766357422,0.2677805721759796
1684109497972045000,10.869045166015624,1.0519306659698486,0.2392568588256836,0.35615822672843933
1684109497982086700,10.879086669921875,1.1513084173202515,0.20188140869140625,0.4735637605190277
1684109497992128300,10.889128173828125,1.190901756286621,0.18120384216308594,0.5434869527816772
1684109498002169600,10.899169677734376,1.1609013080596924,0.0840301513671875,0.6088298559188843
1684109498012211200,10.909211181640625,1.0879617929458618,0.03234291076660156,0.6931647062301636
1684109498022252800,10.919252685546875,0.9396654963493347,-0.045612335205078125,0.7507551908493042
1684109498032294400,10.92929443359375,0.7771556973457336,-0.10439491271972656,0.7840018272399902
1684109498042335700,10.939335693359375,0.5753722190856934,-0.1750507354736328,0.8020153045654297
1684109498052377300,10.94937744140625,0.3447435796260834,-0.1978130340576172,0.768664538860321
1684109498062419000,10.9594189453125,0.11260735988616943,-0.20138931274414062,0.6764429211616516
1684109498072460300,10.969460205078125,-0.1213977038860321,-0.1499156951904297,0.4727851450443268
1684109498082502000,10.979501953125,-0.29533836245536804,-0.1127634048461914,0.2761249542236328
1684109498092543500,10.98954345703125,-0.38607197999954224,-0.10179328918457031,0.1134595274925232
1684109498102585000,10.999585205078125,-0.3715228736400604,-0.1121063232421875,0.03732407093048096
1684109498112626400,11.00962646484375,-0.23572443425655365,-0.06725406646728516,-0.04291665554046631
1684109498122668000,11.01966796875,-0.014748424291610718,-0.060611724853515625,-0.0984451174736023
1684109498132709600,11.029709716796875,0.22413691878318787,-0.05397319793701172,-0.1293811798095703
1684109498142751200,11.039751220703126,0.46225836873054504,-0.0044422149658203125,-0.12607693672180176
1684109498152792600,11.04979248046875,0.6147106885910034,0.025735855102539062,-0.12930727005004883
1684109498162834200,11.059834228515625,0.7263927459716797,0.024644851684570312,-0.12238907814025879
1684109498172875800,11.069875732421876,0.8086636662483215,0.05680370330810547,-0.1434866189956665
1684109498182917400,11.07991748046875,0.8251423239707947,0.06715965270996094,-0.14706164598464966
1684109498192958700,11.089958740234374,0.7949604988098145,0.117828369140625,-0.1234668493270874
1684109498203000300,11.100000244140626,0.6901348829269409,0.1800251007080078,-0.14642781019210815
1684109498213042000,11.1100419921875,0.5311925411224365,0.21792221069335938,-0.10824304819107056
1684109498223083500,11.12008349609375,0.4010738432407379,0.18626880645751953,-0.047296106815338135
1684109498233124900,11.130124755859375,0.30317842960357666,0.14735698699951172,0.060457468032836914
1684109498243166500,11.14016650390625,0.26204097270965576,0.07736778259277344,0.1359807848930359
1684109498253208000,11.1502080078125,0.25867366790771484,0.04329872131347656,0.2529670000076294
1684109498263249700,11.160249755859375,0.3025454878807068,-0.08149147033691406,0.3466777205467224
1684109498273291000,11.170291015625,0.3094724416732788,-0.13921642303466797,0.424621045589447
1684109498283332600,11.18033251953125,0.35543757677078247,-0.1277008056640625,0.47739773988723755
1684109498293374200,11.190374267578125,0.37787503004074097,-0.1402597427368164,0.5717129111289978
1684109498303415800,11.200415771484375,0.38146793842315674,-0.16727828979492188,0.6141880750656128
1684109498313457200,11.21045703125,0.3902897834777832,-0.13472747802734375,0.62917160987854
1684109498323498800,11.220498779296875,0.3993791341781616,-0.11438369750976562,0.7310640811920166
1684109498333540400,11.230540283203124,0.40865814685821533,-0.0058612823486328125,0.7973088026046753
1684109498343581700,11.240581787109376,0.4047542214393616,0.023115158081054688,0.8607802391052246
1684109498353623300,11.250623291015625,0.37893378734588623,0.042075157165527344,0.9185659885406494
1684109498363665000,11.260664794921874,0.3494904041290283,0.011227607727050781,1.0051220655441284
1684109498373706500,11.27070654296875,0.27830439805984497,0.004406929016113281,1.0394999980926514
1684109498383747800,11.280747802734375,0.18234795331954956,0.028344154357910156,1.0666695833206177
1684109498393789400,11.29078955078125,0.05534684658050537,0.05197715759277344,1.0394384860992432
1684109498403831000,11.3008310546875,-0.051975250244140625,-0.007008552551269531,0.9703287482261658
1684109498413872600,11.31087255859375,-0.16012287139892578,-0.0647735595703125,0.8883489370346069
1684109498423914000,11.3209140625,-0.26793038845062256,-0.1376495361328125,0.8684771060943604
1684109498433955600,11.33095556640625,-0.3246435225009918,-0.20644569396972656,0.8273367881774902
1684109498443997200,11.3409970703125,-0.36983102560043335,-0.2546262741088867,0.7746076583862305
1684109498454038800,11.351038818359376,-0.37182343006134033,-0.273101806640625,0.7158580422401428
1684109498464080100,11.361080078125,-0.314237117767334,-0.24117755889892578,0.7104117274284363
1684109498474121700,11.371121826171875,-0.1929917335510254,-0.1948566436767578,0.7445955276489258
1684109498484163300,11.381163330078126,-0.009483039379119873,-0.12498283386230469,0.758747935295105
1684109498494205000,11.391204833984375,0.15692603588104248,-0.06266403198242188,0.8453096747398376
1684109498504246300,11.401246337890624,0.34211742877960205,-0.09492301940917969,0.9515807032585144
1684109498514287900,11.411287841796875,0.5181779861450195,-0.1472921371459961,1.0285824537277222
1684109498524329500,11.42132958984375,0.6938804984092712,-0.3489866256713867,1.206104040145874
1684109498534371000,11.43137109375,0.9251231551170349,-0.4739084243774414,1.327844262123108
1684109498544412400,11.441412353515625,1.2041263580322266,-0.5284156799316406,1.2705001831054688
1684109498554454000,11.4514541015625,1.3961966037750244,-0.6035757064819336,1.050469160079956
1684109498564495600,11.46149560546875,1.4790024757385254,-0.6028537750244141,0.7452965974807739
1684109498574537200,11.471537109375,1.5051875114440918,-0.6007499694824219,0.42668646574020386
1684109498584578600,11.48157861328125,1.380652666091919,-0.5880718231201172,0.05052995681762695
1684109498594620200,11.4916201171875,1.2710392475128174,-0.5156755447387695,-0.32041382789611816
1684109498604661800,11.501661865234375,1.1252789497375488,-0.46697330474853516,-0.6253650188446045
1684109498614703000,11.511703125,0.944546103477478,-0.39058494567871094,-0.976581335067749
1684109498624744700,11.52174462890625,0.7662418484687805,-0.2821540832519531,-1.2325592041015625
1684109498634786300,11.531786376953125,0.5595765709877014,-0.1226816177368164,-1.5002833604812622
1684109498644828000,11.541827880859374,0.3545747399330139,0.07572269439697266,-1.6036840677261353
1684109498654869200,11.551869140625,0.11590707302093506,0.3152008056640625,-1.679122805595398
1684109498664910800,11.561910888671875,-0.30961769819259644,0.5882740020751953,-1.875872015953064
1684109498674952400,11.571952392578124,-1.0387437343597412,0.7806663513183594,-2.0567402839660645
1684109498684994000,11.581994140625,-1.7223999500274658,0.829859733581543,-2.0737743377685547
1684109498695035400,11.592035400390625,-2.3070526123046875,0.7602157592773438,-2.0044827461242676
1684109498705077000,11.602076904296876,-2.5229334831237793,0.6360540390014648,-2.0429086685180664
1684109498715118600,11.61211865234375,-2.401207447052002,0.7192974090576172,-2.391435384750366
1684109498725160200,11.62216015625,-2.014063596725464,0.8101615905761719,-2.528860092163086
1684109498735201500,11.632201416015626,-1.4662158489227295,0.5323371887207031,-1.6752949953079224
1684109498745243100,11.6422431640625,-0.7760728597640991,0.3790464401245117,-0.6911789178848267
1684109498755284700,11.65228466796875,-0.19632366299629211,0.3548126220703125,-0.1399146318435669
1684109498765326300,11.662326416015626,0.17491206526756287,0.3828086853027344,0.2374821901321411
1684109498775367700,11.67236767578125,0.4228774905204773,0.3987855911254883,0.5130155086517334
1684109498785409300,11.6824091796875,0.5899475812911987,0.39108943939208984,0.5978426933288574
1684109498795451000,11.692450927734376,0.6647705435752869,0.2786540985107422,0.5025724172592163
1684109498805492500,11.702492431640625,0.6441997289657593,0.04271507263183594,0.3259834051132202
1684109498815533800,11.712533935546874,0.4775856137275696,-0.13478851318359375,0.03706192970275879
1684109498825575400,11.722575439453125,0.2047901600599289,-0.22766590118408203,-0.3209867477416992
1684109498835617000,11.732616943359375,-0.20551380515098572,-0.24115276336669922,-0.8348598480224609
1684109498845658600,11.74265869140625,-0.6422916650772095,-0.25945281982421875,-1.346673846244812
1684109498855700000,11.752699951171875,-1.065431833267212,-0.2734222412109375,-1.7662837505340576
1684109498865741600,11.762741455078125,-1.3448448181152344,-0.3002147674560547,-2.0784521102905273
1684109498875783200,11.772783203125,-1.4318995475769043,-0.2780885696411133,-2.170813798904419
1684109498885824800,11.78282470703125,-1.3284132480621338,-0.25751686096191406,-2.061263084411621
1684109498895866000,11.7928662109375,-1.0174894332885742,-0.231353759765625,-1.7302933931350708
1684109498905907700,11.80290771484375,-0.5925727486610413,-0.2593050003051758,-1.385028600692749
1684109498915949300,11.81294921875,-0.08086371421813965,-0.2242136001586914,-1.2072515487670898
1684109498925991000,11.822990966796874,0.42459383606910706,-0.23582077026367188,-0.984166145324707
1684109498936032300,11.8330322265625,0.9439352750778198,-0.22415637969970703,-0.8986952304840088
1684109498946073900,11.843073974609375,1.4568051099777222,-0.47028064727783203,-0.9758940935134888
1684109498956115500,11.853115478515624,1.6128253936767578,-0.6766090393066406,-0.9597420692443848
1684109498966157000,11.863156982421875,1.4691842794418335,-0.4248390197753906,-0.6479288339614868
1684109498976198400,11.873198486328125,1.3676245212554932,-0.36880970001220703,-1.0212717056274414
1684109498986240000,11.883239990234374,1.2950361967086792,-0.2391366958618164,-1.3725342750549316
1684109498996281600,11.893281494140625,1.0583034753799438,0.4969520568847656,-0.8639377355575562
1684109499006323200,11.9033232421875,0.8407565951347351,1.064478874206543,-0.5174589157104492
1684109499016364500,11.913364501953126,0.8493512868881226,1.3863391876220703,-1.0155354738235474
1684109499026406100,11.92340625,0.8790510892868042,1.4362478256225586,-1.5029919147491455
1684109499036447700,11.93344775390625,1.0069911479949951,0.6899185180664062,-1.9236310720443726
1684109499046489300,11.9434892578125,1.1671037673950195,-0.10711479187011719,-2.2127270698547363
1684109499056530700,11.95353076171875,1.2893095016479492,-0.5075778961181641,-2.26318097114563
1684109499066572300,11.963572265625,1.2319289445877075,0.24507808685302734,-1.703202247619629
1684109499076614000,11.97361376953125,1.2284862995147705,0.7328310012817383,-1.2637580633163452
1684109499086655500,11.983655517578125,1.255408763885498,1.1214275360107422,-0.9330883026123047
1684109499096696800,11.99369677734375,1.2796202898025513,1.3316764831542969,-0.989991307258606
1684109499106738400,12.003738525390625,1.2409238815307617,1.2464008331298828,-1.1571505069732666
1684109499116780000,12.013780029296875,1.176584243774414,1.1358718872070312,-1.133256435394287
1684109499126821600,12.023821533203124,1.155319333076477,0.9571685791015625,-1.070857048034668
1684109499136863000,12.033863037109375,1.0417661666870117,0.7200803756713867,-1.072939157485962
1684109499146904600,12.043904541015625,0.8207415342330933,0.43190670013427734,-1.0199365615844727
1684109499156946200,12.0539462890625,0.4265894889831543,0.2835664749145508,-0.7967106103897095
1684109499166987800,12.06398779296875,-0.09674012660980225,0.3242940902709961,-0.4758310914039612
1684109499177029000,12.074029052734375,-0.646507740020752,0.4764089584350586,-0.09761321544647217
1684109499187070700,12.08407080078125,-1.037343978881836,0.5263938903808594,0.0904393196105957
1684109499197112300,12.0941123046875,-0.9949623346328735,0.3764495849609375,-0.1032591462135315
1684109499207154000,12.10415380859375,-0.7162216901779175,0.10610294342041016,-0.40400171279907227
1684109499217195300,12.1141953125,-0.4628427028656006,-0.1219167709350586,-0.5412249565124512
1684109499227236900,12.12423681640625,-0.33019447326660156,-0.35777854919433594,-0.41146761178970337
1684109499237278500,12.134278564453124,-0.2907602787017822,-0.47714996337890625,0.032831043004989624
1684109499247319800,12.14431982421875,-0.17000889778137207,-0.5184192657470703,0.010408669710159302
1684109499257361400,12.154361328125,-0.02191901206970215,-0.911341667175293,-0.4633483588695526
1684109499267403000,12.164403076171874,-0.07894253730773926,-0.713557243347168,-0.362783282995224
1684109499277444600,12.174444580078125,-0.1354994773864746,-0.05486011505126953,-0.3655322790145874
1684109499287486000,12.18448583984375,-0.30019569396972656,0.45024967193603516,-0.3767223656177521
1684109499297527600,12.194527587890626,-0.33861684799194336,0.876276969909668,-0.4739531874656677
1684109499307569200,12.204569091796875,-0.2581360340118408,1.2521562576293945,-0.49661967158317566
1684109499317610800,12.21461083984375,-0.12906408309936523,1.104818344116211,-0.736291766166687
1684109499327652000,12.224652099609376,0.051079750061035156,0.7024211883544922,-0.9002716541290283
1684109499337693700,12.234693603515625,0.2509666681289673,0.37223148345947266,-0.9760527610778809
1684109499347735300,12.2447353515625,0.40764546394348145,0.1064920425415039,-1.0135149955749512
1684109499357777000,12.25477685546875,0.5406157970428467,0.12703609466552734,-0.8984853625297546
1684109499367818200,12.264818359375,0.653914213180542,0.3497734069824219,-0.7649375200271606
1684109499377859800,12.27485986328125,0.6269123554229736,0.6479854583740234,-0.586882472038269
1684109499387901400,12.2849013671875,0.5974375009536743,0.828338623046875,-0.5093140602111816
1684109499397943000,12.294943115234375,0.5002076625823975,0.819706916809082,-0.5540963411331177
1684109499407984400,12.304984375,0.3926960229873657,0.878117561340332,-0.48009762167930603
1684109499418026000,12.31502587890625,0.2713644504547119,0.833460807800293,-0.5149253606796265
1684109499428067600,12.325067626953125,0.06680846214294434,0.6645269393920898,-0.4671473503112793
1684109499438109200,12.335109130859376,-0.10150432586669922,0.49822425842285156,-0.4756266474723816
1684109499448150800,12.34515087890625,-0.25479865074157715,0.057342529296875,-0.5866959095001221
1684109499458192100,12.355192138671875,-0.33808326721191406,-0.11776351928710938,-0.590107262134552
1684109499468233700,12.365233642578126,-0.3662846088409424,-0.1565570831298828,-0.44430088996887207
1684109499478275300,12.375275390625,-0.37571191787719727,-0.07348346710205078,-0.30680686235427856
1684109499488316700,12.385316650390624,-0.29057812690734863,-0.076324462890625,-0.2412896752357483
1684109499498358300,12.395358154296876,-0.1953902244567871,0.02163982391357422,-0.29802727699279785
1684109499508399900,12.40539990234375,-0.12603306770324707,0.4733600616455078,-0.2142655849456787
1684109499518441500,12.41544140625,-0.2545914649963379,0.7566938400268555,-0.3614935278892517
1684109499528482800,12.42548291015625,-0.3033919334411621,0.7876720428466797,-0.572507381439209
1684109499538524400,12.4355244140625,-0.27895355224609375,0.7074689865112305,-0.7432581782341003
1684109499548566000,12.44556591796875,-0.2624776363372803,0.4037961959838867,-0.9980418682098389
1684109499558607600,12.455607666015625,-0.25206661224365234,0.2854166030883789,-1.0145763158798218
1684109499568649200,12.465649169921875,-0.2657322883605957,0.3042640686035156,-0.8906948566436768
1684109499578690600,12.475690673828124,-0.24258828163146973,0.49857425689697266,-0.6232755184173584
1684109499588732200,12.485732177734375,-0.201096773147583,0.665679931640625,-0.4118232727050781
1684109499598773800,12.495773681640625,-0.11905288696289062,0.7587146759033203,-0.2928011417388916
1684109499608815400,12.5058154296875,-0.06509757041931152,0.8049869537353516,-0.28050267696380615
