time,seconds_elapsed,z,y,x
1684115199063243800,0.046243896484375,0,0,0
1684115199073284600,0.05628466796875,-0.12555217742919922,-0.01981377601623535,0.054296016693115234
1684115199083325400,0.066325439453125,-0.25997066497802734,0.6365339756011963,-0.615053653717041
1684115199093366300,0.0763662109375,-0.6959781646728516,-1.328000545501709,0.8171296119689941
1684115199103407000,0.086406982421875,-0.3328843116760254,0.27095627784729004,-1.1183924674987793
1684115199113448000,0.096447998046875,-0.5627379417419434,-1.0522048473358154,0.013475418090820312
1684115199123489000,0.106489013671875,-0.4460773468017578,-0.7393214702606201,-0.3641395568847656
1684115199133529900,0.11652978515625,-0.2461409568786621,0.05266427993774414,-0.9245994091033936
1684115199143570700,0.12657080078125,-0.13095712661743164,-0.8616862297058105,0.048082828521728516
1684115199153611500,0.136611572265625,0.47762298583984375,-0.027543306350708008,-0.22303390502929688
1684115199163652400,0.14665234375,0.7655377388000488,0.1444988250732422,-0.1648545265197754
1684115199173693200,0.156693115234375,0.8124995231628418,0.27034997940063477,-0.09305715560913086
1684115199183734000,0.166734130859375,0.6683039665222168,-0.2765674591064453,0.5766720771789551
1684115199193774800,0.17677490234375,0.5212373733520508,0.4821925163269043,-0.4141206741333008
1684115199203815700,0.186815673828125,-0.18219327926635742,0.07198596000671387,-0.2506837844848633
1684115199213856800,0.196856689453125,-0.7124218940734863,-0.5303685665130615,-0.7965145111083984
1684115199223897600,0.206897705078125,-1.4638257026672363,-1.6041984558105469,-0.7835202217102051
1684115199233938400,0.2169384765625,0.3575739860534668,-1.0765135288238525,-1.54815673828125
1684115199243979300,0.226979248046875,0.37671804428100586,-0.7885746955871582,-0.4850764274597168
1684115199254020000,0.23702001953125,0.0026617050170898438,-0.5036296844482422,0.11072540283203125
1684115199264061000,0.24706103515625,0.23128509521484375,-0.07848739624023438,0.28415679931640625
1684115199274101800,0.257101806640625,-0.3320784568786621,0.23111295700073242,-0.022413253784179688
1684115199284142600,0.267142578125,0.061125755310058594,0.19126248359680176,-0.14123010635375977
1684115199294183700,0.27718359375,0.4221501350402832,0.23065471649169922,-0.3049798011779785
1684115199304224500,0.287224609375,0.7675971984863281,0.6510388851165771,-0.6966762542724609
1684115199314265300,0.297265380859375,-0.3477048873901367,-0.8584706783294678,-0.7937541007995605
1684115199324306200,0.30730615234375,0.02653646469116211,-0.24968934059143066,-1.3517255783081055
1684115199334347000,0.317346923828125,0.3433690071105957,0.03188276290893555,-1.5063786506652832
1684115199344387800,0.327387939453125,0.3946390151977539,-0.3406076431274414,-1.5132017135620117
1684115199354428700,0.3374287109375,0.43450212478637695,-0.4667222499847412,-1.474419116973877
1684115199364469500,0.347469482421875,0.8445596694946289,0.14435672760009766,-1.3967070579528809
1684115199374510600,0.357510498046875,1.1570796966552734,0.28963351249694824,-0.7584929466247559
1684115199384551400,0.367551513671875,1.1902356147766113,0.4666893482208252,-0.3360724449157715
1684115199394592300,0.37759228515625,1.0413808822631836,0.48304152488708496,-0.07175397872924805
1684115199404633000,0.387633056640625,0.7363057136535645,0.539165735244751,-0.07378292083740234
1684115199414674000,0.397673828125,0.7607488632202148,0.787804365158081,-0.3984074592590332
1684115199424714800,0.40771484375,0.2150440216064453,0.5077698230743408,0.03239297866821289
1684115199434755800,0.417755859375,-0.6062560081481934,0.1756582260131836,-0.10409116744995117
1684115199444796700,0.427796630859375,-0.2991943359375,0.13286662101745605,-0.7591385841369629
1684115199454837500,0.43783740234375,0.03197288513183594,-0.21176552772521973,-1.0272026062011719
1684115199464878300,0.44787841796875,0.44432878494262695,-0.4531576633453369,-1.1197481155395508
1684115199474919200,0.457919189453125,0.8186044692993164,-0.3987162113189697,-1.2628769874572754
1684115199484960000,0.4679599609375,0.6020264625549316,-0.17236709594726562,-1.5876154899597168
1684115199495000800,0.478000732421875,0.5184545516967773,-0.32328152656555176,-1.8146038055419922
1684115199505041700,0.488041748046875,0.9033722877502441,-0.3836822509765625,-1.470613956451416
1684115199515082800,0.498082763671875,1.1936936378479004,-0.25391411781311035,-0.6495218276977539
1684115199525123600,0.50812353515625,1.199507236480713,0.27538347244262695,-0.41179704666137695
1684115199535164400,0.518164306640625,1.0135836601257324,-0.016504287719726562,0.09384346008300781
1684115199545205200,0.528205322265625,0.7124214172363281,-0.10765266418457031,0.6728091239929199
1684115199555246000,0.53824609375,0.3028545379638672,-0.056284427642822266,1.5914878845214844
1684115199565287000,0.548286865234375,0.22553014755249023,-0.04187726974487305,2.128920078277588
1684115199575327700,0.55832763671875,0.39896249771118164,-0.1848735809326172,2.0001988410949707
1684115199585368800,0.568368896484375,0.8674921989440918,-0.4922642707824707,1.7493534088134766
1684115199595409700,0.57840966796875,1.150968074798584,-0.7836995124816895,1.3281259536743164
1684115199605450500,0.588450439453125,1.085008144378662,-0.9626941680908203,0.6446561813354492
1684115199615491300,0.5984912109375,0.8591008186340332,-1.0366625785827637,0.15179157257080078
1684115199625532200,0.6085322265625,0.24173641204833984,-0.7691292762756348,-0.6590480804443359
1684115199635573000,0.618572998046875,0.051366329193115234,-0.748197078704834,-1.0213570594787598
1684115199645614000,0.628614013671875,0.1153416633605957,-0.689173698425293,-1.2671575546264648
1684115199655655000,0.638655029296875,0.3868556022644043,-0.49082136154174805,-1.5325217247009277
1684115199665695700,0.64869580078125,0.4572172164916992,-0.039467811584472656,-1.7172174453735352
1684115199675736600,0.658736572265625,0.9786844253540039,-0.21341943740844727,-1.6376419067382812
1684115199685777400,0.66877734375,1.2216534614562988,-0.19156169891357422,-1.5607833862304688
1684115199695818200,0.678818359375,1.1858844757080078,-0.1486501693725586,-1.5217747688293457
1684115199705859000,0.688859130859375,0.5792241096496582,-0.22312116622924805,-3.3997995853424072
1684115199715900200,0.698900146484375,-0.7398319244384766,-0.9787960052490234,-3.9924967288970947
1684115199725941000,0.70894091796875,1.5263757705688477,-0.6201848983764648,-0.7367792129516602
1684115199735981800,0.71898193359375,1.804028034210205,-0.44158267974853516,-0.30165529251098633
1684115199746022700,0.729022705078125,1.0313735008239746,-0.33163881301879883,0.26085901260375977
1684115199756063500,0.7390634765625,0.11123275756835938,-0.23348188400268555,0.07449674606323242
1684115199766104300,0.749104248046875,-0.5074625015258789,-0.4110283851623535,-0.2140822410583496
1684115199776145200,0.759145263671875,-0.14768409729003906,-0.7028136253356934,-0.20456790924072266
1684115199786186200,0.769186279296875,0.06970739364624023,-0.6636185646057129,-0.39007997512817383
1684115199796227000,0.77922705078125,0.26754283905029297,-0.7498064041137695,-0.07371997833251953
1684115199806268000,0.789267822265625,0.2938570976257324,-0.5906229019165039,-0.011166572570800781
1684115199816308700,0.799308837890625,0.33373403549194336,-0.4838719367980957,0.18220138549804688
1684115199826349600,0.809349609375,0.17241764068603516,-0.23657989501953125,0.13742494583129883
1684115199836390400,0.819390380859375,0.15217161178588867,-0.05155515670776367,0.21072101593017578
1684115199846431200,0.82943115234375,0.335141658782959,0.03418779373168945,0.015703678131103516
1684115199856472300,0.839472412109375,0.5257220268249512,0.06590652465820312,-0.3023834228515625
1684115199866513200,0.84951318359375,0.7895674705505371,0.11263179779052734,-0.5941438674926758
1684115199876554000,0.859553955078125,0.8739895820617676,-0.05112934112548828,-0.7060737609863281
1684115199886594800,0.8695947265625,0.6271786689758301,0.11698627471923828,-1.01495361328125
1684115199896635600,0.8796357421875,0.30182838439941406,0.11464738845825195,-0.858055591583252
1684115199906676500,0.889676513671875,0.003272533416748047,0.2845768928527832,-0.890625
1684115199916717600,0.899717529296875,-0.007446765899658203,0.18794679641723633,-0.49355459213256836
1684115199926758400,0.90975830078125,0.020081043243408203,0.30260324478149414,-0.2099447250366211
1684115199936799200,0.91979931640625,0.16909027099609375,0.2761225700378418,0.10150718688964844
1684115199946840000,0.929840087890625,0.2679109573364258,0.3117809295654297,0.2545137405395508
1684115199956881000,0.939880859375,0.3528175354003906,0.37714576721191406,0.5104470252990723
1684115199966921700,0.949921630859375,0.37817955017089844,0.4517803192138672,0.6459836959838867
1684115199976962600,0.959962646484375,0.21174383163452148,0.5581398010253906,0.6120595932006836
1684115199987003600,0.970003662109375,-0.016754150390625,0.4550504684448242,0.8219671249389648
1684115199997044500,0.98004443359375,-0.3458676338195801,0.5457644462585449,0.6386470794677734
1684115200007085300,0.990085205078125,-0.44469499588012695,0.44992685317993164,0.5158419609069824
1684115200017126100,1.000126220703125,-0.2547640800476074,0.3075103759765625,0.35282468795776367
1684115200027167000,1.0101669921875,-0.2373661994934082,0.3201026916503906,0.061948299407958984
1684115200037207800,1.020207763671875,0.10916852951049805,0.3242607116699219,-0.053273677825927734
1684115200047248600,1.03024853515625,0.42656707763671875,0.36746788024902344,-0.11430120468139648
1684115200057289700,1.040289794921875,0.7015066146850586,0.41634511947631836,0.042935848236083984
1684115200067330600,1.05033056640625,0.7855920791625977,0.5028820037841797,0.34314823150634766
1684115200077371400,1.060371337890625,0.3869948387145996,0.09258794784545898,0.5004892349243164
1684115200087412200,1.070412109375,0.11330413818359375,0.45476245880126953,0.1125335693359375
1684115200097453000,1.080453125,0.5743069648742676,0.09522771835327148,0.4007072448730469
1684115200107494000,1.090493896484375,0.9233036041259766,0.0025663375854492188,0.5750904083251953
1684115200117535000,1.100534912109375,0.8710212707519531,-0.01999044418334961,0.24489831924438477
1684115200127575800,1.110575927734375,0.6380062103271484,-0.41824769973754883,0.3977994918823242
1684115200137616600,1.12061669921875,0.4443545341491699,-0.39963674545288086,0.33710575103759766
1684115200147657500,1.130657470703125,0.07967376708984375,-0.19713497161865234,0.14109277725219727
1684115200157698300,1.1406982421875,-0.35539960861206055,-0.13175344467163086,0.10434675216674805
1684115200167739100,1.1507392578125,-0.7462577819824219,0.04836559295654297,0.013447284698486328
1684115200177780200,1.1607802734375,-0.9612088203430176,0.11376667022705078,-0.23335790634155273
1684115200187821000,1.170821044921875,-0.7571172714233398,0.0518956184387207,-0.10520219802856445
1684115200197862000,1.18086181640625,-0.1156468391418457,0.019521236419677734,0.1538867950439453
1684115200207902700,1.19090283203125,0.9048275947570801,0.029008865356445312,0.41366100311279297
1684115200217943600,1.200943603515625,1.8016657829284668,-0.05493497848510742,0.6588382720947266
1684115200227984400,1.210984375,2.358149528503418,-0.01169443130493164,0.7028751373291016
1684115200238025500,1.221025390625,2.449599266052246,0.1678304672241211,0.6754579544067383
1684115200248066300,1.23106640625,2.395214080810547,0.7556204795837402,0.40034961700439453
1684115200258107100,1.241107177734375,0.8209924697875977,-0.07247781753540039,0.7178101539611816
1684115200268148000,1.25114794921875,-0.03476142883300781,-0.2544736862182617,0.9100394248962402
1684115200278188800,1.261188720703125,-0.13180875778198242,0.21186542510986328,0.8368353843688965
1684115200288229600,1.271229736328125,-0.19006776809692383,0.21058130264282227,0.7637100219726562
1684115200298270500,1.2812705078125,-0.009337425231933594,-0.00441741943359375,0.46615123748779297
1684115200308311600,1.2913115234375,0.13076114654541016,-0.22591257095336914,0.3362150192260742
1684115200318352400,1.301352294921875,0.1812434196472168,-0.30767822265625,0.3198232650756836
1684115200328393200,1.311393310546875,0.20789337158203125,-0.4854111671447754,0.36194419860839844
1684115200338434000,1.32143408203125,0.23910236358642578,-0.12425899505615234,0.05372762680053711
1684115200348475000,1.331474853515625,0.13150978088378906,0.052594661712646484,-0.18940210342407227
1684115200358515700,1.341515625,0.1021261215209961,0.14852619171142578,-0.3104114532470703
1684115200368556800,1.351556884765625,0.04616594314575195,0.1062312126159668,-0.2470250129699707
1684115200378597600,1.36159765625,0.0687408447265625,0.009464740753173828,-0.2273421287536621
1684115200388638500,1.371638427734375,0.14678382873535156,0.006604671478271484,-0.2636909484863281
1684115200398679300,1.38167919921875,0.17666053771972656,0.076080322265625,-0.24257373809814453
1684115200408720100,1.39172021484375,0.19893217086791992,0.2905707359313965,-0.33122777938842773
1684115200418761200,1.40176123046875,0.11040401458740234,0.29581260681152344,-0.36260509490966797
1684115200428802000,1.411802001953125,0.2747201919555664,0.05098390579223633,-0.21546363830566406
1684115200438843000,1.4218427734375,0.5784010887145996,0.07453298568725586,-0.2501096725463867
1684115200448883700,1.4318837890625,0.744471549987793,0.06116628646850586,-0.3587660789489746
1684115200458924500,1.441924560546875,1.0010104179382324,-0.0901498794555664,-0.3196840286254883
1684115200468965400,1.45196533203125,0.9383425712585449,-0.09801006317138672,-0.3285379409790039
1684115200479006500,1.46200634765625,0.6612610816955566,0.19371843338012695,-0.4338350296020508
1684115200489047300,1.47204736328125,0.6155514717102051,0.7508401870727539,-0.7249822616577148
1684115200499088100,1.482088134765625,0.3054506778717041,0.5371198654174805,-1.0578546524047852
1684115200509129000,1.49212890625,0.3435180187225342,0.23325872421264648,-0.9112124443054199
1684115200519169800,1.502169677734375,0.3997008800506592,-0.08857583999633789,-0.5346217155456543
1684115200529210600,1.512210693359375,0.47133564949035645,-0.30408382415771484,-0.584622859954834
1684115200539251700,1.522251708984375,0.4377779960632324,-0.3131289482116699,-0.4920473098754883
1684115200549292500,1.53229248046875,0.29973268508911133,-0.15023183822631836,-0.3386402130126953
1684115200559333400,1.54233349609375,0.04799795150756836,0.23346567153930664,-0.21976280212402344
1684115200569374200,1.552374267578125,-0.12529373168945312,0.3581352233886719,0.12343645095825195
1684115200579415000,1.5624150390625,-0.16934800148010254,0.2487626075744629,0.6825532913208008
1684115200589456000,1.572455810546875,-0.23034071922302246,0.18396377563476562,0.9371166229248047
1684115200599496700,1.58249658203125,-0.584298849105835,0.10327529907226562,0.8622612953186035
1684115200609537800,1.592537841796875,-0.9910863041877747,0.29962921142578125,0.6487679481506348
1684115200619578600,1.60257861328125,-1.4519398212432861,0.5787105560302734,0.3705453872680664
1684115200629619500,1.612619384765625,-1.7042832374572754,0.7780032157897949,0.06377410888671875
1684115200639660300,1.622660400390625,-1.7420275211334229,1.1859197616577148,-0.3298659324645996
1684115200649701000,1.632701171875,-0.9476451873779297,1.4380931854248047,-0.5082364082336426
1684115200659742000,1.642741943359375,-0.21518182754516602,1.1245779991149902,-0.2743110656738281
1684115200669783000,1.652782958984375,0.07162845134735107,0.5298418998718262,-0.0697469711303711
1684115200679824000,1.662823974609375,0.18757057189941406,-0.3789663314819336,0.34436702728271484
1684115200689864700,1.67286474609375,0.2646172046661377,-1.3299193382263184,0.5029335021972656
1684115200699905500,1.682905517578125,0.3852921724319458,-1.737642765045166,0.6968517303466797
1684115200709946400,1.6929462890625,0.49240171909332275,-1.553514003753662,0.671391487121582
1684115200719987500,1.702987548828125,0.36536192893981934,-0.8066363334655762,0.8211760520935059
1684115200730028300,1.7130283203125,-0.01964545249938965,0.12154245376586914,0.7050914764404297
1684115200740069000,1.723069091796875,-0.3127005100250244,0.5500078201293945,0.5938992500305176
1684115200750110000,1.73310986328125,-0.20561736822128296,0.6368474960327148,0.3781552314758301
1684115200760150800,1.74315087890625,0.016688168048858643,0.535362720489502,0.2475571632385254
1684115200770191600,1.753191650390625,0.1951429843902588,0.10886383056640625,0.4087710380554199
1684115200780232700,1.763232666015625,0.18407368659973145,-0.2871885299682617,0.47815990447998047
1684115200790273500,1.7732734375,0.256361186504364,-0.23389291763305664,0.44686365127563477
1684115200800314400,1.783314453125,0.29606640338897705,0.12325716018676758,0.19440412521362305
1684115200810355200,1.793355224609375,0.2483348846435547,0.5025014877319336,-0.012955665588378906
1684115200820396000,1.80339599609375,0.1529388427734375,0.3066434860229492,-0.10884904861450195
1684115200830436900,1.813436767578125,0.008161604404449463,0.07502555847167969,-0.07465934753417969
1684115200840478000,1.82347802734375,-0.04389512538909912,-0.2684335708618164,0.09114980697631836
1684115200850518800,1.833518798828125,0.028970062732696533,-0.2527775764465332,0.2846851348876953
1684115200860559600,1.8435595703125,0.191192626953125,-0.10580015182495117,0.6473660469055176
1684115200870600400,1.853600341796875,0.27076131105422974,-0.0012049674987792969,1.134225845336914
1684115200880641300,1.863641357421875,0.2087465524673462,0.10197257995605469,1.3329620361328125
1684115200890682000,1.87368212890625,0.14873749017715454,0.2757987976074219,1.1317009925842285
1684115200900723200,1.88372314453125,0.06530505418777466,0.5642948150634766,0.7456793785095215
1684115200910764000,1.893763916015625,-0.00015807151794433594,0.6065912246704102,0.6600842475891113
1684115200920804900,1.903804931640625,0.14122623205184937,0.5095276832580566,0.40941858291625977
1684115200930845700,1.913845703125,0.1533510982990265,2.235874652862549,0.05602312088012695
1684115200940886800,1.92388671875,0.005671977996826172,0.6129856109619141,-0.10213470458984375
1684115200950927600,1.933927734375,0.21089237928390503,-0.6195688247680664,-0.16161298751831055
1684115200960968400,1.943968505859375,0.5933172702789307,-1.094275951385498,-0.36742639541625977
1684115200971009300,1.95400927734375,0.7149835228919983,-1.1909055709838867,-0.7223949432373047
1684115200981050000,1.964050048828125,0.6587731242179871,-1.374119758605957,-0.48757505416870117
1684115200991091000,1.974091064453125,0.5702893733978271,-0.7976231575012207,-0.43032264709472656
1684115201001132000,1.984132080078125,0.1454760730266571,-0.6832180023193359,-0.417508602142334
1684115201011172900,1.9941728515625,-0.18273623287677765,-0.3766970634460449,-0.3500180244445801
1684115201021213700,2.004213623046875,-0.5418357849121094,0.3439040184020996,-1.4321422576904297
1684115201031254500,2.014254638671875,-0.4315313696861267,-0.9338812828063965,-0.24712657928466797
1684115201041295400,2.02429541015625,-0.08449779450893402,-0.17011404037475586,0.06821107864379883
1684115201051336200,2.034336181640625,-0.07010060548782349,0.7889347076416016,-0.2997875213623047
1684115201061377300,2.044377197265625,-0.1789570301771164,1.0530548095703125,-0.27891016006469727
1684115201071418000,2.054418212890625,-0.3269960880279541,1.4251389503479004,-0.10137414932250977
1684115201081459000,2.064458984375,-0.36068248748779297,1.7574338912963867,0.06287908554077148
1684115201091499800,2.074499755859375,-0.37330561876296997,1.7540044784545898,0.12496280670166016
1684115201101540600,2.08454052734375,-0.32740217447280884,0.6418752670288086,0.2620258331298828
1684115201111581700,2.094581787109375,-0.23116755485534668,-0.14474010467529297,0.07603645324707031
1684115201121622500,2.10462255859375,0.09610243886709213,-0.6826314926147461,-0.08991670608520508
1684115201131663400,2.114663330078125,0.33389028906822205,-0.577237606048584,-0.15274715423583984
1684115201141704200,2.1247041015625,0.5128660798072815,-0.7156462669372559,-0.022532939910888672
1684115201151745000,2.1347451171875,0.2770836055278778,-0.5524425506591797,0.07929611206054688
1684115201161785900,2.144785888671875,-0.07974845170974731,-0.09493589401245117,0.00897359848022461
1684115201171827000,2.154826904296875,-0.2999117970466614,-0.12030363082885742,0.2713785171508789
1684115201181867800,2.16486767578125,-0.4051331579685211,-0.07085037231445312,0.4099106788635254
1684115201191908600,2.17490869140625,-0.396239310503006,-0.2781100273132324,0.40827226638793945
1684115201201949400,2.184949462890625,-0.25090986490249634,-0.17052984237670898,0.22277545928955078
1684115201211990300,2.194990234375,-0.19308000802993774,-0.12476444244384766,0.01533365249633789
1684115201222031400,2.20503125,-0.2010505199432373,-0.5820989608764648,0.17844772338867188
1684115201232072200,2.215072265625,-0.2666219472885132,-0.8103036880493164,0.18209409713745117
1684115201242113000,2.225113037109375,-0.3424220681190491,-1.0188393592834473,0.2189311981201172
1684115201252153900,2.23515380859375,-0.06140637397766113,-1.7914724349975586,-0.09977149963378906
1684115201262194700,2.245194580078125,-0.2487870156764984,-1.4535331726074219,0.08452749252319336
1684115201272235800,2.25523583984375,-0.6671464443206787,-0.7690033912658691,0.4637794494628906
1684115201282276600,2.265276611328125,-0.9147643446922302,-0.49173974990844727,1.3453326225280762
1684115201292317400,2.2753173828125,-0.9076410531997681,-0.20002508163452148,1.449845790863037
1684115201302358300,2.285358154296875,-0.8123180270195007,-0.17778444290161133,0.9609570503234863
1684115201312399000,2.295399169921875,-0.7095991373062134,-0.6977581977844238,0.7981595993041992
1684115201322440000,2.30543994140625,-0.6090700030326843,-1.3219504356384277,0.14310789108276367
1684115201332481000,2.31548095703125,-0.426131010055542,-1.2434706687927246,-0.8887577056884766
1684115201342521900,2.32552197265625,-0.13732683658599854,-0.9938888549804688,-1.4051122665405273
1684115201352562700,2.335562744140625,1.4014091491699219,-0.7672076225280762,-1.078336238861084
1684115201362603500,2.345603515625,1.0540127754211426,0.3703465461730957,-1.0069193840026855
1684115201372644400,2.355644287109375,0.7705796360969543,1.1088409423828125,-1.0937247276306152
1684115201382685400,2.365685546875,0.14759725332260132,1.1497883796691895,-1.808396816253662
1684115201392726300,2.375726318359375,-0.21478873491287231,1.3738975524902344,-1.849740982055664
1684115201402767000,2.38576708984375,-0.49504554271698,1.4061284065246582,-1.3041410446166992
1684115201412808000,2.395807861328125,-0.605251133441925,1.2407317161560059,-0.6737961769104004
1684115201422848800,2.405848876953125,-0.5458428859710693,1.2930564880371094,-0.4036235809326172
1684115201432889900,2.415889892578125,-0.5482088327407837,0.9906477928161621,-0.21556425094604492
1684115201442930700,2.4259306640625,-0.5443090200424194,0.4732475280761719,-0.29222917556762695
1684115201452971500,2.435971435546875,-0.47202032804489136,0.08959674835205078,-0.34566354751586914
1684115201463012400,2.446012451171875,-0.6234725713729858,-0.45287370681762695,-0.6096277236938477
1684115201473053200,2.45605322265625,-0.7543928623199463,-0.9790067672729492,-0.7207832336425781
1684115201483094300,2.46609423828125,-0.6153863668441772,-1.031116008758545,-0.6877994537353516
1684115201493135000,2.476135009765625,-0.5312758684158325,-0.8478331565856934,-0.45029115676879883
1684115201503176000,2.486176025390625,-0.4727901220321655,-0.927182674407959,0.22365093231201172
1684115201513216800,2.496216796875,-0.6258900165557861,-1.1476750373840332,0.3832859992980957
1684115201523257600,2.506257568359375,-0.7992256879806519,-1.4079279899597168,0.2543492317199707
1684115201533298400,2.51629833984375,-0.8652466535568237,-1.7002105712890625,-0.14513921737670898
1684115201543339500,2.526339599609375,-0.7912178039550781,-1.987501621246338,-0.1720876693725586
1684115201553380400,2.53638037109375,-0.521193265914917,-1.849867343902588,-0.2012190818786621
1684115201563421200,2.546421142578125,-0.28046655654907227,-1.2132678031921387,-0.03843212127685547
1684115201573462000,2.5564619140625,-0.21309661865234375,-0.4129300117492676,-0.34223270416259766
1684115201583502800,2.5665029296875,-0.32839977741241455,-0.01875782012939453,-0.7121410369873047
1684115201593544000,2.5765439453125,-0.5184301137924194,-0.27982282638549805,-0.9698972702026367
1684115201603584800,2.586584716796875,-0.7464636564254761,-0.4075636863708496,-1.1770215034484863
1684115201613625600,2.59662548828125,-0.8086248636245728,-0.060797691345214844,-1.3917407989501953
1684115201623666400,2.60666650390625,-0.7722742557525635,0.1287240982055664,-1.2857365608215332
1684115201633707300,2.616707275390625,-0.7418396472930908,0.20812034606933594,-1.1485166549682617
1684115201643748400,2.626748291015625,-0.6958916187286377,0.09745216369628906,-0.9569091796875
1684115201653789200,2.6367890625,-0.5372142791748047,0.009733200073242188,-1.0770831108093262
1684115201663830000,2.646830078125,-0.39751410484313965,-0.10921669006347656,-1.1287622451782227
1684115201673870800,2.656870849609375,-0.1286633014678955,0.04346799850463867,-1.243091106414795
1684115201683911700,2.66691162109375,-0.00596308708190918,0.33034610748291016,-1.2703866958618164
1684115201693952800,2.676952880859375,0.12513065338134766,0.7274918556213379,-1.7209205627441406
1684115201703993600,2.68699365234375,0.09752488136291504,1.0893092155456543,-1.662520408630371
1684115201714034400,2.697034423828125,0.05852150917053223,1.4241905212402344,-1.604750156402588
1684115201724075300,2.7070751953125,0.236893892288208,1.5764970779418945,-1.8209197521209717
1684115201734116000,2.7171162109375,0.3862893581390381,1.5157370567321777,-2.1499602794647217
1684115201744157200,2.7271572265625,0.3715827465057373,1.4075555801391602,-2.588822364807129
1684115201754198000,2.737197998046875,0.22192025184631348,0.8935480117797852,-3.0281922817230225
1684115201764238800,2.74723876953125,-0.08332276344299316,0.430757999420166,-3.436802864074707
1684115201774279700,2.75727978515625,-0.33501195907592773,-0.12735891342163086,-3.543508529663086
1684115201784320500,2.767320556640625,-0.4934532642364502,-0.06813812255859375,-3.361302375793457
1684115201794361600,2.777361572265625,-0.4332549571990967,1.2228264808654785,-2.563969373703003
1684115201804402400,2.78740234375,-0.7725098133087158,1.425330638885498,-2.069498300552368
1684115201814443300,2.797443359375,-0.9240677356719971,-0.4100227355957031,-1.448838233947754
1684115201824484000,2.807484130859375,-0.9438304901123047,-3.0781078338623047,-0.7255134582519531
1684115201834525000,2.81752490234375,-0.39940547943115234,-4.508904457092285,0.36636805534362793
1684115201844565800,2.827565673828125,0.015523910522460938,-4.425248146057129,1.9685311317443848
1684115201854606800,2.83760693359375,0.47663378715515137,-2.8226375579833984,3.768895149230957
1684115201864647700,2.847647705078125,0.4840714931488037,-1.8856267929077148,4.817893981933594
1684115201874688500,2.8576884765625,0.029315710067749023,-1.6388130187988281,4.609903812408447
1684115201884729300,2.867729248046875,-0.40519237518310547,-1.6700592041015625,3.6254518032073975
1684115201894770400,2.8777705078125,-0.6185019016265869,-1.5250368118286133,2.145138740539551
1684115201904811300,2.887811279296875,-0.552337646484375,-1.0538206100463867,0.6551289558410645
1684115201914852000,2.89785205078125,-0.36132240295410156,-0.5634994506835938,-0.47751760482788086
1684115201924893000,2.907892822265625,-0.22576332092285156,-0.3310518264770508,-1.05423903465271
1684115201934933800,2.917933837890625,-0.3184936046600342,-0.35242652893066406,-1.3315954208374023
1684115201944974800,2.927974853515625,-0.4666907787322998,-0.39552783966064453,-1.3031184673309326
1684115201955015700,2.938015625,-0.4892406463623047,-0.36543846130371094,-1.166379690170288
1684115201965056500,2.948056396484375,-0.39367198944091797,-0.2587699890136719,-1.0023000240325928
1684115201975097300,2.958097412109375,-0.29964590072631836,-0.19163227081298828,-0.8689455986022949
1684115201985138200,2.96813818359375,-0.1742851734161377,-0.18813705444335938,-0.6441657543182373
1684115201995179300,2.97817919921875,-0.054410696029663086,-0.02855682373046875,-0.38687825202941895
1684115202005220000,2.98822021484375,0.06745290756225586,0.08371734619140625,-0.13049697875976562
1684115202015261000,2.998260986328125,0.15918803215026855,0.14933395385742188,0.013266801834106445
1684115202025301800,3.0083017578125,0.17952823638916016,0.2546730041503906,0.16194534301757812
1684115202035342600,3.018342529296875,0.15052199363708496,0.39454174041748047,0.32466888427734375
1684115202045383700,3.0283837890625,0.07116031646728516,0.40596961975097656,0.39109134674072266
1684115202055424500,3.038424560546875,-0.07080650329589844,0.3005361557006836,0.36105775833129883
1684115202065465300,3.04846533203125,-0.21404123306274414,0.2757692337036133,0.36739206314086914
1684115202075506200,3.058506103515625,-0.37976956367492676,0.6184415817260742,0.4799320697784424
1684115202085547000,3.068547119140625,-0.5826961994171143,0.2025470733642578,0.12054896354675293
1684115202095588000,3.078588134765625,-0.5756974220275879,0.2323465347290039,-0.18376517295837402
1684115202105629000,3.08862890625,-0.43326592445373535,0.41649341583251953,-0.2623631954193115
1684115202115669800,3.098669677734375,-0.41496944427490234,0.46866893768310547,-0.42119407653808594
1684115202125710600,3.108710693359375,-0.3965132236480713,0.406646728515625,-0.5297122001647949
1684115202135751700,3.118751708984375,-0.401796817779541,0.34407711029052734,-0.6234049797058105
1684115202145792500,3.12879248046875,-0.5132837295532227,0.3004922866821289,-0.5476481914520264
1684115202155833300,3.138833251953125,-0.6562747955322266,0.2947826385498047,-0.38170576095581055
1684115202165874200,3.148874267578125,-0.7674951553344727,0.2691621780395508,-0.24715423583984375
1684115202175915000,3.1589150390625,-0.8939471244812012,0.2183990478515625,-0.15366005897521973
1684115202185956000,3.1689560546875,-0.9143645763397217,0.19931507110595703,-0.08861374855041504
1684115202195997000,3.178996826171875,-0.8402590751647949,0.23751258850097656,-0.08621883392333984
1684115202206037800,3.189037841796875,-0.8139584064483643,0.2749166488647461,-0.09212231636047363
1684115202216078600,3.19907861328125,-0.7861273288726807,0.1483898162841797,-0.04543924331665039
1684115202226119400,3.209119384765625,-0.6625945568084717,0.11568641662597656,-0.025616884231567383
1684115202236160500,3.219160400390625,-0.5717730522155762,0.05055046081542969,-0.09019017219543457
1684115202246201300,3.229201416015625,-0.5279512405395508,-0.15796279907226562,-0.25975513458251953
1684115202256242200,3.2392421875,-0.5263686180114746,-0.2794628143310547,-0.46260833740234375
1684115202266283000,3.249282958984375,-0.4960031509399414,-0.2753000259399414,-0.704340934753418
1684115202276323800,3.25932373046875,-0.4941673278808594,-0.20987415313720703,-0.9381959438323975
1684115202286364700,3.26936474609375,-0.42301464080810547,-0.11157798767089844,-1.0507912635803223
1684115202296405800,3.27940576171875,-0.18369746208190918,-0.03684425354003906,-1.1098766326904297
1684115202306446600,3.289446533203125,0.059966325759887695,0.09134387969970703,-1.0620548725128174
1684115202316487400,3.2994873046875,0.4681708812713623,0.6025362014770508,-0.6762230396270752
1684115202326528300,3.3095283203125,0.71278977394104,1.431295394897461,-0.6541080474853516
1684115202336569000,3.319569091796875,0.34558629989624023,1.2705097198486328,-0.43476366996765137
1684115202346610200,3.329610107421875,0.1867055892944336,1.0253410339355469,-0.10436034202575684
1684115202356651000,3.339651123046875,-0.05565595626831055,0.6441020965576172,0.1626121997833252
1684115202366691800,3.34969189453125,-0.4618856906890869,0.09186649322509766,0.41623687744140625
1684115202376732700,3.359732666015625,-0.9992926120758057,-0.4893007278442383,0.6933591365814209
1684115202386773800,3.369773681640625,-1.5860862731933594,-0.9361906051635742,1.0586681365966797
1684115202396814600,3.379814697265625,-2.2090067863464355,-1.1171789169311523,1.4744393825531006
1684115202406855400,3.38985546875,-2.746206521987915,-1.034688949584961,1.757141351699829
1684115202416896300,3.399896240234375,-2.993223190307617,-0.8307933807373047,1.7573070526123047
1684115202426937000,3.40993701171875,-3.0902628898620605,-0.5101642608642578,1.4082465171813965
1684115202436978200,3.419978271484375,-2.64858341217041,-0.059925079345703125,0.7410080432891846
1684115202447019000,3.43001904296875,-1.6548643112182617,0.23699092864990234,0.117279052734375
1684115202457059800,3.440059814453125,-0.6145172119140625,0.38726329803466797,-0.30517578125
1684115202467100700,3.4501005859375,0.21350765228271484,0.4413728713989258,-0.7237193584442139
1684115202477141500,3.4601416015625,0.7439689636230469,0.19203853607177734,-1.112680435180664
1684115202487182600,3.4701826171875,0.9890314340591431,-0.4373159408569336,-1.3501383066177368
1684115202497223400,3.480223388671875,0.9805978536605835,-1.1231212615966797,-1.4864362478256226
1684115202507264300,3.49026416015625,0.884721040725708,-1.4497385025024414,-1.5620492696762085
1684115202517305000,3.50030517578125,0.7379918098449707,-1.5848407745361328,-1.7470471858978271
1684115202527346200,3.51034619140625,0.6428483724594116,-1.4208106994628906,-1.8642394542694092
1684115202537387000,3.520386962890625,0.6303967237472534,-1.132772445678711,-1.8629875183105469
1684115202547427800,3.530427734375,0.6852433681488037,-0.6821775436401367,-1.5139130353927612
1684115202557468700,3.54046875,0.6303209066390991,-0.2826709747314453,-0.9334120750427246
1684115202567509500,3.550509521484375,0.532705545425415,0.068359375,-0.34569811820983887
1684115202577550600,3.560550537109375,0.4540252685546875,0.2506065368652344,0.08229637145996094
1684115202587591400,3.57059130859375,0.4858521819114685,0.3427696228027344,0.32451558113098145
1684115202597632300,3.58063232421875,0.38394999504089355,0.620025634765625,0.49021005630493164
1684115202607673000,3.590673095703125,0.2815685272216797,0.8132867813110352,0.6115655899047852
1684115202617714200,3.600714111328125,0.17774033546447754,0.8355941772460938,0.7687110900878906
1684115202627755000,3.610755126953125,0.03501391410827637,0.7072334289550781,0.8264594078063965
1684115202637795800,3.6207958984375,-0.11630666255950928,0.5242891311645508,0.8647501468658447
1684115202647836700,3.630836669921875,-0.2791728973388672,0.28679943084716797,0.8632669448852539
1684115202657877500,3.64087744140625,-0.5097522139549255,0.13063621520996094,0.7869656085968018
1684115202667918600,3.650918701171875,-0.6482093930244446,0.048126220703125,0.5581061840057373
1684115202677959400,3.66095947265625,-0.5898329019546509,0.039155006408691406,0.2075488567352295
1684115202688000300,3.671000244140625,-0.3025969862937927,-0.03986549377441406,-0.09470844268798828
1684115202698041000,3.681041015625,0.0641358494758606,-0.2055044174194336,-0.3851029872894287
1684115202708082000,3.69108203125,0.4621497690677643,-0.16574859619140625,-0.729337215423584
1684115202718123000,3.701123046875,0.8707265257835388,0.07265853881835938,-1.0837100744247437
1684115202728163800,3.711163818359375,1.3052265644073486,0.33088016510009766,-1.2952574491500854
1684115202738204700,3.72120458984375,1.617502212524414,0.4990253448486328,-1.281435489654541
1684115202748245500,3.73124560546875,1.6930577754974365,0.5982246398925781,-1.168110966682434
1684115202758286300,3.741286376953125,1.6741949319839478,0.7377643585205078,-0.9240211248397827
1684115202768327400,3.751327392578125,1.5182106494903564,0.7809791564941406,-0.7623538970947266
1684115202778368300,3.7613681640625,1.264944076538086,0.6397991180419922,-0.6156872510910034
1684115202788409000,3.7714091796875,0.9789937138557434,0.4459524154663086,-0.3400675058364868
1684115202798450000,3.781449951171875,0.6860107183456421,0.18230438232421875,-0.00164794921875
1684115202808491000,3.791490966796875,0.4059006869792938,-0.0653533935546875,0.40100979804992676
1684115202818531800,3.80153173828125,0.23533500730991364,-0.3781747817993164,0.7751092910766602
1684115202828572700,3.81157275390625,0.20585499703884125,-0.662724494934082,0.9179365634918213
1684115202838613500,3.821613525390625,0.4618456959724426,-0.6827936172485352,1.0413320064544678
1684115202848654300,3.831654296875,0.7921280860900879,-0.34886741638183594,0.9463186264038086
1684115202858695400,3.8416953125,1.1085654497146606,-0.01778888702392578,0.670649528503418
1684115202868736300,3.851736328125,1.2747371196746826,0.08415603637695312,0.29371047019958496
1684115202878777000,3.861777099609375,1.3658217191696167,0.04690361022949219,-0.026821613311767578
1684115202888818000,3.87181787109375,1.332297921180725,-0.10705184936523438,-0.20696735382080078
1684115202898859000,3.88185888671875,1.2767584323883057,-0.23358154296875,-0.39267098903656006
1684115202908899800,3.89189990234375,1.328618049621582,-0.33945178985595703,-0.4720191955566406
1684115202918940700,3.901940673828125,1.4374103546142578,-0.3128547668457031,-0.3299902677536011
1684115202928981500,3.9119814453125,1.4885616302490234,-0.19519519805908203,-0.26537179946899414
1684115202939022300,3.922022216796875,1.5684536695480347,-0.11624526977539062,-0.17315471172332764
1684115202949063400,3.9320634765625,1.6264020204544067,0.04072380065917969,-0.18883931636810303
1684115202959104300,3.942104248046875,1.6261842250823975,0.11551475524902344,-0.24527955055236816
1684115202969145000,3.95214501953125,1.705267310142517,0.23707008361816406,-0.12122702598571777
1684115202979186000,3.96218603515625,1.6903764009475708,0.4579191207885742,-0.09832906723022461
1684115202989226800,3.972226806640625,1.5655169486999512,0.513214111328125,-0.15032005310058594
1684115202999267800,3.982267822265625,1.401828646659851,0.3513784408569336,-0.1528618335723877
1684115203009308700,3.99230859375,1.3142590522766113,0.5319852828979492,-0.09320235252380371
1684115203019349500,4.002349609375,1.172424554824829,0.4642610549926758,-0.07678914070129395
1684115203029390300,4.012390380859375,1.028252124786377,0.16820526123046875,0.17946934700012207
1684115203039431400,4.022431396484375,0.8618758916854858,-0.14526081085205078,0.3607029914855957
1684115203049472300,4.03247216796875,0.6716012954711914,-0.3115968704223633,0.5568675994873047
1684115203059513000,4.04251318359375,0.4098045229911804,-0.19563007354736328,0.7254388332366943
1684115203069554000,4.052553955078125,0.03965499997138977,0.046459197998046875,0.7922244071960449
1684115203079595000,4.062594970703125,-0.29123643040657043,0.24258995056152344,0.7732086181640625
1684115203089635800,4.0726357421875,-0.5185413956642151,0.2998971939086914,0.7788710594177246
1684115203099676700,4.0826767578125,-0.6629209518432617,0.2140817642211914,0.8252468109130859
1684115203109717500,4.092717529296875,-0.7805815935134888,0.14795303344726562,0.8822190761566162
1684115203119758300,4.10275830078125,-0.8522001504898071,0.13483428955078125,0.938657283782959
1684115203129799400,4.11279931640625,-0.9117231965065002,0.1290874481201172,0.9958329200744629
1684115203139840300,4.12284033203125,-0.8973574042320251,0.30706119537353516,1.0285098552703857
1684115203149881000,4.132881103515625,-0.7688227891921997,0.4601449966430664,1.009169340133667
1684115203159922000,4.142921875,-0.5075328350067139,0.5071163177490234,0.9900338649749756
1684115203169962800,4.152962646484375,-0.2676410377025604,0.40789222717285156,0.9049632549285889
1684115203180003800,4.16300390625,-0.024202346801757812,0.27542781829833984,0.8367054462432861
1684115203190044700,4.173044677734375,0.15927636623382568,0.20322418212890625,0.7965395450592041
1684115203200085500,4.18308544921875,0.33062317967414856,0.15790081024169922,0.7407405376434326
1684115203210126300,4.193126220703125,0.4876664876937866,0.07989311218261719,0.754479169845581
1684115203220167200,4.203167236328125,0.6090549826622009,0.09826469421386719,0.790482759475708
1684115203230208300,4.213208251953125,0.6851756572723389,0.12426185607910156,0.7912147045135498
1684115203240249000,4.2232490234375,0.7551015615463257,0.057464599609375,0.8210232257843018
1684115203250290000,4.2332900390625,0.8273005485534668,0.04369640350341797,0.8413581848144531
1684115203260331000,4.2433310546875,0.8362398147583008,0.04907989501953125,0.8389902114868164
1684115203270371800,4.253371826171875,0.875028133392334,0.14008617401123047,0.8290615081787109
1684115203280412700,4.26341259765625,0.8632217645645142,0.15394878387451172,0.8082664012908936
1684115203290453500,4.27345361328125,0.8385525941848755,0.03132057189941406,0.729283332824707
1684115203300494300,4.283494384765625,0.83607017993927,-0.09343433380126953,0.5694370269775391
1684115203310535400,4.293535400390625,0.8044461011886597,-0.17221355438232422,0.43294286727905273
1684115203320576300,4.303576171875,0.7776728868484497,-0.27395057678222656,0.2930567264556885
1684115203330617000,4.3136171875,0.733956515789032,-0.23114871978759766,0.15835809707641602
1684115203340658000,4.323657958984375,0.7109929323196411,-0.06080818176269531,0.010327339172363281
1684115203350698800,4.33369873046875,0.6554198861122131,0.14349842071533203,-0.06760478019714355
1684115203360739800,4.34373974609375,0.5841667056083679,0.23828792572021484,-0.12129640579223633
1684115203370780700,4.35378076171875,0.5053514838218689,0.28818607330322266,-0.13702178001403809
1684115203380821500,4.363821533203125,0.3940545916557312,0.29794788360595703,-0.13704979419708252
1684115203390862300,4.3738623046875,0.33254098892211914,0.27484703063964844,-0.1595691442489624
1684115203400903400,4.3839033203125,0.3074002265930176,0.2618856430053711,-0.13557970523834229
1684115203410944300,4.3939443359375,0.29769423604011536,0.1132955551147461,-0.1036536693572998
1684115203420985000,4.403985107421875,0.34205302596092224,-0.09175682067871094,-0.05634284019470215
1684115203431026000,4.41402587890625,0.3998335301876068,-0.2862539291381836,-0.0004075765609741211
1684115203441066800,4.424066650390625,0.46332505345344543,-0.35561561584472656,-0.028481125831604004
1684115203451107800,4.43410791015625,0.5151944160461426,-0.3409233093261719,0.045649170875549316
1684115203461148700,4.444148681640625,0.5568262338638306,-0.1926746368408203,0.15281879901885986
1684115203471189500,4.454189453125,0.5683808326721191,-0.021455764770507812,0.26196861267089844
1684115203481230300,4.464230224609375,0.6208938360214233,0.10312461853027344,0.3614480495452881
1684115203491271400,4.474271484375,0.6688103675842285,0.14542102813720703,0.320009708404541
1684115203501312300,4.484312255859375,0.699987530708313,0.06760311126708984,0.26579463481903076
1684115203511353000,4.49435302734375,0.7260334491729736,0.008663177490234375,0.21946680545806885
1684115203521394000,4.504393798828125,0.7249794602394104,-0.019382476806640625,0.15621435642242432
1684115203531435000,4.51443505859375,0.7035528421401978,-0.004597663879394531,0.0773921012878418
1684115203541475800,4.524475830078125,0.6707196831703186,0.03140544891357422,0.04596102237701416
1684115203551516700,4.5345166015625,0.5717447996139526,0.16733074188232422,0.019310355186462402
1684115203561557500,4.5445576171875,0.4649410843849182,0.19977855682373047,0.03939926624298096
1684115203571598300,4.554598388671875,0.3704327344894409,0.2100067138671875,0.08489787578582764
1684115203581639400,4.564639404296875,0.3158513009548187,0.24567508697509766,0.09803175926208496
1684115203591680300,4.57468017578125,0.31377989053726196,0.2756223678588867,0.06479933857917786
1684115203601721000,4.58472119140625,0.3742327094078064,0.22348594665527344,0.058267176151275635
1684115203611762000,4.594761962890625,0.4693031907081604,0.044241905212402344,-0.04686377942562103
1684115203621803000,4.604802978515625,0.587389349937439,-0.2569103240966797,-0.168892502784729
1684115203631843800,4.61484375,0.7182374000549316,-0.22832965850830078,-0.11118905246257782
1684115203641884700,4.624884765625,0.8533185720443726,0.13625621795654297,0.12228475511074066
1684115203651925500,4.634925537109375,1.0089194774627686,0.11723709106445312,0.24347034096717834
1684115203661966300,4.64496630859375,1.1488887071609497,-0.1482524871826172,0.22707372903823853
1684115203672007400,4.65500732421875,1.2867968082427979,-0.2966470718383789,0.19200603663921356
1684115203682048300,4.66504833984375,1.3880287408828735,-0.225616455078125,0.2749563157558441
1684115203692089000,4.675089111328125,1.4730135202407837,-0.06468009948730469,0.414397656917572
1684115203702130000,4.6851298828125,1.4695833921432495,0.10477352142333984,0.5421203970909119
1684115203712171000,4.6951708984375,1.4967437982559204,0.1417379379272461,0.4742257297039032
1684115203722211800,4.7052119140625,1.5003823041915894,0.1252450942993164,0.4516414999961853
1684115203732252700,4.715252685546875,1.4203853607177734,0.15804481506347656,0.4264652132987976
1684115203742293500,4.72529345703125,1.297956109046936,0.2136850357055664,0.3789680004119873
1684115203752334600,4.73533447265625,1.1197240352630615,0.2419281005859375,0.3153454065322876
1684115203762375400,4.74537548828125,0.8707572221755981,0.2811145782470703,0.27909690141677856
1684115203772416300,4.755416259765625,0.6483959555625916,0.21425342559814453,0.1400124430656433
1684115203782457000,4.76545703125,0.427822470664978,0.10371875762939453,0.04116702079772949
1684115203792498200,4.775498291015625,0.3153107464313507,-0.009767532348632812,-0.1276315450668335
1684115203802539000,4.7855390625,0.18529359996318817,-0.10926532745361328,-0.22482609748840332
1684115203812579800,4.795579833984375,0.12224119901657104,-0.2897663116455078,-0.2139754295349121
1684115203822620700,4.80562060546875,0.08938008546829224,-0.2783060073852539,-0.322287917137146
1684115203832661500,4.81566162109375,0.0707102119922638,-0.17253780364990234,-0.21134471893310547
1684115203842702600,4.82570263671875,0.08072948455810547,0.035419464111328125,-0.08419179916381836
1684115203852743400,4.835743408203125,0.09806367754936218,0.1858692169189453,0.007416963577270508
1684115203862784300,4.8457841796875,0.14909976720809937,0.24746990203857422,-0.022767186164855957
1684115203872825000,4.8558251953125,0.11594855785369873,0.29242801666259766,-0.3565787076950073
1684115203882866200,4.8658662109375,-0.03268656134605408,0.09264945983886719,-0.2692379951477051
1684115203892907000,4.875906982421875,-0.1699923276901245,-0.13161754608154297,0.06110429763793945
1684115203902947800,4.88594775390625,-0.2746509313583374,-0.26764678955078125,0.4274017810821533
1684115203912988700,4.89598876953125,-0.41683122515678406,-0.3200416564941406,0.7669107913970947
1684115203923029500,4.906029541015625,-0.6047008037567139,-0.3819093704223633,0.9990487098693848
1684115203933070600,4.916070556640625,-0.8703619241714478,-0.4269065856933594,1.1663392782211304
1684115203943111400,4.926111328125,-1.2332990169525146,-0.4503288269042969,1.2946574687957764
1684115203953152300,4.93615234375,-1.6672844886779785,-0.4259300231933594,1.4258737564086914
1684115203963193000,4.946193115234375,-2.112887144088745,-0.3633918762207031,1.446483850479126
1684115203973234200,4.956234130859375,-2.4989829063415527,-0.2510366439819336,1.4729511737823486
1684115203983275000,4.96627490234375,-2.6928329467773438,-0.2087116241455078,1.4761157035827637
1684115203993315800,4.97631591796875,-2.7400569915771484,-0.3202695846557617,1.4084773063659668
1684115204003356700,4.986356689453125,-2.551563024520874,-0.5191793441772461,1.255652666091919
1684115204013397800,4.996397705078125,-2.1026742458343506,-0.6459331512451172,1.121739387512207
1684115204023438600,5.0064384765625,-1.4851996898651123,-0.40484046936035156,1.0481107234954834
1684115204033479400,5.0164794921875,-0.8389356136322021,-0.14027690887451172,1.0238184928894043
1684115204043520300,5.026520263671875,-0.17139267921447754,-0.07124900817871094,0.9895024299621582
1684115204053561300,5.036561279296875,0.3989560604095459,-0.2967376708984375,0.830730140209198
1684115204063602200,5.046602294921875,0.8680391311645508,-0.786860466003418,0.4438056945800781
1684115204073643000,5.05664306640625,1.1928009986877441,-1.3567819595336914,-0.05785691738128662
1684115204083683800,5.066683837890625,1.487097978591919,-1.8749122619628906,-0.54502272605896
1684115204093724700,5.076724609375,1.750554084777832,-2.1622533798217773,-0.861249566078186
1684115204103765800,5.086765869140625,1.9761033058166504,-2.245302200317383,-0.9535466432571411
1684115204113806600,5.096806640625,2.0595219135284424,-2.052217483520508,-0.7957957983016968
1684115204123847400,5.106847412109375,2.137206792831421,-1.5564470291137695,-0.6060572862625122
1684115204133888300,5.11688818359375,2.2063069343566895,-0.6885271072387695,-0.5223788022994995
1684115204143929300,5.126929443359375,2.212324380874634,0.3211679458618164,-0.49339938163757324
1684115204153970200,5.13697021484375,2.210472822189331,1.1134872436523438,-0.1836310625076294
1684115204164011000,5.147010986328125,2.0860602855682373,0.8456430435180664,0.25528228282928467
1684115204174051800,5.1570517578125,2.0562002658843994,0.6831178665161133,0.6160447597503662
1684115204184093000,5.167093017578125,2.167372703552246,0.5776729583740234,0.7673763632774353
1684115204194133800,5.1771337890625,2.423206329345703,0.5393028259277344,1.004404902458191
1684115204204174600,5.187174560546875,2.6024625301361084,0.7215356826782227,1.2980542182922363
1684115204214215400,5.19721533203125,2.635129928588867,0.7823047637939453,1.1310703754425049
1684115204224256500,5.207256591796875,2.536114454269409,0.7040004730224609,0.7538665533065796
1684115204234297300,5.21729736328125,2.282719135284424,0.8846349716186523,0.42487847805023193
1684115204244338200,5.227338134765625,2.065711498260498,1.370549201965332,0.1707303524017334
1684115204254379000,5.23737890625,1.8384350538253784,1.6566014289855957,-0.06873583793640137
1684115204264419800,5.247419921875,1.563903570175171,1.681074619293213,-0.20809507369995117
1684115204274461000,5.2574609375,1.2472600936889648,1.4019088745117188,-0.30956804752349854
1684115204284501800,5.267501708984375,0.8162153959274292,0.9181900024414062,-0.36326420307159424
1684115204294542600,5.27754248046875,0.12812435626983643,0.3283729553222656,-0.43484997749328613
1684115204304583400,5.28758349609375,-1.0082337856292725,-0.17457962036132812,-0.42742496728897095
1684115204314624500,5.29762451171875,-2.3458993434906006,-0.7742033004760742,-0.5094385147094727
1684115204324665300,5.307665283203125,-3.364680528640747,-0.9948577880859375,-0.8955304622650146
1684115204334706200,5.3177060546875,-3.238384962081909,-0.9506053924560547,-1.4346222877502441
1684115204344747000,5.3277470703125,-2.2363617420196533,-0.7839927673339844,-1.7985589504241943
1684115204354788000,5.3377880859375,-1.14998459815979,-0.6006956100463867,-2.000880002975464
1684115204364829000,5.347828857421875,-0.2826559543609619,-0.43262386322021484,-2.0609827041625977
1684115204374869800,5.357869873046875,0.3483850955963135,-0.2549705505371094,-1.977174997329712
1684115204384910600,5.36791064453125,0.7900170087814331,-0.021798133850097656,-1.7540730237960815
1684115204394951700,5.37795166015625,1.0664098262786865,0.12139320373535156,-1.4397785663604736
1684115204404992500,5.387992431640625,1.2012523412704468,0.05047416687011719,-1.1110129356384277
1684115204415033300,5.398033447265625,1.294958233833313,0.11892414093017578,-0.8442091345787048
1684115204425074200,5.40807421875,1.3841278553009033,0.2186298370361328,-0.5872109532356262
1684115204435115300,5.418115234375,1.4751895666122437,0.25647735595703125,-0.3889339566230774
1684115204445156000,5.428156005859375,1.4544780254364014,0.41188621520996094,-0.20834076404571533
1684115204455197000,5.438197021484375,1.3671815395355225,0.3885221481323242,0.17024552822113037
1684115204465237800,5.44823779296875,1.2795671224594116,0.051120758056640625,0.6741734147071838
1684115204475278600,5.458278564453125,1.0746361017227173,0.0023956298828125,0.9885356426239014
1684115204485319700,5.468319580078125,0.749555230140686,-0.1381998062133789,1.3533575534820557
1684115204495360500,5.478360595703125,0.40636157989501953,-0.16577911376953125,1.6317790746688843
1684115204505401300,5.4884013671875,0.1516098976135254,-0.3060007095336914,1.849570393562317
1684115204515442200,5.498442138671875,0.023605823516845703,-0.4877185821533203,1.8171863555908203
1684115204525483300,5.508483154296875,0.015182018280029297,-0.7516717910766602,1.6874247789382935
1684115204535524000,5.518524169921875,0.11874270439147949,-0.7725076675415039,1.4064077138900757
1684115204545565000,5.52856494140625,0.2808351516723633,-0.6099882125854492,1.0203276872634888
1684115204555605800,5.538605712890625,0.3876093626022339,-0.26427555084228516,0.6502968072891235
1684115204565646800,5.548646728515625,0.47281932830810547,0.027713775634765625,0.32533806562423706
1684115204575687700,5.558687744140625,0.5947099924087524,0.2945671081542969,-0.00934058427810669
1684115204585728500,5.568728515625,0.7519497871398926,0.47640037536621094,-0.30402621626853943
1684115204595769300,5.578769287109375,0.8644101619720459,0.5803384780883789,-0.5332462191581726
1684115204605810400,5.588810546875,0.9683729410171509,0.6519031524658203,-0.8035132884979248
1684115204615851300,5.598851318359375,1.0555870532989502,0.5697021484375,-1.0850231647491455
1684115204625892000,5.60889208984375,1.1356418132781982,0.4254913330078125,-1.2755666971206665
1684115204635933000,5.618932861328125,1.1912174224853516,0.25125885009765625,-1.4732648134231567
1684115204645974000,5.62897412109375,1.2145544290542603,0.004897117614746094,-1.6107661724090576
1684115204656014800,5.639014892578125,1.091919183731079,-0.009770393371582031,-1.704756259918213
1684115204666055700,5.6490556640625,0.9143359661102295,0.3427591323852539,-1.5906531810760498
1684115204676096500,5.659096435546875,0.9324839115142822,0.6199312210083008,-1.3287138938903809
1684115204686137600,5.6691376953125,0.981143593788147,0.783778190612793,-1.195878505706787
1684115204696178400,5.679178466796875,1.0129989385604858,0.9251470565795898,-1.2249398231506348
1684115204706219300,5.68921923828125,1.029015302658081,0.9745168685913086,-1.2378101348876953
1684115204716260000,5.699260009765625,0.9749048948287964,0.9246959686279297,-1.2190275192260742
1684115204726301000,5.709301025390625,0.8942291736602783,0.8640909194946289,-1.170178771018982
1684115204736342000,5.719342041015625,0.7848585844039917,0.7830286026000977,-1.0549018383026123
1684115204746382800,5.7293828125,0.6780859231948853,0.690974235534668,-0.9233009219169617
1684115204756423700,5.739423583984375,0.5504374504089355,0.5185489654541016,-0.719030499458313
1684115204766464500,5.749464599609375,0.3846017122268677,0.35863685607910156,-0.5409560799598694
1684115204776505600,5.759505615234375,0.24291908740997314,0.28221988677978516,-0.3508862853050232
1684115204786546400,5.76954638671875,0.08234333992004395,0.1405477523803711,-0.1881433129310608
1684115204796587300,5.779587158203125,0.002703428268432617,0.09590435028076172,0.06504464149475098
1684115204806628400,5.78962841796875,-0.009825468063354492,0.04059123992919922,0.2445889413356781
1684115204816669200,5.799669189453125,0.0033998489379882812,0.15393352508544922,0.3460463583469391
1684115204826710000,5.8097099609375,-0.014441132545471191,0.25921058654785156,0.4007638692855835
1684115204836750800,5.819750732421875,-0.05784344673156738,0.25179290771484375,0.403342068195343
1684115204846791700,5.829791748046875,-0.10674214363098145,0.24448490142822266,0.3161436915397644
1684115204856832800,5.839832763671875,-0.150093674659729,0.27794647216796875,0.2626325190067291
1684115204866873600,5.84987353515625,-0.1717522144317627,0.27578067779541016,0.2493698000907898
1684115204876914400,5.85991455078125,-0.17453908920288086,0.2669029235839844,0.31523826718330383
1684115204886955300,5.869955322265625,-0.08676671981811523,0.12236690521240234,0.22794616222381592
1684115204896996400,5.879996337890625,0.11178255081176758,-0.48268604278564453,-0.1319119930267334
1684115204907037200,5.890037109375,0.5482704639434814,-1.5880279541015625,-0.6471201777458191
1684115204917078000,5.900078125,0.9345317482948303,-2.5068788528442383,-1.1431961059570312
1684115204927118800,5.910118896484375,0.948165774345398,-3.253384590148926,-1.6041321754455566
1684115204937160000,5.920159912109375,0.5985976457595825,-3.812936782836914,-2.075009346008301
1684115204947200800,5.93020068359375,0.018138408660888672,-3.892531394958496,-2.8187949657440186
1684115204957241600,5.94024169921875,-1.2248575687408447,-4.008380889892578,-3.700146436691284
1684115204967282400,5.950282470703125,-4.960690021514893,-4.100675582885742,-4.238016128540039
1684115204977323500,5.960323486328125,-8.101129531860352,-2.7837743759155273,-2.9735145568847656
1684115204987364400,5.9703642578125,-5.707758903503418,-0.5174751281738281,-1.9520028829574585
1684115204997405200,5.9804052734375,-2.9080207347869873,0.6060218811035156,-1.781264066696167
1684115205007446000,5.990446044921875,-0.5941162109375,0.9916648864746094,-1.2403721809387207
1684115205017486800,6.00048681640625,0.8541632890701294,1.357375144958496,-0.47194671630859375
1684115205027528000,6.01052783203125,1.7093021869659424,1.7244553565979004,-0.07383596897125244
1684115205037568800,6.02056884765625,2.2320504188537598,2.194849967956543,0.15304279327392578
1684115205047609600,6.030609619140625,2.494969129562378,2.5923233032226562,0.40831196308135986
1684115205057650700,6.040650634765625,2.5698065757751465,3.005308151245117,0.6677021980285645
1684115205067691500,6.05069140625,2.604241371154785,3.080317497253418,1.0423095226287842
1684115205077732400,6.060732421875,2.6279373168945312,2.6632080078125,1.4679311513900757
1684115205087773200,6.070773193359375,2.63853120803833,1.8645830154418945,1.6926778554916382
1684115205097814300,6.080814208984375,2.6211495399475098,0.8684806823730469,1.7183862924575806
1684115205107855000,6.090855224609375,2.630181074142456,0.1546955108642578,1.6484522819519043
1684115205117896000,6.10089599609375,2.6028029918670654,-0.40877437591552734,1.578796148300171
1684115205127936800,6.110936767578125,2.480602741241455,-1.0129461288452148,1.5294435024261475
1684115205137977600,6.1209775390625,2.293506145477295,-1.2808074951171875,1.2976378202438354
1684115205148018700,6.131018798828125,1.9964065551757812,-2.00113582611084,1.1585075855255127
1684115205158059500,6.1410595703125,1.628061294555664,-2.261819839477539,1.2714879512786865
1684115205168100400,6.151100341796875,1.157721996307373,-1.8978385925292969,1.2820076942443848
1684115205178141200,6.16114111328125,0.5938448905944824,-1.3962440490722656,0.7176851034164429
1684115205188182300,6.171182373046875,0.04597318172454834,-0.9601411819458008,0.0009725093841552734
1684115205198223000,6.18122314453125,-0.4859771132469177,-0.6813488006591797,-0.5379682779312134
1684115205208264000,6.191263916015625,-1.0031403303146362,-0.6146421432495117,-0.9629566669464111
1684115205218304800,6.2013046875,-1.3892265558242798,-0.6328229904174805,-1.2531665563583374
1684115205228345900,6.211345947265625,-1.4974892139434814,-0.7904567718505859,-1.4739519357681274
1684115205238386700,6.22138671875,-1.2453092336654663,-0.9009275436401367,-1.5034000873565674
1684115205248427500,6.231427490234375,-0.723441481590271,-0.6828022003173828,-1.3426064252853394
1684115205258468600,6.241468505859375,-0.08460423350334167,-0.017678260803222656,-1.2191435098648071
1684115205268509400,6.251509521484375,0.577095627784729,0.46785831451416016,-0.9030774831771851
1684115205278550300,6.26155029296875,1.0933575630187988,0.8727731704711914,-0.6137914657592773
1684115205288591000,6.271591064453125,1.4861047267913818,0.7681894302368164,-0.2827422618865967
1684115205298632200,6.281632080078125,1.7885746955871582,0.5782060623168945,-0.05846571922302246
1684115205308673000,6.291673095703125,2.0812952518463135,0.5608320236206055,0.16062891483306885
1684115205318713900,6.3017138671875,2.2844815254211426,-0.033351898193359375,0.7383691072463989
1684115205328754700,6.311754638671875,2.4066760540008545,-0.4762763977050781,0.9523229598999023
1684115205338795500,6.32179541015625,2.4444851875305176,-0.8736152648925781,1.0460302829742432
1684115205348836600,6.331836669921875,2.4959261417388916,-1.0826339721679688,1.1086426973342896
1684115205358877400,6.34187744140625,2.516468048095703,-0.9394302368164062,1.0955151319503784
1684115205368918300,6.351918212890625,2.4808740615844727,-0.7314643859863281,1.2222845554351807
1684115205378959000,6.361958984375,2.172722578048706,-0.4684114456176758,1.2391502857208252
1684115205389000200,6.372000244140625,1.4502962827682495,0.04503154754638672,0.9355234503746033
1684115205399041000,6.382041015625,0.24326828122138977,0.3400411605834961,0.5149712562561035
1684115205409081900,6.392081787109375,-1.1845765113830566,0.7608585357666016,-0.057192206382751465
1684115205419122700,6.402122802734375,-2.3357694149017334,1.0182685852050781,-0.5452265739440918
1684115205429163800,6.412163818359375,-2.530900001525879,1.0313119888305664,-0.8446472883224487
1684115205439204600,6.42220458984375,-1.8027033805847168,0.8053178787231445,-0.775200605392456
1684115205449245400,6.432245361328125,-0.5800443887710571,0.6514120101928711,-0.5574918985366821
1684115205459286500,6.44228662109375,0.6912655234336853,0.7868070602416992,-0.4906500577926636
1684115205469327400,6.452327392578125,1.6582754850387573,0.6808376312255859,-0.5746728181838989
1684115205479368200,6.4623681640625,1.8466174602508545,-0.12228012084960938,-0.9283914566040039
1684115205489409000,6.472408935546875,1.601494550704956,-0.4940176010131836,-0.9700819253921509
1684115205499449900,6.482449951171875,1.7340232133865356,-0.18137550354003906,-0.6577237844467163
1684115205509491000,6.492490966796875,1.7661046981811523,0.011875152587890625,-0.6052001714706421
1684115205519531800,6.50253173828125,1.2682373523712158,0.10202693939208984,-0.8151084184646606
1684115205529572600,6.512572509765625,0.6635571718215942,0.15281200408935547,-0.9563034772872925
1684115205539613400,6.522613525390625,0.16409540176391602,-0.0032472610473632812,-0.9192496538162231
1684115205549654500,6.532654541015625,-0.07484544813632965,-0.23657512664794922,-0.8007036447525024
1684115205559695400,6.5426953125,-0.04194530099630356,-0.5872125625610352,-0.756036639213562
1684115205569736200,6.552736083984375,0.0934240072965622,-1.1501789093017578,-0.9342832565307617
1684115205579777000,6.562777099609375,0.25659599900245667,-1.6573410034179688,-1.1468966007232666
1684115205589818000,6.572818115234375,0.34624481201171875,-2.0488977432250977,-1.32134211063385
1684115205599859000,6.58285888671875,0.2667284607887268,-2.186260223388672,-1.4819010496139526
1684115205609899800,6.592899658203125,0.16824129223823547,-2.0410919189453125,-1.6238688230514526
1684115205619940600,6.602940673828125,0.06243474408984184,-1.2629337310791016,-1.5713837146759033
1684115205629981700,6.612981689453125,0.14657537639141083,-0.2740945816040039,-1.6606661081314087
1684115205640022500,6.6230224609375,0.36559563875198364,0.5204858779907227,-1.7844066619873047
1684115205650063400,6.6330634765625,0.6207298636436462,0.5501956939697266,-1.744102954864502
1684115205660104200,6.643104248046875,0.5551699995994568,0.23296642303466797,-1.350853443145752
1684115205670145300,6.653145263671875,0.7045608758926392,0.08348464965820312,-1.0982838869094849
1684115205680186000,6.66318603515625,1.0347408056259155,-0.14476871490478516,-0.9921505451202393
1684115205690227000,6.67322705078125,1.3169560432434082,-0.16768264770507812,-0.8816295862197876
1684115205700268000,6.68326806640625,1.4986767768859863,-0.3225717544555664,-0.6991634368896484
1684115205710308900,6.693308837890625,1.5761780738830566,-0.32988929748535156,-0.4984794855117798
1684115205720349700,6.703349609375,1.6004563570022583,-0.20003509521484375,-0.21439969539642334
1684115205730390500,6.713390625,1.4591619968414307,0.2550487518310547,0.18483316898345947
1684115205740431600,6.723431640625,1.274410367012024,0.36844730377197266,0.6915780305862427
1684115205750472400,6.733472412109375,1.0738201141357422,0.23425674438476562,1.0529133081436157
1684115205760513300,6.74351318359375,1.0155704021453857,-0.04176044464111328,1.4567228555679321
1684115205770554000,6.75355419921875,0.8277901411056519,-0.6621036529541016,1.9157905578613281
1684115205780595200,6.76359521484375,0.39198949933052063,-1.4323673248291016,2.266451835632324
1684115205790636000,6.773635986328125,-0.16398483514785767,-2.1229467391967773,2.4969370365142822
1684115205800676900,6.7836767578125,-0.588089108467102,-2.2708139419555664,2.6627750396728516
1684115205810717700,6.7937177734375,-0.8662136197090149,-2.058690071105957,2.677651882171631
1684115205820758800,6.8037587890625,-0.8676511645317078,-1.7017450332641602,2.6630048751831055
1684115205830799600,6.813799560546875,-0.7067161798477173,-1.3668546676635742,2.568058967590332
1684115205840840400,6.82384033203125,-0.4941844642162323,-1.2493247985839844,2.469935894012451
1684115205850881300,6.83388134765625,-0.2985703945159912,-0.7921667098999023,2.4119813442230225
1684115205860922400,6.84392236328125,-0.1742934286594391,-0.5598468780517578,2.404158592224121
1684115205870963200,6.853963134765625,0.013491012156009674,-0.5542583465576172,2.3371148109436035
1684115205881004000,6.864004150390625,0.1339481770992279,-0.34547901153564453,2.3565616607666016
1684115205891044900,6.874044921875,0.28776872158050537,0.3236503601074219,2.5420775413513184
1684115205901086000,6.8840859375,0.5588362216949463,0.6521186828613281,2.665740728378296
1684115205911126800,6.894126708984375,0.6461564898490906,1.1302556991577148,2.754420042037964
1684115205921167600,6.904167724609375,0.7963756322860718,1.5259027481079102,2.818369150161743
1684115205931208400,6.91420849609375,0.893020510673523,2.0059499740600586,2.830848217010498
1684115205941249500,6.92424951171875,1.088587760925293,2.9185924530029297,2.8095333576202393
1684115205951290400,6.934290283203125,1.0888698101043701,3.9716334342956543,2.9493486881256104
1684115205961331200,6.944331298828125,1.1550289392471313,4.289722442626953,2.9152305126190186
1684115205971372000,6.9543720703125,1.06284761428833,4.494063854217529,2.619018793106079
1684115205981413000,6.9644130859375,1.0529452562332153,4.100226402282715,2.2022876739501953
1684115205991454000,6.974453857421875,1.0291540622711182,2.7847647666931152,1.7472188472747803
1684115206001494800,6.984494873046875,1.0238544940948486,1.4855279922485352,1.3469147682189941
1684115206011535600,6.99453564453125,0.9059895277023315,0.8611669540405273,1.217840552330017
1684115206021576700,7.00457666015625,0.6888673305511475,0.5449180603027344,1.2366812229156494
1684115206031617500,7.014617431640625,0.49464040994644165,0.30512142181396484,1.3385553359985352
1684115206041658400,7.024658447265625,0.3659251928329468,0.13262367248535156,1.4615598917007446
1684115206051699200,7.03469921875,0.2932305634021759,0.04676628112792969,1.3964039087295532
1684115206061740300,7.044740234375,0.1385270655155182,-0.05047607421875,1.1765596866607666
1684115206071781000,7.054781005859375,-0.11235843598842621,0.08836650848388672,0.9508633613586426
1684115206081822000,7.064822021484375,-0.22803738713264465,0.18710041046142578,0.7103283405303955
1684115206091862800,7.07486279296875,-0.45133504271507263,0.22884273529052734,0.5917558670043945
1684115206101904000,7.08490380859375,-0.4372604787349701,0.1089630126953125,0.4981656074523926
1684115206111944700,7.09494482421875,-0.5563080310821533,-0.07870960235595703,0.37829065322875977
1684115206121985500,7.104985595703125,-0.9005205035209656,-0.4606637954711914,0.03627181053161621
1684115206132026600,7.115026611328125,-1.1468952894210815,-0.8046150207519531,-0.14379143714904785
1684115206142067500,7.1250673828125,-1.4447190761566162,-0.9314489364624023,-0.26373934745788574
1684115206152108300,7.1351083984375,-1.4490312337875366,0.004161834716796875,0.09860014915466309
1684115206162149000,7.145149169921875,-1.160270094871521,-0.001499176025390625,0.059388160705566406
1684115206172190200,7.155190185546875,-0.86054527759552,0.11803722381591797,0.1123189926147461
1684115206182231000,7.16523095703125,-0.4626728296279907,-0.04308319091796875,-0.04886889457702637
1684115206192272000,7.17527197265625,-0.24893879890441895,-0.22813892364501953,-0.24210333824157715
1684115206202312700,7.185312744140625,-0.0953681468963623,-0.4834175109863281,-0.4179866313934326
1684115206212353800,7.195353759765625,0.21137887239456177,-0.45032215118408203,-0.1777029037475586
1684115206222394600,7.20539453125,0.6307523250579834,-0.515955924987793,-0.07396483421325684
1684115206232435500,7.215435546875,1.0152909755706787,-0.7054347991943359,-0.03049314022064209
1684115206242476300,7.225476318359375,1.1545953750610352,-0.8382253646850586,-0.015171289443969727
1684115206252517400,7.235517333984375,0.8820525407791138,-0.7013950347900391,-0.12709128856658936
1684115206262558200,7.24555810546875,0.041964173316955566,-0.7929954528808594,-0.45258426666259766
1684115206272599000,7.25559912109375,-0.8970142602920532,-0.899078369140625,-0.9186742305755615
1684115206282640000,7.265639892578125,-1.1722673177719116,-0.8771848678588867,-1.1884701251983643
1684115206292681000,7.275680908203125,-0.7140434980392456,-0.7464122772216797,-1.2853810787200928
1684115206302721800,7.2857216796875,0.057885169982910156,-0.5081758499145508,-1.209609031677246
1684115206312762600,7.2957626953125,0.7533154487609863,-0.33075714111328125,-1.1643574237823486
1684115206322803700,7.3058037109375,1.2098784446716309,-0.2532167434692383,-1.185092806816101
1684115206332844500,7.315844482421875,1.3831655979156494,-0.26006126403808594,-1.3330187797546387
1684115206342885400,7.325885498046875,1.3702806234359741,-0.2980937957763672,-1.4258602857589722
1684115206352926200,7.33592626953125,1.1719276905059814,-0.3574695587158203,-1.4951971769332886
1684115206362967300,7.34596728515625,0.9297969341278076,-0.4763813018798828,-1.5527725219726562
1684115206373008100,7.356008056640625,0.7336671352386475,-0.6097497940063477,-1.4998457431793213
1684115206383049000,7.366049072265625,0.6185276508331299,-0.7160654067993164,-1.5575833320617676
1684115206393089800,7.37608984375,0.5222252607345581,-0.8318243026733398,-1.2827959060668945
1684115206403131000,7.386130859375,0.44609951972961426,-0.6525449752807617,-0.5849326848983765
1684115206413171700,7.396171630859375,0.3688647747039795,-0.7824468612670898,-0.15120744705200195
1684115206423212500,7.406212646484375,0.33619916439056396,-0.7010793685913086,-0.009740114212036133
1684115206433253400,7.41625341796875,0.41323983669281006,-0.7322406768798828,0.10133206844329834
1684115206443294500,7.42629443359375,0.6366513967514038,-0.5082406997680664,0.11783897876739502
1684115206453335300,7.436335205078125,0.899213433265686,-0.1967010498046875,0.11944139003753662
1684115206463376100,7.446376220703125,1.0756163597106934,0.12871074676513672,0.1543205976486206
1684115206473417000,7.4564169921875,1.1079635620117188,0.4132080078125,0.11010241508483887
1684115206483458000,7.4664580078125,0.95402991771698,0.637415885925293,0.0888146162033081
1684115206493499000,7.476498779296875,0.7227766513824463,0.6793956756591797,0.1289536952972412
1684115206503539700,7.486539794921875,0.46070432662963867,0.6876564025878906,0.2195580005645752
1684115206513580500,7.49658056640625,0.2994997501373291,0.8030729293823242,0.2030404806137085
1684115206523621600,7.50662158203125,0.24823498725891113,0.7769145965576172,0.17117905616760254
1684115206533662500,7.516662353515625,0.2891359329223633,0.7507171630859375,0.11131131649017334
1684115206543703300,7.526703369140625,0.34488677978515625,0.6482572555541992,-0.012697458267211914
1684115206553744400,7.536744384765625,0.24389493465423584,0.4242887496948242,-0.07922470569610596
1684115206563785200,7.54678515625,0.08812475204467773,0.27221202850341797,-0.11466240882873535
1684115206573826000,7.556825927734375,-0.07139754295349121,0.04365348815917969,-0.11015200614929199
1684115206583867000,7.566866943359375,-0.15375328063964844,0.1352252960205078,-0.05853843688964844
1684115206593908000,7.576907958984375,-0.1751706600189209,0.042250633239746094,-0.16526126861572266
1684115206603948800,7.58694873046875,-0.11774444580078125,-0.020094871520996094,-0.3286229372024536
1684115206613989600,7.59698974609375,-0.08456993103027344,0.05554771423339844,-0.36609017848968506
1684115206624030500,7.607030517578125,-0.04936814308166504,-0.034130096435546875,-0.38754916191101074
1684115206634071600,7.617071533203125,-0.02081751823425293,-0.05001544952392578,-0.43204832077026367
1684115206644112400,7.6271123046875,-0.0185239315032959,-0.15039920806884766,-0.5138754844665527
1684115206654153200,7.6371533203125,0.07795214653015137,-0.27790260314941406,-0.48122215270996094
1684115206664194000,7.647194091796875,0.1642622947692871,-0.4638252258300781,-0.49904704093933105
1684115206674235100,7.657235107421875,0.14714431762695312,-0.6395149230957031,-0.45442938804626465
1684115206684276000,7.66727587890625,0.14815974235534668,-0.6579856872558594,-0.5517168045043945
1684115206694316800,7.67731689453125,0.11741328239440918,-0.7637166976928711,-0.4465208053588867
1684115206704357600,7.687357666015625,0.09415817260742188,-0.5958023071289062,-0.2570563554763794
1684115206714398700,7.697398681640625,0.1409165859222412,-0.30666351318359375,-0.25748705863952637
1684115206724439600,7.707439453125,0.18671298027038574,-0.17702674865722656,0.011775732040405273
1684115206734480400,7.71748046875,0.30557942390441895,-0.10609722137451172,0.014270424842834473
1684115206744521500,7.727521484375,0.5220949649810791,0.0701751708984375,-0.6574243307113647
1684115206754562300,7.737562255859375,1.1351995468139648,0.023721694946289062,-0.6456973552703857
1684115206764603100,7.74760302734375,1.4808883666992188,0.0999746322631836,0.200752854347229
1684115206774644000,7.75764404296875,1.2834947109222412,0.27094459533691406,0.4998003840446472
1684115206784685000,7.76768505859375,0.9475681781768799,0.6065673828125,0.6594705581665039
1684115206794726000,7.777725830078125,0.5638048648834229,0.9004554748535156,0.7974181771278381
1684115206804766700,7.7877666015625,0.15765619277954102,0.9338865280151367,1.1000910997390747
1684115206814807600,7.7978076171875,-0.08951139450073242,0.7670803070068359,1.2813243865966797
1684115206824848600,7.8078486328125,-0.14327311515808105,0.46642494201660156,1.254808783531189
1684115206834889500,7.817889404296875,0.024247407913208008,0.29351139068603516,1.636953592300415
1684115206844930300,7.827930419921875,0.16695857048034668,0.16326904296875,1.853919506072998
1684115206854971400,7.837971435546875,0.2963387966156006,0.145294189453125,1.4885050058364868
1684115206865012200,7.84801220703125,0.4123270511627197,0.11358833312988281,1.1734838485717773
1684115206875053000,7.858052978515625,0.5760712623596191,0.1716451644897461,0.1963004469871521
1684115206885094000,7.868093994140625,0.8022017478942871,0.32929515838623047,-0.2299814224243164
1684115206895135000,7.878135009765625,0.9345340728759766,0.18094539642333984,-0.04033517837524414
1684115206905175800,7.88817578125,1.063931941986084,0.4446086883544922,-0.4882246255874634
1684115206915216600,7.898216552734375,1.034857988357544,0.6823291778564453,-0.6963119506835938
1684115206925257500,7.908257568359375,0.6794202327728271,0.3995790481567383,-1.030180811882019
1684115206935298600,7.918298583984375,0.008643150329589844,0.059700965881347656,-1.0411851406097412
1684115206945339400,7.92833935546875,-0.5052056312561035,0.08969688415527344,-0.7679489850997925
1684115206955380200,7.938380126953125,-0.8483843803405762,-0.28329944610595703,-0.8042669296264648
1684115206965421300,7.94842138671875,-0.8736388683319092,-0.25119686126708984,-0.8036359548568726
1684115206975462100,7.958462158203125,-0.7837090492248535,0.14462757110595703,-0.6620082855224609
1684115206985503000,7.9685029296875,-0.7286796569824219,0.5642070770263672,-0.28711509704589844
1684115206995543800,7.978543701171875,-0.7051067352294922,0.3325920104980469,0.1945703625679016
1684115207005585000,7.9885849609375,-0.6524662971496582,0.028108596801757812,0.1164780855178833
1684115207015625700,7.998625732421875,-0.6341879367828369,-0.07477188110351562,-0.2671840190887451
1684115207025666600,8.00866650390625,-0.5378379821777344,-0.08415889739990234,-0.6539665460586548
1684115207035707400,8.018707275390625,-0.34154367446899414,0.16771507263183594,-0.9189289808273315
1684115207045748500,8.02874853515625,-0.12017822265625,0.6020126342773438,-1.1286072731018066
1684115207055789300,8.038789306640625,0.12918901443481445,1.0818204879760742,-0.9803918600082397
1684115207065830100,8.048830078125,0.3679013252258301,1.2875561714172363,-0.5267418622970581
1684115207075871000,8.05887109375,0.5997524261474609,1.3929762840270996,-0.2611039876937866
1684115207085912000,8.068912109375,0.7965734004974365,0.9871339797973633,-0.13673937320709229
1684115207095953000,8.078952880859376,0.5318350791931152,-0.1180124282836914,0.06480550765991211
1684115207105993700,8.08899365234375,-0.4491417407989502,-1.5519342422485352,0.43948328495025635
1684115207116034600,8.09903466796875,-1.4527761936187744,-2.8645315170288086,0.7083827257156372
1684115207126075600,8.10907568359375,-1.6755461692810059,-3.754150390625,0.9452425241470337
1684115207136116500,8.119116455078125,-0.9183354377746582,-4.480915069580078,1.3489794731140137
1684115207146157300,8.1291572265625,0.19061589241027832,-4.741865158081055,1.5692195892333984
1684115207156198400,8.139198486328125,1.1473456621170044,-3.918994903564453,1.8165236711502075
1684115207166239200,8.1492392578125,2.0006802082061768,-1.7880992889404297,2.127234935760498
1684115207176280000,8.159280029296875,2.838787794113159,-0.09466171264648438,2.056162118911743
1684115207186321200,8.169321044921874,3.13948392868042,0.9090175628662109,1.725812315940857
1684115207196362000,8.179362060546875,2.988767623901367,1.5060081481933594,1.331708550453186
1684115207206402800,8.18940283203125,2.537848472595215,1.8817873001098633,1.0945026874542236
1684115207216443600,8.199443603515626,1.5150747299194336,2.0774383544921875,0.7295384407043457
1684115207226484700,8.209484619140625,0.14613163471221924,2.178602695465088,-0.37407541275024414
1684115207236525600,8.219525634765626,-0.8939871788024902,1.9806275367736816,-1.5956006050109863
1684115207246566400,8.22956640625,-0.7872172594070435,1.6365485191345215,-2.3043975830078125
1684115207256607200,8.239607177734374,-0.3923358917236328,1.080392837524414,-2.451808452606201
1684115207266648300,8.2496484375,-0.0051593780517578125,0.6167755126953125,-2.2864773273468018
1684115207276689200,8.259689208984375,0.3810380697250366,0.2922182083129883,-2.121159553527832
1684115207286730000,8.26972998046875,0.7533948421478271,-0.014199256896972656,-1.895451545715332
1684115207296770800,8.279770751953125,1.0666037797927856,-0.2908029556274414,-1.5568020343780518
1684115207306812000,8.28981201171875,1.3711793422698975,-0.6492118835449219,-1.2135239839553833
1684115207316852700,8.299852783203125,1.577748417854309,-0.8332586288452148,-1.0837091207504272
1684115207326893600,8.3098935546875,1.5834325551986694,-0.7309675216674805,-0.975774884223938
1684115207336934700,8.3199345703125,1.410217523574829,-0.44307518005371094,-0.5873353481292725
1684115207346975500,8.3299755859375,1.3505775928497314,-0.034659385681152344,-0.15492331981658936
1684115207357016300,8.340016357421876,1.6040202379226685,-0.1815347671508789,0.08084499835968018
1684115207367057400,8.350057373046875,1.9905316829681396,-0.19834327697753906,0.010467886924743652
1684115207377098200,8.36009814453125,2.2934365272521973,0.12512874603271484,0.12372064590454102
1684115207387139000,8.37013916015625,2.3908283710479736,0.37482738494873047,0.2999230623245239
1684115207397180000,8.380179931640624,2.3495049476623535,0.42409515380859375,0.33557868003845215
1684115207407221000,8.390220947265625,2.2633578777313232,0.3637065887451172,0.29201364517211914
1684115207417261800,8.40026171875,2.180774211883545,0.2459564208984375,0.15699505805969238
1684115207427302700,8.410302734375,2.159682273864746,0.04918098449707031,0.05273318290710449
1684115207437343500,8.420343505859375,2.1580214500427246,-0.17148208618164062,0.0027350187301635742
1684115207447384600,8.430384521484376,2.1720480918884277,-0.37996768951416016,-0.060017943382263184
1684115207457425400,8.44042529296875,2.1445863246917725,-0.4972829818725586,0.0007188320159912109
1684115207467466200,8.45046630859375,2.0423953533172607,-0.5999412536621094,0.06558787822723389
1684115207477507000,8.460507080078125,1.7990870475769043,-0.5111732482910156,0.017895102500915527
1684115207487548200,8.470548095703125,1.4100563526153564,-0.3890657424926758,-0.11592519283294678
1684115207497589000,8.480589111328126,0.8715694546699524,-0.2197437286376953,-0.29920661449432373
1684115207507629800,8.4906298828125,0.35647502541542053,-0.04432868957519531,-0.33802473545074463
1684115207517671000,8.5006708984375,0.09064966440200806,0.08933734893798828,-0.3001861572265625
1684115207527711700,8.510711669921875,0.18384528160095215,0.11931324005126953,-0.22890043258666992
1684115207537752600,8.520752685546874,0.5561274886131287,0.15591144561767578,-0.07407772541046143
1684115207547793400,8.53079345703125,1.0232516527175903,0.14927196502685547,0.07556283473968506
1684115207557834500,8.54083447265625,1.4328563213348389,0.12362861633300781,0.16987788677215576
1684115207567875300,8.550875244140625,1.6510446071624756,0.08153629302978516,0.26885247230529785
1684115207577916200,8.560916259765625,1.6873587369918823,0.04923439025878906,0.3156038522720337
1684115207587957200,8.570957275390626,1.5701427459716797,-0.006920814514160156,0.3536369800567627
1684115207597998000,8.580998046875,1.3547040224075317,-0.10610103607177734,0.34708738327026367
1684115207608039000,8.591038818359374,1.084045648574829,-0.1909770965576172,0.28404760360717773
1684115207618079700,8.601079833984375,0.8382865190505981,-0.2281932830810547,0.31749629974365234
1684115207628120800,8.611120849609375,0.6795148849487305,-0.21310901641845703,0.32315194606781006
1684115207638161700,8.62116162109375,0.6256097555160522,-0.17919349670410156,0.3295377492904663
1684115207648202500,8.631202392578125,0.5555007457733154,-0.1693897247314453,0.4033846855163574
1684115207658243600,8.64124365234375,0.5091835856437683,-0.14294910430908203,0.4463057518005371
1684115207668284400,8.651284423828125,0.446128249168396,-0.17868328094482422,0.4796288013458252
1684115207678325200,8.6613251953125,0.3833661675453186,-0.1976165771484375,0.47937440872192383
1684115207688366000,8.671365966796875,0.3429048955440521,-0.16637039184570312,0.4264918565750122
1684115207698407200,8.6814072265625,0.32524749636650085,-0.1686553955078125,0.44042539596557617
1684115207708448000,8.691447998046876,0.34742534160614014,-0.21629810333251953,0.41810858249664307
1684115207718488800,8.70148876953125,0.39486759901046753,-0.1802377700805664,0.3477970361709595
1684115207728529700,8.71152978515625,0.42427337169647217,-0.16111373901367188,0.32345592975616455
1684115207738570800,8.72157080078125,0.4262349605560303,-0.1469554901123047,0.373695969581604
1684115207748611600,8.731611572265624,0.46298742294311523,-0.1114044189453125,0.4525367021560669
1684115207758652400,8.74165234375,0.4793942868709564,-0.12132549285888672,0.48801279067993164
1684115207768693500,8.751693603515625,0.532784104347229,-0.12649154663085938,0.5687817335128784
1684115207778734300,8.761734375,0.5536432266235352,-0.14839553833007812,0.6540980339050293
1684115207788775200,8.771775146484375,0.6061626672744751,-0.1415719985961914,0.7055618762969971
1684115207798816300,8.781816162109376,0.601396918296814,-0.1490468978881836,0.7996094226837158
1684115207808857000,8.791857177734375,0.6012208461761475,-0.17796802520751953,0.7428594827651978
1684115207818898000,8.80189794921875,0.5723929405212402,-0.18051624298095703,0.714736819267273
1684115207828938800,8.811938720703125,0.602334201335907,-0.20622825622558594,0.6997263431549072
1684115207838979800,8.821979736328124,0.6795058250427246,-0.2029867172241211,0.6198922395706177
1684115207849020700,8.832020751953126,0.7939175367355347,-0.21372222900390625,0.4907529354095459
1684115207859061500,8.8420615234375,0.8817238211631775,-0.20766925811767578,0.426450252532959
1684115207869102300,8.852102294921876,0.9620585441589355,-0.24396419525146484,0.2540779113769531
1684115207879143400,8.862143310546875,0.9808725118637085,-0.23715591430664062,0.11907839775085449
1684115207889184300,8.872184326171874,0.9744585752487183,-0.2516183853149414,-0.05634713172912598
1684115207899225000,8.88222509765625,1.0064150094985962,-0.18825531005859375,-0.1883631944656372
1684115207909266200,8.89226611328125,1.016474723815918,-0.1214151382446289,-0.2865699529647827
1684115207919307000,8.90230712890625,1.0141041278839111,-0.05591773986816406,-0.30647480487823486
1684115207929347800,8.912347900390625,0.9804799556732178,-0.03419780731201172,-0.24421477317810059
1684115207939388700,8.922388671875,0.9424790143966675,-0.027383804321289062,-0.10302400588989258
1684115207949429800,8.9324296875,0.9191876649856567,-0.044600486755371094,0.054283738136291504
1684115207959470600,8.942470703125,0.9081780910491943,-0.07122325897216797,0.2316046953201294
1684115207969511400,8.952511474609375,0.8747493028640747,-0.10941696166992188,0.34591078758239746
1684115207979552500,8.962552490234375,0.7940565347671509,-0.14013195037841797,0.41687095165252686
1684115207989593300,8.97259326171875,0.6933541297912598,-0.13755321502685547,0.4613666534423828
1684115207999634200,8.98263427734375,0.6343655586242676,-0.13517379760742188,0.47966623306274414
1684115208009675300,8.99267529296875,0.5853241086006165,-0.10231494903564453,0.507179856300354
1684115208019716000,9.002716064453125,0.578088641166687,-0.13594913482666016,0.4729294776916504
1684115208029757000,9.0127568359375,0.6154638528823853,-0.1689596176147461,0.43180012702941895
1684115208039797800,9.0227978515625,0.6115751266479492,-0.18482017517089844,0.37895941734313965
1684115208049838800,9.0328388671875,0.5699089169502258,-0.20267295837402344,0.32879722118377686
1684115208059879700,9.042879638671875,0.4943641424179077,-0.1990194320678711,0.24382591247558594
1684115208069920500,9.05292041015625,0.4290425181388855,-0.21908950805664062,0.12513494491577148
1684115208079961300,9.06296142578125,0.35562145709991455,-0.20841693878173828,-0.0053615570068359375
1684115208090002400,9.07300244140625,0.3404405117034912,-0.231201171875,-0.04810678958892822
1684115208100043300,9.083043212890624,0.3776986300945282,-0.268157958984375,-0.01589024066925049
1684115208110084000,9.093083984375,0.5313263535499573,-0.2671346664428711,0.14840662479400635
1684115208120125200,9.103125244140625,0.7622677087783813,-0.20512962341308594,0.3177306652069092
1684115208130166000,9.113166015625,0.9820281267166138,-0.11121177673339844,0.4328024387359619
1684115208140206800,9.123206787109375,1.1258310079574585,-0.006918907165527344,0.4187498092651367
1684115208150247700,9.13324755859375,1.0826976299285889,0.11705207824707031,0.3197396993637085
1684115208160288800,9.143288818359375,0.9260945320129395,0.21326637268066406,0.19803118705749512
1684115208170329600,9.15332958984375,0.7378523349761963,0.2538881301879883,0.02542591094970703
1684115208180370400,9.163370361328125,0.54786217212677,0.2397909164428711,-0.15255892276763916
1684115208190411500,9.17341162109375,0.4171918034553528,0.21187877655029297,-0.3004196882247925
1684115208200452400,9.183452392578126,0.4381020963191986,0.2056589126586914,-0.44655752182006836
1684115208210493200,9.1934931640625,0.5784084796905518,0.14313697814941406,-0.3955296277999878
1684115208220534300,9.2035341796875,0.7993781566619873,0.025495529174804688,-0.3585062026977539
1684115208230575000,9.2135751953125,1.0423341989517212,-0.11310672760009766,-0.18560218811035156
1684115208240616000,9.223615966796874,1.2482901811599731,-0.14565467834472656,-0.07693290710449219
1684115208250656800,9.23365673828125,1.3691223859786987,-0.1590566635131836,0.05502450466156006
1684115208260697900,9.24369775390625,1.4019484519958496,-0.08772468566894531,0.24045705795288086
1684115208270738700,9.25373876953125,1.3627724647521973,0.024474143981933594,0.3822188377380371
1684115208280779500,9.263779541015625,1.1709935665130615,0.16027545928955078,0.4907722473144531
1684115208290820600,9.273820556640626,0.9107910990715027,0.27680492401123047,0.580870509147644
1684115208300861400,9.283861328125,0.5902112126350403,0.35306644439697266,0.6386475563049316
1684115208310902300,9.29390234375,0.3292246162891388,0.3497171401977539,0.7959877252578735
1684115208320943000,9.303943115234375,0.1367664337158203,0.2587242126464844,0.9211405515670776
1684115208330984200,9.313984130859374,-0.028145909309387207,0.13820457458496094,1.051271915435791
1684115208341025000,9.32402490234375,-0.2643008828163147,0.057061195373535156,1.1875165700912476
1684115208351065900,9.33406591796875,-0.5485367178916931,-0.0959615707397461,1.2817509174346924
1684115208361107000,9.34410693359375,-0.8469557762145996,-0.1690826416015625,1.3580479621887207
1684115208371147800,9.354147705078125,-1.1114495992660522,-0.23519039154052734,1.3643938302993774
1684115208381188600,9.364188720703124,-1.3739657402038574,-0.2559814453125,1.4219108819961548
1684115208391229700,9.374229736328125,-1.6191407442092896,-0.20503902435302734,1.3620848655700684
1684115208401270500,9.3842705078125,-1.879221796989441,-0.17316341400146484,1.287310242652893
1684115208411311400,9.394311279296875,-2.133294105529785,-0.12221527099609375,1.1478546857833862
1684115208421352200,9.404352294921875,-2.30615234375,-0.09544658660888672,1.0096399784088135
1684115208431393300,9.414393310546876,-2.3642919063568115,0.0001087188720703125,0.8080029487609863
1684115208441434000,9.42443408203125,-2.3218140602111816,0.14479827880859375,0.6561281681060791
1684115208451475000,9.434474853515624,-2.219736337661743,0.22574710845947266,0.5449182987213135
1684115208461516000,9.44451611328125,-2.047664165496826,0.2595710754394531,0.6375206708908081
1684115208471556900,9.454556884765625,-1.8342671394348145,0.15597057342529297,0.7933704853057861
1684115208481597700,9.46459765625,-1.6301342248916626,-0.01263427734375,0.8983861207962036
1684115208491638500,9.474638427734375,-1.3928427696228027,-0.16938304901123047,0.8088172674179077
1684115208501679600,9.4846796875,-1.0217818021774292,-0.47390270233154297,0.6256568431854248
1684115208511720400,9.494720458984375,-0.6861639022827148,-0.719822883605957,0.3196418285369873
1684115208521761300,9.50476123046875,-0.46562349796295166,-0.9519739151000977,0.022979259490966797
1684115208531802400,9.51480224609375,-0.3522334098815918,-1.1031274795532227,-0.2351137399673462
1684115208541843200,9.52484326171875,-0.29943370819091797,-1.1853361129760742,-0.6347768306732178
1684115208551884000,9.534884033203125,-0.2984621524810791,-1.2372503280639648,-0.9463261365890503
1684115208561925000,9.544925048828125,-0.2906486988067627,-1.159043312072754,-1.1261998414993286
1684115208571966000,9.554966064453126,-0.31809210777282715,-0.9702415466308594,-1.0533816814422607
1684115208582006800,9.5650068359375,-0.4094583988189697,-0.604619026184082,-0.7819151878356934
1684115208592047600,9.575047607421874,-0.5875592231750488,-0.0899200439453125,-0.33992302417755127
1684115208602088700,9.585088623046875,-0.5710718631744385,0.20496177673339844,0.33559584617614746
1684115208612129500,9.595129638671875,-0.32362866401672363,0.3694267272949219,1.0087320804595947
1684115208622170400,9.60517041015625,0.08655691146850586,0.4314689636230469,1.4777239561080933
1684115208632211500,9.61521142578125,0.5746287107467651,0.4665842056274414,1.6213077306747437
1684115208642252300,9.625252197265626,1.068205714225769,0.4779090881347656,1.4905692338943481
1684115208652293000,9.635293212890625,1.5502338409423828,0.5089139938354492,1.1353272199630737
1684115208662334000,9.645333984375,1.984593391418457,0.44539546966552734,0.6171194911003113
1684115208672375000,9.655375,2.2531371116638184,0.37615203857421875,0.0037522315979003906
1684115208682415900,9.665415771484374,2.327846050262451,0.3055562973022461,-0.6789156198501587
1684115208692456700,9.675456787109376,2.1730597019195557,0.20648765563964844,-1.1714763641357422
1684115208702497800,9.685497802734375,1.9326963424682617,0.22855186462402344,-1.5759259462356567
1684115208712538600,9.69553857421875,1.6007263660430908,0.27779388427734375,-1.797790765762329
1684115208722579500,9.705579345703125,1.2361986637115479,0.4324665069580078,-1.9059158563613892
1684115208732620300,9.715620361328124,1.079052209854126,0.6923799514770508,-1.8898025751113892
1684115208742661400,9.725661376953125,0.9686641693115234,0.8278446197509766,-1.4414058923721313
1684115208752702200,9.7357021484375,0.40025877952575684,0.7731428146362305,-1.0352399349212646
1684115208762743000,9.745742919921875,-0.5364267826080322,0.6100349426269531,-0.9507467746734619
1684115208772784000,9.7557841796875,-1.5449731349945068,0.4014568328857422,-0.8509907126426697
1684115208782825000,9.765824951171876,-2.377124547958374,0.10390663146972656,-0.6308606266975403
1684115208792865800,9.77586572265625,-2.6452746391296387,-0.15988445281982422,-0.4405210018157959
1684115208802907000,9.785906982421874,-2.283599376678467,-0.40966796875,-0.4532155990600586
1684115208812947700,9.79594775390625,-1.6176133155822754,-0.5407638549804688,-0.6741452813148499
1684115208822988500,9.805988525390624,-0.9221251010894775,-0.5353336334228516,-1.058577537536621
1684115208833029400,9.816029296875,-0.46996212005615234,-0.46973419189453125,-1.5357052087783813
1684115208843070500,9.826070556640625,-0.18573856353759766,-0.3516674041748047,-1.84224271774292
1684115208853111300,9.836111328125,0.054663896560668945,-0.24143505096435547,-1.9403331279754639
1684115208863152000,9.846152099609375,0.36661863327026367,-0.057923316955566406,-1.8764493465423584
1684115208873193200,9.856193115234374,0.6891723871231079,0.10825729370117188,-1.7348923683166504
1684115208883234000,9.866234130859375,0.9960730075836182,0.26976585388183594,-1.513573408126831
1684115208893275000,9.87627490234375,1.2039463520050049,0.34610557556152344,-1.2226195335388184
1684115208903315700,9.886315673828125,1.306362509727478,0.3740224838256836,-0.8375088572502136
1684115208913356800,9.896356689453125,1.419714331626892,0.3421144485473633,-0.4461323618888855
1684115208923397600,9.906397705078126,1.5263632535934448,0.23409271240234375,-0.12746334075927734
1684115208933438500,9.9164384765625,1.5053471326828003,0.12627315521240234,0.1361638903617859
1684115208943479600,9.9264794921875,1.3643293380737305,0.07039737701416016,0.3263855278491974
1684115208953520400,9.936520263671875,1.1970458030700684,0.06797409057617188,0.5026267766952515
1684115208963561200,9.946561279296875,1.0283968448638916,0.06605911254882812,0.5427548289299011
1684115208973602300,9.956602294921876,0.9601048231124878,0.10307502746582031,0.40462011098861694
1684115208983643100,9.96664306640625,0.8619276285171509,0.10028076171875,0.1141732931137085
1684115208993684000,9.97668408203125,0.7389423847198486,0.10061264038085938,-0.20982596278190613
1684115209003725000,9.98672509765625,0.5380321741104126,0.02237224578857422,-0.45229372382164
1684115209013766000,9.996765869140624,0.21928048133850098,0.032123565673828125,-0.7413758039474487
1684115209023806700,10.006806640625,-0.12808752059936523,-0.014407157897949219,-0.9330145120620728
1684115209033847600,10.01684765625,-0.35144782066345215,-0.03638935089111328,-1.060471773147583
1684115209043888600,10.026888671875,-0.48113536834716797,-0.08903694152832031,-1.1714283227920532
1684115209053929500,10.036929443359375,-0.5383729934692383,-0.06491851806640625,-1.3254107236862183
1684115209063970300,10.04697021484375,-0.511871337890625,-0.011850357055664062,-1.5368869304656982
1684115209074011400,10.057011474609375,-0.37041354179382324,0.04673194885253906,-1.6603106260299683
1684115209084052200,10.06705224609375,-0.24613022804260254,0.11873054504394531,-1.6962839365005493
1684115209094093000,10.077093017578125,-0.13195228576660156,0.24777889251708984,-1.6742802858352661
1684115209104134000,10.0871337890625,-0.146467924118042,0.4317922592163086,-1.6930326223373413
1684115209114175000,10.097175048828126,-0.16124892234802246,0.7019052505493164,-1.687780499458313
1684115209124215800,10.1072158203125,-0.16706585884094238,0.9242649078369141,-1.5824480056762695
1684115209134256600,10.117256591796876,-0.14908885955810547,0.9794597625732422,-1.475494384765625
1684115209144297700,10.127297607421875,-0.2083578109741211,0.9868535995483398,-1.438863754272461
1684115209154338600,10.137338623046874,-0.31856870651245117,0.9841403961181641,-1.4385285377502441
1684115209164379400,10.14737939453125,-0.3568410873413086,0.9327859878540039,-1.411015272140503
1684115209174420500,10.15742041015625,-0.31472325325012207,0.8283233642578125,-1.37016761302948
1684115209184461300,10.16746142578125,-0.316025972366333,0.6833000183105469,-1.2732133865356445
1684115209194502100,10.177502197265625,-0.2575514316558838,0.5581350326538086,-1.0501872301101685
1684115209204543200,10.187543212890626,-0.17294764518737793,0.43927001953125,-0.7489311695098877
1684115209214584000,10.197583984375,-0.058702707290649414,0.29842185974121094,-0.42289167642593384
1684115209224625000,10.207625,0.03468728065490723,0.2575674057006836,-0.07752937078475952
1684115209234666000,10.217666015625,0.16283249855041504,0.23506832122802734,0.2706006169319153
1684115209244706800,10.227706787109375,0.2888832092285156,0.2184600830078125,0.5435305833816528
1684115209254747600,10.23774755859375,0.3809335231781006,0.14279842376708984,0.6842530369758606
1684115209264788500,10.24778857421875,0.4760916233062744,0.09632015228271484,0.7687798142433167
1684115209274829600,10.25782958984375,0.5244519710540771,0.09807968139648438,0.7245182991027832
1684115209284870400,10.267870361328125,0.47312986850738525,0.15288066864013672,0.5682725310325623
1684115209294911200,10.2779111328125,0.3243288993835449,0.13416099548339844,0.28807204961776733
1684115209304952300,10.287952392578125,0.20705962181091309,-0.04628944396972656,-0.210460364818573
1684115209314993200,10.2979931640625,0.188399076461792,-0.6027240753173828,-0.888491153717041
1684115209325034000,10.308033935546876,0.11962771415710449,-1.297403335571289,-1.4492335319519043
1684115209335074800,10.31807470703125,-0.07689046859741211,-1.872025489807129,-1.8604402542114258
1684115209345116000,10.328115966796876,-0.6002719402313232,-2.401958465576172,-2.2465322017669678
1684115209355156700,10.33815673828125,-1.3286011219024658,-2.918002128601074,-2.5706043243408203
1684115209365197800,10.34819775390625,-1.6488656997680664,-3.1969289779663086,-2.864527463912964
1684115209375238700,10.35823876953125,-1.492558240890503,-2.9906692504882812,-2.9945149421691895
1684115209385279500,10.368279541015625,-1.1085906028747559,-1.9628524780273438,-2.9402637481689453
1684115209395320300,10.3783203125,-0.5428624153137207,-0.3108940124511719,-2.550736427307129
1684115209405361400,10.388361328125,0.050046443939208984,0.9375820159912109,-1.9722999334335327
1684115209415402200,10.39840234375,0.4501526355743408,1.6386194229125977,-1.385429859161377
1684115209425443000,10.408443115234375,0.7481330633163452,1.922642707824707,-0.787461519241333
1684115209435484200,10.418484130859374,0.9561382532119751,2.0773563385009766,-0.24331414699554443
1684115209445525000,10.42852490234375,1.1604595184326172,2.1268811225891113,0.13308954238891602
1684115209455565800,10.43856591796875,1.3658092021942139,1.940110683441162,0.5812849998474121
1684115209465607000,10.44860693359375,1.6408214569091797,1.632218837738037,0.7703545689582825
1684115209475647700,10.458647705078125,1.9734447002410889,1.0433406829833984,0.7550989985466003
1684115209485688600,10.4686884765625,2.248349905014038,0.3055868148803711,0.8087550401687622
1684115209495729400,10.4787294921875,2.444403648376465,-0.36762523651123047,1.0061192512512207
1684115209505770500,10.4887705078125,2.457109212875366,-0.7657356262207031,1.2296290397644043
1684115209515811300,10.498811279296875,2.3696587085723877,-0.9487199783325195,1.2618032693862915
1684115209525852200,10.50885205078125,2.243701219558716,-1.0387744903564453,1.0667221546173096
1684115209535893200,10.518893310546876,2.071173667907715,-0.973968505859375,0.8173099756240845
1684115209545934000,10.52893408203125,1.838555932044983,-0.9790935516357422,0.5028958320617676
1684115209555975000,10.538974853515626,1.427475929260254,-0.8845434188842773,0.23322415351867676
1684115209566016000,10.54901611328125,0.7662473320960999,-0.765101432800293,-0.007530927658081055
1684115209576056800,10.559056884765624,-0.12648069858551025,-0.5431957244873047,-0.4211089611053467
1684115209586097700,10.56909765625,-1.0000075101852417,-0.17492294311523438,-1.0074903964996338
1684115209596138800,10.579138671875,-1.4906524419784546,0.22156906127929688,-1.5028014183044434
1684115209606179600,10.5891796875,-1.4718443155288696,0.6603183746337891,-1.778997540473938
1684115209616220400,10.599220458984375,-1.1112143993377686,0.9879817962646484,-1.9939566850662231
1684115209626261200,10.60926123046875,-0.516838550567627,1.1209125518798828,-2.0235424041748047
1684115209636302300,10.61930224609375,0.21241295337677002,1.0361518859863281,-1.8257085084915161
1684115209646343200,10.62934326171875,0.9725878238677979,0.8570652008056641,-1.5560866594314575
1684115209656384000,10.639384033203125,1.5641238689422607,0.7115335464477539,-1.1478906869888306
1684115209666425000,10.649425048828125,1.8985947370529175,0.4568777084350586,-0.763669490814209
1684115209676466000,10.6594658203125,2.0338387489318848,0.2464752197265625,-0.4645625352859497
1684115209686506800,10.6695068359375,2.057312250137329,-0.12267875671386719,-0.280292272567749
1684115209696547800,10.6795478515625,1.9772019386291504,-0.42800235748291016,-0.19009721279144287
1684115209706588700,10.689588623046875,1.86501145362854,-0.6026735305786133,-0.20377683639526367
1684115209716629500,10.69962939453125,1.7347252368927002,-0.6851587295532227,-0.20906460285186768
1684115209726670600,10.709670654296875,1.4792227745056152,-0.6566562652587891,-0.25130701065063477
1684115209736711400,10.71971142578125,1.1384679079055786,-0.553492546081543,-0.2513066530227661
1684115209746752300,10.729752197265626,0.7127081155776978,-0.32606983184814453,-0.23239457607269287
1684115209756793300,10.73979345703125,0.3506733179092407,-0.1660318374633789,-0.1944408416748047
1684115209766834200,10.749834228515626,0.11871391534805298,-0.09740829467773438,-0.2058173418045044
1684115209776875000,10.759875,0.12891823053359985,-0.100921630859375,-0.21820056438446045
1684115209786916000,10.769916015625,0.30082717537879944,-0.07842063903808594,-0.22887933254241943
1684115209796957000,10.77995703125,0.5780414342880249,0.0010595321655273438,-0.25867342948913574
1684115209806997800,10.789997802734375,0.8564277291297913,0.08014965057373047,-0.21188974380493164
1684115209817038600,10.80003857421875,1.0989018678665161,0.15651893615722656,-0.22217583656311035
1684115209827079700,10.81007958984375,1.2846981287002563,0.0798492431640625,-0.2702014446258545
1684115209837120500,10.82012060546875,1.3905448913574219,-0.00363922119140625,-0.34164178371429443
1684115209847161300,10.830161376953125,1.3410775661468506,0.013582229614257812,-0.4791066646575928
1684115209857202400,10.840202392578124,1.1680314540863037,0.06665992736816406,-0.6007726192474365
1684115209867243300,10.8502431640625,0.8645641803741455,0.15285110473632812,-0.6919527053833008
1684115209877284000,10.8602841796875,0.5699000358581543,0.2479839324951172,-0.6976801156997681
1684115209887325200,10.8703251953125,0.3006116449832916,0.32323551177978516,-0.6276922225952148
1684115209897366000,10.880365966796875,0.19155752658843994,0.2998485565185547,-0.5111477375030518
1684115209907406800,10.89040673828125,0.26063859462738037,0.20923328399658203,-0.3699350357055664
1684115209917447700,10.90044775390625,0.4291175305843353,0.1328907012939453,-0.3188246488571167
1684115209927488800,10.91048876953125,0.6305419206619263,0.12099552154541016,-0.2713041305541992
1684115209937529600,10.920529541015625,0.7875674366950989,0.03971672058105469,-0.2346562147140503
1684115209947570700,10.93057080078125,0.8853877782821655,-0.005658149719238281,-0.20652306079864502
1684115209957611500,10.940611572265626,0.9116296768188477,0.0015106201171875,-0.1724836826324463
1684115209967652400,10.95065234375,0.8519721627235413,0.008639335632324219,-0.09725737571716309
1684115209977693400,10.960693359375,0.716942548751831,-0.022451400756835938,-0.0005412101745605469
1684115209987734300,10.970734375,0.6052064299583435,-0.09645366668701172,0.08641636371612549
1684115209997775000,10.980775146484374,0.507867693901062,-0.241943359375,0.1611802577972412
1684115210007816000,10.99081591796875,0.4239560663700104,-0.370452880859375,0.19039320945739746
1684115210017857000,11.00085693359375,0.42126691341400146,-0.4677572250366211,0.1313343048095703
1684115210027897900,11.01089794921875,0.4883023500442505,-0.4576892852783203,0.0591963529586792
1684115210037938700,11.020938720703125,0.5577080845832825,-0.428955078125,0.00561833381652832
1684115210047979800,11.030979736328124,0.5898313522338867,-0.3456602096557617,0.029937386512756348
1684115210058020600,11.0410205078125,0.5591686367988586,-0.19576740264892578,0.10230576992034912
1684115210068061400,11.0510615234375,0.4393984377384186,-0.015094757080078125,-0.024292945861816406
1684115210078102500,11.0611025390625,0.24660465121269226,0.047992706298828125,-0.22422444820404053
1684115210088143400,11.071143310546875,0.07586687803268433,0.07976245880126953,-0.32809627056121826
1684115210098184200,11.08118408203125,-0.007337898015975952,0.08506202697753906,-0.4246220588684082
1684115210108225300,11.091225341796875,0.07555441558361053,0.04488182067871094,-0.40887773036956787
1684115210118266000,11.10126611328125,0.26337048411369324,-0.031042098999023438,-0.3410155773162842
1684115210128307000,11.111306884765625,0.5016896724700928,-0.03744697570800781,-0.2261868715286255
1684115210138348000,11.12134814453125,0.7324767112731934,-0.021852493286132812,-0.06846892833709717
1684115210148388900,11.131388916015625,0.8645179271697998,-0.04396247863769531,0.060033321380615234
1684115210158429700,11.1414296875,0.8493320941925049,-0.06081962585449219,0.14835214614868164
1684115210168470800,11.151470703125,0.720524251461029,-0.09145832061767578,0.24703741073608398
1684115210178511600,11.16151171875,0.47033098340034485,-0.13340282440185547,0.2855098247528076
1684115210188552400,11.171552490234374,0.22767195105552673,-0.1370983123779297,0.3849480152130127
1684115210198593300,11.18159326171875,0.06434310972690582,-0.12912940979003906,0.4055917263031006
1684115210208634400,11.19163427734375,-0.008800595998764038,-0.11679267883300781,0.4266481399536133
1684115210218675200,11.20167529296875,0.011288613080978394,-0.1118936538696289,0.4385402202606201
1684115210228716000,11.211716064453125,0.08981935679912567,-0.10252761840820312,0.439020037651062
1684115210238757000,11.221757080078126,0.24397170543670654,-0.06049060821533203,0.352885365486145
1684115210248798000,11.2317978515625,0.3844696283340454,0.00652313232421875,0.25277411937713623
1684115210258838800,11.2418388671875,0.4822261333465576,0.02752685546875,0.12693965435028076
1684115210268880000,11.2518798828125,0.5236555933952332,0.08330249786376953,0.0489274263381958
1684115210278920700,11.261920654296874,0.544823408126831,0.08616065979003906,-0.04561495780944824
1684115210288961500,11.27196142578125,0.5624394416809082,0.041683197021484375,-0.10224735736846924
1684115210299002600,11.282002685546875,0.5268747210502625,-0.03040599822998047,-0.10566234588623047
1684115210309043500,11.29204345703125,0.5162373185157776,-0.09663867950439453,-0.1087723970413208
1684115210319084300,11.302084228515625,0.4567716717720032,-0.11468982696533203,-0.11652588844299316
1684115210329125400,11.31212548828125,0.3892892003059387,-0.16066455841064453,-0.09370434284210205
1684115210339166200,11.322166259765625,0.25092145800590515,-0.170440673828125,-0.04369997978210449
1684115210349207000,11.33220703125,0.19909802079200745,-0.14225006103515625,0.01172637939453125
1684115210359248100,11.342248046875,0.1555309295654297,-0.08379173278808594,0.04658353328704834
1684115210369289000,11.3522890625,0.14382031559944153,-0.054447174072265625,0.007186174392700195
1684115210379329800,11.362329833984376,0.1493527740240097,-0.044386863708496094,0.015204906463623047
1684115210389371000,11.372370849609375,0.14084336161613464,-0.0038671493530273438,0.03462874889373779
1684115210399411700,11.38241162109375,0.10883773863315582,0.005347251892089844,0.06553149223327637
1684115210409452500,11.39245263671875,0.06279387325048447,-0.018619537353515625,0.05848062038421631
1684115210419493600,11.40249365234375,-0.02562500536441803,0.0024099349975585938,0.045015811920166016
1684115210429534500,11.412534423828125,-0.10162629932165146,-0.010053634643554688,0.02547740936279297
1684115210439575300,11.4225751953125,-0.221296027302742,-0.02490711212158203,0.011961221694946289
1684115210449616100,11.4326162109375,-0.32145294547080994,-0.0045223236083984375,-0.016486406326293945
1684115210459657200,11.4426572265625,-0.37248915433883667,0.012824058532714844,0.04166102409362793
1684115210469698000,11.452697998046874,-0.3455815613269806,-0.008127212524414062,0.09071969985961914
1684115210479739000,11.46273876953125,-0.20889341831207275,-0.01955699920654297,0.2480841875076294
1684115210489780000,11.472780029296874,0.015514954924583435,-0.019232749938964844,0.3281521797180176
1684115210499820800,11.48282080078125,0.2555023431777954,-0.07561397552490234,0.3981494903564453
1684115210509862000,11.49286181640625,0.42832231521606445,-0.05585479736328125,0.4651033878326416
1684115210519902700,11.50290283203125,0.5120173096656799,-0.11185359954833984,0.4653979539871216
1684115210529943600,11.512943603515625,0.4750239849090576,-0.15285301208496094,0.5341527462005615
1684115210539984600,11.522984619140624,0.40000781416893005,-0.20960235595703125,0.559099555015564
1684115210550025500,11.533025390625,0.2583562135696411,-0.1687641143798828,0.5923995971679688
1684115210560066300,11.54306640625,0.14920026063919067,-0.11430740356445312,0.6430928707122803
1684115210570107100,11.553107177734375,0.08525238186120987,-0.13117694854736328,0.6825240850448608
1684115210580148200,11.563148193359375,0.09015872329473495,-0.1544351577758789,0.6607035398483276
1684115210590189000,11.57318896484375,0.11250363290309906,-0.2779674530029297,0.6674308776855469
1684115210600230000,11.58322998046875,0.19084113836288452,-0.3987541198730469,0.6217392683029175
1684115210610271000,11.59327099609375,0.2667776942253113,-0.44381237030029297,0.5572917461395264
1684115210620311800,11.603311767578125,0.33638423681259155,-0.19767284393310547,0.43845081329345703
1684115210630352600,11.6133525390625,0.285068154335022,0.14855480194091797,0.06009244918823242
1684115210640393700,11.623393798828126,0.054431527853012085,0.2584075927734375,-0.2512211799621582
1684115210650434600,11.6334345703125,-0.2292291820049286,0.18263626098632812,-0.4224669933319092
1684115210660475400,11.643475341796876,-0.37312769889831543,0.0277099609375,-0.39624738693237305
1684115210670516500,11.6535166015625,-0.3280634582042694,-0.0825948715209961,-0.25856685638427734
1684115210680557300,11.663557373046874,-0.07352140545845032,0.06282615661621094,-0.09378719329833984
1684115210690598100,11.67359814453125,0.23696091771125793,0.23844623565673828,-0.010889291763305664
1684115210700639200,11.68363916015625,0.5399911403656006,0.3190011978149414,0.029211044311523438
1684115210710680000,11.69368017578125,0.7509525418281555,0.37908267974853516,0.015521049499511719
1684115210720721000,11.703720947265625,0.8563634157180786,0.4049863815307617,0.03819680213928223
1684115210730762000,11.713761962890626,0.8253090381622314,0.38109397888183594,0.1214301586151123
1684115210740802800,11.723802734375,0.7271502017974854,0.31086158752441406,0.11714315414428711
1684115210750843600,11.73384375,0.6184860467910767,0.2279987335205078,0.06449198722839355
1684115210760884700,11.743884765625,0.5074348449707031,0.04564666748046875,-0.04533505439758301
1684115210770925600,11.753925537109374,0.431634783744812,0.0008602142333984375,-0.1477367877960205
1684115210780966400,11.76396630859375,0.4459426999092102,-0.054718971252441406,-0.20704293251037598
1684115210791007500,11.774007568359375,0.4489668011665344,-0.14933204650878906,-0.32207322120666504
1684115210801048300,11.78404833984375,0.41461360454559326,-0.19070148468017578,-0.4181346893310547
1684115210811089200,11.794089111328125,0.31100672483444214,-0.2739992141723633,-0.417433500289917
1684115210821130200,11.804130126953124,0.19678948819637299,-0.41970348358154297,-0.39703941345214844
1684115210831171000,11.814171142578125,0.04918019473552704,-0.5139369964599609,-0.3567180633544922
1684115210841212000,11.8242119140625,-0.09813989698886871,-0.6823186874389648,-0.2592329978942871
1684115210851253000,11.8342529296875,-0.21951496601104736,-0.7608823776245117,-0.10193061828613281
1684115210861293800,11.8442939453125,-0.3065453767776489,-0.7885532379150391,0.023897171020507812
1684115210871334700,11.854334716796876,-0.3711448907852173,-0.7119150161743164,0.12536120414733887
1684115210881375700,11.864375732421875,-0.4712260961532593,-0.6432199478149414,0.20691657066345215
1684115210891416600,11.87441650390625,-0.5570712089538574,-0.5422039031982422,0.17871665954589844
1684115210901457400,11.88445751953125,-0.6594879627227783,-0.40470218658447266,0.12927031517028809
1684115210911498500,11.89449853515625,-0.686926007270813,-0.17255306243896484,0.013998031616210938
1684115210921539300,11.904539306640626,-0.6706526279449463,0.04018688201904297,-0.10898661613464355
1684115210931580200,11.914580078125,-0.6035506129264832,0.19306373596191406,-0.2854619026184082
1684115210941621200,11.924621337890626,-0.5344157218933105,0.30994129180908203,-0.47434043884277344
1684115210951662000,11.934662109375,-0.462324321269989,0.4002494812011719,-0.6558022499084473
1684115210961703000,11.944702880859374,-0.4245576858520508,0.4137382507324219,-0.7790939807891846
1684115210971744000,11.954743896484375,-0.43850797414779663,0.41006946563720703,-0.869842529296875
1684115210981784800,11.964784912109375,-0.42300671339035034,0.40573978424072266,-0.8222689628601074
1684115210991825700,11.97482568359375,-0.3948620557785034,0.38361644744873047,-0.8263759613037109
1684115211001866800,11.98486669921875,-0.30713796615600586,0.17626476287841797,-0.8640401363372803
1684115211011907600,11.994907470703126,-0.33471643924713135,0.04701805114746094,-0.8117051124572754
1684115211021948400,12.004948486328125,-0.45443177223205566,-0.09248924255371094,-0.6592442989349365
1684115211031989500,12.014989501953124,-0.5090649127960205,-0.1826314926147461,-0.5343494415283203
1684115211042030300,12.0250302734375,-0.5241329669952393,-0.3048686981201172,-0.4494338035583496
1684115211052071200,12.0350712890625,-0.39788079261779785,-0.3873939514160156,-0.29512476921081543
1684115211062112300,12.0451123046875,-0.16607749462127686,-0.38218116760253906,-0.08204436302185059
1684115211072153000,12.055153076171875,0.13230204582214355,-0.24826908111572266,0.07894110679626465
1684115211082194000,12.06519384765625,0.3649371862411499,-0.12143325805664062,0.21610474586486816
1684115211092235000,12.075235107421875,0.49362730979919434,-0.07269954681396484,0.2910243272781372
1684115211102275800,12.08527587890625,0.45977461338043213,-0.05849933624267578,0.2872910499572754
1684115211112316700,12.095316650390625,0.3092085123062134,-0.009515762329101562,0.255903959274292
1684115211122357800,12.105357666015625,0.06817078590393066,0.08088016510009766,0.2070319652557373
1684115211132398600,12.115398681640626,-0.017347097396850586,0.19056224822998047,0.08867239952087402
1684115211142439400,12.125439453125,0.05467581748962402,0.2805604934692383,-0.15071332454681396
1684115211152480500,12.13548046875,0.16196227073669434,0.3311166763305664,-0.4337500333786011
1684115211162521300,12.145521240234375,0.33118486404418945,0.3396415710449219,-0.8075090646743774
1684115211172562200,12.155562255859374,0.4916170835494995,0.3159303665161133,-1.137349009513855
1684115211182603300,12.165603271484375,0.573967456817627,0.2485485076904297,-1.5250297784805298
1684115211192644000,12.17564404296875,0.6571263074874878,0.154754638671875,-1.8279341459274292
1684115211202685000,12.185684814453126,0.8106964826583862,0.1521930694580078,-2.102832317352295
1684115211212726000,12.19572607421875,0.928257942199707,0.09807014465332031,-2.2316641807556152
1684115211222766800,12.205766845703126,1.0378843545913696,0.06245231628417969,-2.3098111152648926
1684115211232807700,12.2158076171875,1.1076213121414185,0.1602497100830078,-2.313105583190918
1684115211242848800,12.225848876953124,1.1629278659820557,0.3054084777832031,-2.20983624458313
1684115211252889600,12.2358896484375,1.2441277503967285,0.3714179992675781,-2.0932559967041016
1684115211262930400,12.245930419921875,1.3438620567321777,0.4419994354248047,-1.9383716583251953
1684115211272971500,12.255971435546876,1.3880434036254883,0.5433855056762695,-1.749495267868042
1684115211283012400,12.266012451171875,1.3175604343414307,0.5799474716186523,-1.5200762748718262
1684115211293053200,12.27605322265625,1.2148014307022095,0.6494655609130859,-1.381453037261963
1684115211303094300,12.28609423828125,1.0572178363800049,0.6941413879394531,-1.2091730833053589
1684115211313135000,12.296135009765624,0.8441932201385498,0.6681365966796875,-1.0414707660675049
1684115211323176000,12.306176025390625,0.6072750091552734,0.6615085601806641,-0.9305325746536255
1684115211333217000,12.316217041015625,0.2972266674041748,0.5801200866699219,-0.7518566846847534
1684115211343257900,12.3262578125,0.04046201705932617,0.4022178649902344,-0.5230334997177124
1684115211353298700,12.336298583984375,-0.1539931297302246,0.3281517028808594,-0.41625213623046875
1684115211363339800,12.34633984375,-0.4360063076019287,0.2614145278930664,-0.3816802501678467
1684115211373380600,12.356380615234375,-0.7306907176971436,0.21319103240966797,-0.36444318294525146
1684115211383421400,12.36642138671875,-0.7558233737945557,0.06852531433105469,-0.3583008050918579
1684115211393462500,12.376462646484375,-0.7078545093536377,0.11455154418945312,-0.4589500427246094
1684115211403503400,12.38650341796875,-0.6561055183410645,0.27967262268066406,-0.6681042909622192
1684115211413544200,12.396544189453126,-0.5714547634124756,0.5785455703735352,-1.0367236137390137
1684115211423585300,12.406585205078125,-0.5682494640350342,0.8085250854492188,-1.376957893371582
1684115211433626000,12.416626220703124,-0.6370763778686523,0.9561166763305664,-1.5570335388183594
1684115211443667200,12.426667236328125,-0.698460578918457,0.9836521148681641,-1.5689884424209595
1684115211453708000,12.4367080078125,-0.8473708629608154,0.9269523620605469,-1.5319998264312744
1684115211463748900,12.446748779296875,-0.9536387920379639,0.7238969802856445,-1.4110608100891113
1684115211473790000,12.4567900390625,-0.9097762107849121,0.44673633575439453,-1.2204391956329346
1684115211483830800,12.466830810546876,-0.8184309005737305,0.14127254486083984,-0.9292581081390381
1684115211493871600,12.47687158203125,-0.8066329956054688,-0.1517343521118164,-0.5203917026519775
1684115211503912700,12.48691259765625,-0.818596601486206,-0.4037942886352539,-0.015130281448364258
1684115211513953500,12.49695361328125,-0.7547414302825928,-0.6342916488647461,0.2766183614730835
1684115211523994400,12.506994384765624,-0.6894466876983643,-0.8150167465209961,0.3553943634033203
1684115211534035500,12.517035400390625,-0.5829522609710693,-0.8055458068847656,0.2797328233718872
1684115211544076300,12.527076171875,-0.3751547336578369,-0.6394519805908203,0.23979449272155762
1684115211554117000,12.5371171875,0.06237649917602539,-0.3588132858276367,0.18473374843597412
