time,seconds_elapsed,z,y,x
1683990963716075300,0.0360751953125,0,0,0
1683990963726117400,0.046117431640625,0.00925534963607788,0.8423357009887695,0.16466963291168213
1683990963736159700,0.05615966796875,0.5787478685379028,1.3578195571899414,-0.11389017105102539
1683990963746202000,0.0662021484375,0.7101706266403198,1.042750358581543,-0.9224444627761841
1683990963756244500,0.076244384765625,1.3911510705947876,0.31485700607299805,-2.3973469734191895
1683990963766286800,0.086286865234375,2.777435779571533,0.0015096664428710938,-3.1502535343170166
1683990963776329000,0.096328857421875,3.7537195682525635,-0.11172294616699219,-3.316413640975952
1683990963786371300,0.106371337890625,4.132138252258301,-0.14672088623046875,-4.305329322814941
1683990963796413700,0.11641357421875,3.738696575164795,1.2497899532318115,-2.9794270992279053
1683990963806456000,0.1264560546875,3.621361255645752,2.0804052352905273,-3.549994707107544
1683990963816498200,0.136498291015625,4.096377372741699,2.5330471992492676,-4.588258266448975
1683990963826540500,0.14654052734375,4.090714931488037,2.4718985557556152,-4.716602802276611
1683990963836583000,0.1565830078125,3.8131299018859863,2.0014734268188477,-4.749129295349121
1683990963846625300,0.166625244140625,4.656890392303467,1.7631101608276367,-5.191340446472168
1683990963856667600,0.176667724609375,5.183802127838135,1.848771572113037,-4.9939069747924805
1683990963866709800,0.186709716796875,5.745288372039795,2.197061538696289,-4.73183012008667
1683990963876752100,0.196752197265625,5.7953925132751465,2.389120578765869,-4.514711856842041
1683990963886794500,0.20679443359375,5.078526496887207,2.2214579582214355,-3.9520654678344727
1683990963896836900,0.2168369140625,4.617998123168945,2.229346752166748,-3.1492972373962402
1683990963906879200,0.226879150390625,4.441538333892822,2.0147736072540283,-2.4714293479919434
1683990963916921300,0.23692138671875,4.075769901275635,1.9509336948394775,-2.3213706016540527
1683990963926963700,0.246963623046875,3.379067897796631,2.0712568759918213,-2.0331673622131348
1683990963937006000,0.257006103515625,2.718461513519287,1.9391717910766602,-1.6279349327087402
1683990963947048400,0.26704833984375,2.141268253326416,1.6813147068023682,-1.303067684173584
1683990963957090600,0.277090576171875,1.954085350036621,1.4712533950805664,-0.9354910850524902
1683990963967133000,0.2871328125,2.150099277496338,1.0877916812896729,-0.5817022323608398
1683990963977175300,0.29717529296875,2.2462058067321777,1.0231103897094727,-1.1890907287597656
1683990963987217700,0.3072177734375,1.8093781471252441,1.303853988647461,-1.4041571617126465
1683990963997259800,0.317259765625,0.9453763961791992,1.4593322277069092,-1.561330795288086
1683990964007302100,0.32730224609375,-0.0565037727355957,1.845383644104004,-2.140026092529297
1683990964017344500,0.337344482421875,-1.5364470481872559,2.315718173980713,-1.9035758972167969
1683990964027387000,0.347386962890625,-2.7915515899658203,2.4673233032226562,-1.3149871826171875
1683990964037429000,0.357428955078125,-3.3099677562713623,2.373664140701294,-1.0184392929077148
1683990964047471400,0.367471435546875,-3.278479814529419,2.425417900085449,-0.8953437805175781
1683990964057513700,0.377513671875,-2.835853338241577,2.671760082244873,-1.0279674530029297
1683990964067556000,0.38755615234375,-2.422689199447632,3.134394407272339,-1.5971622467041016
1683990964077598500,0.397598388671875,-2.484145164489746,3.1534273624420166,-1.7920503616333008
1683990964087640600,0.407640625,-2.881648302078247,3.272399425506592,-1.2787866592407227
1683990964097683000,0.417682861328125,-2.441870927810669,3.433757781982422,-1.5768890380859375
1683990964107725300,0.427725341796875,-1.6469271183013916,3.1326868534088135,-1.448904037475586
1683990964117767700,0.437767578125,-0.9730501174926758,2.67087721824646,-1.0033245086669922
1683990964127809800,0.447809814453125,-0.3275279998779297,2.4276607036590576,-0.7291402816772461
1683990964137852200,0.45785205078125,0.2592501640319824,2.290346622467041,-0.4603385925292969
1683990964147894500,0.46789453125,0.43099021911621094,1.98263418674469,-0.03408050537109375
1683990964157937000,0.47793701171875,0.48699045181274414,1.6190924644470215,0.15358686447143555
1683990964167979000,0.48797900390625,0.44228267669677734,1.3618826866149902,0.45385169982910156
1683990964178021400,0.498021484375,0.050444602966308594,0.9973549842834473,0.8142576217651367
1683990964188063700,0.508063720703125,-0.28275299072265625,0.5839569568634033,1.0836215019226074
1683990964198106000,0.518106201171875,-0.4100518226623535,0.26145386695861816,1.5142364501953125
1683990964208148500,0.5281484375,-0.5056648254394531,0.018878459930419922,1.6587586402893066
1683990964218190600,0.538190673828125,-0.329988956451416,-0.08378791809082031,1.6913623809814453
1683990964228233000,0.54823291015625,-0.13793277740478516,-0.22164297103881836,1.668625831604004
1683990964238275300,0.558275390625,-0.14665746688842773,-0.4303765296936035,1.722158432006836
1683990964248317700,0.568317626953125,-0.2666282653808594,-0.6600501537322998,1.9000144004821777
1683990964258360000,0.578360107421875,-0.5057110786437988,-0.8089110851287842,2.1302590370178223
1683990964268402200,0.588402099609375,-0.5998744964599609,-0.9050118923187256,2.151533603668213
1683990964278444500,0.598444580078125,-0.6218671798706055,-1.0395393371582031,2.376801013946533
1683990964288487000,0.60848681640625,-0.5612034797668457,-1.1774559020996094,2.49430513381958
1683990964298529300,0.618529296875,-0.5096988677978516,-1.1331429481506348,2.4479212760925293
1683990964308571400,0.6285712890625,-0.5762295722961426,-1.0328700542449951,2.36322021484375
1683990964318613800,0.63861376953125,-0.5076088905334473,-1.041001319885254,2.100886344909668
1683990964328656100,0.64865625,-0.19081735610961914,-1.0883655548095703,1.7681427001953125
1683990964338698500,0.658698486328125,0.04645252227783203,-1.03596830368042,1.728929042816162
1683990964348740600,0.66874072265625,0.2560577392578125,-1.0125360488891602,1.6737260818481445
1683990964358783000,0.678782958984375,0.39644908905029297,-0.9959688186645508,1.1863412857055664
1683990964368825300,0.688825439453125,0.2479991912841797,-0.8093879222869873,0.758397102355957
1683990964378867700,0.69886767578125,0.00421142578125,-0.6058762073516846,0.7215347290039062
1683990964388909800,0.708909912109375,-0.29961681365966797,-0.3512535095214844,0.6356067657470703
1683990964398952200,0.7189521484375,-0.3406801223754883,0.16933679580688477,0.12738418579101562
1683990964408994600,0.72899462890625,-0.5447511672973633,0.35864710807800293,-0.07439041137695312
1683990964419037000,0.739036865234375,-0.5851860046386719,0.44700098037719727,-0.42487144470214844
1683990964429079300,0.749079345703125,-0.5923104286193848,0.6715811491012573,-0.8881425857543945
1683990964439121400,0.759121337890625,-0.4359312057495117,0.9147015810012817,-0.7844438552856445
1683990964449163800,0.769163818359375,-0.22692346572875977,0.8219934701919556,-0.700225830078125
1683990964459206100,0.7792060546875,0.09607839584350586,0.48975467681884766,-0.6207361221313477
1683990964469248500,0.78924853515625,0.3075871467590332,-0.05122685432434082,-0.4060802459716797
1683990964479290600,0.79929052734375,0.46130847930908203,-0.534153938293457,-0.2795867919921875
1683990964489333000,0.8093330078125,0.41952085494995117,-0.8054935932159424,-0.007373809814453125
1683990964499375400,0.819375244140625,0.2847938537597656,-0.862088680267334,0.31001853942871094
1683990964509417700,0.829417724609375,-0.024187564849853516,-0.9191498756408691,0.34372806549072266
1683990964519459800,0.8394599609375,-0.5888767242431641,-0.9232890605926514,0.6584491729736328
1683990964529502200,0.849502197265625,-1.106640338897705,-0.8986845016479492,1.1086654663085938
1683990964539544600,0.859544677734375,-1.5574498176574707,-0.8507812023162842,1.4033317565917969
1683990964549587000,0.8695869140625,-1.6992599964141846,-0.6915318965911865,1.7581253051757812
1683990964559629000,0.879629150390625,-1.5234776735305786,-0.7200347185134888,1.919602870941162
1683990964569671400,0.88967138671875,-1.1877095699310303,-0.6768393516540527,1.250528335571289
1683990964579713800,0.8997138671875,-0.8177328109741211,-0.26021504402160645,0.6800117492675781
1683990964589756200,0.909756103515625,0.12946367263793945,-0.08948719501495361,0.20969867706298828
1683990964599798300,0.91979833984375,0.703885555267334,-0.18506205081939697,-0.8222589492797852
1683990964609840600,0.929840576171875,0.8823896646499634,0.030228018760681152,-1.1498308181762695
1683990964619883000,0.939883056640625,0.7328815460205078,0.19030821323394775,-1.0596485137939453
1683990964629925400,0.94992529296875,0.08809435367584229,0.262009859085083,-0.9622259140014648
1683990964639967700,0.9599677734375,-0.6735578179359436,0.43546009063720703,-0.4530143737792969
1683990964650009900,0.970009765625,-1.6576762199401855,0.18153095245361328,-0.3756694793701172
1683990964660052200,0.98005224609375,-2.7395710945129395,0.3731715679168701,0.024013519287109375
1683990964670094600,0.990094482421875,-2.824357509613037,0.7702305912971497,0.4461212158203125
1683990964680137000,1.000136962890625,-2.3078274726867676,0.9853115081787109,0.29605579376220703
1683990964690179000,1.010178955078125,-1.8625340461730957,0.8807710409164429,-0.22395801544189453
1683990964700221400,1.020221435546875,-1.4192172288894653,0.7322184443473816,-0.28739452362060547
1683990964710263800,1.030263916015625,-1.1748789548873901,0.6978764533996582,0.8212661743164062
1683990964720306200,1.04030615234375,-1.1443805694580078,0.27994418144226074,0.6991662979125977
1683990964730348500,1.0503486328125,-0.6693586707115173,-0.13334321975708008,0.5014715194702148
1683990964740390700,1.060390625,-0.4397536814212799,-0.19156628847122192,0.8193864822387695
1683990964750433000,1.07043310546875,-0.3712332546710968,0.01973170042037964,0.9298629760742188
1683990964760475400,1.080475341796875,0.06187233328819275,0.19635093212127686,0.860804557800293
1683990964770517800,1.090517822265625,0.3910262882709503,0.19396281242370605,0.4932851791381836
1683990964780560000,1.100559814453125,0.5097183585166931,0.1548008918762207,0.20775413513183594
1683990964790602200,1.110602294921875,0.5568736791610718,-0.48146265745162964,1.0462837219238281
1683990964800644600,1.12064453125,0.8004494905471802,-0.5578001737594604,1.6838445663452148
1683990964810687000,1.13068701171875,0.8080176711082458,-0.4209158420562744,1.7783308029174805
1683990964820729000,1.14072900390625,0.5735450983047485,-0.5150702595710754,1.4984560012817383
1683990964830771500,1.150771484375,0.6844283938407898,-0.3298778533935547,0.9234189987182617
1683990964840813800,1.160813720703125,0.017474591732025146,0.04262280464172363,0.09658527374267578
1683990964850856200,1.170856201171875,-0.6206140518188477,0.13877996802330017,-0.43359375
1683990964860898300,1.180898193359375,-0.9712308645248413,0.9020403623580933,-0.3558683395385742
1683990964870940700,1.190940673828125,-1.2853925228118896,-0.03238674998283386,0.051197052001953125
1683990964880983000,1.200983154296875,-1.1461302042007446,-0.09347230195999146,0.48653602600097656
1683990964891025400,1.211025390625,-1.1532866954803467,-0.44912660121917725,0.508753776550293
1683990964901067800,1.22106787109375,-1.0833584070205688,-0.926613450050354,0.7669773101806641
1683990964911110000,1.23110986328125,-0.7811847925186157,-0.7427921295166016,0.43790626525878906
1683990964921152300,1.24115234375,-0.15095412731170654,-0.8935472965240479,0.669865608215332
1683990964931194600,1.251194580078125,0.16911470890045166,-1.5722800493240356,0.8662815093994141
1683990964941237000,1.261237060546875,0.3573893904685974,-1.4431829452514648,0.81414794921875
1683990964951279000,1.271279052734375,0.3299819827079773,-1.4326666593551636,1.5623064041137695
1683990964961321500,1.281321533203125,0.04474079608917236,-1.4100453853607178,1.3109188079833984
1683990964971363800,1.29136376953125,-0.48951685428619385,-1.2010927200317383,1.4573945999145508
1683990964981406200,1.30140625,-0.6760851144790649,-0.8292678594589233,0.7278347015380859
1683990964991448300,1.3114482421875,-0.663805365562439,-0.7306433916091919,0.9442195892333984
1683990965001490700,1.32149072265625,-0.5486055612564087,-0.46777549386024475,0.37020206451416016
1683990965011533000,1.331532958984375,-0.459613561630249,-0.0688164234161377,0.3854074478149414
1683990965021575400,1.341575439453125,-0.2823389768600464,-0.051790714263916016,0.7221593856811523
1683990965031617500,1.351617431640625,0.10489809513092041,0.07918480038642883,0.27553653717041016
1683990965041660000,1.361659912109375,0.2584875822067261,-0.18744945526123047,0.3840656280517578
1683990965051702300,1.371702392578125,0.08136093616485596,-0.3436580002307892,0.667902946472168
1683990965061744600,1.38174462890625,-0.05385541915893555,-0.05953472852706909,0.633514404296875
1683990965071786800,1.391786865234375,0.032558441162109375,1.044197916984558,0.3358621597290039
1683990965081829000,1.4018291015625,-0.6551917791366577,0.8838362693786621,0.4261341094970703
1683990965091871500,1.41187158203125,-0.9639396667480469,0.7622894048690796,0.4448823928833008
1683990965101913900,1.421913818359375,-0.7226212024688721,0.8899645805358887,0.7062664031982422
1683990965111956000,1.4319560546875,-0.568060040473938,1.0998406410217285,1.3033533096313477
1683990965121998300,1.441998291015625,-0.5083101987838745,0.8460286855697632,1.2200374603271484
1683990965132040700,1.452040771484375,-0.5578373670578003,0.8569926023483276,1.0365667343139648
1683990965142083000,1.4620830078125,-0.28389763832092285,0.7999840974807739,1.143728256225586
1683990965152125400,1.47212548828125,-0.05071532726287842,1.2386267185211182,1.2733793258666992
1683990965162167600,1.48216748046875,0.29361629486083984,1.1790293455123901,1.1397151947021484
1683990965172210000,1.4922099609375,0.6056168079376221,0.9270460605621338,0.9740476608276367
1683990965182252300,1.502252197265625,1.8656078577041626,-0.8225333094596863,1.752486228942871
1683990965192294700,1.512294677734375,0.8114831447601318,-0.35902440547943115,0.46064090728759766
1683990965202336800,1.522336669921875,-0.9215277433395386,0.17157912254333496,-0.15054988861083984
1683990965212379100,1.532379150390625,-1.6762940883636475,1.0315768718719482,-0.09331226348876953
1683990965222421500,1.54242138671875,-1.6533807516098022,1.2280585765838623,0.2574920654296875
1683990965232464000,1.5524638671875,-1.6375577449798584,1.216647744178772,0.028748512268066406
1683990965242506000,1.562506103515625,-0.0002371072769165039,-0.0167844295501709,-0.32599449157714844
1683990965252548400,1.57254833984375,2.653390407562256,-1.181341290473938,0.35770320892333984
1683990965262590700,1.5825908203125,-0.22369468212127686,-0.1348419189453125,0.5518941879272461
1683990965272633000,1.592633056640625,-0.37444889545440674,-0.8308719396591187,0.604680061340332
1683990965282675200,1.60267529296875,0.11882925033569336,-1.2097549438476562,-0.29372310638427734
1683990965292717600,1.612717529296875,0.5917672514915466,-1.229000449180603,-0.7383346557617188
1683990965302760000,1.622760009765625,1.049835205078125,-0.9052338600158691,-0.07852554321289062
1683990965312802300,1.63280224609375,0.653070867061615,-1.333055019378662,0.07926082611083984
1683990965322844400,1.642844482421875,0.7459311485290527,-1.7039754390716553,0.2628202438354492
1683990965332886800,1.65288671875,-0.35411274433135986,-1.6422388553619385,0.12219905853271484
1683990965342929200,1.66292919921875,-0.800662636756897,-1.906536340713501,0.6616182327270508
1683990965352971500,1.672971435546875,-1.0587551593780518,-2.300320625305176,0.2895984649658203
1683990965363013600,1.683013671875,-0.26084136962890625,-1.6263313293457031,0.2061452865600586
1683990965373056000,1.693055908203125,1.1800382137298584,-0.12721490859985352,1.821357250213623
1683990965383098400,1.703098388671875,1.856689214706421,1.575880765914917,2.2914772033691406
1683990965393140700,1.713140625,1.6062880754470825,1.4610474109649658,1.5966334342956543
1683990965403182800,1.723182861328125,0.7739570140838623,0.8660502433776855,1.1452088356018066
1683990965413225200,1.73322509765625,-0.1692180633544922,0.5865664482116699,0.8649225234985352
1683990965423267600,1.743267578125,-0.9299399852752686,0.307833194732666,0.8075990676879883
1683990965433310000,1.75331005859375,-1.6633319854736328,-0.10377025604248047,0.6799602508544922
1683990965443352000,1.76335205078125,-2.417499303817749,-0.7566051483154297,1.1366033554077148
1683990965453394400,1.77339453125,-1.8655989170074463,-1.005467414855957,0.7632160186767578
1683990965463436800,1.783436767578125,-0.9677462577819824,-1.0196738243103027,0.2653951644897461
1683990965473479200,1.793479248046875,-0.43299996852874756,-1.0148701667785645,-0.3075895309448242
1683990965483521500,1.803521484375,0.3570171594619751,-1.1795897483825684,-1.2092351913452148
1683990965493563600,1.813563720703125,0.7194273471832275,-1.686049461364746,-1.1477861404418945
1683990965503606000,1.82360595703125,1.2403337955474854,-2.369736671447754,-0.2108621597290039
1683990965513648400,1.8336484375,0.6908972263336182,-2.660344123840332,0.38835620880126953
1683990965523690500,1.8436904296875,0.018750429153442383,-2.37225341796875,0.7566089630126953
1683990965533732900,1.85373291015625,-0.46466314792633057,-1.3427958488464355,0.7019152641296387
1683990965543775200,1.863775146484375,-0.3974032402038574,-0.20856094360351562,0.6270408630371094
1683990965553817600,1.873817626953125,-0.28589415550231934,0.2311711311340332,0.5955600738525391
1683990965563859700,1.883859619140625,-0.23645806312561035,0.3578648567199707,0.5344057083129883
1683990965573902000,1.893902099609375,-0.09948968887329102,0.3781557083129883,0.21862411499023438
1683990965583944400,1.9039443359375,-0.31106603145599365,0.17232322692871094,-0.19292640686035156
1683990965593986800,1.91398681640625,0.05220329761505127,-0.05908536911010742,-0.1399688720703125
1683990965604029000,1.92402880859375,0.5155508518218994,-0.45772409439086914,0.04673194885253906
1683990965614071300,1.9340712890625,0.4580796957015991,-0.7013020515441895,0.4297599792480469
1683990965624113700,1.94411376953125,0.13199925422668457,-0.4068880081176758,0.2655186653137207
1683990965634156000,1.954156005859375,-0.09887290000915527,0.15642738342285156,0.11941719055175781
1683990965644198400,1.964198486328125,-0.33143889904022217,0.3216280937194824,0.047257423400878906
1683990965654240500,1.974240478515625,-0.43389737606048584,0.0190582275390625,0.36352968215942383
1683990965664283000,1.984282958984375,-0.46287715435028076,-0.2784872055053711,0.4860258102416992
1683990965674325200,1.9943251953125,-0.35049355030059814,-0.2007904052734375,0.21692991256713867
1683990965684367400,2.004367431640625,-0.3327854871749878,-0.07964611053466797,0.089813232421875
1683990965694409700,2.01440966796875,0.013786077499389648,0.006905555725097656,-0.2428121566772461
1683990965704452000,2.0244521484375,1.0799012184143066,-0.10632658004760742,0.11188507080078125
1683990965714494500,2.034494384765625,0.49307262897491455,-0.17311954498291016,-0.4195690155029297
1683990965724536600,2.04453662109375,-0.032595276832580566,-0.43145179748535156,3.139223575592041
1683990965734579000,2.054578857421875,0.21062779426574707,1.0392026901245117,-0.14859485626220703
1683990965744621300,2.064621337890625,-0.875115156173706,1.9149274826049805,-2.200852394104004
1683990965754663700,2.07466357421875,-0.27811694145202637,1.442718505859375,-0.10951519012451172
1683990965764705800,2.084705810546875,0.9459729194641113,1.4323606491088867,0.5352873802185059
1683990965774748200,2.094748046875,1.027502417564392,1.1254243850708008,0.5585241317749023
1683990965784790500,2.10479052734375,0.4151604175567627,0.8727297782897949,1.6192736625671387
1683990965794833000,2.1148330078125,-0.5414319038391113,0.9495177268981934,1.7570929527282715
1683990965804875000,2.124875,-1.1724913120269775,0.43868494033813477,0.8590068817138672
1683990965814917400,2.13491748046875,-1.2229118347167969,-0.5098791122436523,-0.01557302474975586
1683990965824959700,2.144959716796875,-1.7458019256591797,-1.3265953063964844,-0.09979534149169922
1683990965835002000,2.155002197265625,-1.9437944889068604,-1.1113719940185547,-0.27550697326660156
1683990965845044200,2.165044189453125,-1.2412686347961426,-0.5302276611328125,-0.28885650634765625
1683990965855086600,2.175086669921875,-0.6163609027862549,-0.3540678024291992,-0.37858104705810547
1683990965865129000,2.18512890625,-0.022368192672729492,-0.4418478012084961,-0.753169059753418
1683990965875171300,2.19517138671875,1.269485592842102,-0.48188114166259766,-1.4167847633361816
1683990965885213400,2.20521337890625,2.4860267639160156,0.3690648078918457,-1.759535789489746
1683990965895255800,2.215255859375,2.66156268119812,0.9945015907287598,-2.0164575576782227
1683990965905298200,2.225298095703125,2.646456718444824,1.260944128036499,-1.6204442977905273
1683990965915340500,2.235340576171875,2.5340471267700195,1.0272948741912842,-0.7484712600708008
1683990965925382700,2.245382568359375,1.9612802267074585,-0.3801865577697754,-0.088623046875
1683990965935425000,2.255425048828125,1.2341392040252686,-1.0072999000549316,0.2916083335876465
1683990965945467400,2.26546728515625,0.546074628829956,-1.0575881004333496,1.284635066986084
1683990965955509800,2.275509765625,0.1985471248626709,-0.7368087768554688,2.090487003326416
1683990965965551900,2.2855517578125,0.309680700302124,-0.22879838943481445,1.8686861991882324
1683990965975594200,2.29559423828125,1.1521583795547485,0.7521650791168213,0.7332372665405273
1683990965985636600,2.30563671875,1.6922367811203003,0.3900926113128662,-1.1474418640136719
1683990965995679000,2.315678955078125,1.9251880645751953,-0.14658164978027344,-1.5397768020629883
1683990966005721000,2.32572119140625,1.7212060689926147,-1.0596356391906738,-0.8425016403198242
1683990966015763500,2.335763427734375,2.4792847633361816,-1.205310583114624,0.6729769706726074
1683990966025805800,2.345805908203125,2.4663760662078857,-1.3326575756072998,2.373030662536621
1683990966035848200,2.35584814453125,0.9301605224609375,-1.7261428833007812,3.5359878540039062
1683990966045890300,2.365890380859375,-0.6602938175201416,-1.5475809574127197,4.208028316497803
1683990966055932700,2.3759326171875,-3.0267157554626465,-1.8981938362121582,4.725710868835449
1683990966065975000,2.38597509765625,-4.770007133483887,-1.0359420776367188,4.007544040679932
1683990966076017400,2.396017333984375,-3.5375826358795166,1.5255379676818848,3.2425971031188965
1683990966086059500,2.4060595703125,-2.94901967048645,1.7786939144134521,3.471045970916748
1683990966096102000,2.416101806640625,-0.9932210445404053,2.3524107933044434,3.7624449729919434
1683990966106144300,2.426144287109375,0.5336763858795166,1.3788223266601562,3.3365421295166016
1683990966116186600,2.4361865234375,0.2988901138305664,-1.419145107269287,2.190195083618164
1683990966126228700,2.446228759765625,0.950832724571228,-2.0404434204101562,0.13063907623291016
1683990966136271000,2.45627099609375,1.1060422658920288,-1.7002010345458984,-1.0819025039672852
1683990966146313500,2.4663134765625,0.9004693031311035,-1.2508974075317383,-1.6004209518432617
1683990966156355800,2.47635595703125,0.5032445192337036,-0.42315053939819336,-1.4662904739379883
1683990966166398000,2.48639794921875,0.09438276290893555,-0.06985616683959961,-0.9793205261230469
1683990966176440300,2.4964404296875,-0.3257870674133301,0.2522139549255371,-0.27438926696777344
1683990966186482700,2.506482666015625,-0.8525323867797852,0.07979059219360352,0.15758514404296875
1683990966196525000,2.516525146484375,-1.1190876960754395,-0.07194185256958008,0.4160118103027344
1683990966206567200,2.526567138671875,-1.4818689823150635,-0.2720823287963867,0.460665225982666
1683990966216609500,2.536609619140625,-1.8642644882202148,-0.6521468162536621,0.9844775199890137
1683990966226652000,2.54665185546875,-1.6515822410583496,-0.4813857078552246,1.3262324333190918
1683990966236694300,2.5566943359375,-1.381580114364624,-0.44650936126708984,0.7178592681884766
1683990966246736400,2.566736328125,-0.291304349899292,-0.44002866744995117,0.1478414535522461
1683990966256778800,2.57677880859375,0.7416836023330688,-0.9430170059204102,-1.0445237159729004
1683990966266821000,2.586821044921875,1.45867919921875,-1.1463065147399902,-2.4016270637512207
1683990966276863500,2.596863525390625,1.4113571643829346,-1.3806633949279785,-2.7076773643493652
1683990966286905600,2.606905517578125,0.670215368270874,-1.067387580871582,-2.2014689445495605
1683990966296948000,2.616947998046875,-0.36061882972717285,-1.1144394874572754,-1.0974993705749512
1683990966306990300,2.626990234375,-0.5448319911956787,-1.011500358581543,-0.8360447883605957
1683990966317032400,2.637032470703125,-0.3821744918823242,-0.8023877143859863,-0.539764404296875
1683990966327074800,2.64707470703125,0.02985668182373047,-0.5380649566650391,0.021042346954345703
1683990966337117200,2.6571171875,0.18577790260314941,-0.27005863189697266,0.36690473556518555
1683990966347159600,2.66715966796875,0.32039427757263184,-0.24638652801513672,0.1225900650024414
1683990966357201700,2.67720166015625,0.053433895111083984,-0.11609268188476562,-0.34367847442626953
1683990966367244000,2.687244140625,-0.17896413803100586,-0.039540767669677734,-0.7143683433532715
1683990966377286400,2.697286376953125,-0.29045963287353516,0.10150003433227539,-0.7465267181396484
1683990966387328800,2.707328857421875,-0.12582850456237793,0.16873836517333984,-0.6374125480651855
1683990966397371000,2.717370849609375,0.1397848129272461,0.1266341209411621,-0.28132152557373047
1683990966407413200,2.727413330078125,3.2112269401550293,1.219740867614746,2.245007038116455
1683990966417455600,2.73745556640625,1.4599077701568604,0.3727726936340332,1.1375651359558105
1683990966427498000,2.747498046875,0.46139228343963623,0.29872608184814453,0.37118959426879883
1683990966437540000,2.7575400390625,-0.7627449035644531,0.3850712776184082,-0.4328031539916992
1683990966447582500,2.76758251953125,-1.012270212173462,-0.25697755813598633,-1.1915388107299805
1683990966457624800,2.777624755859375,-0.7940568923950195,-0.3160533905029297,-1.1923847198486328
1683990966467667200,2.787667236328125,-0.49507904052734375,0.226318359375,-0.4969024658203125
1683990966477709300,2.797709228515625,0.20232033729553223,0.17438983917236328,-0.05659198760986328
1683990966487751700,2.807751708984375,0.7848082780838013,0.17491626739501953,0.0654444694519043
1683990966497794000,2.8177939453125,0.7463889122009277,0.15175485610961914,0.6740899085998535
1683990966507836400,2.82783642578125,0.4243936538696289,0.04895305633544922,1.196789264678955
1683990966517878500,2.83787841796875,0.243178129196167,-0.3930211067199707,2.1207480430603027
1683990966527921000,2.8479208984375,0.5500679016113281,-0.4709010124206543,3.1039228439331055
1683990966537963300,2.85796337890625,0.35169804096221924,-0.31929779052734375,3.5718469619750977
1683990966548005600,2.868005615234375,-0.33135509490966797,-0.3674130439758301,3.641029119491577
1683990966558047700,2.8780478515625,-1.1967673301696777,-0.67572021484375,3.519268274307251
1683990966568090000,2.888090087890625,-1.2359812259674072,-0.884666919708252,2.004330635070801
1683990966578132500,2.898132568359375,-0.8601250648498535,-0.468508243560791,0.2257080078125
1683990966588174800,2.9081748046875,-0.45391011238098145,-0.4106483459472656,-1.2421326637268066
1683990966598217000,2.918217041015625,0.028697967529296875,-0.7418475151062012,-1.5466279983520508
1683990966608259300,2.92825927734375,0.4523202180862427,-0.768348217010498,-1.0142531394958496
1683990966618301700,2.9383017578125,0.6075830459594727,-0.6521639823913574,-0.5039114952087402
1683990966628343800,2.94834375,1.081369161605835,-0.6501073837280273,-2.0959091186523438
1683990966638386200,2.95838623046875,1.208288550376892,-0.14167451858520508,-2.150125503540039
1683990966648428500,2.968428466796875,0.7711585760116577,-0.1083683967590332,-1.7892417907714844
1683990966658471000,2.978470947265625,0.030446529388427734,-0.6232762336730957,-2.180777072906494
1683990966668513000,2.988512939453125,0.3288605213165283,-0.6115856170654297,-2.4848437309265137
1683990966678555400,2.998555419921875,1.7483848333358765,-0.4808993339538574,-0.2244277000427246
1683990966688597800,3.00859765625,1.4428985118865967,-0.6269984245300293,0.6501669883728027
1683990966698640100,3.01864013671875,0.9456018209457397,-0.5133171081542969,1.1074233055114746
1683990966708682200,3.02868212890625,0.6922402381896973,-0.2797260284423828,0.9977025985717773
1683990966718724600,3.038724609375,0.054909706115722656,-0.012774944305419922,0.8415522575378418
1683990966728767000,3.04876708984375,-2.2697787284851074,0.30216073989868164,0.49040937423706055
1683990966738809300,3.058809326171875,-3.6102559566497803,1.356734275817871,1.0487151145935059
1683990966748851500,3.0688515625,-3.3966598510742188,1.5893511772155762,0.398007869720459
1683990966758893800,3.078893798828125,-2.9647724628448486,1.1769275665283203,-0.1160898208618164
1683990966768936200,3.088936279296875,-1.721693515777588,-0.24338531494140625,-0.15172624588012695
1683990966778978600,3.098978515625,-0.5682401657104492,-0.9415903091430664,-0.35364198684692383
1683990966789020700,3.109020751953125,-0.04176497459411621,-0.8453426361083984,-0.784693717956543
1683990966799063000,3.11906298828125,0.4537322521209717,-0.5415182113647461,-1.170335292816162
1683990966809105400,3.12910546875,0.9053016901016235,-0.017190933227539062,-1.3631501197814941
1683990966819147800,3.139147705078125,0.7168384790420532,0.07315731048583984,-1.3704290390014648
1683990966829190000,3.14918994140625,0.6143693923950195,0.25231075286865234,-1.5030632019042969
1683990966839232300,3.159232177734375,0.3818237781524658,0.3624277114868164,-1.4312853813171387
1683990966849274600,3.169274658203125,0.14155316352844238,0.5167407989501953,-0.5695123672485352
1683990966859316700,3.179316650390625,-0.15850162506103516,0.54034423828125,0.03649330139160156
1683990966869359000,3.189359130859375,-0.6490049362182617,0.388885498046875,0.389615535736084
1683990966879401500,3.1994013671875,-0.7313835620880127,0.29707908630371094,0.5166442394256592
1683990966889443800,3.20944384765625,-0.9873802661895752,0.19294357299804688,0.4234657287597656
1683990966899486000,3.21948583984375,-0.6274957656860352,0.022688865661621094,0.5660686492919922
1683990966909528300,3.2295283203125,-0.5760867595672607,-0.5861539840698242,0.604952335357666
1683990966919570700,3.23957080078125,-0.43500614166259766,-0.8195247650146484,0.40959835052490234
1683990966929612800,3.24961279296875,0.08677411079406738,-0.8129539489746094,-0.04324913024902344
1683990966939655200,3.2596552734375,0.38066768646240234,-0.5453567504882812,0.15910911560058594
1683990966949697500,3.269697509765625,0.1284036636352539,-0.3828401565551758,0.7618355751037598
1683990966959740000,3.279739990234375,-0.1081850528717041,-0.3784351348876953,1.1582045555114746
1683990966969782000,3.289781982421875,-0.12446403503417969,-0.6725234985351562,0.8480103015899658
1683990966979824400,3.299824462890625,-0.17195701599121094,-0.6091032028198242,0.5266811847686768
1683990966989866800,3.30986669921875,-0.08588075637817383,-0.4118051528930664,0.24621200561523438
1683990966999909000,3.3199091796875,0.07003116607666016,-0.13622760772705078,0.21776103973388672
1683990967009951200,3.329951171875,0.11381316184997559,0.04070568084716797,0.352750301361084
1683990967019993600,3.33999365234375,0.19165897369384766,-0.027418136596679688,0.41573238372802734
1683990967030036000,3.350035888671875,-0.016843080520629883,0.22140026092529297,0.6338832378387451
1683990967040078300,3.360078369140625,-0.2890503406524658,0.7188749313354492,0.635648250579834
1683990967050120400,3.370120361328125,-0.5539000034332275,0.5587291717529297,0.746619462966919
1683990967060162800,3.380162841796875,-0.8911523818969727,0.0863504409790039,0.35855722427368164
1683990967070205200,3.390205078125,-0.9003820419311523,-0.11668777465820312,0.08005046844482422
1683990967080247600,3.40024755859375,-0.7340779304504395,-0.11001777648925781,0.05749177932739258
1683990967090289700,3.41028955078125,-0.3272674083709717,-0.14773082733154297,0.07938098907470703
1683990967100332000,3.42033203125,0.21901631355285645,-0.3616209030151367,0.06878232955932617
1683990967110374400,3.43037451171875,0.5638453960418701,-0.21524333953857422,0.5092353820800781
1683990967120416800,3.440416748046875,0.5448296070098877,-0.015951156616210938,0.9713692665100098
1683990967130459000,3.450458984375,0.38703274726867676,0.39031219482421875,1.4465367794036865
1683990967140501200,3.460501220703125,0.32781291007995605,0.6540889739990234,1.6715407371520996
1683990967150543600,3.470543701171875,0.2913703918457031,0.4620957374572754,1.8127541542053223
1683990967160585700,3.480585693359375,0.4747493267059326,0.28075075149536133,1.6704299449920654
1683990967170628000,3.490628173828125,0.7696421146392822,0.21961498260498047,1.3193840980529785
1683990967180670500,3.50067041015625,1.9697448015213013,0.7966604232788086,1.3618290424346924
1683990967190712800,3.510712890625,2.723278760910034,0.6732125282287598,1.5648763179779053
1683990967200755000,3.5207548828125,2.6243019104003906,0.4136476516723633,1.3296582698822021
1683990967210797300,3.53079736328125,1.4654091596603394,0.3090219497680664,0.8466157913208008
1683990967220839700,3.540839599609375,-0.4950881004333496,-0.1588907241821289,0.19657230377197266
1683990967230882000,3.550882080078125,-1.79673171043396,-0.5409870147705078,-0.4178004264831543
1683990967240924200,3.560924072265625,-2.125886917114258,-0.291290283203125,-0.32010507583618164
1683990967250966500,3.570966552734375,-1.6910202503204346,0.13711261749267578,0.3779325485229492
1683990967261009000,3.5810087890625,-1.0754706859588623,0.24737071990966797,1.1082565784454346
1683990967271051300,3.59105126953125,-0.33332180976867676,0.1385955810546875,1.2126615047454834
1683990967281093400,3.60109326171875,0.26182985305786133,0.17787742614746094,1.1138486862182617
1683990967291135700,3.6111357421875,0.23414397239685059,0.1207275390625,0.8637046813964844
1683990967301178000,3.62117822265625,-0.4288039207458496,0.14884185791015625,0.4026985168457031
1683990967311220500,3.631220458984375,-0.814518928527832,0.4766273498535156,0.4167954921722412
1683990967321262600,3.6412626953125,-1.1812586784362793,0.5604243278503418,0.43821096420288086
1683990967331305000,3.651304931640625,-1.5633530616760254,0.5880794525146484,0.6519856452941895
1683990967341347300,3.661347412109375,-1.6114516258239746,0.528538703918457,0.885551929473877
1683990967351389400,3.671389404296875,-0.8374614715576172,1.9260411262512207,1.885714054107666
1683990967361431800,3.681431884765625,-0.32070469856262207,2.4079647064208984,2.025359869003296
1683990967371474200,3.69147412109375,-0.12030792236328125,2.299915313720703,2.3989148139953613
1683990967381516500,3.7015166015625,-0.6399734020233154,2.094101905822754,2.8831050395965576
1683990967391558700,3.71155859375,-1.0876219272613525,1.0199642181396484,2.627732753753662
1683990967401601000,3.72160107421875,-1.0043394565582275,0.1940898895263672,2.155660629272461
1683990967411643400,3.731643310546875,-0.16461944580078125,0.24093055725097656,1.2507003545761108
1683990967421685500,3.741685546875,-0.02931046485900879,-1.7678117752075195,-1.25933837890625
1683990967431727900,3.751727783203125,-0.6165335178375244,-2.3699140548706055,-2.495511054992676
1683990967441770200,3.761770263671875,-0.29653239250183105,-1.899078369140625,-4.184528350830078
1683990967451812600,3.7718125,-0.24593591690063477,-1.308725357055664,-4.10344123840332
1683990967461854700,3.781854736328125,-0.0725698471069336,-0.8923025131225586,-3.195582389831543
1683990967471897000,3.79189697265625,-0.06779241561889648,-0.8369331359863281,-2.0336501598358154
1683990967481939500,3.801939453125,-0.13812780380249023,-0.46922779083251953,-1.0219504833221436
1683990967491981800,3.81198193359375,-0.3964076042175293,-0.17375850677490234,-0.241072416305542
1683990967502024000,3.82202392578125,-0.7795112133026123,0.11411285400390625,0.2630956172943115
1683990967512066300,3.83206640625,-1.216672658920288,0.34589290618896484,0.42595136165618896
1683990967522108700,3.842108642578125,-1.3602895736694336,0.7979116439819336,0.8112984895706177
1683990967532151000,3.852151123046875,-1.2771883010864258,0.09470748901367188,0.8450057506561279
1683990967542193200,3.862193115234375,-1.1438705921173096,0.23595142364501953,0.881648063659668
1683990967552235500,3.872235595703125,-1.3171422481536865,0.3636970520019531,1.1808141469955444
1683990967562278000,3.88227783203125,-1.108191728591919,0.4487428665161133,0.8124445676803589
1683990967572320000,3.892320068359375,-0.9163703918457031,0.08353233337402344,0.7662477493286133
1683990967582362400,3.9023623046875,-0.8962512016296387,0.16818809509277344,1.2945261001586914
1683990967592404700,3.91240478515625,-0.6255760192871094,0.5408782958984375,1.0146905183792114
1683990967602447000,3.922447021484375,-0.2557811737060547,0.5089101791381836,0.6675465106964111
1683990967612489200,3.9324892578125,0.39421558380126953,0.49417781829833984,0.5711594820022583
1683990967622531600,3.942531494140625,0.5283763408660889,-0.06268787384033203,0.5782715082168579
1683990967632574000,3.952573974609375,0.5184690952301025,-0.053879737854003906,0.45010316371917725
1683990967642616300,3.9626162109375,0.7539080381393433,-0.5762729644775391,-0.17748427391052246
1683990967652658400,3.972658447265625,0.609119176864624,-0.31378173828125,-0.3312053680419922
1683990967662700800,3.98270068359375,0.10478782653808594,-0.01623249053955078,-0.27890968322753906
1683990967672743200,3.9927431640625,-0.3214077949523926,0.33514404296875,-0.07535231113433838
1683990967682785500,4.00278564453125,-0.41535258293151855,0.6595039367675781,-0.046657443046569824
1683990967692827600,4.01282763671875,-0.27257275581359863,0.7598094940185547,0.16563081741333008
1683990967702870000,4.0228701171875,0.6229571104049683,2.24100399017334,-1.2212274074554443
1683990967712912400,4.032912353515625,0.8561961650848389,1.6620683670043945,-0.2898753881454468
1683990967722954500,4.04295458984375,1.132753849029541,1.1053485870361328,1.5525556802749634
1683990967732996900,4.052996826171875,1.6886733770370483,0.9620189666748047,2.0060532093048096
1683990967743039200,4.063039306640625,1.6924879550933838,0.720332145690918,2.6109585762023926
1683990967753081600,4.07308154296875,1.9245198965072632,0.9006109237670898,3.236480951309204
1683990967763123700,4.083123779296875,1.9249026775360107,0.3727397918701172,3.651439905166626
1683990967773166000,4.093166015625,1.7552093267440796,0.38135623931884766,3.446021556854248
1683990967783208400,4.10320849609375,1.6330214738845825,1.2146759033203125,2.156431198120117
1683990967793250600,4.11325048828125,1.2303922176361084,0.5829372406005859,1.4775605201721191
1683990967803293000,4.12329296875,1.055920958518982,-0.2315816879272461,1.0943952798843384
1683990967813335300,4.133335205078125,0.6879619359970093,-1.1647605895996094,1.0841100215911865
1683990967823377700,4.143377685546875,0.729361891746521,-4.333865165710449,1.1188914775848389
1683990967833419800,4.153419677734375,0.28266358375549316,-8.423758506774902,1.986266851425171
1683990967843462100,4.163462158203125,-0.21110141277313232,-7.336372375488281,1.8125033378601074
1683990967853504500,4.17350439453125,-0.029709458351135254,-1.6193771362304688,-0.003875732421875
1683990967863547000,4.183546875,0.41017937660217285,-0.8023347854614258,-1.2924582958221436
1683990967873589000,4.193589111328125,0.7242438793182373,-0.8776140213012695,-1.503657341003418
1683990967883631400,4.20363134765625,0.9442967176437378,-1.0476303100585938,-0.9806391596794128
1683990967893673700,4.213673828125,1.0687624216079712,-0.8307924270629883,-0.5257534980773926
1683990967903716000,4.223716064453125,1.2692444324493408,-0.42009639739990234,0.19874680042266846
1683990967913758200,4.23375830078125,1.1211810111999512,-0.19918251037597656,0.8251297473907471
1683990967923800600,4.243800537109375,0.6766252517700195,0.05507850646972656,1.187558889389038
1683990967933843000,4.253843017578125,0.19889378547668457,0.0702676773071289,1.17839777469635
1683990967943885000,4.263885009765625,0.058899641036987305,0.08976459503173828,1.0065873861312866
1683990967953927400,4.273927490234375,0.2842442989349365,0.11569595336914062,1.006495475769043
1683990967963969800,4.2839697265625,0.6422015428543091,0.29456520080566406,0.6773066520690918
1683990967974012200,4.29401220703125,0.6843733787536621,-0.0251922607421875,0.5666851997375488
1683990967984054300,4.30405419921875,0.7503986954689026,-0.05420398712158203,0.2266676276922226
1683990967994096600,4.3140966796875,0.8762478828430176,-0.022642135620117188,-0.05075341463088989
1683990968004139000,4.324138916015625,0.8914976716041565,-0.12695693969726562,-0.30259716510772705
1683990968014181400,4.334181396484375,0.8050602078437805,-0.27156829833984375,-0.6118828058242798
1683990968024223500,4.344223388671875,0.7559472918510437,-0.41349029541015625,-1.1251775026321411
1683990968034265900,4.354265869140625,0.6122482419013977,-0.4691619873046875,-1.541186809539795
1683990968044308200,4.36430810546875,0.44210386276245117,-0.4510335922241211,-1.9025086164474487
1683990968054350600,4.3743505859375,0.30584609508514404,-0.38807010650634766,-1.779111623764038
1683990968064392700,4.384392822265625,0.09801208972930908,-0.15853309631347656,-1.5556784868240356
1683990968074435000,4.39443505859375,-0.03970479965209961,0.0984649658203125,-1.026260256767273
1683990968084477400,4.4044775390625,-0.09419131278991699,-0.3795795440673828,-0.5216836333274841
1683990968094519600,4.41451953125,-0.03138887882232666,-0.37487125396728516,-0.5584376454353333
1683990968104562000,4.42456201171875,0.08046877384185791,-0.3870859146118164,-0.6691045165061951
1683990968114604300,4.434604248046875,0.19227635860443115,-0.30597877502441406,-0.6708226203918457
1683990968124646400,4.444646484375,0.2424834966659546,-0.5355157852172852,-0.3299866318702698
1683990968134688800,4.454688720703125,0.12143325805664062,-0.6307153701782227,-0.09309250116348267
1683990968144731100,4.464731201171875,-0.0914311408996582,-0.47904014587402344,0.04383617639541626
1683990968154773500,4.4747734375,-0.3791266679763794,-0.08286571502685547,0.5459624528884888
1683990968164815600,4.484815673828125,-0.565688967704773,1.0619373321533203,0.3187931776046753
1683990968174858000,4.49485791015625,-0.5325887203216553,1.111307144165039,-0.1458721160888672
1683990968184900400,4.504900390625,-0.2507190704345703,1.117659568786621,-0.2829018235206604
1683990968194942700,4.514942626953125,0.19627118110656738,1.0375070571899414,-0.1372925043106079
1683990968204984800,4.52498486328125,0.6059811115264893,1.054356575012207,-0.04633229970932007
1683990968215027200,4.535027099609375,0.8849364519119263,1.3376350402832031,-0.3029921054840088
1683990968225069600,4.545069580078125,1.01220703125,1.483530044555664,-0.5958308577537537
1683990968235111700,4.555111572265625,1.008521318435669,1.3289318084716797,-0.6808099150657654
1683990968245154000,4.565154052734375,1.0670826435089111,1.0825176239013672,-0.7017368078231812
1683990968255196400,4.575196533203125,1.1462163925170898,0.8318653106689453,-0.795190155506134
1683990968265238800,4.58523876953125,1.3089896440505981,0.7945384979248047,-1.3526735305786133
1683990968275281000,4.595281005859375,1.3753662109375,0.39258766174316406,-1.8749418258666992
1683990968285323300,4.6053232421875,1.3281607627868652,-0.9267797470092773,-1.3810292482376099
1683990968295365600,4.61536572265625,0.8706117272377014,-1.7235355377197266,-1.3946850299835205
1683990968305407700,4.62540771484375,-1.262093424797058,-1.8201990127563477,-1.6534582376480103
1683990968315450000,4.6354501953125,-2.755072593688965,-1.5103044509887695,-1.0317506790161133
1683990968325492500,4.645492431640625,-2.5025923252105713,-0.8643684387207031,0.29696404933929443
1683990968335534800,4.655534912109375,-1.331026554107666,-0.2306346893310547,1.9333322048187256
1683990968345577000,4.665576904296875,-0.3246670961380005,-0.21547222137451172,2.7697277069091797
1683990968355619300,4.675619384765625,0.6524299383163452,-0.1487874984741211,2.393247127532959
1683990968365661700,4.68566162109375,0.8743690848350525,0.32045459747314453,0.8046438694000244
1683990968375704000,4.6957041015625,0.4961692988872528,0.06308364868164062,0.2776522636413574
1683990968385746200,4.70574609375,-0.01594334840774536,-0.02910900115966797,0.06987452507019043
1683990968395788500,4.71578857421875,-0.07096582651138306,-0.10528755187988281,0.10218143463134766
1683990968405831000,4.725830810546875,-0.01805645227432251,0.15737342834472656,-0.2290877103805542
1683990968415873000,4.735873046875,0.008338302373886108,0.23334407806396484,-0.39191555976867676
1683990968425915400,4.745915283203125,0.10954198241233826,0.13241291046142578,-0.1963646411895752
1683990968435957800,4.755957763671875,0.2995705008506775,0.054879188537597656,0.2752007246017456
1683990968446000000,4.766000244140625,0.20719335973262787,0.20902729034423828,0.16879189014434814
1683990968456042200,4.776042236328125,0.2082284390926361,-0.06478023529052734,0.62836754322052
1683990968466084600,4.786084716796875,0.09841559827327728,0.19257736206054688,0.2439044713973999
1683990968476127000,4.796126953125,-0.09177809953689575,0.08892154693603516,0.06991386413574219
1683990968486169300,4.80616943359375,-0.09438532590866089,0.011582374572753906,-0.1236342191696167
1683990968496211500,4.81621142578125,-0.027755677700042725,-0.04152107238769531,-0.21965229511260986
1683990968506253800,4.82625390625,-0.00900895893573761,-0.09445667266845703,-0.2215712070465088
1683990968516296200,4.836296142578125,-0.02473829686641693,-0.20470428466796875,-0.05677950382232666
1683990968526338300,4.84633837890625,-0.0423465371131897,-0.1570577621459961,-0.03551328182220459
1683990968536380700,4.856380615234375,-0.062130361795425415,-0.21242618560791016,0.07536578178405762
1683990968546423000,4.866423095703125,-0.13866496086120605,-0.1056966781616211,0.15494894981384277
1683990968556465200,4.876465087890625,-0.17564024031162262,-0.09041976928710938,0.13654088973999023
1683990968566507500,4.886507568359375,-0.18642793595790863,-0.06825733184814453,0.08135771751403809
1683990968576550000,4.8965498046875,-0.3141751289367676,-0.03206634521484375,0.1470944881439209
1683990968586592300,4.90659228515625,-0.41985028982162476,0.04426860809326172,0.2157977819442749
1683990968596634400,4.91663427734375,-0.5146374106407166,0.007825851440429688,0.11575722694396973
1683990968606676700,4.9266767578125,-0.5162412524223328,-0.009696006774902344,-0.197409987449646
1683990968616719000,4.936718994140625,-0.3363300561904907,-0.08463001251220703,-0.5957781076431274
1683990968626761500,4.946761474609375,-0.06776577234268188,-0.1403179168701172,-0.9712862372398376
1683990968636803600,4.956803466796875,0.20045322179794312,-0.19092941284179688,-1.244405746459961
1683990968646846000,4.966845947265625,0.4349265694618225,-0.2387380599975586,-1.4246129989624023
1683990968656888300,4.976888427734375,0.5369166135787964,-0.2767219543457031,-1.4677107334136963
1683990968666930400,4.986930419921875,0.43746495246887207,-0.22396087646484375,-1.444667100906372
1683990968676972800,4.996972900390625,0.11282296478748322,-0.20984745025634766,-1.339734435081482
1683990968687015200,5.00701513671875,-0.15185639262199402,-0.1627359390258789,-1.227189540863037
1683990968697057300,5.017057373046875,-0.19129246473312378,-0.17818069458007812,-1.2212207317352295
1683990968707099600,5.027099609375,-0.009846657514572144,-0.12444496154785156,-1.3826212882995605
1683990968717142000,5.03714208984375,0.19897706806659698,-0.10430526733398438,-1.5365008115768433
1683990968727184400,5.047184326171875,0.2981758415699005,-0.07233428955078125,-1.6402108669281006
1683990968737226500,5.0572265625,0.4041394591331482,-0.12635326385498047,-1.6958268880844116
1683990968747268900,5.067268798828125,0.5745261907577515,-0.32324886322021484,-1.6072745323181152
1683990968757311200,5.077311279296875,0.5401791334152222,-0.6099557876586914,-1.3624231815338135
1683990968767353300,5.087353271484375,0.33305802941322327,-0.8094997406005859,-1.1691944599151611
1683990968777395700,5.097395751953125,0.13671602308750153,-1.0988636016845703,-1.034534215927124
1683990968787438000,5.10743798828125,0.0295637845993042,-1.3751325607299805,-0.9842283725738525
1683990968797480200,5.117480224609375,0.02717776596546173,-1.392232894897461,-1.105574607849121
1683990968807522600,5.1275224609375,0.043500155210494995,-1.2868318557739258,-1.380933165550232
1683990968817565000,5.13756494140625,0.003964141011238098,-1.3986797332763672,-1.4459176063537598
1683990968827607300,5.147607177734375,-0.0006507188081741333,-1.5437545776367188,-1.5010043382644653
1683990968837649400,5.1576494140625,0.023861035704612732,-1.4568700790405273,-1.5197536945343018
1683990968847691800,5.16769189453125,0.05488508939743042,-1.3700542449951172,-1.4847350120544434
1683990968857734100,5.177734130859375,0.09670022130012512,-1.1325855255126953,-1.4596009254455566
1683990968867776500,5.187776611328125,-0.0008545219898223877,-0.7809295654296875,-1.1592378616333008
1683990968877818600,5.197818603515625,-0.29892438650131226,-0.3659343719482422,-0.7414970397949219
1683990968887861000,5.207861083984375,-0.7456544637680054,0.11683368682861328,-0.3719651699066162
1683990968897903400,5.2179033203125,-1.0835222005844116,0.5261898040771484,0.12131643295288086
1683990968907945500,5.227945556640625,-1.26484215259552,0.5922060012817383,0.5199389457702637
1683990968917987800,5.23798779296875,-1.1919536590576172,0.6143865585327148,0.7033627033233643
1683990968928030200,5.2480302734375,-0.9910652041435242,0.4881467819213867,0.8246598243713379
1683990968938072600,5.258072509765625,-0.7125213146209717,0.3191089630126953,0.8514790534973145
1683990968948114700,5.26811474609375,-0.4865213632583618,0.2674131393432617,0.8798995018005371
1683990968958157000,5.278156982421875,-0.647510290145874,0.2036304473876953,0.9840047359466553
1683990968968199400,5.288199462890625,-0.9276981949806213,0.10625743865966797,0.8761804103851318
1683990968978241500,5.298241455078125,-0.9862783551216125,-0.038547515869140625,0.6560406684875488
1683990968988284000,5.308283935546875,-0.8331422805786133,-0.1351938247680664,0.5227260589599609
1683990968998326300,5.318326171875,-0.5829755663871765,-0.09839439392089844,0.5305757522583008
1683990969008368400,5.328368408203125,-0.4561766982078552,-0.027048110961914062,0.7403573989868164
1683990969018410800,5.33841064453125,-0.5423423051834106,0.04722404479980469,0.9616166353225708
1683990969028453000,5.348453125,-0.41799843311309814,0.19381427764892578,1.0455336570739746
1683990969038495500,5.35849560546875,-0.19367992877960205,0.4894094467163086,1.2828689813613892
1683990969048537600,5.36853759765625,-0.5237323045730591,0.3354482650756836,1.8244800567626953
1683990969058580000,5.378580078125,-1.0506842136383057,0.08712387084960938,2.2189230918884277
1683990969068622300,5.388622314453125,-0.9486896991729736,-0.07608604431152344,2.2869176864624023
1683990969078664400,5.39866455078125,-0.6417441368103027,0.026643753051757812,2.090944290161133
1683990969088706800,5.408706787109375,-0.3658323287963867,0.27204322814941406,1.9670383930206299
1683990969098749200,5.418749267578125,-0.09180974960327148,0.3857421875,1.8649563789367676
1683990969108791300,5.428791259765625,0.13147974014282227,0.31064319610595703,1.7820072174072266
1683990969118833700,5.438833740234375,0.28310680389404297,0.2434253692626953,1.4009144306182861
1683990969128876000,5.4488759765625,0.42658090591430664,0.18249893188476562,1.0058534145355225
1683990969138918400,5.45891845703125,0.4793882369995117,-0.05119609832763672,0.5588297843933105
1683990969148960500,5.46896044921875,0.6097743511199951,-0.26142120361328125,0.11950218677520752
1683990969159003000,5.4790029296875,0.9008588790893555,-0.35477447509765625,-0.2307276725769043
1683990969169045200,5.489045166015625,1.1712620258331299,-0.31453990936279297,-0.48114049434661865
1683990969179087400,5.49908740234375,1.34877347946167,-0.2297496795654297,-0.4693552255630493
1683990969189129700,5.509129638671875,1.3334672451019287,-0.2325601577758789,-0.39684855937957764
1683990969199172000,5.519172119140625,1.2650573253631592,-0.06062507629394531,-0.23316752910614014
1683990969209214500,5.52921435546875,1.2979612350463867,0.02005481719970703,0.13836097717285156
1683990969219256600,5.539256591796875,1.3332303762435913,0.26986026763916016,0.6433664560317993
1683990969229299000,5.549298828125,1.161541223526001,0.5017814636230469,0.9230360984802246
1683990969239341300,5.55934130859375,0.6858680248260498,0.6649436950683594,1.239218831062317
1683990969249383400,5.569383544921875,0.5404367446899414,0.8146629333496094,1.465773582458496
1683990969259425800,5.57942578125,0.5642709732055664,0.9258480072021484,1.9149819612503052
1683990969269468200,5.58946826171875,0.6200189590454102,1.2120914459228516,2.205066442489624
1683990969279510500,5.599510498046875,0.6513538360595703,1.3655729293823242,2.3585715293884277
1683990969289552600,5.609552734375,0.47727012634277344,1.3197827339172363,2.3237085342407227
1683990969299595000,5.619594970703125,0.3279905319213867,1.18243408203125,2.300405502319336
1683990969309637400,5.629637451171875,0.3139519691467285,1.1088018417358398,2.073646068572998
1683990969319679500,5.639679443359375,0.34673047065734863,1.081070899963379,1.9208611249923706
1683990969329721900,5.649721923828125,0.2915949821472168,1.1142959594726562,1.640359878540039
1683990969339764200,5.65976416015625,0.44343137741088867,1.0430984497070312,1.1412367820739746
1683990969349806300,5.669806396484375,0.4105215072631836,0.7511177062988281,0.5711332559585571
1683990969359848700,5.6798486328125,0.32256245613098145,0.5347023010253906,0.27830934524536133
1683990969369891000,5.68989111328125,0.20685482025146484,0.21442699432373047,0.14647185802459717
1683990969379933400,5.699933349609375,0.1344280242919922,0.09443187713623047,-0.07091271877288818
1683990969389975600,5.7099755859375,-0.10652709007263184,0.45612335205078125,0.46436405181884766
1683990969400018000,5.720017822265625,-0.2587859630584717,0.8717432022094727,0.6973439455032349
1683990969410060300,5.730060302734375,-0.41886091232299805,1.0628628730773926,0.8645159006118774
1683990969420102400,5.740102294921875,-0.31832098960876465,1.090916633605957,0.892220139503479
1683990969430144800,5.750144775390625,-0.1331322193145752,1.0337510108947754,0.5947766304016113
1683990969440187100,5.760187255859375,-0.0670175552368164,1.0249857902526855,0.45990288257598877
1683990969450229500,5.7702294921875,-0.1952681541442871,0.9443178176879883,0.27261412143707275
1683990969460271600,5.780271728515625,-0.296276330947876,0.7126836776733398,0.03848564624786377
1683990969470314000,5.79031396484375,-0.3699452877044678,0.5214881896972656,-0.4331876039505005
1683990969480356400,5.8003564453125,-0.4986579418182373,0.2361764907836914,-0.6462229490280151
1683990969490398500,5.8103984375,-0.5353798866271973,0.05206108093261719,-0.9393441081047058
1683990969500440800,5.82044091796875,-0.4208376407623291,-0.05455303192138672,-1.2650089263916016
1683990969510483200,5.830483154296875,-0.177964448928833,0.022382736206054688,-1.2491389513015747
1683990969520525300,5.840525390625,-0.45999693870544434,0.09390068054199219,-1.206580400466919
1683990969530567700,5.850567626953125,-0.6930744647979736,0.21251392364501953,-1.1434813737869263
1683990969540610000,5.860610107421875,-0.6529450416564941,0.2900114059448242,-0.9654712677001953
1683990969550652400,5.87065234375,-0.7594335079193115,0.12763309478759766,-0.7023593187332153
1683990969560694500,5.880694580078125,-0.9824528694152832,0.12574291229248047,-0.6008670330047607
1683990969570737000,5.89073681640625,-1.1600470542907715,0.12960147857666016,-0.268900990486145
1683990969580779300,5.900779296875,-1.29721999168396,0.13594341278076172,0.0418705940246582
1683990969590821400,5.9108212890625,-1.351104497909546,0.1327648162841797,0.39542698860168457
1683990969600863700,5.92086376953125,-1.4821348190307617,0.026885032653808594,0.778826117515564
1683990969610906000,5.930906005859375,-1.7274773120880127,-0.15093612670898438,1.1525999307632446
1683990969620948200,5.9409482421875,-2.0933356285095215,-0.2799224853515625,1.6502398252487183
1683990969630990600,5.950990478515625,-2.3107235431671143,-0.31786251068115234,2.301804542541504
1683990969641033000,5.961032958984375,-2.0045325756073,-0.05965137481689453,2.5670135021209717
1683990969651075300,5.971075439453125,-1.6146442890167236,0.2321910858154297,2.685832977294922
1683990969661117400,5.981117431640625,-1.2691445350646973,0.3632192611694336,2.5918798446655273
1683990969671159800,5.991159912109375,-0.7070200443267822,0.3501119613647461,2.172452688217163
1683990969681202200,6.0012021484375,-0.16457676887512207,0.3438129425048828,1.7579317092895508
1683990969691244300,6.011244384765625,0.20277976989746094,0.24738407135009766,1.2914605140686035
1683990969701286700,6.02128662109375,0.32126760482788086,-0.23901939392089844,1.1022858619689941
1683990969711329000,6.0313291015625,0.1303694248199463,-1.1684074401855469,1.1934607028961182
1683990969721371100,6.04137109375,0.030285120010375977,-2.120358467102051,1.1623377799987793
1683990969731413500,6.05141357421875,0.2435610294342041,-2.8667917251586914,1.2506000995635986
1683990969741456000,6.061455810546875,0.64351487159729,-3.072543144226074,0.9794025421142578
1683990969751498200,6.071498291015625,1.061640977859497,-2.637786865234375,0.3193690776824951
1683990969761540400,6.081540283203125,1.8735663890838623,-1.555253028869629,-0.25024163722991943
1683990969771582700,6.091582763671875,2.6564242839813232,-0.34972572326660156,-0.3848823308944702
1683990969781625000,6.101625,3.0275771617889404,0.4710426330566406,-0.2956116199493408
1683990969791667200,6.111667236328125,2.939082622528076,0.9958248138427734,-0.1109006404876709
1683990969801709600,6.12170947265625,2.3827462196350098,1.3314952850341797,0.2254936695098877
1683990969811752000,6.131751953125,1.605621099472046,1.6684317588806152,0.8484997749328613
1683990969821794000,6.1417939453125,0.97697913646698,1.8700051307678223,1.5255342721939087
1683990969831836400,6.15183642578125,0.8299741744995117,1.7991943359375,1.9944579601287842
1683990969841878800,6.161878662109375,1.2612824440002441,1.4816017150878906,1.8455235958099365
1683990969851921200,6.171921142578125,1.8760194778442383,1.0221643447875977,1.490984559059143
1683990969861963300,6.18196337890625,2.13043212890625,0.7011928558349609,1.2108089923858643
1683990969872005600,6.192005615234375,2.0090434551239014,0.2673635482788086,1.263022780418396
1683990969882047700,6.2020478515625,1.5333822965621948,0.05324554443359375,1.2698613405227661
1683990969892090000,6.212090087890625,1.1931378841400146,-0.14404010772705078,1.4124802350997925
1683990969902132500,6.222132568359375,1.0323970317840576,-0.37701988220214844,0.9802043437957764
1683990969912174800,6.2321748046875,1.0437510013580322,-0.6980695724487305,0.8205457925796509
1683990969922217000,6.242217041015625,0.9330511689186096,-0.6841945648193359,0.6735471487045288
1683990969932259300,6.25225927734375,0.8091418743133545,-0.7679376602172852,0.5932546854019165
1683990969942301700,6.2623017578125,0.8059685230255127,-0.5348243713378906,0.319610595703125
1683990969952343800,6.27234375,0.9251765012741089,-0.26470184326171875,0.13582587242126465
1683990969962386200,6.28238623046875,1.1176197528839111,0.036334991455078125,-0.05606400966644287
1683990969972428500,6.292428466796875,1.3386940956115723,-0.09228801727294922,-0.13317084312438965
1683990969982470700,6.302470703125,1.2771480083465576,-0.0648183822631836,-0.23916757106781006
1683990969992513000,6.312512939453125,1.011505126953125,-0.16692161560058594,-0.10188031196594238
1683990970002555400,6.322555419921875,0.7139596343040466,-0.3173789978027344,-0.13502562046051025
1683990970012597800,6.33259765625,0.4410696029663086,-0.2479400634765625,-0.06773579120635986
1683990970022639900,6.342639892578125,0.09201407432556152,-0.07117462158203125,0.29651808738708496
1683990970032682200,6.35268212890625,-0.13051724433898926,-0.033522605895996094,0.5348948240280151
1683990970042724600,6.362724609375,-0.052599310874938965,0.08742332458496094,0.4539858102798462
1683990970052766700,6.3727666015625,0.16652345657348633,0.14311504364013672,0.42433321475982666
1683990970062809000,6.38280908203125,0.42592132091522217,0.18124008178710938,0.22640180587768555
1683990970072851500,6.3928515625,0.6810165047645569,0.12274742126464844,0.02641737461090088
1683990970082893800,6.402893798828125,0.9617023468017578,0.07783031463623047,-0.17395269870758057
1683990970092936000,6.41293603515625,1.233814001083374,0.11845874786376953,-0.35135912895202637
1683990970102978300,6.422978271484375,1.3354380130767822,0.23522186279296875,-0.44300931692123413
1683990970113020700,6.433020751953125,1.3618321418762207,0.45685482025146484,-0.24227142333984375
1683990970123062800,6.443062744140625,1.2609717845916748,0.6088638305664062,0.1534346342086792
1683990970133105200,6.453105224609375,1.0618324279785156,0.4190940856933594,0.4996684789657593
1683990970143147500,6.4631474609375,0.8997988700866699,0.29685115814208984,0.576921820640564
1683990970153189600,6.473189697265625,0.631489634513855,0.10571575164794922,0.5023350715637207
1683990970163232000,6.48323193359375,0.36902785301208496,0.03896045684814453,0.3067277669906616
1683990970173274400,6.4932744140625,0.27988719940185547,-0.07831001281738281,0.21750330924987793
1683990970183316700,6.503316650390625,0.3535218834877014,-0.1385660171508789,0.12997782230377197
1683990970193358800,6.51335888671875,0.4683294892311096,-0.24699878692626953,0.23791539669036865
1683990970203401200,6.523401123046875,0.4876176714897156,-0.16217708587646484,0.25686466693878174
1683990970213443300,6.533443359375,0.4536559581756592,-0.13048362731933594,0.2369765043258667
1683990970223485700,6.543485595703125,0.41352081298828125,-0.08725452423095703,0.2378469705581665
1683990970233528000,6.553528076171875,0.35000935196876526,-0.08981800079345703,0.2639888525009155
1683990970243570400,6.5635703125,0.2593660056591034,-0.07120418548583984,0.3204460144042969
1683990970253612500,6.573612548828125,0.13350218534469604,-0.05774116516113281,0.3120955228805542
1683990970263655000,6.583655029296875,0.08312836289405823,-0.06853866577148438,0.2223978042602539
1683990970273697300,6.593697265625,0.05520394444465637,-0.02468585968017578,0.08253252506256104
1683990970283739400,6.603739501953125,0.09689483046531677,-0.0838308334350586,-0.0043070316314697266
1683990970293781800,6.61378173828125,0.07298371195793152,-0.05451393127441406,-0.14768683910369873
1683990970303824100,6.62382421875,-0.0032455921173095703,-0.06362152099609375,-0.25308501720428467
1683990970313866200,6.6338662109375,-0.14558729529380798,-0.022751808166503906,-0.3041367530822754
1683990970323908600,6.64390869140625,-0.3068859875202179,0.027339935302734375,-0.35323333740234375
1683990970333951000,6.653950927734375,-0.47347381711006165,-0.013737678527832031,-0.4171373248100281
1683990970343993300,6.663993408203125,-0.5606967210769653,-0.0789794921875,-0.4842984676361084
1683990970354035500,6.674035400390625,-0.5352264642715454,-0.1134023666381836,-0.5905779004096985
1683990970364077800,6.684077880859375,-0.511049747467041,-0.11456966400146484,-0.6829543113708496
1683990970374120200,6.6941201171875,-0.4448832869529724,-0.08486270904541016,-0.7734118700027466
1683990970384162300,6.704162353515625,-0.29562729597091675,-0.08283805847167969,-0.7250763177871704
1683990970394204700,6.71420458984375,-0.21181809902191162,-0.10431957244873047,-0.7522280216217041
1683990970404247000,6.7242470703125,-0.12248411774635315,-0.010081291198730469,-0.6793460249900818
1683990970414289200,6.7342890625,-0.12449911236763,0.03292083740234375,-0.5395931005477905
1683990970424331500,6.74433154296875,-0.012468189001083374,0.0230712890625,-0.5132102370262146
1683990970434374000,6.754373779296875,0.0537017285823822,0.17323589324951172,-0.4712013602256775
1683990970444416000,6.764416015625,0.02802598476409912,-0.058241844177246094,-0.2958718538284302
1683990970454458400,6.774458251953125,0.06200361251831055,0.2182598114013672,-0.20566129684448242
1683990970464500700,6.784500732421875,0.0875338613986969,0.1540069580078125,0.15413987636566162
1683990970474542800,6.79454296875,0.2568186819553375,0.05537986755371094,0.47739267349243164
1683990970484585200,6.804585205078125,0.669292151927948,0.3531332015991211,0.6197758913040161
1683990970494627600,6.814627685546875,0.8610250949859619,-0.06333732604980469,0.4269832372665405
1683990970504670000,6.824669921875,0.5991274118423462,-0.1410045623779297,-0.3358222246170044
1683990970514712000,6.834712158203125,-0.1273716688156128,-0.2385416030883789,-0.7716482281684875
1683990970524754400,6.84475439453125,-0.4382985830307007,-0.31900882720947266,-0.8441173434257507
1683990970534796500,6.854796630859375,-0.08517181873321533,-0.3997468948364258,-1.5387210845947266
1683990970544839000,6.8648388671875,0.3639213442802429,-0.43611907958984375,-2.7440905570983887
1683990970554881300,6.87488134765625,0.33015602827072144,-0.4134330749511719,-2.699525833129883
1683990970564923600,6.884923583984375,0.463772177696228,-0.2762298583984375,-2.408364772796631
1683990970574965800,6.8949658203125,0.16790443658828735,-0.15490055084228516,-1.8928449153900146
1683990970585008000,6.905008056640625,-0.14556178450584412,0.04252433776855469,-1.4168709516525269
1683990970595050500,6.915050537109375,-0.46382057666778564,0.10995292663574219,-0.9472432732582092
1683990970605092600,6.925092529296875,-0.7877675294876099,-0.08138275146484375,-1.0209202766418457
1683990970615135000,6.935135009765625,-0.86313396692276,-0.18448638916015625,-0.8609737157821655
1683990970625177300,6.94517724609375,-0.5714821219444275,-0.20369625091552734,-0.7846078276634216
1683990970635219700,6.9552197265625,-0.22840383648872375,-0.43282127380371094,-0.5657684803009033
1683990970645261800,6.96526171875,-0.13043639063835144,-0.5897970199584961,-0.6397223472595215
1683990970655304200,6.97530419921875,-0.31428655982017517,-0.6365957260131836,-0.5469539165496826
1683990970665346600,6.9853466796875,-0.4108162820339203,-0.6764335632324219,0.24929702281951904
1683990970675388700,6.995388671875,-0.5443772673606873,-0.7039937973022461,0.19085371494293213
1683990970685431000,7.00543115234375,-0.4891532063484192,-0.9864339828491211,0.40323758125305176
1683990970695473400,7.015473388671875,-0.7789779901504517,-1.1632671356201172,0.06577682495117188
1683990970705515500,7.025515625,-0.7450145483016968,-1.3087797164916992,-0.45864856243133545
1683990970715558000,7.035557861328125,-0.4150240421295166,-1.5231170654296875,-0.7385966777801514
1683990970725600300,7.045600341796875,-0.09381696581840515,-1.5386476516723633,-0.7466592788696289
1683990970735642400,7.055642333984375,0.019290238618850708,-1.5756950378417969,-0.8258076906204224
1683990970745684700,7.065684814453125,0.0006084144115447998,-1.5264225006103516,-0.945065975189209
1683990970755727000,7.07572705078125,-0.06596168875694275,-1.290679931640625,-0.9503754377365112
1683990970765769200,7.085769287109375,-0.05220896005630493,-0.9264917373657227,-0.7882577180862427
1683990970775811600,7.0958115234375,-0.26100921630859375,-0.5683631896972656,-0.5093811750411987
1683990970785854000,7.10585400390625,-0.616130530834198,-0.05452251434326172,-0.4412287473678589
1683990970795896000,7.11589599609375,-0.6325691342353821,0.3753786087036133,-0.29294872283935547
1683990970805938400,7.1259384765625,-0.3658233880996704,0.6970653533935547,0.00806581974029541
1683990970815980800,7.135980712890625,-0.04834848642349243,0.7961969375610352,0.33615028858184814
1683990970826023000,7.14602294921875,-0.06166106462478638,1.0011863708496094,0.6570627689361572
1683990970836065300,7.156065185546875,-0.31259047985076904,0.8382062911987305,1.2511478662490845
1683990970846107600,7.166107666015625,-0.5182621479034424,0.6391487121582031,1.904746651649475
1683990970856150000,7.17614990234375,-0.714297890663147,0.33690547943115234,2.429745674133301
1683990970866192100,7.186192138671875,-0.754727840423584,0.1924571990966797,2.5014398097991943
1683990970876234500,7.196234375,-0.44140684604644775,0.3425464630126953,2.279418706893921
1683990970886276600,7.206276611328125,-0.16753387451171875,0.4824028015136719,2.0991387367248535
1683990970896319000,7.216319091796875,-0.0016396045684814453,0.6153812408447266,2.1987247467041016
1683990970906361300,7.226361328125,0.05917775630950928,0.6415061950683594,2.242194175720215
1683990970916403700,7.23640380859375,-0.0004968643188476562,0.4610443115234375,2.0995378494262695
1683990970926445800,7.24644580078125,-0.19213533401489258,0.00043010711669921875,1.9946261644363403
1683990970936488200,7.25648828125,-0.4803762435913086,-0.30555248260498047,1.7450181245803833
1683990970946530600,7.266530517578125,-0.5990169048309326,-0.42703723907470703,1.8852475881576538
1683990970956572700,7.27657275390625,-0.3067460060119629,-0.38547229766845703,1.9081926345825195
1683990970966615000,7.286614990234375,-0.2254929542541504,-0.6536235809326172,1.944769263267517
1683990970976657400,7.296657470703125,-0.06988334655761719,-0.7313547134399414,1.7416813373565674
1683990970986699500,7.306699462890625,0.12351608276367188,-0.5908470153808594,1.6590498685836792
1683990970996742000,7.316741943359375,0.16509318351745605,-0.44167137145996094,1.5656510591506958
1683990971006784300,7.3267841796875,0.38982248306274414,0.05206489562988281,0.9352658987045288
1683990971016826400,7.336826416015625,0.9124841690063477,0.42862606048583984,0.4529693126678467
1683990971026868700,7.34686865234375,1.5614135265350342,0.7222957611083984,0.06605613231658936
1683990971036911000,7.3569111328125,1.956189513206482,0.7386074066162109,-0.4112488031387329
1683990971046953200,7.366953125,1.9678136110305786,0.7011814117431641,-0.48880112171173096
1683990971056995600,7.37699560546875,1.6432549953460693,0.6698522567749023,-0.4585251808166504
1683990971067038000,7.387037841796875,1.2573878765106201,0.8741464614868164,-0.48082268238067627
1683990971077080300,7.397080322265625,0.9156079292297363,1.0458412170410156,-0.30562639236450195
1683990971087122400,7.407122314453125,0.8114688396453857,1.267995834350586,0.2378934621810913
1683990971097164800,7.417164794921875,0.8293740749359131,1.6144437789916992,0.9756247997283936
1683990971107207000,7.42720703125,0.8238255977630615,1.6795916557312012,1.5295419692993164
1683990971117249300,7.437249267578125,0.8394575119018555,1.794870376586914,1.9212090969085693
1683990971127291600,7.447291748046875,0.43076634407043457,1.6877193450927734,2.314427375793457
1683990971137334000,7.457333984375,0.10562634468078613,1.7409319877624512,1.972899079322815
1683990971147376000,7.467376220703125,-0.07900786399841309,1.4243412017822266,2.0201947689056396
1683990971157418500,7.47741845703125,-0.10034561157226562,0.7202434539794922,1.9981392621994019
1683990971167460900,7.4874609375,-0.08136773109436035,0.29917144775390625,1.58793306350708
1683990971177503000,7.4975029296875,0.23693537712097168,-0.13073062896728516,1.185920238494873
1683990971187545300,7.50754541015625,0.34780216217041016,-0.4484996795654297,0.7694237232208252
1683990971197587700,7.517587646484375,0.3242969512939453,-0.11740684509277344,0.16651856899261475
1683990971207629800,7.5276298828125,0.39775848388671875,-0.12854862213134766,0.13898086547851562
1683990971217672200,7.537672119140625,0.1019127368927002,0.15547561645507812,-0.49821507930755615
1683990971227714600,7.547714599609375,0.1925971508026123,0.6442861557006836,-0.7891666889190674
1683990971237756700,7.557756591796875,0.2931632995605469,1.0847930908203125,-0.3111323118209839
1683990971247799000,7.567799072265625,0.17202544212341309,1.0466241836547852,-0.36450695991516113
1683990971257841400,7.57784130859375,-0.02194523811340332,0.8130302429199219,-0.524964451789856
1683990971267883500,7.587883544921875,-0.11456871032714844,0.5109834671020508,-0.42938077449798584
1683990971277926000,7.59792578125,-0.5680215358734131,0.4534168243408203,-0.6373101472854614
1683990971287968300,7.60796826171875,-0.8371901512145996,0.29192161560058594,-0.2586246728897095
1683990971298010400,7.61801025390625,-1.2613351345062256,0.12047481536865234,-0.1739100217819214
1683990971308052700,7.628052734375,-1.7434725761413574,0.05899810791015625,-0.3282562494277954
1683990971318095000,7.63809521484375,-1.929109811782837,-0.06427860260009766,-0.6578537225723267
1683990971328137500,7.648137451171875,-1.8371024131774902,-0.12177085876464844,-1.1839958429336548
1683990971338179600,7.6581796875,-1.667348861694336,-0.2135753631591797,-1.4639188051223755
1683990971348222000,7.668221923828125,-1.3515901565551758,-0.17457294464111328,-1.8084022998809814
1683990971358264000,7.67826416015625,-1.0750021934509277,-0.3541860580444336,-1.9530199766159058
1683990971368306400,7.688306396484375,-0.528822660446167,-0.1716747283935547,-1.7148935794830322
1683990971378348800,7.698348876953125,-0.6812853813171387,-0.05553436279296875,-1.7931455373764038
1683990971388391200,7.70839111328125,-0.8311622142791748,-0.0693807601928711,-1.527702808380127
1683990971398433300,7.718433349609375,-0.7750680446624756,0.026582717895507812,-1.0853462219238281
1683990971408475600,7.7284755859375,-0.6494247913360596,0.32469844818115234,-0.8091075420379639
1683990971418518000,7.73851806640625,-0.5059072971343994,0.7128515243530273,-0.551836371421814
1683990971428560100,7.74856005859375,-0.4998900890350342,0.9362239837646484,-0.1793285608291626
1683990971438602500,7.7586025390625,-0.7607417106628418,0.8861865997314453,0.23058736324310303
1683990971448644900,7.768644775390625,-1.2822201251983643,0.7142553329467773,0.6907700300216675
1683990971458687000,7.77868701171875,-1.411496877670288,0.40494441986083984,1.149537205696106
1683990971468729300,7.788729248046875,-0.9888978004455566,-0.0010700225830078125,1.394934058189392
1683990971478771700,7.798771728515625,-0.5106401443481445,-0.6385202407836914,1.5216394662857056
1683990971488813800,7.808813720703125,-0.05195260047912598,-1.2592267990112305,1.8117376565933228
1683990971498856200,7.818856201171875,0.5868488550186157,-1.8215255737304688,1.9163157939910889
1683990971508898600,7.828898681640625,1.099579095840454,-2.1864795684814453,1.9263241291046143
1683990971518940700,7.838940673828125,1.3346192836761475,-2.0962066650390625,1.8290475606918335
1683990971528983000,7.848983154296875,1.3076553344726562,-1.856186866760254,1.8750370740890503
1683990971539025400,7.859025390625,1.251100778579712,-1.211106300354004,1.7842713594436646
1683990971549067500,7.869067626953125,1.3734049797058105,-0.46659183502197266,1.7198302745819092
1683990971559110000,7.87910986328125,1.332392930984497,0.2159900665283203,1.6895651817321777
1683990971569152300,7.88915234375,1.090768814086914,0.6585597991943359,1.7934764623641968
1683990971579194400,7.8991943359375,0.7619626522064209,1.0435009002685547,1.8545395135879517
1683990971589236700,7.90923681640625,0.5516993999481201,1.3302192687988281,1.9922884702682495
1683990971599279000,7.919279052734375,0.6766601800918579,1.4017906188964844,1.835638403892517
1683990971609321500,7.929321533203125,0.8045452833175659,1.0548934936523438,2.0519728660583496
1683990971619363600,7.939363525390625,0.8076444268226624,1.2241334915161133,1.4560744762420654
1683990971629406000,7.949406005859375,0.7903202176094055,0.9835872650146484,1.2711232900619507
1683990971639448000,7.959447998046875,1.259614109992981,0.5923652648925781,0.9576442241668701
1683990971649490400,7.969490478515625,1.690631628036499,0.4456367492675781,0.6367979049682617
1683990971659532800,7.97953271484375,1.6089128255844116,0.22232437133789062,0.6098423004150391
1683990971669575200,7.9895751953125,1.2638972997665405,-0.11864280700683594,0.3533596992492676
1683990971679617300,7.9996171875,0.8557128310203552,-0.5152273178100586,0.21525835990905762
1683990971689659600,8.00965966796875,0.5503673553466797,-0.8192873001098633,0.14056897163391113
1683990971699701800,8.01970166015625,0.5303659439086914,-1.0616531372070312,0.03514587879180908
1683990971709744000,8.029744140625,0.7264346480369568,-1.081376075744629,-0.1503227949142456
1683990971719786500,8.039786376953124,0.8523792028427124,-0.9067907333374023,-0.291678786277771
1683990971729828900,8.049828857421875,0.8005268573760986,-0.6385726928710938,-0.3694477081298828
1683990971739871000,8.05987109375,0.6781322956085205,-0.44924259185791016,-0.5085110664367676
1683990971749913300,8.069913330078125,0.6503130197525024,-0.25492000579833984,-0.6553168892860413
1683990971759955700,8.079955810546876,0.7231508493423462,-0.18438148498535156,-0.6586955189704895
1683990971769997800,8.089997802734375,0.7042337656021118,-0.020028114318847656,-0.5723445415496826
1683990971780040200,8.100040283203125,0.1802581548690796,-0.004077911376953125,-0.21593821048736572
1683990971790082600,8.11008251953125,-0.10320055484771729,0.05654144287109375,0.04751026630401611
1683990971800124700,8.120124755859376,-0.013518333435058594,0.13289260864257812,0.2134861946105957
1683990971810167000,8.1301669921875,0.19011104106903076,0.2106151580810547,0.26022493839263916
1683990971820209400,8.14020947265625,0.3743545413017273,0.2516975402832031,0.19269120693206787
1683990971830251500,8.15025146484375,0.47058528661727905,0.35422420501708984,0.260967493057251
1683990971840294000,8.1602939453125,0.44718438386917114,0.37701892852783203,0.30561208724975586
1683990971850336300,8.170336181640625,0.47210437059402466,0.4157266616821289,0.34076476097106934
1683990971860378400,8.18037841796875,0.37438321113586426,0.3769645690917969,0.3610430955886841
1683990971870420700,8.190420654296876,0.5192021131515503,0.3207578659057617,0.1974867582321167
1683990971880463000,8.200463134765625,0.7182279825210571,0.27129650115966797,-0.03867948055267334
1683990971890505200,8.210505126953125,0.7698966264724731,0.19043254852294922,-0.041463255882263184
1683990971900547600,8.220547607421874,0.6906890869140625,0.044994354248046875,0.14420318603515625
1683990971910590000,8.23058984375,0.3304159641265869,-0.0452117919921875,0.3571377992630005
1683990971920632000,8.240632080078125,-0.07246065139770508,-0.10674285888671875,0.6162995100021362
1683990971930674400,8.25067431640625,-0.3394378423690796,-0.07787227630615234,0.5983608961105347
1683990971940716800,8.260716796875,-0.33998405933380127,-0.056883811950683594,0.2803173065185547
1683990971950759000,8.270759033203126,-0.193315327167511,-0.050937652587890625,-0.05496382713317871
1683990971960801300,8.28080126953125,0.09391069412231445,-0.09095191955566406,-0.2930443286895752
1683990971970843600,8.29084375,0.3136408030986786,-0.1692962646484375,-0.5645886659622192
1683990971980886000,8.300885986328124,0.44547781348228455,-0.21642780303955078,-0.7138638496398926
1683990971990928100,8.31092822265625,0.46077266335487366,-0.19429397583007812,-0.7798833847045898
1683990972000970500,8.320970458984375,0.42913398146629333,-0.16520214080810547,-0.9397192001342773
1683990972011012600,8.3310126953125,0.365545392036438,-0.22956371307373047,-1.0452606678009033
1683990972021055000,8.341054931640626,0.2899734675884247,-0.25583744049072266,-1.137068748474121
1683990972031097300,8.351097412109375,0.2251434326171875,-0.3134145736694336,-1.2101008892059326
1683990972041139700,8.3611396484375,0.16551852226257324,-0.385589599609375,-1.2355527877807617
1683990972051181800,8.371181884765624,0.13095086812973022,-0.3815631866455078,-1.330260992050171
1683990972061224200,8.38122412109375,0.16882753372192383,-0.43276119232177734,-1.44109308719635
1683990972071266300,8.391266357421875,0.20444396138191223,-0.4529733657836914,-1.4841781854629517
1683990972081308700,8.40130859375,0.10625910758972168,-0.4518299102783203,-1.4741237163543701
1683990972091351000,8.41135107421875,0.013575613498687744,-0.4675483703613281,-1.4536943435668945
1683990972101393400,8.421393310546875,-0.091999351978302,-0.44742393493652344,-1.481820821762085
1683990972111435500,8.431435546875,-0.21187400817871094,-0.4608287811279297,-1.5128393173217773
1683990972121478000,8.441477783203124,-0.2744251489639282,-0.46710872650146484,-1.5779330730438232
1683990972131520000,8.45152001953125,-0.18053263425827026,-0.49732017517089844,-1.6223819255828857
1683990972141562400,8.461562255859375,-0.01593756675720215,-0.49390697479248047,-1.6555726528167725
1683990972151604700,8.471604736328125,0.10816401243209839,-0.3851299285888672,-1.6652530431747437
1683990972161647000,8.481647216796874,0.1889115571975708,-0.2631826400756836,-1.5654243230819702
1683990972171689200,8.491689208984376,0.184070885181427,-0.18337535858154297,-1.41550612449646
1683990972181731600,8.501731689453125,0.1350366473197937,-0.06282806396484375,-1.158392071723938
1683990972191773700,8.511773681640625,0.06165754795074463,-0.017739295959472656,-0.8575955629348755
1683990972201816000,8.521816162109374,-0.06739276647567749,-0.06577491760253906,-0.5465644598007202
1683990972211858400,8.5318583984375,-0.17161154747009277,-0.18410110473632812,-0.27823519706726074
1683990972221900800,8.54190087890625,-0.21472251415252686,-0.3856954574584961,-0.008808374404907227
1683990972231943000,8.55194287109375,-0.1478900909423828,-0.673792839050293,0.05770111083984375
1683990972241985300,8.5619853515625,0.08613157272338867,-0.9731626510620117,-0.033933162689208984
1683990972252027400,8.57202734375,0.39845263957977295,-1.1609973907470703,-0.14792227745056152
1683990972262069800,8.58206982421875,0.6145768165588379,-1.2130413055419922,-0.34956157207489014
1683990972272112000,8.592112060546874,0.6726871132850647,-1.3638801574707031,-0.5595955848693848
1683990972282154500,8.602154541015626,0.6361885070800781,-1.313277244567871,-0.3814643621444702
1683990972292196600,8.612196533203125,0.3761932849884033,-1.0581274032592773,0.02010941505432129
1683990972302239000,8.622239013671875,-0.012461543083190918,-0.8297090530395508,0.8089046478271484
1683990972312281000,8.632281005859374,-0.34029650688171387,-0.4260406494140625,1.297680377960205
1683990972322323500,8.642323486328126,-0.5046902894973755,-0.09633255004882812,1.7602040767669678
1683990972332365800,8.65236572265625,-0.5581614971160889,0.09482955932617188,2.201737403869629
1683990972342408200,8.662408203125,-0.5191938877105713,0.14519786834716797,2.6507763862609863
1683990972352450300,8.6724501953125,-0.6215566396713257,0.2778282165527344,2.620327949523926
1683990972362492700,8.68249267578125,-0.7292859554290771,0.35985279083251953,2.405534267425537
1683990972372534800,8.69253466796875,-0.8499476909637451,0.345977783203125,2.2057156562805176
1683990972382577200,8.7025771484375,-1.0556550025939941,0.1855783462524414,1.8069603443145752
1683990972392619500,8.71261962890625,-0.7367691993713379,0.4190254211425781,1.5898311138153076
1683990972402662000,8.722661865234375,-0.39128661155700684,0.6836576461791992,1.762362003326416
1683990972412704000,8.7327041015625,-0.3639717102050781,0.4673624038696289,0.9760677814483643
1683990972422746400,8.742746337890624,-0.36342811584472656,0.5856113433837891,0.9347007274627686
1683990972432788500,8.75278857421875,0.10388493537902832,0.2903299331665039,0.7532203197479248
1683990972442830800,8.762830810546875,0.5876932144165039,0.21127796173095703,0.1999034881591797
1683990972452873200,8.772873291015625,0.6947207450866699,0.1688547134399414,-0.30247020721435547
1683990972462915600,8.78291552734375,0.8023591041564941,0.1783618927001953,-0.3338606357574463
1683990972472957700,8.792957763671875,0.929938793182373,0.306671142578125,-0.276256799697876
1683990972483000000,8.803,0.8154544830322266,0.3295431137084961,-0.023264408111572266
1683990972493042200,8.813042236328124,0.6696510314941406,0.43192291259765625,0.21196317672729492
1683990972503084500,8.82308447265625,0.6494297981262207,0.5885744094848633,0.44428300857543945
1683990972513127000,8.833126953125,0.6761665344238281,0.7465219497680664,0.5585517883300781
1683990972523169300,8.843169189453125,0.6947531700134277,0.7580976486206055,0.5750138759613037
1683990972533211400,8.85321142578125,0.6505422592163086,0.7863292694091797,0.5997965335845947
1683990972543253800,8.863253662109376,0.44831395149230957,0.7427749633789062,0.6257314682006836
1683990972553296000,8.8732958984375,0.23112154006958008,0.756403923034668,0.5826232433319092
1683990972563338200,8.883338134765625,-0.06999588012695312,0.6568470001220703,0.43566298484802246
1683990972573380600,8.893380615234374,-0.2990450859069824,0.6059350967407227,0.21197056770324707
1683990972583423000,8.903423095703126,-0.5038590431213379,0.4974517822265625,0.02109503746032715
1683990972593465000,8.913465087890625,-0.5984501838684082,0.6269407272338867,-0.20595574378967285
1683990972603507500,8.923507568359375,-0.6678605079650879,0.7118301391601562,-0.48749852180480957
1683990972613549600,8.933549560546876,-0.6053612232208252,0.7498664855957031,-0.5637524127960205
1683990972623592000,8.943592041015625,-0.5502166748046875,0.6844062805175781,-0.610830545425415
1683990972633634300,8.95363427734375,-0.5332033634185791,0.5616769790649414,-0.5504400730133057
1683990972643676400,8.963676513671874,-0.5925467014312744,0.37973880767822266,-0.5372500419616699
1683990972653718800,8.97371875,-0.7744870185852051,0.3268156051635742,-0.4855351448059082
1683990972663761200,8.98376123046875,-0.8483691215515137,0.1656646728515625,-0.25484347343444824
1683990972673803300,8.99380322265625,-0.9571912288665771,0.1258106231689453,-0.031253814697265625
1683990972683845600,9.003845703125,-1.1014964580535889,-0.007704734802246094,0.1735212802886963
1683990972693888000,9.013887939453125,-1.0675761699676514,-0.08364295959472656,0.34791088104248047
1683990972703930000,9.02393017578125,-0.9193358421325684,-0.025098800659179688,0.5234904289245605
1683990972713972500,9.033972412109375,-0.6956014633178711,0.07916545867919922,0.7593739032745361
1683990972724014800,9.044014892578126,-0.5418667793273926,0.1476278305053711,0.699336051940918
1683990972734057000,9.054056884765625,-0.4147047996520996,0.15411758422851562,0.4662487506866455
1683990972744099300,9.064099365234375,-0.29990220069885254,0.24680709838867188,0.21542668342590332
1683990972754141700,9.0741416015625,-0.2864251136779785,0.22225475311279297,0.09586977958679199
1683990972764183800,9.084183837890626,-0.3388702869415283,0.17368412017822266,0.0007030963897705078
1683990972774226200,9.09422607421875,-0.5078344345092773,0.026543617248535156,-0.11527585983276367
1683990972784268500,9.1042685546875,-0.5232183933258057,0.024356842041015625,-0.27170348167419434
1683990972794310700,9.114310546875,-0.14454030990600586,0.04824542999267578,-0.2558157444000244
1683990972804353000,9.12435302734375,0.3027369976043701,0.10730552673339844,-0.2198772430419922
1683990972814395400,9.1343955078125,0.5175514221191406,0.0805654525756836,-0.19258689880371094
1683990972824437500,9.1444375,0.5612695217132568,0.05845928192138672,-0.126542329788208
1683990972834479900,9.15447998046875,0.6253414154052734,-0.03827857971191406,-0.1116647720336914
1683990972844522200,9.164522216796875,0.48740100860595703,-0.0830240249633789,-0.1771855354309082
1683990972854564400,9.174564453125,0.32816052436828613,-0.1383981704711914,-0.20578885078430176
1683990972864606700,9.184606689453124,0.2935144901275635,-0.14480876922607422,-0.1595752239227295
1683990972874649000,9.194649169921876,0.36784958839416504,-0.06845855712890625,-0.18635010719299316
1683990972884691200,9.204691162109375,0.39578795433044434,0.03307914733886719,-0.08767485618591309
1683990972894733600,9.214733642578125,0.361797571182251,0.18555068969726562,-0.06935238838195801
1683990972904776000,9.22477587890625,0.3077363967895508,0.3403358459472656,0.15197014808654785
1683990972914818000,9.234818115234376,0.22429466247558594,0.4206066131591797,0.23311972618103027
1683990972924860400,9.2448603515625,0.1257917881011963,0.48616600036621094,0.27431225776672363
1683990972934902800,9.25490283203125,-0.021129608154296875,0.5010452270507812,0.4373958110809326
1683990972944945000,9.26494482421875,-0.11625194549560547,0.46063995361328125,0.46398425102233887
1683990972954987300,9.2749873046875,-0.07132387161254883,0.3606090545654297,0.47013425827026367
1683990972965029600,9.285029541015625,0.03199291229248047,0.33727359771728516,0.520416259765625
1683990972975071700,9.29507177734375,0.08836936950683594,0.3087043762207031,0.5082824230194092
1683990972985114000,9.305114013671876,0.07588553428649902,0.40125465393066406,0.4187595844268799
1683990972995156500,9.315156494140625,0.2071363925933838,0.4274129867553711,0.3417181968688965
1683990973005198600,9.325198486328125,0.30846524238586426,0.41593074798583984,0.22542262077331543
1683990973015241000,9.335240966796874,0.29099559783935547,0.31802940368652344,0.18146014213562012
1683990973025283300,9.345283447265626,0.17558789253234863,0.1719655990600586,0.22746944427490234
1683990973035325400,9.355325439453125,0.1179971694946289,0.07703399658203125,0.35483407974243164
1683990973045367800,9.365367919921875,0.1256856918334961,-0.014451026916503906,0.48409557342529297
1683990973055410200,9.37541015625,0.07436370849609375,-0.1261758804321289,0.5737783908843994
1683990973065452300,9.385452392578125,-0.08545923233032227,-0.20415687561035156,0.6619646549224854
1683990973075494700,9.39549462890625,-0.15982437133789062,-0.23267078399658203,0.6791646480560303
1683990973085537000,9.405537109375,-0.1459200382232666,-0.26391124725341797,0.5592689514160156
1683990973095579100,9.4155791015625,-0.08627963066101074,-0.2525215148925781,0.5055642127990723
1683990973105621500,9.42562158203125,-0.06228494644165039,-0.2528572082519531,0.39102721214294434
1683990973115664000,9.435663818359375,-0.017516136169433594,-0.14188003540039062,0.36578917503356934
1683990973125706000,9.4457060546875,-0.024189233779907227,-0.11199760437011719,0.3825836181640625
1683990973135748400,9.455748291015626,-0.015706300735473633,-0.07484722137451172,0.4495408535003662
1683990973145790500,9.46579052734375,0.07612991333007812,-0.0260772705078125,0.5722291469573975
1683990973155832800,9.475832763671875,0.17298412322998047,0.02665233612060547,0.6031203269958496
1683990973165875200,9.485875244140624,0.2220766544342041,0.04509258270263672,0.6448075771331787
1683990973175917600,9.49591748046875,0.2666923999786377,0.1260242462158203,0.6277134418487549
1683990973185959700,9.505959716796875,0.3902602195739746,0.2026529312133789,0.6645967960357666
1683990973196002000,9.516001953125,0.5384225845336914,0.2542448043823242,0.6932485103607178
1683990973206044200,9.526044189453126,0.5868301391601562,0.28820133209228516,0.7334425449371338
1683990973216086500,9.53608642578125,0.5881340503692627,0.2832622528076172,0.7596123218536377
1683990973226129000,9.54612890625,0.5650227069854736,0.23270797729492188,0.7999181747436523
1683990973236171000,9.5561708984375,0.5555415153503418,0.3045625686645508,0.8003859519958496
1683990973246213400,9.56621337890625,0.561455488204956,0.3275423049926758,0.8846588134765625
1683990973256255700,9.576255859375,0.5161337852478027,0.3992176055908203,0.8586521148681641
1683990973266297900,9.5862978515625,0.43412208557128906,0.3447093963623047,0.9031498432159424
1683990973276340200,9.59634033203125,0.35559678077697754,0.2580394744873047,0.8967773914337158
1683990973286382600,9.606382568359376,0.33406949043273926,0.13536834716796875,0.9657673835754395
1683990973296424700,9.6164248046875,0.29966235160827637,0.0646524429321289,0.9890086650848389
1683990973306467000,9.626467041015625,0.2272014617919922,-0.013976097106933594,0.9790723323822021
1683990973316509400,9.636509521484374,0.15125513076782227,-0.08652877807617188,0.9837045669555664
1683990973326551600,9.646551513671875,0.13165545463562012,-0.0495147705078125,0.9378170967102051
1683990973336594000,9.656593994140625,0.14403223991394043,-0.041289329528808594,0.9130308628082275
1683990973346636300,9.66663623046875,0.04864001274108887,-0.026198387145996094,0.8633711338043213
1683990973356678400,9.676678466796876,-0.10562443733215332,0.014317512512207031,0.7533435821533203
1683990973366720800,9.686720703125,-0.09841775894165039,-0.026508331298828125,0.6417825222015381
1683990973376763100,9.69676318359375,-0.0923314094543457,-0.04842185974121094,0.4795520305633545
1683990973386805200,9.70680517578125,-0.09644722938537598,-0.10354232788085938,0.411419153213501
1683990973396847600,9.71684765625,-0.122344970703125,-0.12069225311279297,0.27574706077575684
1683990973406889700,9.7268896484375,-0.12514042854309082,-0.12393569946289062,0.19154620170593262
1683990973416932000,9.73693212890625,-0.12196564674377441,-0.13453102111816406,0.11117935180664062
1683990973426974500,9.746974365234376,-0.09700822830200195,-0.1378622055053711,0.00942087173461914
1683990973437016600,9.7570166015625,0.01216888427734375,-0.05832862854003906,0.002561807632446289
1683990973447059000,9.767058837890625,0.08810257911682129,0.04653358459472656,0.014178037643432617
1683990973457101300,9.777101318359374,0.09336543083190918,0.13156700134277344,0.04831218719482422
1683990973467143400,9.787143310546876,0.14906811714172363,0.21568012237548828,0.08702373504638672
1683990973477185800,9.797185791015625,0.22608160972595215,0.2986135482788086,0.2092280387878418
1683990973487228200,9.807228271484375,0.20869922637939453,0.2882966995239258,0.19592618942260742
1683990973497270300,9.817270263671874,0.26108312606811523,0.2826194763183594,0.21599936485290527
1683990973507312600,9.827312744140626,0.328249454498291,0.3828611373901367,0.14025092124938965
1683990973517355000,9.83735498046875,0.38664793968200684,0.3778038024902344,0.14972567558288574
1683990973527397000,9.847397216796875,0.33974790573120117,0.3209657669067383,0.1367952823638916
1683990973537439500,9.857439453125,0.3231194019317627,0.24641036987304688,0.04582023620605469
1683990973547481900,9.86748193359375,0.333660364151001,0.28401851654052734,-0.013458728790283203
1683990973557524000,9.87752392578125,0.3655068874359131,0.30499935150146484,-0.0038900375366210938
1683990973567566300,9.88756640625,0.35199451446533203,0.2979459762573242,0.030935287475585938
1683990973577608700,9.897608642578126,0.3503236770629883,0.24681663513183594,0.0998995304107666
1683990973587650800,9.90765087890625,0.34362173080444336,0.1947183609008789,0.1434309482574463
1683990973597693200,9.917693115234375,0.2940523624420166,0.09917926788330078,0.15193438529968262
1683990973607735300,9.9277353515625,0.3004481792449951,0.0034236907958984375,0.09988665580749512
1683990973617777700,9.937777587890626,0.34612512588500977,-0.09722232818603516,0.147003173828125
1683990973627820000,9.947820068359375,0.33098769187927246,-0.13224411010742188,0.19629454612731934
1683990973637862400,9.9578623046875,0.3206350803375244,-0.1758403778076172,0.25064992904663086
1683990973647904500,9.967904541015624,0.4040062427520752,-0.22999000549316406,0.30570125579833984
1683990973657947000,9.97794677734375,0.3783562183380127,-0.17895984649658203,0.3235166072845459
1683990973667989000,9.987989013671875,0.3946949243545532,-0.10905742645263672,0.37713098526000977
1683990973678031400,9.99803125,0.4039473533630371,-0.1408843994140625,0.5206484794616699
1683990973688073700,10.00807373046875,0.3081470727920532,-0.1976757049560547,0.540705680847168
1683990973698115800,10.01811572265625,0.22680532932281494,-0.15926265716552734,0.5511012077331543
1683990973708158200,10.028158203125,0.2204427719116211,-0.013512611389160156,0.6581158638000488
1683990973718200600,10.03820068359375,0.1965479850769043,0.09393024444580078,0.657188892364502
1683990973728242700,10.04824267578125,0.14358901977539062,0.11898517608642578,0.575955867767334
1683990973738285000,10.05828515625,0.08330285549163818,0.1286907196044922,0.6149489879608154
1683990973748327400,10.068327392578125,0.01108253002166748,0.1233530044555664,0.5345053672790527
1683990973758369500,10.07836962890625,0.05113327503204346,0.11339950561523438,0.3173942565917969
1683990973768412000,10.088411865234375,0.3027377128601074,0.09063911437988281,-0.017771244049072266
1683990973778454300,10.098454345703125,0.7089967727661133,0.1434459686279297,-0.30316734313964844
1683990973788496400,10.108496337890625,0.9688783288002014,0.006974220275878906,-0.4105541706085205
1683990973798538800,10.118538818359376,1.1128630638122559,-0.036255836486816406,-0.3694276809692383
1683990973808581000,10.1285810546875,1.151709794998169,-0.09682655334472656,-0.15351080894470215
1683990973818623200,10.138623291015625,1.0461680889129639,-0.055809974670410156,-0.022919654846191406
1683990973828665600,10.14866552734375,0.7536052465438843,0.20668983459472656,0.16521239280700684
1683990973838707700,10.158707763671876,0.5321327447891235,0.30016136169433594,0.31597423553466797
1683990973848750000,10.16875,0.25582921504974365,0.1410531997680664,0.21834015846252441
1683990973858792400,10.17879248046875,-0.12692618370056152,-0.10592842102050781,0.18834853172302246
1683990973868834800,10.188834716796874,-0.7312251329421997,-0.13346099853515625,0.27522969245910645
1683990973878877000,10.198876953125,-0.9836428165435791,0.02969837188720703,0.05686187744140625
1683990973888919300,10.208919189453125,-0.3922562599182129,-0.0709676742553711,-0.32201075553894043
1683990973898961400,10.21896142578125,0.0017648935317993164,-0.2351970672607422,-0.515484094619751
1683990973909003800,10.229003662109376,-0.26742279529571533,-0.2501993179321289,-0.4917302131652832
1683990973919046100,10.239046142578125,-0.7912561893463135,-0.14593887329101562,-0.32040882110595703
1683990973929088300,10.249088134765625,-1.1002389192581177,0.01697826385498047,-0.36256909370422363
1683990973939130600,10.259130615234374,-1.0114439725875854,0.01653003692626953,-0.6770424842834473
1683990973949173000,10.269173095703126,-0.5618255138397217,-0.08402156829833984,-1.0857843160629272
1683990973959215000,10.279215087890625,-0.03930354118347168,-0.2623767852783203,-1.569591999053955
1683990973969257500,10.289257568359375,0.21577954292297363,-1.047018051147461,-1.5238932371139526
1683990973979299800,10.2992998046875,0.27931642532348633,-1.9350824356079102,-1.736729383468628
1683990973989342000,10.309342041015626,0.13690471649169922,-2.1015396118164062,-1.9193096160888672
1683990973999384300,10.31938427734375,-0.08005762100219727,-2.0067100524902344,-1.8774698972702026
1683990974009426700,10.3294267578125,-0.003337860107421875,-1.6178455352783203,-1.9475466012954712
1683990974019468800,10.33946875,-0.054400861263275146,-1.0934820175170898,-2.028907537460327
1683990974029511200,10.34951123046875,-0.36959385871887207,-0.6039981842041016,-2.0208377838134766
1683990974039553300,10.35955322265625,-0.459431529045105,-0.2043933868408203,-1.9841787815093994
1683990974049595600,10.369595703125,-0.3752485513687134,0.059967041015625,-1.8126107454299927
1683990974059638000,10.379637939453126,-0.2080686092376709,0.23958683013916016,-1.540727138519287
1683990974069680000,10.38968017578125,0.04847753047943115,0.3305635452270508,-1.3656114339828491
1683990974079722500,10.399722412109375,0.23480874300003052,0.39299774169921875,-1.1317336559295654
1683990974089764900,10.409764892578124,0.32736772298812866,0.3311033248901367,-0.9383124113082886
1683990974099807000,10.419806884765626,0.3962213397026062,0.13551616668701172,-0.8427062034606934
1683990974109849300,10.429849365234375,0.47554007172584534,0.02862262725830078,-0.7537556886672974
1683990974119891700,10.4398916015625,0.5276373028755188,-0.013683319091796875,-0.6711455583572388
1683990974129933800,10.449933837890624,0.5748255252838135,-0.04181385040283203,-0.6044436693191528
1683990974139976200,10.45997607421875,0.512958288192749,-0.07487106323242188,-0.6533820629119873
1683990974150018600,10.4700185546875,0.2575738728046417,-0.14395904541015625,-0.6455875635147095
1683990974160060700,10.480060791015624,-0.11110270023345947,-0.10579109191894531,-0.6696542501449585
1683990974170103000,10.49010302734375,-0.39149004220962524,-0.07512855529785156,-0.5982611179351807
1683990974180145200,10.500145263671875,-0.42771410942077637,-0.06378459930419922,-0.49137353897094727
1683990974190187500,10.5101875,-0.36849015951156616,-0.09539127349853516,-0.4611135721206665
1683990974200230000,10.52022998046875,-0.2681254744529724,-0.08141708374023438,-0.5688134431838989
1683990974210272000,10.53027197265625,-0.1703777313232422,-0.09862899780273438,-0.7400996685028076
1683990974220314400,10.540314453125,-0.06462571024894714,-0.09463691711425781,-0.8939110040664673
1683990974230356700,10.550356689453125,-0.0600314736366272,-0.17942523956298828,-0.9924588203430176
1683990974240398800,10.56039892578125,-0.07253283262252808,-0.24524784088134766,-0.9932423830032349
1683990974250441200,10.570441162109375,-0.18365570902824402,-0.33251476287841797,-0.9964559078216553
1683990974260483600,10.580483642578125,-0.40170392394065857,-0.38370418548583984,-0.9659332036972046
1683990974270525700,10.590525634765624,-0.5939799547195435,-0.47779273986816406,-0.8422003984451294
1683990974280568000,10.600568115234376,-0.8319976329803467,-0.5121850967407227,-0.7644073963165283
1683990974290610400,10.6106103515625,-1.0370815992355347,-0.5109987258911133,-0.6799482107162476
1683990974300652500,10.620652587890625,-1.1063718795776367,-0.5125818252563477,-0.7108054161071777
1683990974310695000,10.63069482421875,-1.0222523212432861,-0.48340797424316406,-0.803979754447937
1683990974320737000,10.640737060546876,-0.9322421550750732,-0.34228992462158203,-0.8852108716964722
1683990974330779400,10.650779296875,-0.8188868761062622,-0.23044204711914062,-1.000265121459961
1683990974340821800,10.66082177734375,-0.6312456130981445,-0.11432361602783203,-1.1467862129211426
1683990974350864000,10.67086376953125,-0.3820514380931854,-0.07045841217041016,-1.2965002059936523
1683990974360906200,10.68090625,-0.048113077878952026,0.042418479919433594,-1.4344661235809326
1683990974370948600,10.690948486328125,0.31670621037483215,0.0904855728149414,-1.3862724304199219
1683990974380990700,10.70099072265625,0.5677052140235901,0.1336221694946289,-1.2553073167800903
1683990974391033000,10.711033203125,0.6994064450263977,0.15043354034423828,-1.070342779159546
1683990974401075500,10.721075439453125,0.7765282988548279,0.1793680191040039,-0.938309907913208
1683990974411117600,10.73111767578125,0.8239498138427734,0.1486797332763672,-0.7779905796051025
1683990974421160000,10.741159912109374,0.7984652519226074,0.10864543914794922,-0.6659977436065674
1683990974431202300,10.751202392578126,0.8811460733413696,0.013874053955078125,-0.5093251466751099
1683990974441244400,10.761244384765625,0.8712630867958069,-0.03997993469238281,-0.3676934242248535
1683990974451286800,10.771286865234375,0.7099155783653259,-0.18447399139404297,-0.11475539207458496
1683990974461329000,10.781328857421874,0.4744095206260681,-0.21392154693603516,-0.03686976432800293
1683990974471371300,10.791371337890626,0.2692819833755493,-0.22635650634765625,-0.02516794204711914
1683990974481413600,10.80141357421875,0.08205762505531311,-0.28641223907470703,0.0015826225280761719
1683990974491455700,10.811455810546875,-0.17574888467788696,-0.4133577346801758,0.12374711036682129
1683990974501498000,10.821498046875,-0.5079279541969299,-0.4710578918457031,0.19039630889892578
1683990974511540500,10.83154052734375,-0.669716477394104,-0.7009372711181641,0.24957990646362305
1683990974521582600,10.84158251953125,-0.4730178713798523,-0.5743112564086914,-0.18408513069152832
1683990974531625000,10.851625,-0.2119012475013733,-0.5504589080810547,-0.3738546371459961
1683990974541667000,10.8616669921875,-0.07424357533454895,-0.45944786071777344,-0.5782941579818726
1683990974551709400,10.87170947265625,0.012966156005859375,-0.3492603302001953,-0.616236686706543
1683990974561751800,10.881751708984375,0.09328952431678772,-0.17491722106933594,-0.7066600322723389
1683990974571794000,10.8917939453125,0.15961958467960358,-0.0776987075805664,-0.7308473587036133
1683990974581836300,10.901836181640626,0.22561152279376984,0.18129253387451172,-0.9545581340789795
1683990974591878700,10.911878662109375,0.4401741921901703,0.300445556640625,-0.955992579460144
1683990974601920800,10.921920654296875,0.5846186876296997,0.32326698303222656,-1.0671985149383545
1683990974611963100,10.931963134765626,0.7255378365516663,0.2571573257446289,-0.8748601675033569
1683990974622005500,10.942005615234375,0.9680190682411194,0.21469879150390625,-0.6419845819473267
1683990974632047600,10.952047607421875,1.0550585985183716,0.16957378387451172,-0.37596750259399414
1683990974642090000,10.962090087890624,1.021185040473938,0.11215686798095703,-0.15622830390930176
1683990974652132400,10.97213232421875,0.8935039639472961,-0.07924842834472656,0.00825357437133789
1683990974662174500,10.982174560546875,0.6498281955718994,-0.21310710906982422,0.12126374244689941
1683990974672216800,10.992216796875,0.09303197264671326,-0.4732656478881836,0.02204155921936035
1683990974682259000,11.002259033203124,-0.47208717465400696,-0.5062189102172852,-0.1457819938659668
1683990974692301300,11.01230126953125,-0.6936615705490112,-0.2675609588623047,-0.3758406639099121
1683990974702343700,11.02234375,-0.7282025814056396,-0.33611202239990234,-0.46121644973754883
1683990974712385800,11.0323857421875,-0.29083627462387085,-0.5044689178466797,-0.7022902965545654
1683990974722428200,11.04242822265625,-0.10033509135246277,-0.46073341369628906,-0.825729489326477
1683990974732470500,11.052470458984375,-0.14358636736869812,-0.3489418029785156,-0.7017195224761963
1683990974742512600,11.0625126953125,-0.1304309070110321,-0.17681312561035156,-0.6259534358978271
1683990974752555000,11.072554931640624,0.02536386251449585,0.059866905212402344,-0.43732142448425293
1683990974762597000,11.08259716796875,-0.06759533286094666,0.19838809967041016,-0.274627685546875
1683990974772639500,11.092639404296875,-0.3583083152770996,0.12856197357177734,-0.15804648399353027
1683990974782681900,11.102681884765625,-0.4837159514427185,0.0053920745849609375,0.020635128021240234
1683990974792724000,11.112723876953124,-1.032730221748352,-0.5487527847290039,-0.15542149543762207
1683990974802766300,11.122766357421876,-0.9052241444587708,-0.48119449615478516,-0.24611282348632812
1683990974812808700,11.13280859375,-0.597235918045044,-0.3203573226928711,-0.17783117294311523
1683990974822850800,11.142850830078125,-0.292549729347229,-0.1979379653930664,-0.08595037460327148
1683990974832893200,11.15289306640625,0.2377679944038391,0.029651641845703125,-0.17825651168823242
1683990974842935600,11.162935546875,0.4823920428752899,0.06142139434814453,-0.5659527778625488
1683990974852977700,11.172977783203125,0.310130774974823,0.07916831970214844,-0.6868929862976074
1683990974863020000,11.18302001953125,0.021397888660430908,-0.0389862060546875,-0.9995635747909546
1683990974873062400,11.1930625,-0.1584787368774414,-0.4026927947998047,-1.3815858364105225
1683990974883104500,11.2031044921875,-0.14438945055007935,-0.6459293365478516,-1.5892343521118164
1683990974893147000,11.21314697265625,-0.1584254503250122,-0.7263860702514648,-1.4979228973388672
1683990974903189000,11.22318896484375,-0.2973281145095825,-0.6182184219360352,-1.2591326236724854
1683990974913231400,11.2332314453125,-0.3892102837562561,-0.5730619430541992,-0.9008769989013672
1683990974923273700,11.243273681640625,-0.28525882959365845,-0.3974933624267578,-0.7275762557983398
1683990974933315800,11.25331591796875,0.043278396129608154,-0.3062887191772461,-0.7567098140716553
1683990974943358200,11.263358154296874,0.4051297903060913,-0.27265071868896484,-0.8773808479309082
1683990974953400600,11.273400634765625,0.44042015075683594,-0.3748435974121094,-1.0282326936721802
1683990974963442700,11.283442626953125,0.29459184408187866,-0.5090713500976562,-1.2441904544830322
1683990974973485000,11.293485107421875,0.09750443696975708,-0.5576086044311523,-1.3147594928741455
1683990974983527200,11.303527099609376,0.3226398229598999,-0.6065759658813477,-1.7306157350540161
1683990974993569500,11.313569580078125,0.7442050576210022,-0.7939968109130859,-2.128065586090088
1683990975003612000,11.32361181640625,0.6323997974395752,-0.9639472961425781,-2.118748664855957
1683990975013654000,11.333654052734374,0.5003601312637329,-1.1188793182373047,-1.986496925354004
1683990975023696400,11.3436962890625,0.5043531656265259,-1.3070812225341797,-1.8521451950073242
1683990975033738800,11.35373876953125,0.44013404846191406,-1.3734159469604492,-1.6732031106948853
1683990975043780900,11.36378076171875,-0.21725398302078247,-0.9135503768920898,-1.0004425048828125
1683990975053823200,11.3738232421875,-0.7295082807540894,-0.22004985809326172,-0.00556635856628418
1683990975063865300,11.383865234375,-0.735114336013794,0.24961566925048828,0.5640101432800293
1683990975073907700,11.39390771484375,-0.5408177971839905,0.3583688735961914,0.7625923156738281
1683990975083950000,11.4039501953125,-0.07060545682907104,0.13721561431884766,0.4150855541229248
1683990975093992200,11.4139921875,0.199215829372406,-0.03564739227294922,0.20575404167175293
1683990975104034600,11.42403466796875,0.4584096670150757,-0.10578441619873047,0.004669904708862305
1683990975114077000,11.434076904296875,0.6207247972488403,-0.14035320281982422,-0.05884075164794922
1683990975124119000,11.444119140625,0.6074557304382324,-0.16362857818603516,-0.011873245239257812
1683990975134161400,11.454161376953126,0.5740540027618408,-0.23319721221923828,0.03755974769592285
1683990975144203800,11.464203857421875,0.8974773287773132,-0.1278696060180664,-0.12361311912536621
1683990975154246000,11.474245849609375,0.9784951210021973,-0.0035858154296875,-0.7554101943969727
1683990975164288300,11.484288330078124,0.8076538443565369,-0.2231006622314453,-1.2344783544540405
1683990975174330600,11.49433056640625,0.36558860540390015,-0.5951557159423828,-1.6931617259979248
1683990975184372700,11.504372802734375,0.2802962064743042,-0.9018869400024414,-1.0685011148452759
1683990975194415000,11.5144150390625,0.238847553730011,-0.46404457092285156,-0.7455964088439941
1683990975204457200,11.524457275390626,0.22420287132263184,0.1293926239013672,-0.38271474838256836
1683990975214499600,11.53449951171875,-0.06695646047592163,0.19734954833984375,-0.14387798309326172
1683990975224542000,11.5445419921875,-0.1487330198287964,0.21181201934814453,-0.11391544342041016
1683990975234584000,11.554583984375,0.09261542558670044,0.14792633056640625,-0.29512858390808105
1683990975244626400,11.56462646484375,0.19584685564041138,0.006049156188964844,-0.2477254867553711
1683990975254668800,11.574668701171875,0.3764353394508362,-0.13967609405517578,-0.2687113285064697
1683990975264711000,11.5847109375,0.40868186950683594,-0.37796974182128906,-0.18820810317993164
1683990975274753300,11.594753173828124,0.21272635459899902,-0.5873231887817383,-0.0012220144271850586
1683990975284795600,11.604795654296876,0.04170370101928711,-0.7966890335083008,0.10461461544036865
1683990975294837800,11.614837646484375,-0.14321446418762207,-0.8173513412475586,0.37827277183532715
1683990975304880000,11.624880126953125,-0.25408923625946045,-0.5523624420166016,0.44521236419677734
1683990975314922200,11.634922119140626,-0.3003343343734741,-0.3708162307739258,0.6298714876174927
1683990975324964600,11.644964599609375,-0.10625767707824707,-0.2556266784667969,0.5883141756057739
1683990975335007000,11.655007080078125,-0.24099421501159668,-0.232452392578125,0.5218130350112915
1683990975345049000,11.665049072265624,-0.3504546880722046,-0.04323577880859375,0.5970549583435059
1683990975355091500,11.675091552734376,-0.3330543041229248,-0.06758594512939453,0.44892191886901855
1683990975365133800,11.6851337890625,-0.3669610023498535,0.16579246520996094,0.41565024852752686
1683990975375176000,11.695176025390625,-0.3061119318008423,0.36489009857177734,0.4874027967453003
1683990975385218300,11.70521826171875,-0.2261512279510498,0.3196544647216797,0.3139207363128662
1683990975395260400,11.715260498046876,-0.25460827350616455,0.503509521484375,0.14738357067108154
1683990975405302800,11.725302734375,-0.2269223928451538,0.6082496643066406,-0.14131426811218262
1683990975415345200,11.73534521484375,-0.25359582901000977,0.6508750915527344,0.018641948699951172
1683990975425387300,11.74538720703125,-0.3988168239593506,0.6815643310546875,-0.024655461311340332
1683990975435429600,11.7554296875,-0.5763580799102783,0.8554964065551758,-0.04496657848358154
1683990975445472000,11.765471923828125,-0.690643310546875,0.8232240676879883,-0.17937713861465454
1683990975455514000,11.77551416015625,-0.6150532960891724,0.5157537460327148,-0.41713398694992065
1683990975465556500,11.785556396484376,-0.48857617378234863,0.2347869873046875,-0.4944620728492737
1683990975475598600,11.7955986328125,-0.4790416955947876,0.0018892288208007812,-0.4902336001396179
1683990975485641000,11.805640869140625,-0.6927894353866577,-0.1210479736328125,-0.3827207684516907
1683990975495683300,11.815683349609374,-0.8853626251220703,-0.11324214935302734,-0.21029865741729736
1683990975505725400,11.825725341796876,-1.0026121139526367,0.05806446075439453,-0.09057837724685669
1683990975515767800,11.835767822265625,-1.1421926021575928,0.25173473358154297,0.24768197536468506
1683990975525810200,11.84581005859375,-1.2650102376937866,0.41345977783203125,0.5961664915084839
1683990975535852300,11.855852294921876,-1.2376625537872314,0.5558919906616211,0.6982815861701965
1683990975545894700,11.865894775390625,-0.9521331787109375,0.5052738189697266,0.5591966509819031
1683990975555936800,11.875936767578125,-0.441414475440979,0.3461189270019531,0.3387932777404785
1683990975565979100,11.885979248046874,0.11190247535705566,0.24602508544921875,0.25239014625549316
1683990975576021500,11.896021484375,0.5024893283843994,0.1999368667602539,0.19572818279266357
1683990975586063600,11.906063720703125,0.6707850694656372,0.20479869842529297,0.14823979139328003
1683990975596106000,11.91610595703125,0.6643714904785156,0.1257495880126953,0.07160025835037231
1683990975606148400,11.9261484375,0.5701756477355957,0.13422584533691406,-0.07650548219680786
1683990975616190500,11.9361904296875,0.45319509506225586,0.22276782989501953,-0.057240188121795654
1683990975626232800,11.94623291015625,0.33520472049713135,0.31047725677490234,0.07499277591705322
1683990975636275000,11.95627490234375,0.13067162036895752,0.19242191314697266,0.26104456186294556
1683990975646317300,11.9663173828125,-0.09426093101501465,0.22996044158935547,0.3103782534599304
1683990975656359700,11.976359619140625,-0.22997426986694336,0.2963285446166992,0.21519678831100464
1683990975666401800,11.98640185546875,-0.26736462116241455,0.32719898223876953,0.0754997730255127
1683990975676444200,11.996444091796874,-0.2359447479248047,0.12470054626464844,-0.04052090644836426
1683990975686486500,12.006486572265626,-0.1526099443435669,-0.16957569122314453,-0.21556133031845093
1683990975696528600,12.016528564453125,-0.15010488033294678,-0.3071737289428711,-0.3508645296096802
1683990975706571000,12.026571044921875,-0.06498563289642334,-0.20984172821044922,-0.5182162523269653
1683990975716613000,12.036613037109374,-0.04940295219421387,0.009307861328125,-0.5657362937927246
1683990975726655500,12.046655517578126,-0.0836256742477417,0.1920928955078125,-0.5120655298233032
1683990975736697900,12.05669775390625,-0.23000741004943848,0.19759559631347656,-0.5239512920379639
1683990975746740000,12.066739990234375,-0.3828178644180298,0.13605690002441406,-0.6751285791397095
1683990975756782300,12.0767822265625,-0.4476027488708496,0.0861968994140625,-0.7361006736755371
1683990975766824700,12.08682470703125,-0.540945291519165,0.052620887756347656,-0.7622000575065613
1683990975776866800,12.09686669921875,-0.5219841003417969,-0.04349994659423828,-0.7535194158554077
1683990975786909200,12.1069091796875,-0.4199354648590088,-0.049101829528808594,-0.6694158315658569
1683990975796951300,12.116951416015626,-0.31139278411865234,-0.06471633911132812,-0.572085976600647
1683990975806993700,12.12699365234375,-0.2277050018310547,-0.05682849884033203,-0.3970378637313843
1683990975817036000,12.1370361328125,-0.13646674156188965,0.017668724060058594,-0.13038551807403564
1683990975827078100,12.147078125,-0.13867461681365967,0.08225631713867188,0.15310132503509521
1683990975837120500,12.15712060546875,-0.14877283573150635,0.008136749267578125,0.3054260015487671
1683990975847163000,12.167162841796875,-0.026105403900146484,-0.18239116668701172,0.24547135829925537
1683990975857205000,12.177205078125,0.14971911907196045,-0.31993579864501953,0.09824097156524658
1683990975867247400,12.187247314453124,0.25313425064086914,-0.29249000549316406,0.18448078632354736
1683990975877289500,12.19728955078125,0.21747899055480957,-0.1665191650390625,0.3325001001358032
1683990975887331800,12.207331787109375,0.16730427742004395,0.030515670776367188,0.32035374641418457
1683990975897374200,12.217374267578125,0.21722471714019775,0.1729288101196289,0.20320749282836914
1683990975907416300,12.227416259765626,0.3111844062805176,0.2005910873413086,0.0332791805267334
1683990975917458700,12.237458740234375,0.4864795207977295,0.13667964935302734,0.033937931060791016
1683990975927501000,12.2475009765625,0.5764144659042358,0.119354248046875,0.12224316596984863
1683990975937543200,12.257543212890624,0.528255820274353,0.18305110931396484,0.2606240510940552
1683990975947585500,12.26758544921875,0.3697742223739624,0.2058401107788086,0.3128335475921631
1683990975957627600,12.277627685546875,0.21858108043670654,0.02533245086669922,0.36641502380371094
1683990975967670000,12.287669921875,0.12020242214202881,-0.2070760726928711,0.31885457038879395
1683990975977712400,12.29771240234375,-0.012187480926513672,-0.3444023132324219,0.22542917728424072
1683990975987754500,12.30775439453125,-0.24930715560913086,-0.24689006805419922,-0.009891033172607422
1683990975997796900,12.317796875,-0.5094629526138306,-0.11620235443115234,-0.3377499580383301
1683990976007839200,12.327839111328124,-0.6702065467834473,-0.07987022399902344,-0.6287930607795715
1683990976017881300,12.33788134765625,-0.7100540399551392,-0.17373371124267578,-0.7856676578521729
1683990976027923700,12.347923828125,-0.7908300161361694,-0.3836956024169922,-0.8183065056800842
1683990976037965800,12.3579658203125,-0.9022808074951172,-0.4652423858642578,-0.8783761262893677
1683990976048008200,12.36800830078125,-0.7861323356628418,-0.2200613021850586,-0.9713853597640991
1683990976058050600,12.378050537109376,-0.44541728496551514,-0.008725166320800781,-1.26102614402771
1683990976068092700,12.3880927734375,-0.07803130149841309,0.18806171417236328,-1.3934900760650635
1683990976078135000,12.398135009765625,0.20094704627990723,0.05946540832519531,-1.467115879058838
1683990976088177400,12.408177490234374,0.3665202856063843,-0.20631027221679688,-1.2918856143951416
1683990976098219500,12.418219482421875,0.3574284315109253,-0.2971353530883789,-0.9357844591140747
1683990976108262000,12.428261962890625,0.2088087797164917,-0.29732322692871094,-0.5144000053405762
1683990976118304000,12.438303955078124,-0.00865161418914795,-0.3553895950317383,-0.3840000629425049
1683990976128346400,12.448346435546876,-0.20642244815826416,-0.32315826416015625,-0.21224325895309448
1683990976138388700,12.458388671875,-0.38063371181488037,-0.1983356475830078,-0.06162005662918091
1683990976148430800,12.468430908203125,-0.4780700206756592,0.049437522888183594,-0.013133108615875244
1683990976158473200,12.47847314453125,-0.38136589527130127,0.12830066680908203,-0.10988759994506836
1683990976168515600,12.488515625,-0.24220502376556396,0.13062191009521484,-0.18166381120681763
1683990976178557700,12.4985576171875,-0.0418928861618042,0.04102516174316406,-0.17299705743789673
1683990976188600000,12.50860009765625,0.23118698596954346,-0.13909626007080078,-0.20268875360488892
1683990976198642200,12.51864208984375,0.5031832456588745,-0.18930721282958984,-0.15425872802734375
1683990976208684500,12.5286845703125,0.5564641952514648,-0.16608238220214844,-0.21164017915725708
