time,seconds_elapsed,z,y,x
1684115015720820200,0.0318203125,0,0,0
1684115015730860800,0.04186083984375,0.06853103637695312,0.10947036743164062,0.08164072036743164
1684115015740901400,0.0519013671875,0.08134937286376953,0.14936375617980957,0.17075061798095703
1684115015750942000,0.06194189453125,-0.014950752258300781,0.33880114555358887,0.09392309188842773
1684115015760982500,0.071982421875,-0.2391500473022461,0.027984142303466797,0.06563377380371094
1684115015771023000,0.082023193359375,-0.18352127075195312,-0.11143255233764648,-0.1701369285583496
1684115015781063700,0.092063720703125,-0.18404102325439453,0.2754085063934326,-0.06844711303710938
1684115015791104300,0.102104248046875,-0.45551395416259766,0.0782160758972168,-0.12974214553833008
1684115015801144600,0.11214453125,-0.7729120254516602,-0.053908348083496094,-0.47324228286743164
1684115015811185200,0.12218505859375,-0.8731427192687988,-0.22266554832458496,-0.6982574462890625
1684115015821225700,0.132225830078125,-0.8227572441101074,-0.4347035884857178,-0.9434382915496826
1684115015831266300,0.142266357421875,-0.9336833953857422,-0.6552813053131104,-0.9126689434051514
1684115015841307000,0.152306884765625,-0.7968473434448242,-0.7789535522460938,-0.7978963851928711
1684115015851347500,0.162347412109375,-0.49054384231567383,-0.7435207366943359,-0.5760207176208496
1684115015861387800,0.1723876953125,-0.2203221321105957,-0.7581901550292969,-0.15618658065795898
1684115015871428400,0.182428466796875,0.20478534698486328,-0.6895098686218262,0.2717103958129883
1684115015881469000,0.192468994140625,0.3250598907470703,-0.7186059951782227,0.6730227470397949
1684115015891509500,0.202509521484375,0.40824413299560547,-0.7816362380981445,0.7259688377380371
1684115015901550000,0.212550048828125,0.07226991653442383,-0.5134975910186768,1.0538973808288574
1684115015911590700,0.222590576171875,0.19863510131835938,-0.2109389305114746,1.4806056022644043
1684115015921631200,0.23263134765625,0.20364856719970703,0.06351161003112793,1.0600652694702148
1684115015931671600,0.242671630859375,-0.23149824142456055,-0.10204768180847168,0.5480718612670898
1684115015941712100,0.252712158203125,0.05056953430175781,-0.24670839309692383,-0.8062028884887695
1684115015951752700,0.262752685546875,0.2735562324523926,0.6111760139465332,-1.2769875526428223
1684115015961793300,0.272793212890625,-0.08602380752563477,0.11832737922668457,-0.5616016387939453
1684115015971833900,0.282833740234375,0.0933842658996582,-0.15111088752746582,-0.2069096565246582
1684115015981874400,0.29287451171875,0.47305965423583984,-0.07331991195678711,-0.07743597030639648
1684115015991915000,0.3029150390625,0.8173995018005371,-0.12850165367126465,0.1402750015258789
1684115016001955300,0.312955322265625,0.7300357818603516,-0.11890769004821777,0.01591968536376953
1684115016011996000,0.322995849609375,0.3752584457397461,-0.1384568214416504,-0.06186532974243164
1684115016022036500,0.333036376953125,0.04196929931640625,0.024417400360107422,-0.1608872413635254
1684115016032077000,0.3430771484375,-0.08565568923950195,0.20172643661499023,-0.2586202621459961
1684115016042117600,0.35311767578125,-0.12663888931274414,0.9764868021011353,-1.0366501808166504
1684115016052158200,0.363158203125,-0.16180944442749023,1.67888605594635,-1.4663281440734863
1684115016062198800,0.37319873046875,-0.12213659286499023,0.3441627025604248,-0.9206809997558594
1684115016072239400,0.3832392578125,0.02248668670654297,0.580913782119751,-1.139310359954834
1684115016082279700,0.39327978515625,0.1052103042602539,1.044196367263794,-1.8313117027282715
1684115016092320300,0.4033203125,0.5083780288696289,0.8697164058685303,-1.746168613433838
1684115016102360800,0.41336083984375,0.9826321601867676,0.3706216812133789,-0.7952814102172852
1684115016112401400,0.4234013671875,1.648838996887207,-0.15964198112487793,0.11176776885986328
1684115016122442000,0.43344189453125,2.5121259689331055,-0.494701623916626,1.0684490203857422
1684115016132482600,0.443482666015625,2.8384275436401367,-0.18465662002563477,1.0444879531860352
1684115016142523000,0.45352294921875,2.425299644470215,0.5071969032287598,0.46755456924438477
1684115016152563500,0.4635634765625,1.2802057266235352,0.858858585357666,0.27150630950927734
1684115016162604000,0.47360400390625,-0.7880191802978516,0.7341437339782715,0.4303264617919922
1684115016172644600,0.48364453125,-1.39949631690979,0.6362085342407227,0.32227611541748047
1684115016182685200,0.493685302734375,-1.0324275493621826,0.33418941497802734,0.9519057273864746
1684115016192725800,0.503725830078125,-0.45538783073425293,0.14862465858459473,0.7817807197570801
1684115016202766300,0.513766357421875,-0.07467317581176758,0.14196562767028809,0.24098873138427734
1684115016212807000,0.523806884765625,-0.15140914916992188,0.004336357116699219,0.11655616760253906
1684115016222847200,0.53384716796875,-0.1625525951385498,0.07534265518188477,0.21698522567749023
1684115016232887800,0.5438876953125,-0.31874895095825195,0.28952598571777344,0.3002662658691406
1684115016242928400,0.553928466796875,-0.5821276903152466,-0.07410001754760742,0.5128879547119141
1684115016252969000,0.563968994140625,-0.9199228286743164,-0.2950096130371094,0.5030851364135742
1684115016263009500,0.574009521484375,-1.3883167505264282,-0.1867055892944336,0.10908317565917969
1684115016273050000,0.584050048828125,-1.539315938949585,-0.1574549674987793,-0.1841287612915039
1684115016283090700,0.594090576171875,-1.759980320930481,-0.21403217315673828,-0.5258269309997559
1684115016293131300,0.60413134765625,-1.6706700325012207,-0.5642843246459961,-0.4955253601074219
1684115016303171600,0.614171630859375,-1.3728851079940796,-0.7018342018127441,-0.3655552864074707
1684115016313212200,0.624212158203125,-1.112520694732666,-0.9687027931213379,-0.04448223114013672
1684115016323252700,0.634252685546875,-1.3330419063568115,-0.9909539222717285,0.1013484001159668
1684115016333293300,0.644293212890625,-1.4521150588989258,-1.3211116790771484,0.46639251708984375
1684115016343334000,0.654333984375,-1.2468702793121338,-1.244234561920166,0.7229251861572266
1684115016353374500,0.66437451171875,-0.952436089515686,-1.1126880645751953,1.1725926399230957
1684115016363415000,0.6744150390625,-0.34462594985961914,-0.9786872863769531,1.5597143173217773
1684115016373455400,0.684455322265625,-0.09961986541748047,-1.1728415489196777,1.7680015563964844
1684115016383496000,0.694495849609375,-0.3193971514701843,-1.1499214172363281,1.8146843910217285
1684115016393536500,0.70453662109375,-0.8199852705001831,-1.084193229675293,1.7661933898925781
1684115016403577000,0.7145771484375,-1.1981154680252075,-0.9362149238586426,1.5687665939331055
1684115016413617700,0.72461767578125,-1.310981035232544,-0.8020420074462891,1.3738775253295898
1684115016423658200,0.734658203125,-1.386784553527832,-0.6450905799865723,1.3301143646240234
1684115016433698800,0.74469873046875,-1.3149528503417969,-0.42196178436279297,1.415417194366455
1684115016443739400,0.754739501953125,-1.125430941581726,-0.16874122619628906,1.3105239868164062
1684115016453780000,0.764780029296875,-0.8813278675079346,0.19496393203735352,0.9978141784667969
1684115016463820300,0.7748203125,-0.7590603828430176,0.2490711212158203,0.9400186538696289
1684115016473860900,0.78486083984375,-0.7148720622062683,0.42660093307495117,0.7043442726135254
1684115016483901400,0.7949013671875,-0.7598102688789368,0.5381760597229004,0.5201315879821777
1684115016493942000,0.80494189453125,-0.6940628290176392,0.831972599029541,0.2315692901611328
1684115016503982600,0.814982666015625,-0.3983019292354584,1.6135625839233398,0.23333501815795898
1684115016514023200,0.825023193359375,-0.26477473974227905,1.9742779731750488,0.24115467071533203
1684115016524063700,0.835063720703125,-0.5812305212020874,1.547712802886963,0.28709936141967773
1684115016534104300,0.845104248046875,-0.7637355327606201,1.1262259483337402,0.5555295944213867
1684115016544144600,0.85514453125,-0.7377778887748718,0.776280403137207,0.6185293197631836
1684115016554185200,0.865185302734375,-0.41654062271118164,0.4553656578063965,0.5714321136474609
1684115016564225800,0.875225830078125,-0.0026761293411254883,0.3641071319580078,0.43564701080322266
1684115016574266400,0.885266357421875,0.3296118378639221,0.31825876235961914,0.3568706512451172
1684115016584307000,0.895306884765625,0.4731786847114563,-0.031271934509277344,0.35811471939086914
1684115016594347500,0.905347412109375,0.7130407691001892,-0.19581842422485352,0.3629422187805176
1684115016604388000,0.91538818359375,0.8784022927284241,0.0038428306579589844,0.41192102432250977
1684115016614428700,0.9254287109375,0.9735674858093262,0.3699769973754883,0.6751885414123535
1684115016624469200,0.93546923828125,0.6920607686042786,0.5387434959411621,1.479212760925293
1684115016634509800,0.945509765625,0.4536358118057251,0.5794906616210938,1.8685131072998047
1684115016644550100,0.955550048828125,0.3403360843658447,0.7096529006958008,2.085732936859131
1684115016654590700,0.9655908203125,0.5134415626525879,0.8986687660217285,2.051351547241211
1684115016664631300,0.97563134765625,0.8016961216926575,0.8001623153686523,1.7868967056274414
1684115016674671900,0.985671875,0.8475268483161926,0.34520816802978516,1.3261017799377441
1684115016684712400,0.99571240234375,0.7900251150131226,-0.19214963912963867,0.7390904426574707
1684115016694753000,1.0057529296875,0.6600902080535889,-0.32328271865844727,0.06358623504638672
1684115016704793600,1.015793701171875,0.4134438633918762,0.899101734161377,-0.5200209617614746
1684115016714834200,1.025834228515625,0.1606573462486267,-0.03043079376220703,-0.33782958984375
1684115016724874500,1.03587451171875,0.29621291160583496,-0.08623218536376953,-0.15855169296264648
1684115016734915000,1.0459150390625,0.22105324268341064,-0.08928966522216797,-0.02703571319580078
1684115016744955600,1.05595556640625,0.1971709132194519,-0.018447399139404297,0.22603893280029297
1684115016754996200,1.065996337890625,0.175997793674469,0.09944009780883789,0.2068462371826172
1684115016765036800,1.076036865234375,-0.10736364126205444,0.07890701293945312,0.09594440460205078
1684115016775077400,1.086077392578125,-0.489228218793869,-0.7439556121826172,-0.2568540573120117
1684115016785118000,1.096117919921875,-0.289080947637558,-1.485816478729248,0.332094669342041
1684115016795158500,1.106158447265625,-0.11981499195098877,-0.926964282989502,0.6083683967590332
1684115016805198800,1.11619873046875,0.08397144079208374,-0.30171728134155273,0.7270236015319824
1684115016815239400,1.126239501953125,0.12813407182693481,-0.18057870864868164,0.6230936050415039
1684115016825280000,1.136280029296875,0.1610303521156311,-0.20348691940307617,0.4259219169616699
1684115016835320600,1.146320556640625,0.1063086986541748,-0.34467554092407227,0.05332612991333008
1684115016845361200,1.156361083984375,0.13656777143478394,-0.39987850189208984,-0.4089698791503906
1684115016855401700,1.166401611328125,-0.04095527529716492,-0.026372432708740234,-0.32716989517211914
1684115016865442300,1.1764423828125,-0.18829959630966187,0.20019054412841797,-0.38216400146484375
1684115016875483000,1.18648291015625,-0.24349506199359894,0.1533522605895996,-0.44440507888793945
1684115016885523500,1.1965234375,-0.2307378500699997,0.09308576583862305,-0.5411629676818848
1684115016895564000,1.20656396484375,-0.3045482039451599,0.030378341674804688,-0.66143798828125
1684115016905604600,1.2166044921875,-0.34632614254951477,0.08458995819091797,-0.7143144607543945
1684115016915645000,1.22664501953125,-0.3584464490413666,0.07714128494262695,-0.6666793823242188
1684115016925685500,1.236685546875,-0.5144538879394531,0.29541015625,-0.3698720932006836
1684115016935726000,1.24672607421875,-0.5147412419319153,0.25388622283935547,-0.16625690460205078
1684115016945766700,1.2567666015625,-0.44658708572387695,0.21378612518310547,-0.5652332305908203
1684115016955807200,1.26680712890625,-0.4943462908267975,-0.6244726181030273,-0.33571767807006836
1684115016965847800,1.276847900390625,-0.5233858823776245,-1.0695276260375977,-0.1732616424560547
1684115016975888400,1.286888427734375,-0.5985212326049805,-1.050126552581787,-0.4568824768066406
1684115016985929000,1.296928955078125,-0.66846764087677,-1.087881088256836,-0.5279288291931152
1684115016995969500,1.306969482421875,-0.5945610404014587,-1.2365121841430664,-0.515622615814209
1684115017006009900,1.317009765625,-0.4475468397140503,-1.4005098342895508,-0.37995243072509766
1684115017016050400,1.327050537109375,0.01883077621459961,-1.0016422271728516,-0.24301624298095703
1684115017026091000,1.337091064453125,0.3353368043899536,-0.5749468803405762,-0.30860471725463867
1684115017036131600,1.347131591796875,0.20406419038772583,-0.93524169921875,-0.28218650817871094
1684115017046172200,1.357172119140625,-0.367659330368042,-1.0361042022705078,-0.006648063659667969
1684115017056212700,1.367212646484375,-1.0964888334274292,-1.6086959838867188,0.27074623107910156
1684115017066253300,1.37725341796875,-0.8911447525024414,-2.4336767196655273,0.22669458389282227
1684115017076294000,1.3872939453125,-0.9120789766311646,-3.098878860473633,0.3602633476257324
1684115017086334500,1.39733447265625,-0.17197585105895996,-2.141613483428955,-0.1292285919189453
1684115017096375000,1.407375,-0.02624034881591797,-1.3529529571533203,-0.22089576721191406
1684115017106415400,1.417415283203125,-0.04408693313598633,-0.9244246482849121,-0.13039827346801758
1684115017116456000,1.4274560546875,0.09046244621276855,-0.8180160522460938,-0.10628032684326172
1684115017126496500,1.43749658203125,0.11506509780883789,-1.0761585235595703,-0.1449747085571289
1684115017136537000,1.447537109375,0.21922922134399414,-1.0547385215759277,-0.4145216941833496
1684115017146577700,1.45757763671875,0.4530244469642639,-0.7310419082641602,-0.769599437713623
1684115017156618200,1.4676181640625,0.529275119304657,-0.5455350875854492,-1.1490287780761719
1684115017166658800,1.477658935546875,0.4806913733482361,-0.4750328063964844,-1.511641025543213
1684115017176699400,1.487699462890625,0.37216198444366455,-0.3540668487548828,-1.7550086975097656
1684115017186740000,1.497739990234375,0.43436384201049805,-0.14287948608398438,-1.839951515197754
1684115017196780500,1.507780517578125,0.7574318051338196,0.747077465057373,-2.3204636573791504
1684115017206821000,1.517821044921875,0.6572200655937195,0.8401813507080078,-1.9915642738342285
1684115017216861700,1.52786181640625,0.38961631059646606,0.7432093620300293,-1.5981216430664062
1684115017226902300,1.53790234375,0.08291912078857422,-0.03951692581176758,-1.7976770401000977
1684115017236942600,1.547942626953125,-0.17996370792388916,-0.44720888137817383,-1.8096041679382324
1684115017246983200,1.557983154296875,-0.39800989627838135,-0.7281055450439453,-1.5807275772094727
1684115017257023700,1.568023681640625,-0.5037285089492798,-0.7688565254211426,-1.0858373641967773
1684115017267064300,1.578064208984375,-0.607661247253418,-0.693697452545166,-0.8470287322998047
1684115017277105000,1.58810498046875,-0.6421463489532471,-0.4888181686401367,-0.5892090797424316
1684115017287145500,1.5981455078125,-0.6469436883926392,-0.3715648651123047,-0.34644508361816406
1684115017297186000,1.60818603515625,-0.5432858467102051,-0.0907297134399414,-0.18654394149780273
1684115017307226600,1.6182265625,-0.4182835817337036,0.20472431182861328,0.06275463104248047
1684115017317267200,1.62826708984375,-0.440285325050354,0.04593181610107422,0.22968578338623047
1684115017327307800,1.638307861328125,-0.44405579566955566,-0.20050477981567383,0.1885662078857422
1684115017337348400,1.648348388671875,-0.48769330978393555,-0.5237212181091309,-0.07940196990966797
1684115017347388700,1.658388671875,-0.5329220294952393,-0.8144426345825195,-0.2937431335449219
1684115017357429200,1.66842919921875,-0.6569058895111084,-0.7698245048522949,-0.4982423782348633
1684115017367469800,1.6784697265625,-0.6541049480438232,-0.5847382545471191,-0.3798813819885254
1684115017377510400,1.688510498046875,-0.6044074296951294,-0.3646726608276367,-0.1596822738647461
1684115017387551000,1.698551025390625,-0.5175975561141968,0.06885242462158203,0.00580596923828125
1684115017397591600,1.708591552734375,-0.42924392223358154,0.5925359725952148,0.027632713317871094
1684115017407632100,1.718632080078125,-0.2938864231109619,0.9729337692260742,-0.07776546478271484
1684115017417672700,1.728672607421875,-0.23361551761627197,1.1802868843078613,-0.23752069473266602
1684115017427713300,1.73871337890625,-0.27878403663635254,1.2722039222717285,-0.5538320541381836
1684115017437753900,1.74875390625,-0.6020991802215576,0.8813304901123047,-0.851463794708252
1684115017447794400,1.75879443359375,-1.1614594459533691,0.24729013442993164,-1.166987419128418
1684115017457835000,1.7688349609375,-1.363110065460205,-0.011121273040771484,-1.028996467590332
1684115017467875300,1.778875244140625,-1.1284613609313965,0.7876091003417969,-0.6173386573791504
1684115017477916000,1.788916015625,-0.8039321899414062,0.9372105598449707,-0.10735416412353516
1684115017487956500,1.79895654296875,-0.4850764274597168,0.931114673614502,0.29496335983276367
1684115017497997000,1.8089970703125,-0.32306742668151855,0.399932861328125,0.5892586708068848
1684115017508037600,1.81903759765625,-0.4149646759033203,0.07007503509521484,0.7718749046325684
1684115017518078200,1.829078125,-0.35593199729919434,-0.25462961196899414,0.8017468452453613
1684115017528118800,1.839118896484375,-0.25258541107177734,-0.7696342468261719,0.6828746795654297
1684115017538159400,1.849159423828125,-0.20059895515441895,-0.7897019386291504,0.7663583755493164
1684115017548200000,1.859199951171875,-0.09487724304199219,-0.4323854446411133,0.6290493011474609
1684115017558240500,1.869240478515625,-0.10742449760437012,-0.07784509658813477,0.08125782012939453
1684115017568281000,1.879281005859375,-0.11714577674865723,-0.15142583847045898,-0.5003986358642578
1684115017578321700,1.88932177734375,-0.07755851745605469,-0.3182816505432129,-0.922126293182373
1684115017588362000,1.899362060546875,-0.09496617317199707,-0.23393678665161133,-1.4044394493103027
1684115017598402600,1.909402587890625,-0.16823148727416992,-0.25716495513916016,-1.855614185333252
1684115017608443100,1.919443115234375,-0.3664231300354004,-0.38742685317993164,-2.2972068786621094
1684115017618483700,1.929483642578125,-0.6193876266479492,-0.4344635009765625,-2.334806442260742
1684115017628524300,1.939524169921875,-1.2846026420593262,-0.29924869537353516,-2.0404672622680664
1684115017638564900,1.94956494140625,-2.9430596828460693,-0.3148946762084961,-1.5233983993530273
1684115017648605400,1.95960546875,-4.214786529541016,-0.05230712890625,-0.3472895622253418
1684115017658646000,1.96964599609375,-3.1588969230651855,-0.23389530181884766,1.1537466049194336
1684115017668686600,1.9796865234375,-1.7913870811462402,-0.9071016311645508,1.994349479675293
1684115017678727200,1.98972705078125,-0.575850248336792,-0.6159553527832031,2.570613384246826
1684115017688767700,1.999767822265625,0.4907088279724121,-1.293759822845459,2.3967885971069336
1684115017698808300,2.009808349609375,1.1132792234420776,-1.290494441986084,2.1266961097717285
1684115017708849000,2.019848876953125,1.2771390676498413,-1.3380680084228516,1.808265209197998
1684115017718889500,2.029889404296875,1.320911169052124,-1.5467562675476074,1.447455883026123
1684115017728929800,2.0399296875,1.3982832431793213,-1.4099512100219727,1.0495200157165527
1684115017738970400,2.049970458984375,1.696982741355896,-1.260894775390625,0.5453381538391113
1684115017749011000,2.060010986328125,2.0073609352111816,-1.249593734741211,-0.34986257553100586
1684115017759051500,2.070051513671875,2.104072332382202,-0.8117127418518066,-1.027012825012207
1684115017769092000,2.080092041015625,2.0214407444000244,-0.5635356903076172,-1.7150044441223145
1684115017779132700,2.090132568359375,1.813882827758789,-0.6207618713378906,-2.1560463905334473
1684115017789173200,2.10017333984375,1.6620814800262451,-0.5238423347473145,-2.3299527168273926
1684115017799213800,2.1102138671875,1.352768898010254,-0.29340648651123047,-2.0970115661621094
1684115017809254400,2.12025439453125,1.0460811853408813,-0.10269355773925781,-1.6685848236083984
1684115017819295000,2.130294921875,0.9450467824935913,1.0797185897827148,-1.6610593795776367
1684115017829335600,2.14033544921875,0.46874821186065674,0.10991382598876953,-1.1783008575439453
1684115017839376100,2.150376220703125,0.2838871479034424,-0.10320758819580078,-0.47597455978393555
1684115017849416700,2.160416748046875,0.15891802310943604,0.28193044662475586,-0.029999256134033203
1684115017859457300,2.170457275390625,-0.07631003856658936,0.24252986907958984,0.34378862380981445
1684115017869497900,2.180497802734375,-0.2357848882675171,0.24288511276245117,0.4119257926940918
1684115017879538200,2.1905380859375,-0.4147568941116333,0.20741891860961914,0.359982967376709
1684115017889578800,2.200578857421875,-0.38309788703918457,0.10787773132324219,0.3050522804260254
1684115017899619300,2.210619384765625,-0.08956098556518555,0.12134265899658203,0.2702312469482422
1684115017909660000,2.220659912109375,0.5273795127868652,0.1280226707458496,0.09648275375366211
1684115017919700500,2.230700439453125,1.3965916633605957,0.044123172760009766,0.08368206024169922
1684115017929741000,2.240740966796875,2.133573055267334,0.19551849365234375,-0.1204833984375
1684115017939781600,2.25078173828125,2.5540332794189453,0.08895349502563477,-0.1603374481201172
1684115017949822200,2.260822265625,2.604769706726074,0.0843963623046875,-0.04854583740234375
1684115017959862800,2.27086279296875,2.4559316635131836,0.1766500473022461,0.03854179382324219
1684115017969903400,2.2809033203125,2.2672743797302246,0.34578418731689453,0.04174947738647461
1684115017979944000,2.29094384765625,1.8279136419296265,0.1340312957763672,0.08840370178222656
1684115017989984500,2.300984619140625,1.4163837432861328,0.010252952575683594,0.15235090255737305
1684115018000025000,2.311025146484375,1.1247352361679077,-0.0026350021362304688,0.17616558074951172
1684115018010065700,2.321065673828125,0.9827616214752197,-0.052430152893066406,0.20569610595703125
1684115018020106200,2.331106201171875,1.0075737237930298,-0.07234716415405273,0.12348508834838867
1684115018030146800,2.341146728515625,1.166906714439392,-0.12719249725341797,0.03186941146850586
1684115018040187400,2.3511875,1.292008399963379,2.646592140197754,-0.09348678588867188
1684115018050227700,2.361227783203125,1.627675175666809,-0.5690045356750488,-1.482841968536377
1684115018060268300,2.371268310546875,1.8125666379928589,-0.6192378997802734,-0.3881230354309082
1684115018070308900,2.381308837890625,1.2837660312652588,-0.0766305923461914,-0.2235889434814453
1684115018080349400,2.391349365234375,1.3924639225006104,-0.0476994514465332,0.23192167282104492
1684115018090390000,2.40139013671875,1.2340140342712402,-0.2829265594482422,0.5787863731384277
1684115018100430600,2.4114306640625,1.1255764961242676,-0.5377850532531738,0.8299112319946289
1684115018110471200,2.42147119140625,1.1013669967651367,-0.6413302421569824,0.6033196449279785
1684115018120511700,2.43151171875,1.2336360216140747,-0.7034492492675781,0.33042192459106445
1684115018130552300,2.44155224609375,1.3434761762619019,-0.736175537109375,-0.03623247146606445
1684115018140593000,2.451593017578125,1.3761322498321533,-0.679255485534668,-0.21168231964111328
1684115018150633500,2.461633544921875,1.3262665271759033,-0.7174901962280273,-0.3071866035461426
1684115018160674000,2.471674072265625,1.2311322689056396,-0.7245392799377441,-0.2495570182800293
1684115018170714600,2.481714599609375,1.0852608680725098,-0.4557361602783203,-0.29540300369262695
1684115018180755200,2.491755126953125,0.9879295825958252,-0.4680318832397461,-0.5088992118835449
1684115018190795800,2.501795654296875,0.8656647205352783,-0.46406984329223633,-0.6168570518493652
1684115018200836400,2.51183642578125,0.7629133462905884,-0.3904542922973633,-0.4922614097595215
1684115018210877000,2.521876953125,0.5656540989875793,-0.19557476043701172,-0.4156508445739746
1684115018220917500,2.53191748046875,0.4009568691253662,-0.40863037109375,-0.13354825973510742
1684115018230958000,2.5419580078125,0.3781297504901886,-0.23689699172973633,0.290677547454834
1684115018240998400,2.551998291015625,0.23506343364715576,-0.31064271926879883,0.6235809326171875
1684115018251039000,2.5620390625,0.09989957511425018,-0.27884483337402344,0.6121172904968262
1684115018261079600,2.57207958984375,0.16912774741649628,0.08700895309448242,-0.0016283988952636719
1684115018271120100,2.5821201171875,0.2822992205619812,0.7609724998474121,-0.39281797409057617
1684115018281160700,2.59216064453125,0.07503393292427063,0.016338825225830078,-0.4829869270324707
1684115018291201300,2.602201171875,0.10924433171749115,-0.10879373550415039,-0.4658489227294922
1684115018301241900,2.612241943359375,0.264583945274353,-0.030303001403808594,-0.3548412322998047
1684115018311282400,2.622282470703125,0.5891351699829102,0.13218307495117188,-0.32378196716308594
1684115018321323000,2.632322998046875,0.6770727634429932,0.024408340454101562,-0.2973594665527344
1684115018331363600,2.642363525390625,0.6289430856704712,-0.12882661819458008,-0.0973353385925293
1684115018341404200,2.652404052734375,0.5050070881843567,-0.1197209358215332,0.21143627166748047
1684115018351444700,2.66244482421875,0.17843733727931976,2.345510959625244,1.1511096954345703
1684115018361485300,2.6724853515625,-0.9085458517074585,0.39244937896728516,-0.3769869804382324
1684115018371526000,2.68252587890625,-0.46505680680274963,-0.19601964950561523,-0.5994620323181152
1684115018381566500,2.69256640625,0.29065215587615967,0.6366691589355469,-0.10605621337890625
1684115018391607000,2.70260693359375,0.4341737627983093,0.5520362854003906,0.2318878173828125
1684115018401647600,2.712647705078125,0.4923032224178314,0.4947190284729004,0.0798487663269043
1684115018411688200,2.722688232421875,0.5803869366645813,0.4861283302307129,-0.32098913192749023
1684115018421728800,2.732728759765625,0.723267674446106,0.22107315063476562,-0.4750218391418457
1684115018431769300,2.742769287109375,0.9727261066436768,0.012038707733154297,-0.3385796546936035
1684115018441810000,2.752809814453125,1.0812655687332153,-0.2837862968444824,-0.01979541778564453
1684115018451850500,2.7628505859375,0.9819159507751465,-0.4524374008178711,0.36925745010375977
1684115018461891000,2.77289111328125,0.7338782548904419,-0.3920440673828125,0.46962738037109375
1684115018471931400,2.782931396484375,0.440375417470932,-0.5336036682128906,0.4315056800842285
1684115018481972000,2.792971923828125,0.31469517946243286,-0.45769643783569336,0.2188119888305664
1684115018492012500,2.803012451171875,0.1649569869041443,-0.280911922454834,-0.09708929061889648
1684115018502053000,2.81305322265625,0.13202530145645142,-0.26166820526123047,-0.4819774627685547
1684115018512093700,2.82309375,0.21874010562896729,-0.16830015182495117,-0.8324341773986816
1684115018522134300,2.83313427734375,0.3306758999824524,0.009906291961669922,-1.181483268737793
1684115018532174800,2.8431748046875,0.6185886859893799,0.18555021286010742,-1.5708122253417969
1684115018542215400,2.85321533203125,0.41421568393707275,-0.0732870101928711,-1.3207917213439941
1684115018552256000,2.863256103515625,0.21013230085372925,-0.24939346313476562,-1.013282299041748
1684115018562296600,2.873296630859375,0.23898828029632568,0.05135631561279297,-0.7845211029052734
1684115018572337200,2.883337158203125,0.20285451412200928,-0.18775558471679688,-0.2315664291381836
1684115018582377700,2.893377685546875,0.29489457607269287,-0.03406238555908203,0.12385225296020508
1684115018592418300,2.903418212890625,0.1853376030921936,-0.2593402862548828,0.486966609954834
1684115018602459000,2.913458984375,0.09105324745178223,-0.3992738723754883,0.8996577262878418
1684115018612499500,2.92349951171875,0.0571669340133667,-0.3628425598144531,1.2822575569152832
1684115018622540000,2.9335400390625,0.04611307382583618,-0.49979591369628906,1.5397701263427734
1684115018632580600,2.94358056640625,0.12468808889389038,-0.6727437973022461,1.5995593070983887
1684115018642621200,2.95362109375,0.2722039818763733,-0.6475076675415039,1.7607746124267578
1684115018652661800,2.963661865234375,0.30496907234191895,-0.4518098831176758,1.6229982376098633
1684115018662702300,2.973702392578125,0.2981274127960205,-0.38591861724853516,1.288961410522461
1684115018672743000,2.983742919921875,0.3580865263938904,-0.3021087646484375,0.840550422668457
1684115018682783500,2.993783447265625,0.42130929231643677,-0.4593830108642578,0.30303239822387695
1684115018692824000,3.003823974609375,0.5209754705429077,-0.35401439666748047,0.7752795219421387
1684115018702864600,3.01386474609375,0.40379273891448975,-0.3060493469238281,0.6904397010803223
1684115018712905000,3.023905029296875,0.32487237453460693,-0.13280773162841797,0.4291038513183594
1684115018722945500,3.033945556640625,0.40205639600753784,-0.19503307342529297,0.29885387420654297
1684115018732986000,3.043986083984375,0.5203826427459717,-0.10992050170898438,0.22047996520996094
1684115018743026700,3.054026611328125,0.5398947596549988,-0.07061100006103516,0.10393381118774414
1684115018753067300,3.0640673828125,0.504216194152832,-0.0762338638305664,0.05807781219482422
1684115018763107800,3.07410791015625,0.4707527160644531,-0.07465553283691406,0.07649993896484375
1684115018773148400,3.0841484375,0.44772517681121826,-0.10638236999511719,0.22566986083984375
1684115018783189000,3.09418896484375,0.42728161811828613,0.23113155364990234,0.516150951385498
1684115018793229600,3.1042294921875,0.3661684989929199,0.30133819580078125,0.18708133697509766
1684115018803270100,3.114270263671875,0.39634382724761963,0.10591506958007812,0.17703533172607422
1684115018813310700,3.124310791015625,0.4664473533630371,-0.031579017639160156,0.13988924026489258
1684115018823351300,3.134351318359375,0.4259603023529053,-0.051062583923339844,0.3431229591369629
1684115018833391900,3.144391845703125,0.496021032333374,-0.117401123046875,0.29776525497436523
1684115018843432400,3.154432373046875,0.30038654804229736,0.11344718933105469,0.5339126586914062
1684115018853473000,3.16447314453125,0.3338581323623657,0.18551063537597656,0.23308610916137695
1684115018863513600,3.174513671875,0.3588458299636841,0.2866964340209961,0.3070864677429199
1684115018873554200,3.18455419921875,0.5095739364624023,0.4260578155517578,0.5323390960693359
1684115018883594800,3.1945947265625,0.7394738793373108,0.4827384948730469,0.7709808349609375
1684115018893635300,3.20463525390625,0.9836651086807251,0.18789005279541016,0.6605567932128906
1684115018903676000,3.214676025390625,1.0002766847610474,0.19266700744628906,1.0717077255249023
1684115018913716500,3.224716552734375,0.9644059538841248,0.10901069641113281,0.6688632965087891
1684115018923757000,3.234757080078125,0.7313100695610046,0.6515493392944336,0.932614803314209
1684115018933797600,3.244797607421875,0.4607927203178406,-0.1393136978149414,0.40673112869262695
1684115018943838200,3.254838134765625,0.5719060897827148,0.16016101837158203,0.41953372955322266
1684115018953878800,3.264878662109375,0.45874249935150146,0.1904134750366211,0.28310680389404297
1684115018963919400,3.27491943359375,0.3684701919555664,0.026510238647460938,0.3822298049926758
1684115018973960000,3.2849599609375,0.34957802295684814,0.1162872314453125,0.5472621917724609
1684115018984000500,3.29500048828125,0.3234752416610718,0.08216190338134766,0.6393628120422363
1684115018994041000,3.305041015625,0.4418485164642334,-0.18670177459716797,0.5062222480773926
1684115019004081700,3.31508154296875,0.7840496897697449,-0.5952205657958984,0.030474424362182617
1684115019014122200,3.325122314453125,1.011415958404541,-0.17664241790771484,0.5551097393035889
1684115019024162800,3.335162841796875,1.3411842584609985,0.11073493957519531,0.14376544952392578
1684115019034203400,3.345203369140625,1.4375696182250977,0.3063926696777344,0.11154317855834961
1684115019044244000,3.355243896484375,1.489079475402832,0.030364990234375,0.09659552574157715
1684115019054284500,3.365284423828125,1.6489810943603516,0.12837600708007812,0.31476616859436035
1684115019064325000,3.3753251953125,1.6406478881835938,0.1021890640258789,0.43361735343933105
1684115019074365700,3.38536572265625,1.4791934490203857,-0.03870868682861328,0.6160528659820557
1684115019084406300,3.39540625,1.2210040092468262,-0.04643535614013672,0.793586254119873
1684115019094446800,3.40544677734375,1.0027549266815186,0.13957977294921875,0.9000072479248047
1684115019104487400,3.4154873046875,0.7903041839599609,0.4104175567626953,0.8631291389465332
1684115019114528000,3.425528076171875,0.6411736607551575,0.6628599166870117,0.7383289337158203
1684115019124568300,3.435568359375,0.5099930763244629,0.7656984329223633,0.5424878597259521
1684115019134609200,3.445609130859375,0.3885948657989502,0.7221555709838867,0.32639575004577637
1684115019144649500,3.4556494140625,0.18392622470855713,0.5504255294799805,0.12759709358215332
1684115019154690000,3.46568994140625,-0.1694706678390503,0.10363006591796875,0.026215076446533203
1684115019164730600,3.475730712890625,-0.8191741704940796,-0.3099498748779297,0.10905075073242188
1684115019174771200,3.485771240234375,-1.683050513267517,-0.5175914764404297,0.14601778984069824
1684115019184811800,3.495811767578125,-2.4744672775268555,-0.7971153259277344,0.23743414878845215
1684115019194852400,3.505852294921875,-3.2129759788513184,-1.010575294494629,0.2843136787414551
1684115019204893000,3.515892822265625,-3.741459369659424,-1.0224637985229492,0.03534293174743652
1684115019214933500,3.52593359375,-3.9701623916625977,-1.0933103561401367,-0.3031489849090576
1684115019224974000,3.53597412109375,-3.6928629875183105,-1.1244564056396484,-0.5205767154693604
1684115019235014700,3.5460146484375,-3.1266520023345947,-0.89251708984375,-0.9093449115753174
1684115019245055200,3.55605517578125,-2.505800247192383,-0.5459518432617188,-1.1740188598632812
1684115019255095800,3.566095703125,-2.1606619358062744,-1.3411788940429688,-0.5545425415039062
1684115019265136400,3.576136474609375,-1.4960722923278809,-2.0331954956054688,-0.27640748023986816
1684115019275177000,3.586177001953125,-0.7378668785095215,-2.3156251907348633,-0.4414799213409424
1684115019285217500,3.596217529296875,-0.1313767433166504,-2.21414852142334,-0.6146693229675293
1684115019295258000,3.606258056640625,0.2761237621307373,-1.9492359161376953,-0.6689267158508301
1684115019305298700,3.616298583984375,0.576866626739502,-1.6255121231079102,-0.5824592113494873
1684115019315339300,3.62633935546875,0.7803235054016113,-1.0990676879882812,-0.38803791999816895
1684115019325379800,3.6363798828125,0.7420456409454346,-1.0502004623413086,-0.2824263572692871
1684115019335420400,3.64642041015625,0.534168004989624,-0.9359970092773438,-0.10548949241638184
1684115019345461000,3.6564609375,0.8293845653533936,0.1477975845336914,0.25597071647644043
1684115019355501600,3.66650146484375,0.36598849296569824,0.14166259765625,0.38929224014282227
1684115019365542100,3.676542236328125,0.15090155601501465,0.2071380615234375,0.4019770622253418
1684115019375582700,3.686582763671875,0.09180235862731934,0.24809551239013672,0.25393033027648926
1684115019385623300,3.696623291015625,0.2233593463897705,0.5588769912719727,0.04449176788330078
1684115019395664000,3.706663818359375,0.46178627014160156,0.9251203536987305,-0.13159704208374023
1684115019405704400,3.716704345703125,0.7158360481262207,1.0517401695251465,-0.4624779224395752
1684115019415745000,3.7267451171875,1.0198943614959717,1.0062751770019531,-0.7913615703582764
1684115019425785600,3.73678564453125,1.2595278024673462,0.7069435119628906,-1.1089906692504883
1684115019435826200,3.746826171875,1.3349730968475342,0.49057960510253906,-1.3614801168441772
1684115019445866800,3.75686669921875,1.1843934059143066,0.5268344879150391,-1.5314130783081055
1684115019455907300,3.7669072265625,1.2500375509262085,1.155055046081543,-1.5327959060668945
1684115019465948000,3.776947998046875,1.484792947769165,1.8947839736938477,-1.4982542991638184
1684115019475988500,3.786988525390625,1.6917253732681274,2.1583690643310547,-1.3479490280151367
1684115019486029000,3.797029052734375,1.7873121500015259,1.8119149208068848,-1.222990870475769
1684115019496069600,3.807069580078125,1.6169908046722412,1.2735013961791992,-0.9716150760650635
1684115019506110200,3.817110107421875,1.224600076675415,0.7119340896606445,-0.7353012561798096
1684115019516150800,3.82715087890625,0.5981686115264893,0.2947864532470703,-0.4458496570587158
1684115019526191400,3.83719140625,-0.023885250091552734,0.0532684326171875,-0.23131299018859863
1684115019536232000,3.84723193359375,-0.5836989879608154,-0.17461872100830078,0.0022268295288085938
1684115019546272500,3.8572724609375,-0.9553256034851074,-0.3853597640991211,0.08067703247070312
1684115019556313000,3.86731298828125,-1.0183382034301758,-0.6126565933227539,0.050177812576293945
1684115019566353700,3.877353759765625,-0.8593831062316895,-0.7100582122802734,-0.10123181343078613
1684115019576394200,3.887394287109375,-0.5658473968505859,-0.8035812377929688,-0.3357102870941162
1684115019586434800,3.897434814453125,-0.2732963562011719,-0.8563623428344727,-0.4841878414154053
1684115019596475400,3.907475341796875,0.027337074279785156,-0.774968147277832,-0.5507104396820068
1684115019606516000,3.917515869140625,0.15046977996826172,-0.6263446807861328,-0.5887999534606934
1684115019616556500,3.927556640625,0.20474576950073242,-0.4324359893798828,-0.5795049667358398
1684115019626597000,3.93759716796875,0.13973259925842285,-0.21543121337890625,-0.5156447887420654
1684115019636637700,3.9476376953125,0.13936114311218262,-0.05449676513671875,-0.5062093734741211
1684115019646678300,3.95767822265625,0.16199350357055664,0.06480598449707031,-0.5308341979980469
1684115019656718800,3.96771875,0.22407078742980957,0.21429157257080078,-0.42232775688171387
1684115019666759400,3.977759521484375,0.3569507598876953,0.3603048324584961,-0.33344268798828125
1684115019676800000,3.987800048828125,0.5702414512634277,0.42889404296875,-0.25851869583129883
1684115019686840600,3.997840576171875,0.749396800994873,0.4519376754760742,-0.257312536239624
1684115019696881200,4.007881103515625,0.8471724987030029,0.4301910400390625,-0.20543313026428223
1684115019706921700,4.017921630859375,0.8452367782592773,0.46160221099853516,-0.12364482879638672
1684115019716962300,4.02796240234375,0.8523436784744263,0.5098953247070312,0.017374515533447266
1684115019727003000,4.0380029296875,0.8196460008621216,0.5772819519042969,0.12589097023010254
1684115019737043500,4.04804345703125,0.8426957130432129,0.5395689010620117,0.19525480270385742
1684115019747084000,4.058083984375,0.7903925180435181,0.5000028610229492,0.19353365898132324
1684115019757124600,4.06812451171875,0.7232226133346558,0.45912933349609375,0.14447021484375
1684115019767165200,4.078165283203125,0.6162861585617065,0.3859844207763672,0.18335890769958496
1684115019777205800,4.088205810546875,0.41400671005249023,0.31152915954589844,0.11427569389343262
1684115019787246300,4.098246337890625,0.24076223373413086,0.08563232421875,0.003189563751220703
1684115019797287000,4.108286865234375,0.02872920036315918,-0.11735057830810547,-0.09599804878234863
1684115019807327500,4.118327392578125,-0.08324790000915527,-0.22194290161132812,-0.19606256484985352
1684115019817368000,4.1283681640625,-0.09345173835754395,-0.14574337005615234,-0.37604522705078125
1684115019827408600,4.13840869140625,0.04417538642883301,-0.09911823272705078,-0.8287248611450195
1684115019837449200,4.14844921875,0.07056307792663574,-0.07449054718017578,-0.9705708026885986
1684115019847489800,4.15848974609375,-0.03310370445251465,-0.15335464477539062,-1.0442187786102295
1684115019857530400,4.1685302734375,-0.06810140609741211,-0.1290884017944336,-1.2018306255340576
1684115019867571000,4.178571044921875,-0.08747076988220215,-0.13207054138183594,-1.3395814895629883
1684115019877611500,4.188611572265625,-0.10946440696716309,-0.20223712921142578,-1.3856532573699951
1684115019887652000,4.198652099609375,-0.1021413803100586,-0.3179597854614258,-1.3723509311676025
1684115019897692700,4.208692626953125,-0.07705807685852051,-0.3837165832519531,-1.4289190769195557
1684115019907733200,4.218733154296875,-0.10398507118225098,-0.42384910583496094,-1.3626112937927246
1684115019917773800,4.22877392578125,-0.180159330368042,-0.4698028564453125,-1.2995026111602783
1684115019927814400,4.238814453125,-0.22131609916687012,-0.5190143585205078,-1.254326581954956
1684115019937855000,4.24885498046875,-0.15185022354125977,-0.5330123901367188,-1.1372337341308594
1684115019947895600,4.2588955078125,-0.05756878852844238,-0.47849178314208984,-0.9004452228546143
1684115019957936000,4.26893603515625,0.062178969383239746,-0.3272418975830078,-0.7354736328125
1684115019967976700,4.278976806640625,0.18206024169921875,-0.17747211456298828,-0.613070011138916
1684115019978017300,4.289017333984375,0.32227301597595215,-0.06261730194091797,-0.4991452693939209
1684115019988057900,4.299057861328125,0.38952648639678955,-0.0015916824340820312,-0.3911018371582031
1684115019998098400,4.309098388671875,0.5784859657287598,-0.008626937866210938,-0.22272825241088867
1684115020008139000,4.319138916015625,0.7170801162719727,-0.02621746063232422,-0.08584380149841309
1684115020018179600,4.3291796875,0.7505004405975342,-0.025369644165039062,-0.03321647644042969
1684115020028220200,4.33922021484375,0.600600004196167,-0.020544052124023438,-0.008220195770263672
1684115020038260700,4.3492607421875,0.3532007932662964,-0.0120697021484375,-0.009113073348999023
1684115020048301300,4.35930126953125,0.12088274955749512,0.01638031005859375,-0.03156113624572754
1684115020058342000,4.369341796875,0.011591792106628418,0.011777877807617188,0.002838134765625
1684115020068382500,4.379382568359375,-0.01446831226348877,-0.10759830474853516,0.07659220695495605
1684115020078423000,4.389423095703125,-0.0009807348251342773,-0.39483165740966797,0.2555582523345947
1684115020088463600,4.399463623046875,0.0620805025100708,-0.8745527267456055,0.47829580307006836
1684115020098504200,4.409504150390625,0.06502246856689453,-1.4513540267944336,0.6629953384399414
1684115020108544800,4.419544677734375,-0.05911850929260254,-1.9481611251831055,0.672006368637085
1684115020118585300,4.42958544921875,-0.25543081760406494,-2.2908496856689453,0.6572780609130859
1684115020128626000,4.4396259765625,-0.42210066318511963,-2.386063575744629,0.5009481906890869
1684115020138666500,4.44966650390625,-0.36500656604766846,-2.0042552947998047,0.04539656639099121
1684115020148707000,4.45970703125,0.005185723304748535,-1.301809310913086,-0.3293642997741699
1684115020158747600,4.46974755859375,0.3612387776374817,-0.3825359344482422,-0.7252902984619141
1684115020168788200,4.479788330078125,0.5631099939346313,0.4189424514770508,-1.151843547821045
1684115020178828800,4.489828857421875,0.6025262475013733,0.8315372467041016,-1.6217093467712402
1684115020188869400,4.499869384765625,0.4016836881637573,0.9335384368896484,-2.0017640590667725
1684115020198910000,4.509909912109375,0.21333223581314087,0.8690500259399414,-2.08937406539917
1684115020208950500,4.519950439453125,-0.004820704460144043,0.7861919403076172,-2.0101094245910645
1684115020218991000,4.5299912109375,-0.3342074751853943,0.7420539855957031,-1.824217677116394
1684115020229031700,4.54003173828125,-0.6400789618492126,0.6263866424560547,-1.5964343547821045
1684115020239072300,4.550072265625,-0.7721793055534363,0.560877799987793,-1.2816641330718994
1684115020249112800,4.56011279296875,-0.6008504033088684,0.5067281723022461,-0.9383325576782227
1684115020259153400,4.5701533203125,-0.12387669086456299,0.4137697219848633,-0.6600465774536133
1684115020269194000,4.580194091796875,0.5656688213348389,0.2588672637939453,-0.45071887969970703
1684115020279234600,4.590234619140625,1.2168229818344116,-0.028476715087890625,-0.3158986568450928
1684115020289275100,4.600275146484375,1.6800204515457153,-0.31829833984375,-0.2355821132659912
1684115020299315700,4.610315673828125,1.9742213487625122,-0.5889806747436523,-0.1814281940460205
1684115020309356300,4.620356201171875,2.054323196411133,-0.8361721038818359,-0.18126845359802246
1684115020319396900,4.63039697265625,1.9360147714614868,-1.0031356811523438,-0.27486705780029297
1684115020329437400,4.6404375,1.7575427293777466,-1.1737146377563477,-0.4095737934112549
1684115020339478000,4.65047802734375,1.4143953323364258,-1.2403974533081055,-0.6491444110870361
1684115020349518600,4.6605185546875,0.9709941148757935,-1.2581968307495117,-0.9655537605285645
1684115020359559200,4.67055908203125,0.4122897982597351,-1.2725038528442383,-1.2589298486709595
1684115020369599700,4.680599853515625,-0.16538774967193604,-1.304734230041504,-1.4845025539398193
1684115020379640300,4.690640380859375,-0.6504312753677368,-1.2596330642700195,-1.6179728507995605
1684115020389681000,4.700680908203125,-0.9420638084411621,-1.2024316787719727,-1.6579370498657227
1684115020399721500,4.710721435546875,-1.097048282623291,-1.0952892303466797,-1.719961166381836
1684115020409762000,4.720761962890625,-0.8813246488571167,-0.9556455612182617,-1.6675503253936768
1684115020419802600,4.730802734375,-0.44897764921188354,-0.8347454071044922,-1.4929918050765991
1684115020429843200,4.74084326171875,0.004197448492050171,-0.7576637268066406,-1.2542991638183594
1684115020439884000,4.750884033203125,0.5335150957107544,-0.5722131729125977,-1.0701255798339844
1684115020449924600,4.760924560546875,1.0709279775619507,-0.46062469482421875,-0.9025216102600098
1684115020459965200,4.770965087890625,1.5455950498580933,-0.32016849517822266,-0.7861315011978149
1684115020470005800,4.781005859375,1.85880446434021,-0.04656028747558594,-0.8248529434204102
1684115020480046300,4.79104638671875,1.908308982849121,0.21051788330078125,-0.9985454082489014
1684115020490087000,4.8010869140625,1.938510775566101,0.25414276123046875,-0.7292717695236206
1684115020500127500,4.81112744140625,1.9403605461120605,0.2632131576538086,-0.40070414543151855
1684115020510168000,4.82116796875,1.956445336341858,0.24411678314208984,-0.13353323936462402
1684115020520208600,4.831208740234375,1.8957278728485107,0.20626449584960938,-0.03869128227233887
1684115020530249200,4.841249267578125,1.7231476306915283,0.17853450775146484,-0.03660941123962402
1684115020540289800,4.851289794921875,1.4767539501190186,0.23981094360351562,-0.057401180267333984
1684115020550330400,4.861330322265625,1.2370903491973877,0.2679100036621094,-0.09640336036682129
1684115020560371000,4.871370849609375,0.9731760025024414,0.29641151428222656,-0.26261425018310547
1684115020570411500,4.88141162109375,0.787163496017456,0.2513570785522461,-0.3161907196044922
1684115020580452000,4.8914521484375,0.6372064352035522,0.1737041473388672,-0.4283595085144043
1684115020590492700,4.90149267578125,0.4623658061027527,0.07305908203125,-0.4435403347015381
1684115020600533200,4.911533203125,0.361889511346817,-0.05782508850097656,-0.47927916049957275
1684115020610573800,4.92157373046875,0.224112868309021,-0.27385711669921875,-0.4615206718444824
1684115020620614400,4.931614501953125,0.11642757058143616,-0.48429107666015625,-0.41741251945495605
1684115020630655000,4.941655029296875,0.04372970759868622,-0.5842809677124023,-0.36455678939819336
1684115020640695600,4.951695556640625,0.010449975728988647,-0.5406589508056641,-0.45099568367004395
1684115020650736000,4.961736083984375,0.0800943672657013,-0.42311954498291016,-0.4379293918609619
1684115020660776700,4.971776611328125,0.2179253101348877,-0.28455638885498047,-0.36464405059814453
1684115020670817300,4.9818173828125,0.323261559009552,-0.1390380859375,-0.2823770046234131
1684115020680857900,4.99185791015625,0.4937264919281006,0.02571582794189453,-0.06039106845855713
1684115020690898400,5.0018984375,0.7188119888305664,0.1665973663330078,0.2673872709274292
1684115020700939000,5.01193896484375,0.9429816007614136,0.11629676818847656,0.5924506187438965
1684115020710979600,5.0219794921875,1.2020403146743774,0.07802486419677734,0.9447841644287109
1684115020721020200,5.032020263671875,1.3455777168273926,0.0659341812133789,1.2568033933639526
1684115020731060700,5.042060791015625,1.43168044090271,0.19932842254638672,1.4784314632415771
1684115020741101300,5.052101318359375,1.4197593927383423,0.3010702133178711,1.7386095523834229
1684115020751142000,5.062141845703125,1.2673372030258179,0.3950014114379883,1.9864752292633057
1684115020761182500,5.072182373046875,1.0902498960494995,0.5001020431518555,2.192565441131592
1684115020771223000,5.08222314453125,0.9873666763305664,0.44899940490722656,2.4680471420288086
1684115020781263600,5.092263671875,0.8141977787017822,0.2516307830810547,2.516494035720825
1684115020791304200,5.10230419921875,0.7868884801864624,0.10892391204833984,2.5362799167633057
1684115020801344800,5.1123447265625,0.9161942005157471,-0.05575370788574219,2.340311050415039
1684115020811385300,5.12238525390625,1.120534896850586,-0.16829490661621094,2.1196470260620117
1684115020821426000,5.132426025390625,1.1945488452911377,-0.3217487335205078,1.7201013565063477
1684115020831466800,5.142466796875,1.1758910417556763,-0.41787147521972656,1.2581660747528076
1684115020841507300,5.15250732421875,1.0667309761047363,-0.48761653900146484,0.8313194513320923
1684115020851547600,5.162547607421875,0.9675569534301758,-0.5140438079833984,0.4469268321990967
1684115020861588200,5.172588134765625,0.7818691730499268,-0.5305633544921875,0.2048635482788086
1684115020871628800,5.18262890625,0.46650761365890503,-0.5039701461791992,0.1447446346282959
1684115020881669600,5.192669677734375,0.1398278772830963,-0.4635295867919922,0.3383459448814392
1684115020891710200,5.202710205078125,-0.21725395321846008,-0.48154640197753906,0.6345698833465576
1684115020901750800,5.212750732421875,-0.36466753482818604,-0.3793039321899414,1.1776905059814453
1684115020911791400,5.222791259765625,-0.19719985127449036,-0.11872100830078125,1.5842231512069702
1684115020921832000,5.23283203125,0.1483546644449234,0.14813232421875,1.5215610265731812
1684115020931872500,5.24287255859375,0.6530731916427612,0.20006465911865234,1.5953131914138794
1684115020941913000,5.2529130859375,1.0822951793670654,0.1092081069946289,1.838986873626709
1684115020951953700,5.26295361328125,1.2759087085723877,0.044922828674316406,2.0615711212158203
1684115020961994200,5.272994140625,1.302177906036377,-0.04581928253173828,2.1738927364349365
1684115020972034800,5.283034912109375,1.3575925827026367,0.10680389404296875,2.1025595664978027
1684115020982075400,5.293075439453125,1.3319079875946045,0.48314857482910156,2.0010738372802734
1684115020992116000,5.303115966796875,1.224564790725708,0.8463296890258789,1.7483539581298828
1684115021002156500,5.313156494140625,0.9812663197517395,1.0770759582519531,1.3799712657928467
1684115021012197000,5.323197021484375,0.6682628393173218,0.9369592666625977,1.010274052619934
1684115021022237700,5.33323779296875,0.3351401686668396,0.574920654296875,0.7711523175239563
1684115021032278300,5.3432783203125,0.12117576599121094,0.15623188018798828,0.6572679281234741
1684115021042318800,5.35331884765625,0.15866193175315857,-0.1732959747314453,0.7010084986686707
1684115021052359400,5.363359375,0.24714158475399017,-0.23471832275390625,0.6704069375991821
1684115021062400000,5.37339990234375,0.30682674050331116,-0.13849925994873047,0.6211811304092407
1684115021072440600,5.383440673828125,0.23961079120635986,0.14126300811767578,0.5325301885604858
1684115021082481200,5.393481201171875,0.034917742013931274,0.45599365234375,0.3954562842845917
1684115021092521700,5.403521728515625,-0.1317828893661499,0.8222713470458984,0.35394418239593506
1684115021102562300,5.413562255859375,-0.31540441513061523,1.146794319152832,0.2407994121313095
1684115021112603000,5.423602783203125,-0.48061197996139526,1.3914470672607422,0.14711907505989075
1684115021122643500,5.4336435546875,-0.5734617710113525,1.5182504653930664,-0.056915558874607086
1684115021132684000,5.44368408203125,-0.7283504605293274,1.5871925354003906,-0.37021273374557495
1684115021142724900,5.453724853515625,-0.8637625575065613,1.5481376647949219,-0.5914772152900696
1684115021152765400,5.463765380859375,-0.9461134076118469,1.4488964080810547,-0.6649576425552368
1684115021162806000,5.473805908203125,-1.0495465993881226,1.2535438537597656,-0.6963108777999878
1684115021172846600,5.4838466796875,-1.1020491123199463,0.8569698333740234,-0.5630311369895935
1684115021182887200,5.49388720703125,-1.155681848526001,0.25943756103515625,-0.3394034206867218
1684115021192927700,5.503927734375,-1.1381585597991943,-0.3453092575073242,-0.18985936045646667
1684115021202968300,5.51396826171875,-1.0400806665420532,-0.8784446716308594,0.013933539390563965
1684115021213009000,5.5240087890625,-0.8524892926216125,-1.3804473876953125,0.3934728801250458
1684115021223049500,5.534049560546875,-0.7147216796875,-1.693221092224121,0.7066702842712402
1684115021233090000,5.544090087890625,-0.6834404468536377,-1.8261823654174805,0.9035369753837585
1684115021243130600,5.554130615234375,-0.6579338312149048,-1.7123088836669922,0.9286510944366455
1684115021253171200,5.564171142578125,-0.6464416980743408,-1.1512279510498047,0.6013444662094116
1684115021263211800,5.574211669921875,-0.5532734394073486,-0.5068349838256836,0.2189096212387085
1684115021273252400,5.58425244140625,-0.4121609926223755,-0.030043601989746094,-0.061792969703674316
1684115021283293000,5.59429296875,-0.3296988010406494,0.20308303833007812,-0.2712036371231079
1684115021293333500,5.60433349609375,-0.37732362747192383,0.3314638137817383,-0.43320024013519287
1684115021303374000,5.6143740234375,-0.40795254707336426,0.3909177780151367,-0.5533673763275146
1684115021313414700,5.62441455078125,-0.4655083417892456,0.36946868896484375,-0.614628791809082
1684115021323455200,5.634455322265625,-0.49605655670166016,0.29106616973876953,-0.6148457527160645
1684115021333495800,5.644495849609375,-0.4819493293762207,0.1581439971923828,-0.6331009864807129
1684115021343536400,5.654536376953125,-0.5226978063583374,0.0972738265991211,-0.6715085506439209
1684115021353577000,5.664576904296875,-0.6361415386199951,-0.013747215270996094,-0.7460178136825562
1684115021363617500,5.674617431640625,-0.7779033184051514,-0.05810832977294922,-0.9172804355621338
1684115021373658400,5.684658447265625,-1.0179967880249023,-0.10569953918457031,-1.058985948562622
1684115021383699000,5.694698974609375,-1.270925521850586,-0.16648101806640625,-1.1581485271453857
1684115021393739300,5.7047392578125,-1.4854846000671387,-0.22878456115722656,-1.290672779083252
1684115021403779800,5.71477978515625,-1.559419870376587,-0.25920581817626953,-1.2943626642227173
1684115021413820700,5.724820556640625,-1.487950325012207,-0.2574186325073242,-1.300113320350647
1684115021423861200,5.734861328125,-1.321882963180542,-0.2205524444580078,-1.3024318218231201
1684115021433901800,5.74490185546875,-1.1537472009658813,-0.1647624969482422,-1.225451946258545
1684115021443942400,5.7549423828125,-0.8895225524902344,-0.11084938049316406,-1.1608368158340454
1684115021453983000,5.76498291015625,-0.5679976940155029,-0.02691364288330078,-1.1225297451019287
1684115021464023600,5.7750234375,-0.3333550691604614,0.06608104705810547,-1.2128934860229492
1684115021474064100,5.785064208984375,-0.21104753017425537,0.10665035247802734,-1.1702004671096802
1684115021484104700,5.795104736328125,-0.24274873733520508,0.11635303497314453,-1.1573678255081177
1684115021494145300,5.805145263671875,-0.3821103572845459,0.28009891510009766,-1.175486445426941
1684115021504185900,5.815185791015625,-0.5333118438720703,0.2834177017211914,-1.0138458013534546
1684115021514226400,5.825226318359375,-0.742692232131958,0.11916828155517578,-0.619525671005249
1684115021524267000,5.83526708984375,-0.9329712390899658,-0.04246330261230469,-0.12896978855133057
1684115021534307600,5.8453076171875,-0.9728735685348511,-0.15811920166015625,0.3788266181945801
1684115021544348200,5.85534814453125,-0.8492516279220581,-0.1894063949584961,0.8216602206230164
1684115021554388700,5.865388671875,-0.5754432678222656,-0.07911872863769531,1.1524237394332886
1684115021564429300,5.87542919921875,-0.2055513858795166,0.08640289306640625,1.298791527748108
1684115021574470000,5.885469970703125,0.19496023654937744,0.2831716537475586,1.3048069477081299
1684115021584510500,5.895510498046875,0.5611772537231445,0.42038726806640625,1.120826244354248
1684115021594551000,5.905551025390625,0.8143503665924072,0.5508108139038086,0.8136371374130249
1684115021604591600,5.915591552734375,0.942986786365509,0.6505632400512695,0.4501364231109619
1684115021614632200,5.925632080078125,0.992851972579956,0.7649707794189453,0.03332877159118652
1684115021624673000,5.935673095703125,0.9637517333030701,0.9152126312255859,-0.41806530952453613
1684115021634713600,5.945713623046875,0.8606101274490356,1.1506214141845703,-0.840074896812439
1684115021644754200,5.955754150390625,0.6957275867462158,1.3342828750610352,-1.112972617149353
1684115021654794800,5.965794677734375,0.5055856704711914,1.4304122924804688,-1.2139395475387573
1684115021664835300,5.97583544921875,0.341166615486145,1.4893569946289062,-1.2140920162200928
1684115021674876000,5.9858759765625,0.22022080421447754,1.5039558410644531,-1.1889057159423828
1684115021684916500,5.99591650390625,0.11522507667541504,1.5267162322998047,-1.1130245923995972
1684115021694957000,6.00595703125,0.08187210559844971,1.4811029434204102,-1.0134702920913696
1684115021704997600,6.01599755859375,0.03947138786315918,1.4246234893798828,-0.8793610334396362
1684115021715038200,6.0260380859375,-0.04201090335845947,1.3404979705810547,-0.7614139318466187
1684115021725078800,6.036078857421875,-0.1901233196258545,1.2000617980957031,-0.6313161849975586
1684115021735119400,6.046119384765625,-0.36807239055633545,1.0224113464355469,-0.5486571788787842
1684115021745160000,6.056159912109375,-0.6301528215408325,0.7455358505249023,-0.4348130226135254
1684115021755200500,6.066200439453125,-0.8327517509460449,0.41289806365966797,-0.26468825340270996
1684115021765241000,6.076240966796875,-0.9360763430595398,0.02042675018310547,0.007309436798095703
1684115021775281700,6.08628173828125,-0.9887179732322693,-0.5385046005249023,0.2735264301300049
1684115021785322200,6.096322265625,-0.9930804371833801,-1.083745002746582,0.5438182353973389
1684115021795362800,6.10636279296875,-0.9795670509338379,-1.50970458984375,0.7279856204986572
1684115021805403400,6.1164033203125,-0.8617969155311584,-1.7944707870483398,0.8622225522994995
1684115021815444200,6.1264443359375,-0.6620055437088013,-1.8470821380615234,0.8737177848815918
1684115021825484800,6.13648486328125,-0.3978368043899536,-1.7181310653686523,0.7582584619522095
1684115021835525400,6.146525390625,-0.1654057502746582,-1.4681005477905273,0.49634480476379395
1684115021845566000,6.15656591796875,-0.014823436737060547,-1.0382165908813477,0.16004490852355957
1684115021855606500,6.1666064453125,0.06574499607086182,-0.5632486343383789,-0.13831090927124023
1684115021865647000,6.176647216796875,0.09259963035583496,-0.17065811157226562,-0.4030129909515381
1684115021875687700,6.186687744140625,0.09844863414764404,0.12275218963623047,-0.5636003017425537
1684115021885728300,6.196728271484375,0.11319470405578613,0.3794212341308594,-0.6705012321472168
1684115021895768800,6.206768798828125,0.15673881769180298,0.5587949752807617,-0.6993768215179443
1684115021905809400,6.216809326171875,0.1917979121208191,0.6802768707275391,-0.7077651023864746
1684115021915850000,6.22685009765625,0.19207125902175903,0.677577018737793,-0.6279881000518799
1684115021925890600,6.236890625,0.10628902912139893,0.639739990234375,-0.48816704750061035
1684115021935931100,6.24693115234375,0.02073526382446289,0.5194463729858398,-0.3117859363555908
1684115021945971700,6.2569716796875,-0.12853044271469116,0.3504514694213867,-0.16686177253723145
1684115021956012300,6.26701220703125,-0.30988603830337524,0.12104511260986328,0.0006573200225830078
1684115021966052900,6.277052978515625,-0.4851413369178772,-0.08037662506103516,0.08552145957946777
1684115021976093400,6.287093505859375,-0.556702196598053,-0.06390857696533203,0.12027668952941895
1684115021986134000,6.297134033203125,-0.48716574907302856,-0.07148265838623047,0.24724078178405762
1684115021996174800,6.3071748046875,-0.33508116006851196,-0.06686782836914062,0.22696638107299805
1684115022006215400,6.31721533203125,-0.1271572709083557,0.007243156433105469,0.12486720085144043
1684115022016256000,6.327256103515625,0.10643947124481201,0.11227703094482422,-0.06259799003601074
1684115022026296600,6.337296630859375,0.315263032913208,0.23130512237548828,-0.24390411376953125
1684115022036337200,6.347337158203125,0.47592422366142273,0.2972373962402344,-0.44716858863830566
1684115022046377700,6.357377685546875,0.5984306931495667,0.28624629974365234,-0.576606273651123
1684115022056418300,6.367418212890625,0.6664236783981323,0.24388408660888672,-0.6491267681121826
1684115022066459000,6.377458984375,0.6727933883666992,0.21810436248779297,-0.6485166549682617
1684115022076499500,6.38749951171875,0.5965470671653748,0.17070293426513672,-0.5776090621948242
1684115022086540000,6.3975400390625,0.48824650049209595,0.1328563690185547,-0.4798867702484131
1684115022096580600,6.40758056640625,0.4054338335990906,0.12860107421875,-0.2892184257507324
1684115022106621200,6.41762109375,0.2837134003639221,0.12449932098388672,-0.08735394477844238
1684115022116661800,6.427661865234375,0.20480656623840332,0.10395336151123047,0.07021260261535645
1684115022126702300,6.437702392578125,0.10691744089126587,0.0933084487915039,0.13082504272460938
1684115022136743000,6.447742919921875,0.047826528549194336,0.054306983947753906,0.1329026222229004
1684115022146783500,6.457783447265625,0.0015604496002197266,-0.005917549133300781,0.05773448944091797
1684115022156824000,6.467823974609375,-0.029173851013183594,-0.0540618896484375,-0.06287789344787598
1684115022166865000,6.477864990234375,-0.020577549934387207,-0.07118034362792969,-0.16388201713562012
1684115022176905500,6.487905517578125,0.01772439479827881,-0.06695938110351562,-0.25228071212768555
1684115022186946000,6.497946044921875,0.059160709381103516,-0.07968902587890625,-0.2801995277404785
1684115022196986600,6.507986572265625,0.09622520208358765,-0.032898902893066406,-0.23339128494262695
1684115022207027200,6.518027099609375,0.1426987648010254,0.016061782836914062,-0.15290546417236328
1684115022217067800,6.52806787109375,0.20778116583824158,0.09117603302001953,-0.09165763854980469
1684115022227108400,6.5381083984375,0.17925691604614258,0.08974933624267578,-0.12386703491210938
1684115022237149000,6.54814892578125,0.11544597148895264,0.0930643081665039,-0.13926386833190918
1684115022247189500,6.558189453125,0.012133538722991943,0.06055164337158203,-0.15487194061279297
1684115022257230000,6.56822998046875,-0.06092691421508789,0.07585620880126953,-0.13964629173278809
1684115022267270700,6.578270751953125,-0.15352660417556763,0.07433605194091797,-0.08884167671203613
1684115022277311200,6.588311279296875,-0.1818392276763916,0.048892974853515625,-0.03134727478027344
1684115022287351800,6.598351806640625,-0.1557086706161499,0.037784576416015625,0.006605863571166992
1684115022297392600,6.608392578125,-0.10184991359710693,-0.002010345458984375,0.037078142166137695
1684115022307433000,6.618432861328125,-0.042503297328948975,-0.04645538330078125,0.06950807571411133
1684115022317473500,6.6284736328125,0.00013381242752075195,-0.12706470489501953,0.0975942611694336
1684115022327514400,6.638514404296875,0.05105245113372803,-0.18964576721191406,0.11276984214782715
1684115022337555000,6.648554931640625,0.09324884414672852,-0.23680591583251953,0.1245880126953125
1684115022347595500,6.658595458984375,0.09644997119903564,-0.2687845230102539,0.09533905982971191
1684115022357636000,6.668635986328125,0.04321110248565674,-0.23404788970947266,0.058452606201171875
1684115022367676700,6.6786767578125,-0.010301709175109863,-0.13145732879638672,0.02588343620300293
1684115022377717200,6.68871728515625,-0.02371615171432495,-0.02341747283935547,0.04005146026611328
1684115022387757800,6.6987578125,0.004167795181274414,0.10175323486328125,0.01083827018737793
1684115022397798400,6.70879833984375,0.020274698734283447,0.19902801513671875,-0.009055137634277344
1684115022407839000,6.7188388671875,0.014590919017791748,0.23589706420898438,-0.031241655349731445
1684115022417879600,6.728879638671875,-0.02223968505859375,0.24157142639160156,-0.0671834945678711
1684115022427920100,6.738920166015625,-0.06339514255523682,0.23763370513916016,-0.11159706115722656
1684115022437960700,6.748960693359375,-0.05205190181732178,0.19588851928710938,-0.11221003532409668
1684115022448001500,6.75900146484375,0.003967225551605225,0.18749523162841797,-0.07648658752441406
1684115022458042000,6.7690419921875,0.11771142482757568,0.20482349395751953,-0.08018994331359863
1684115022468082700,6.779082763671875,0.21927410364151,0.23331928253173828,-0.07061052322387695
1684115022478123300,6.789123291015625,0.3082728385925293,0.25408935546875,-0.04823422431945801
1684115022488163800,6.799163818359375,0.3514927625656128,0.29558753967285156,-0.0510411262512207
1684115022498204400,6.809204345703125,0.32842200994491577,0.28929901123046875,-0.05541658401489258
1684115022508245000,6.819244873046875,0.2660941481590271,0.2831993103027344,-0.1087949275970459
1684115022518285600,6.82928564453125,0.20762908458709717,0.2561159133911133,-0.14219927787780762
1684115022528326100,6.839326171875,0.14610952138900757,0.18252182006835938,-0.1419849395751953
1684115022538366700,6.84936669921875,0.05159646272659302,0.11725807189941406,-0.14392447471618652
1684115022548407300,6.8594072265625,-0.03712284564971924,0.050670623779296875,-0.10308194160461426
1684115022558447900,6.86944775390625,-0.11713570356369019,-0.003143310546875,-0.006056308746337891
1684115022568488400,6.879488525390625,-0.12491416931152344,-0.032637596130371094,0.1203165054321289
1684115022578529000,6.889529052734375,-0.14425557851791382,-0.02638721466064453,0.19063258171081543
1684115022588569600,6.899569580078125,-0.10944551229476929,-0.0014448165893554688,0.2482597827911377
1684115022598610400,6.9096103515625,-0.06646758317947388,0.03955841064453125,0.32163119316101074
1684115022608651000,6.919651123046875,-0.04164242744445801,0.05398082733154297,0.3281900882720947
1684115022618691600,6.929691650390625,-0.036845505237579346,0.16230487823486328,0.29025816917419434
1684115022628732200,6.939732177734375,-0.07293641567230225,0.17697715759277344,0.25570058822631836
1684115022638772700,6.949772705078125,-0.09489482641220093,0.17486190795898438,0.2221546173095703
1684115022648813300,6.959813232421875,-0.14985013008117676,0.16562843322753906,0.1637558937072754
1684115022658854000,6.96985400390625,-0.18759691715240479,0.06465911865234375,0.09255743026733398
1684115022668894500,6.97989453125,-0.21539801359176636,0.02881622314453125,0.058350563049316406
1684115022678935000,6.98993505859375,-0.2590435743331909,-0.03956317901611328,0.025344133377075195
1684115022688975600,6.9999755859375,-0.273282527923584,-0.135284423828125,-0.013402938842773438
1684115022699016200,7.01001611328125,-0.2725876569747925,-0.17079639434814453,0.03401064872741699
1684115022709056800,7.020056884765625,-0.2667396068572998,-0.22472095489501953,0.0952754020690918
1684115022719097300,7.030097412109375,-0.23894590139389038,-0.28493309020996094,0.11570954322814941
1684115022729138000,7.040137939453125,-0.23667079210281372,-0.2310934066772461,0.23421049118041992
1684115022739178800,7.0501787109375,-0.18669629096984863,-0.16859912872314453,0.3688187599182129
1684115022749219300,7.06021923828125,-0.11837053298950195,-0.15406513214111328,0.4250826835632324
1684115022759260000,7.070260009765625,-0.0891156792640686,-0.1160135269165039,0.4278261661529541
1684115022769300500,7.080300537109375,-0.0703279972076416,-0.047820091247558594,0.4370861053466797
1684115022779341000,7.090341064453125,-0.0663527250289917,-0.04885673522949219,0.4173405170440674
1684115022789381600,7.100381591796875,-0.0767982006072998,-0.02621746063232422,0.40929365158081055
1684115022799422200,7.110422119140625,-0.0755261778831482,0.03137683868408203,0.3848816156387329
1684115022809462800,7.120462890625,-0.04169744253158569,0.03148078918457031,0.3210947513580322
1684115022819503400,7.13050341796875,-0.04200923442840576,0.005646705627441406,0.30581140518188477
1684115022829544000,7.1405439453125,-0.04028981924057007,-0.015145301818847656,0.194746732711792
1684115022839584500,7.15058447265625,-0.062040865421295166,-0.0026712417602539062,0.13037586212158203
1684115022849625300,7.160625244140625,-0.05011874437332153,0.007260322570800781,0.048044681549072266
1684115022859666000,7.170666015625,-0.054385364055633545,0.0051784515380859375,-0.0822145938873291
1684115022869706200,7.180706298828125,-0.04866856336593628,-0.0040149688720703125,-0.2195439338684082
1684115022879747000,7.1907470703125,-0.07327491044998169,0.022179603576660156,-0.3214266300201416
1684115022889787600,7.20078759765625,-0.09486067295074463,-0.029786109924316406,-0.35799407958984375
1684115022899828200,7.210828125,-0.10409021377563477,-0.03850841522216797,-0.342240571975708
1684115022909868800,7.220868896484375,-0.09019237756729126,-0.018762588500976562,-0.25860118865966797
1684115022919909400,7.230909423828125,-0.051736414432525635,0.0006475448608398438,-0.14774775505065918
1684115022929950000,7.240949951171875,-0.07155495882034302,-0.043967247009277344,0.018659353256225586
1684115022939990500,7.250990478515625,-0.0825454592704773,-0.06902217864990234,0.1614394187927246
1684115022950031000,7.261031005859375,-0.11471599340438843,-0.17595291137695312,0.24259328842163086
1684115022960071700,7.27107177734375,-0.14356040954589844,-0.19151687622070312,0.30291080474853516
1684115022970112300,7.2811123046875,-0.15693789720535278,-0.24664020538330078,0.33287954330444336
1684115022980152800,7.29115283203125,-0.11060982942581177,-0.21352005004882812,0.37538063526153564
1684115022990193700,7.301193603515625,-0.05074441432952881,-0.1595163345336914,0.42785704135894775
1684115023000234200,7.311234130859375,0.026559770107269287,-0.12268638610839844,0.4151420593261719
1684115023010274800,7.32127490234375,0.06921285390853882,-0.1287517547607422,0.36231958866119385
1684115023020315400,7.3313154296875,0.0661916732788086,-0.12058544158935547,0.31743931770324707
1684115023030356000,7.34135595703125,0.06354451179504395,-0.13620376586914062,0.3042341470718384
1684115023040396500,7.351396484375,0.05692636966705322,-0.1022348403930664,0.2773545980453491
1684115023050437000,7.36143701171875,0.08904039859771729,-0.07366085052490234,0.30762672424316406
1684115023060477700,7.371477783203125,0.10495263338088989,-0.026816368103027344,0.3375128507614136
1684115023070518300,7.381518310546875,0.1400829255580902,-0.023166656494140625,0.3338932991027832
1684115023080558800,7.391558837890625,0.16292813420295715,-0.014873504638671875,0.28793370723724365
1684115023090599400,7.401599365234375,0.15940329432487488,-0.02084064483642578,0.27804994583129883
1684115023100640000,7.411639892578125,0.17215800285339355,-0.01491546630859375,0.19295859336853027
1684115023110680600,7.4216806640625,0.17504271864891052,0.0027256011962890625,0.11621356010437012
1684115023120721400,7.431721435546875,0.17758074402809143,0.022441864013671875,0.043093204498291016
1684115023130762000,7.441761962890625,0.17965224385261536,0.02297496795654297,-0.04038691520690918
1684115023140802600,7.451802490234375,0.1882944107055664,0.049309730529785156,-0.1102287769317627
1684115023150843100,7.461843017578125,0.18902677297592163,0.0257110595703125,-0.14553618431091309
1684115023160883700,7.4718837890625,0.1657889187335968,-0.03285503387451172,-0.17524933815002441
1684115023170924300,7.48192431640625,0.161510169506073,0.0036764144897460938,-0.17127704620361328
1684115023180964900,7.49196484375,0.12166684865951538,-0.0098876953125,-0.14355206489562988
1684115023191005400,7.50200537109375,0.09180265665054321,-0.006831169128417969,-0.1324160099029541
1684115023201046000,7.5120458984375,0.06256908178329468,0.017292022705078125,-0.09296178817749023
1684115023211086600,7.522086669921875,0.04326599836349487,0.012690544128417969,-0.037405967712402344
1684115023221127400,7.53212744140625,0.029152005910873413,0.05281352996826172,0.02693009376525879
1684115023231168000,7.54216796875,0.02241531014442444,0.038069725036621094,0.03859448432922363
1684115023241208600,7.55220849609375,0.018508195877075195,0.037682533264160156,0.054723262786865234
1684115023251249200,7.562249267578125,0.0007622838020324707,0.01613616943359375,0.07042384147644043
1684115023261289700,7.572289794921875,-0.009231209754943848,0.034969329833984375,0.06457328796386719
1684115023271330300,7.582330322265625,0.021100401878356934,0.07464885711669922,0.044771432876586914
1684115023281371000,7.592370849609375,0.022644877433776855,0.06423473358154297,0.01820993423461914
1684115023291411500,7.602411376953125,0.019410401582717896,0.039834022521972656,-0.04071950912475586
1684115023301452000,7.6124521484375,0.03271692991256714,0.06751632690429688,-0.036977291107177734
1684115023311492600,7.62249267578125,0.01069575548171997,0.0569610595703125,-0.028172731399536133
1684115023321533200,7.632533203125,-0.012990951538085938,0.013519287109375,-0.021509647369384766
1684115023331573800,7.64257373046875,0.0017361640930175781,-0.041088104248046875,-0.012181520462036133
1684115023341614600,7.652614501953125,0.009360700845718384,-0.03832530975341797,0.03478741645812988
1684115023351655200,7.6626552734375,0.021586507558822632,-0.02384471893310547,0.0339052677154541
1684115023361695700,7.67269580078125,0.03347879648208618,-0.009615898132324219,-0.006926298141479492
1684115023371736300,7.682736328125,0.05457678437232971,0.03026580810546875,-0.08001518249511719
1684115023381777000,7.69277685546875,0.06583556532859802,0.0317840576171875,-0.1187896728515625
1684115023391817500,7.7028173828125,0.07478302717208862,0.03791046142578125,-0.18962669372558594
1684115023401858000,7.712858154296875,0.08139342069625854,0.0674295425415039,-0.1673109531402588
1684115023411898600,7.722898681640625,0.08577027916908264,0.10583019256591797,-0.16878652572631836
1684115023421939200,7.732939208984375,0.08310601115226746,0.09880542755126953,-0.14413714408874512
1684115023431979800,7.742979736328125,0.07346242666244507,0.0753622055053711,-0.14322662353515625
1684115023442020600,7.7530205078125,0.06410178542137146,0.03345775604248047,-0.12581706047058105
1684115023452061200,7.763061279296875,0.09047088027000427,0.0063304901123046875,-0.10385417938232422
1684115023462101800,7.773101806640625,0.10954686999320984,0.007868766784667969,-0.11275839805603027
1684115023472142300,7.783142333984375,0.14511485397815704,0.030548095703125,-0.100311279296875
1684115023482183000,7.793182861328125,0.17103031277656555,0.04810905456542969,-0.13274288177490234
1684115023492223500,7.803223388671875,0.2014515995979309,0.11473274230957031,-0.14315438270568848
1684115023502264000,7.81326416015625,0.21950079500675201,0.13309860229492188,-0.12723565101623535
1684115023512304600,7.8233046875,0.2155594676733017,0.1204833984375,-0.11358070373535156
1684115023522345200,7.83334521484375,0.16400140523910522,0.04683685302734375,-0.038736820220947266
1684115023532385800,7.8433857421875,0.10826678574085236,-0.04201984405517578,0.013527870178222656
1684115023542426400,7.85342626953125,0.03467053174972534,-0.08219432830810547,0.10208749771118164
1684115023552467000,7.863467041015625,0.023465007543563843,-0.11686515808105469,0.17452478408813477
1684115023562507800,7.8735078125,0.0287645161151886,-0.14371681213378906,0.21443986892700195
1684115023572548400,7.88354833984375,0.02237209677696228,-0.21933460235595703,0.21036028861999512
1684115023582589000,7.8935888671875,0.030562132596969604,-0.14044475555419922,0.21479368209838867
1684115023592629500,7.90362939453125,0.04126295447349548,-0.04620647430419922,0.1759791374206543
1684115023602670000,7.913670166015625,0.05664673447608948,-0.03345489501953125,0.09724259376525879
1684115023612710700,7.923710693359375,0.04588890075683594,0.007405281066894531,0.0383458137512207
1684115023622751200,7.933751220703125,0.035253167152404785,0.012316703796386719,-0.0456387996673584
1684115023632791800,7.943791748046875,0.008200377225875854,0.014737129211425781,-0.13034868240356445
1684115023642832400,7.953832275390625,-0.03967326879501343,0.0029363632202148438,-0.16396784782409668
1684115023652873000,7.963873046875,-0.08886924386024475,0.0030202865600585938,-0.1708207130432129
1684115023662913500,7.97391357421875,-0.1322304904460907,-0.001678466796875,-0.11609220504760742
1684115023672954400,7.983954345703125,-0.11336478590965271,-0.013409614562988281,-0.09978270530700684
1684115023682995000,7.993994873046875,-0.09644719958305359,0.0009212493896484375,-0.027225732803344727
1684115023693035500,8.004035400390626,-0.05072787404060364,0.03620147705078125,-0.02896857261657715
1684115023703076000,8.014076171875,0.030259311199188232,0.040279388427734375,-0.037806034088134766
1684115023713116700,8.02411669921875,0.06067243218421936,0.05840873718261719,-0.07710647583007812
1684115023723157200,8.0341572265625,0.09982086718082428,0.06206226348876953,-0.10611295700073242
1684115023733197800,8.04419775390625,0.1048973798751831,0.10328102111816406,-0.1296989917755127
1684115023743238400,8.05423828125,0.10232463479042053,0.12961578369140625,-0.15018177032470703
1684115023753279000,8.064279052734374,0.06888905167579651,0.08950233459472656,-0.17226028442382812
1684115023763319800,8.07431982421875,0.03817877173423767,0.07123088836669922,-0.1444532871246338
1684115023773360400,8.0843603515625,0.003414720296859741,0.0697469711303711,-0.13127565383911133
1684115023783401000,8.09440087890625,0.014059066772460938,0.07772636413574219,-0.10193729400634766
1684115023793441500,8.104441650390624,0.048109352588653564,0.0738534927368164,-0.0780184268951416
1684115023803482000,8.114482177734375,0.06747916340827942,0.053650856018066406,-0.09015870094299316
1684115023813522700,8.124522705078125,0.0724116861820221,0.09504318237304688,-0.1446690559387207
1684115023823563300,8.134563232421876,0.08427630364894867,0.06981182098388672,-0.22409892082214355
1684115023833603800,8.144603759765625,0.07455086708068848,0.054401397705078125,-0.264448881149292
1684115023843644400,8.15464453125,0.04826183617115021,0.04858589172363281,-0.2590525150299072
1684115023853685000,8.16468505859375,0.012962698936462402,0.04514789581298828,-0.1851792335510254
1684115023863725600,8.1747255859375,-0.014358490705490112,0.020569801330566406,-0.10312628746032715
1684115023873766400,8.184766357421875,-0.03117847442626953,0.022283554077148438,-0.06954526901245117
1684115023883807000,8.194806884765624,0.004446089267730713,0.0216522216796875,-0.07909607887268066
1684115023893847600,8.20484765625,0.01116877794265747,0.02102184295654297,-0.08373618125915527
1684115023903888100,8.21488818359375,0.022386372089385986,0.02272796630859375,-0.12113761901855469
1684115023913928700,8.2249287109375,0.010031282901763916,0.04324913024902344,-0.11324262619018555
1684115023923969300,8.23496923828125,0.045365363359451294,0.0022487640380859375,-0.07974743843078613
1684115023934009900,8.245009765625,0.08009465038776398,0.0278472900390625,-0.035031795501708984
1684115023944050400,8.255050537109375,0.11401408910751343,0.015357017517089844,-0.005173444747924805
1684115023954091000,8.265091064453125,0.08588603138923645,-0.029850006103515625,0.005243539810180664
1684115023964131800,8.2751318359375,0.06760041415691376,-0.060118675231933594,0.017609357833862305
1684115023974172400,8.28517236328125,0.06365782022476196,-0.05689430236816406,0.027309656143188477
1684115023984213000,8.295212890625,0.0339704304933548,-0.07485771179199219,0.03897571563720703
1684115023994253600,8.305253662109376,0.014611661434173584,-0.06422042846679688,0.08316159248352051
1684115024004294100,8.315294189453125,0.02437250316143036,-0.03483867645263672,0.10971403121948242
1684115024014334700,8.325334716796876,0.07196919620037079,-0.02001953125,0.10027074813842773
1684115024024375300,8.335375244140625,0.1188313215970993,0.013429641723632812,0.06020092964172363
1684115024034415900,8.345415771484374,0.13637611269950867,0.07930183410644531,0.0019078254699707031
1684115024044456400,8.35545654296875,0.1109088659286499,0.08988189697265625,-0.05047011375427246
1684115024054497000,8.3654970703125,0.08786097168922424,0.1002187728881836,-0.0993196964263916
1684115024064537600,8.37553759765625,0.05793221294879913,0.07973861694335938,-0.10950112342834473
1684115024074578400,8.385578369140624,0.028515130281448364,0.03127479553222656,-0.08626389503479004
1684115024084619000,8.395618896484375,0.020861297845840454,-0.0046710968017578125,-0.07260489463806152
1684115024094659600,8.40565966796875,-0.0005323290824890137,-0.02349853515625,-0.031104564666748047
1684115024104700200,8.4157001953125,-0.014046519994735718,-0.053702354431152344,-0.009498357772827148
1684115024114740700,8.42574072265625,-0.0011787116527557373,-0.03384876251220703,0.01832294464111328
1684115024124781300,8.43578125,-0.021468132734298706,-0.009499549865722656,0.024020910263061523
1684115024134822000,8.44582177734375,-0.00863105058670044,0.0027942657470703125,0.015027284622192383
1684115024144862500,8.455862548828126,0.0012954771518707275,-0.008571624755859375,-0.0011780261993408203
1684115024154903300,8.4659033203125,-0.015153855085372925,-0.012645721435546875,-0.010175466537475586
1684115024164944000,8.47594384765625,-0.03142869472503662,-0.021356582641601562,-0.007259845733642578
1684115024174984400,8.485984375,-0.05682024359703064,-0.0016870498657226562,-0.011401653289794922
1684115024185025000,8.49602490234375,-0.055691927671432495,0.03180217742919922,0.029143810272216797
1684115024195065600,8.506065673828125,-0.04981684684753418,0.008243560791015625,0.038358211517333984
1684115024205106200,8.516106201171874,-0.07218974828720093,-0.024359703063964844,0.028650999069213867
1684115024215146800,8.526146728515625,-0.08457228541374207,-0.04465675354003906,0.0379490852355957
1684115024225187300,8.536187255859375,-0.09156674146652222,-0.02222919464111328,0.03521156311035156
1684115024235228000,8.546227783203125,-0.07688367366790771,-0.018980026245117188,0.058254241943359375
1684115024245268500,8.5562685546875,-0.055095165967941284,-0.020505905151367188,0.01500248908996582
1684115024255309300,8.566309326171876,-0.024123162031173706,0.017981529235839844,-0.010929107666015625
1684115024265350000,8.576349853515625,0.0016677677631378174,0.0581207275390625,-0.06444740295410156
1684115024275390500,8.586390380859376,0.017526209354400635,0.09044551849365234,-0.09789180755615234
1684115024285431000,8.59643115234375,0.028125226497650146,0.11506080627441406,-0.14679241180419922
1684115024295471600,8.6064716796875,0.01939833164215088,0.1062021255493164,-0.1873455047607422
1684115024305512200,8.61651220703125,-0.0011700987815856934,0.10442924499511719,-0.19138860702514648
1684115024315552800,8.626552734375,0.013686776161193848,0.12140846252441406,-0.1454603672027588
1684115024325593300,8.63659326171875,0.02106022834777832,0.0838785171508789,-0.11407899856567383
1684115024335634200,8.64663427734375,0.025898128747940063,0.04219532012939453,-0.08058047294616699
1684115024345674800,8.6566748046875,0.025731176137924194,-0.0011701583862304688,-0.052228689193725586
1684115024355715300,8.66671533203125,0.018375039100646973,0.003276824951171875,-0.02435469627380371
1684115024365756000,8.676755859375,-0.00766366720199585,0.0029134750366210938,-0.022737979888916016
1684115024375796500,8.68679638671875,-0.026177197694778442,-0.009199142456054688,-0.021216154098510742
1684115024385837000,8.696837158203126,-0.03493663668632507,-0.03751564025878906,0.005879640579223633
1684115024395877600,8.706877685546875,-0.026912689208984375,-0.022930145263671875,0.041699886322021484
1684115024405918200,8.716918212890626,-0.014055788516998291,-0.025012969970703125,0.0978708267211914
1684115024415958800,8.726958740234375,0.0035110414028167725,-0.029358863830566406,0.0728144645690918
1684115024425999600,8.73699951171875,0.009086519479751587,-0.035943031311035156,0.03857159614562988
1684115024436040200,8.747040283203125,0.0026838481426239014,-0.014134407043457031,0.03538203239440918
1684115024446080800,8.757080810546874,-0.010731667280197144,0.0002384185791015625,-0.007726430892944336
1684115024456121300,8.767121337890625,-0.002778947353363037,0.012018203735351562,-0.02421426773071289
1684115024466162000,8.777161865234374,0.005141079425811768,0.025934219360351562,-0.030944347381591797
1684115024476202500,8.787202392578125,0.01539754867553711,0.05607891082763672,-0.03985142707824707
1684115024486243000,8.7972431640625,0.016094326972961426,0.02686309814453125,-0.013286352157592773
1684115024496283600,8.80728369140625,0.01221400499343872,0.0075435638427734375,0.010485410690307617
1684115024506324200,8.81732421875,-0.00806659460067749,-0.01616191864013672,0.012671947479248047
1684115024516365000,8.827364990234376,-0.0068070292472839355,-0.0064983367919921875,0.019470930099487305
1684115024526405600,8.837405517578125,0.008442014455795288,-0.032306671142578125,0.0120391845703125
1684115024536446200,8.8474462890625,0.0092545747756958,-0.03415679931640625,0.004788398742675781
1684115024546486800,8.85748681640625,0.03139907121658325,-0.03363990783691406,0.011835813522338867
1684115024556527400,8.86752734375,0.039135485887527466,-0.0048980712890625,0.004693746566772461
1684115024566568000,8.87756787109375,0.056073665618896484,0.02101421356201172,0.028279542922973633
1684115024576608500,8.8876083984375,0.05607807636260986,0.05120658874511719,0.01616668701171875
1684115024586649000,8.897649169921875,0.05589592456817627,0.04087638854980469,-0.014568328857421875
1684115024596690000,8.90768994140625,0.03204578161239624,0.023660659790039062,0.007002592086791992
1684115024606730500,8.91773046875,0.015555590391159058,-0.0027103424072265625,-0.014048576354980469
1684115024616771000,8.92777099609375,0.004048824310302734,-0.03573131561279297,0.035984039306640625
1684115024626811600,8.937811767578125,-0.016539663076400757,-0.054080963134765625,0.026323795318603516
1684115024636852200,8.947852294921875,-0.041406989097595215,-0.06975460052490234,0.04736065864562988
1684115024646892800,8.957892822265626,-0.02316877245903015,-0.03569507598876953,0.04432225227355957
1684115024656933400,8.967933349609375,-0.026178568601608276,0.004897117614746094,0.03409099578857422
1684115024666974000,8.977973876953126,-0.024401068687438965,0.028389930725097656,0.00025463104248046875
1684115024677014500,8.9880146484375,0.0007167160511016846,0.023286819458007812,-0.0284731388092041
1684115024687055000,8.99805517578125,-0.009911268949508667,0.030057907104492188,-0.07091021537780762
1684115024697096000,9.008095947265625,-0.01566791534423828,0.029668807983398438,-0.07738995552062988
1684115024707136500,9.018136474609374,-0.021185189485549927,0.029270172119140625,-0.05782032012939453
1684115024717177000,9.028177001953125,-0.042917609214782715,0.005261421203613281,-0.04536867141723633
1684115024727217700,9.0382177734375,-0.04040226340293884,-0.020755767822265625,-0.011765241622924805
1684115024737258200,9.04825830078125,-0.030780702829360962,0.012509346008300781,0.0024559497833251953
1684115024747298800,9.058298828125,-0.004811972379684448,0.007533073425292969,0.04240560531616211
1684115024757339400,9.06833935546875,0.02072387933731079,0.04030609130859375,0.00400090217590332
1684115024767380000,9.0783798828125,0.024503231048583984,0.03485870361328125,-0.007814168930053711
1684115024777420800,9.0884208984375,0.02342507243156433,0.05066204071044922,-0.049918413162231445
1684115024787461400,9.09846142578125,0.019652128219604492,0.04499244689941406,-0.0652916431427002
1684115024797502000,9.108501953125,0.011047035455703735,0.039379119873046875,-0.08493566513061523
1684115024807542500,9.11854248046875,0.005039423704147339,0.03144359588623047,-0.07106256484985352
1684115024817583000,9.1285830078125,-0.005361825227737427,-0.009383201599121094,-0.06190633773803711
1684115024827623700,9.138623779296875,-0.008311808109283447,-0.0236663818359375,-0.04338574409484863
1684115024837664300,9.148664306640624,-0.01119813323020935,0.009357452392578125,-0.0015766620635986328
1684115024847705000,9.158705078125,-0.004805803298950195,0.0018587112426757812,-0.0006554126739501953
1684115024857745400,9.168745361328124,-0.0010164082050323486,0.027482032775878906,0.0024776458740234375
1684115024867786200,9.1787861328125,0.0072609782218933105,0.05034160614013672,-0.006272077560424805
1684115024877826800,9.188826904296874,0.019894301891326904,0.051627159118652344,-0.03836250305175781
1684115024887867400,9.198867431640625,0.008489042520523071,0.0269622802734375,-0.05797576904296875
1684115024897908000,9.208907958984375,-0.017137974500656128,0.02384662628173828,-0.029941082000732422
1684115024907948500,9.218948486328125,-0.033007293939590454,0.0018930435180664062,-0.0021407604217529297
1684115024917989000,9.228989013671875,-0.038937538862228394,-0.01505279541015625,0.025420427322387695
1684115024928029700,9.23902978515625,-0.05141672492027283,-0.052933692932128906,0.05728626251220703
1684115024938070500,9.249070556640625,-0.04702237248420715,-0.038369178771972656,0.09792065620422363
1684115024948111000,9.259111083984376,-0.03563952445983887,-0.047532081604003906,0.09528207778930664
1684115024958151700,9.269151611328125,-0.031494468450546265,-0.06357669830322266,0.06667494773864746
1684115024968192300,9.279192138671876,-0.034323036670684814,-0.07225322723388672,0.05484580993652344
1684115024978232800,9.28923291015625,-0.03226616978645325,-0.1089792251586914,0.03355765342712402
1684115024988273400,9.2992734375,-0.013675987720489502,-0.05557441711425781,0.031206607818603516
1684115024998314000,9.30931396484375,0.002209216356277466,-0.03832244873046875,0.016932249069213867
1684115025008354600,9.3193544921875,0.0011520683765411377,-0.035411834716796875,0.0332491397857666
1684115025018395400,9.3293955078125,0.021072953939437866,0.02634716033935547,0.016202211380004883
1684115025028436000,9.33943603515625,0.0239107608795166,0.06588554382324219,-0.002859830856323242
1684115025038476500,9.3494765625,0.024174600839614868,0.09533977508544922,-0.02624654769897461
1684115025048517000,9.35951708984375,0.033620476722717285,0.09839630126953125,-0.039751529693603516
1684115025058557700,9.3695576171875,0.021805882453918457,0.08960819244384766,-0.04118967056274414
1684115025068598300,9.379598388671875,0.008061110973358154,0.06676959991455078,-0.07531619071960449
1684115025078638800,9.389638916015626,-0.01705583930015564,0.025438308715820312,-0.07342886924743652
1684115025088679400,9.399679443359375,-0.027690082788467407,0.005963325500488281,-0.07147979736328125
1684115025098720300,9.40972021484375,-0.05692675709724426,0.005606651306152344,-0.03881716728210449
1684115025108760800,9.4197607421875,-0.035996049642562866,-0.004141807556152344,0.007318973541259766
1684115025118801400,9.429801513671874,-0.05287963151931763,0.0051441192626953125,0.031313419342041016
1684115025128842000,9.439842041015625,-0.02925652265548706,-0.016286849975585938,0.04293346405029297
1684115025138882600,9.449882568359374,-0.01769387722015381,-0.04206275939941406,0.021365880966186523
1684115025148923100,9.459923095703125,-0.02752402424812317,-0.04150962829589844,0.018975496292114258
1684115025158963700,9.469963623046874,-0.00684240460395813,-0.017427444458007812,0.0025517940521240234
1684115025169004300,9.48000439453125,0.008428573608398438,0.013286590576171875,-0.03696703910827637
1684115025179045000,9.490045166015625,0.001928955316543579,0.01525115966796875,-0.01932835578918457
1684115025189085700,9.500085693359376,-0.016402363777160645,0.010117530822753906,-0.025487661361694336
1684115025199126300,9.510126220703125,-0.015606611967086792,-0.006680488586425781,-0.010430574417114258
1684115025209166800,9.520166748046876,-0.019588321447372437,-0.0137786865234375,-0.007405281066894531
1684115025219207400,9.53020751953125,-0.03303459286689758,-0.032494544982910156,0.05666470527648926
1684115025229248000,9.540248046875,-0.03685358166694641,-0.02492809295654297,0.06287264823913574
1684115025239288600,9.55028857421875,-0.03809696435928345,-0.04805278778076172,0.08998608589172363
1684115025249329400,9.560329345703124,-0.02261093258857727,-0.04250526428222656,0.09527850151062012
1684115025259370000,9.570369873046875,-0.03781667351722717,-0.055846214294433594,0.08853936195373535
1684115025269410600,9.58041064453125,-0.017458796501159668,-0.017165184020996094,0.07010340690612793
1684115025279451100,9.590451171875,-0.002323538064956665,0.009087562561035156,0.0614774227142334
1684115025289491700,9.60049169921875,0.0006719231605529785,-0.005133628845214844,0.0036330223083496094
1684115025299532300,9.6105322265625,0.003672689199447632,0.009110450744628906,-0.006086826324462891
1684115025309572900,9.62057275390625,-0.009669870138168335,0.008999824523925781,-0.0015790462493896484
1684115025319613400,9.630613525390626,-0.013330608606338501,0.018291473388671875,-0.004149436950683594
1684115025329654000,9.640654052734375,0.0065253376960754395,0.027429580688476562,0.007452487945556641
1684115025339694800,9.65069482421875,-0.0209619402885437,0.01758098602294922,0.009442329406738281
1684115025349735400,9.6607353515625,-0.024535417556762695,0.0290985107421875,-0.002778768539428711
1684115025359776000,9.67077587890625,-0.021002262830734253,0.012158393859863281,-0.019435405731201172
1684115025369816600,9.680816650390625,-0.031654924154281616,0.030808448791503906,-0.03814888000488281
1684115025379857200,9.690857177734374,-0.01863175630569458,0.006756782531738281,-0.0494232177734375
1684115025389897700,9.700897705078125,-0.0247308611869812,-0.0004253387451171875,-0.08634638786315918
1684115025399938600,9.7109384765625,-0.03313976526260376,-0.0027923583984375,-0.06609606742858887
1684115025409979100,9.720979248046875,-0.03437399864196777,-0.023981094360351562,-0.041365623474121094
1684115025420019700,9.731019775390624,-0.021475940942764282,0.018777847290039062,-0.019523143768310547
1684115025430060300,9.741060302734375,-0.013571977615356445,0.016086578369140625,0.023192405700683594
1684115025440100900,9.751100830078125,-0.005841374397277832,0.027568817138671875,-0.003088235855102539
1684115025450141400,9.761141357421875,-0.021752476692199707,0.02236652374267578,0.011142969131469727
1684115025460182000,9.77118212890625,0.014336705207824707,0.014914512634277344,-0.03612971305847168
1684115025470222800,9.781222900390626,-0.0018950700759887695,0.026404380798339844,-0.016652345657348633
1684115025480263200,9.79126318359375,0.012678653001785278,0.028280258178710938,-0.006876945495605469
1684115025490304000,9.801303955078126,0.008004486560821533,0.027749061584472656,-0.015984058380126953
1684115025500344600,9.811344482421875,-0.008549869060516357,-0.0033731460571289062,0.010386466979980469
1684115025510385200,9.82138525390625,-0.010819584131240845,-0.017526626586914062,0.02703547477722168
1684115025520425700,9.83142578125,-0.017747461795806885,-0.024356842041015625,0.05508089065551758
1684115025530466300,9.84146630859375,-0.029256969690322876,-0.019295692443847656,0.044962167739868164
1684115025540507000,9.8515068359375,-0.023995429277420044,-0.03783893585205078,0.03725481033325195
1684115025550547500,9.86154736328125,-0.016338437795639038,-0.041950225830078125,0.0014231204986572266
1684115025560588300,9.87158837890625,0.0005941689014434814,-0.010663032531738281,0.020270109176635742
1684115025570628900,9.88162890625,-0.01090395450592041,-0.017551422119140625,0.012832164764404297
1684115025580669400,9.89166943359375,0.0036857128143310547,-0.007844924926757812,0.017288923263549805
1684115025590710000,9.9017099609375,0.006217598915100098,0.022916793823242188,0.0050852298736572266
1684115025600750600,9.91175048828125,-0.0007977485656738281,0.03905296325683594,-0.011655092239379883
1684115025610791200,9.921791259765625,0.020509570837020874,0.043145179748535156,0.009568452835083008
1684115025620832000,9.93183203125,0.006104171276092529,0.014208793640136719,0.0022058486938476562
1684115025630872600,9.94187255859375,0.008490920066833496,-0.0025033950805664062,-0.026120424270629883
1684115025640913200,9.9519130859375,0.010767191648483276,-0.014239311218261719,-0.04686260223388672
1684115025650953700,9.96195361328125,-0.008311241865158081,0.004817008972167969,-0.055428266525268555
1684115025660994300,9.971994384765624,-0.0060118138790130615,-0.016531944274902344,-0.0447392463684082
1684115025671035000,9.982034912109375,-0.031930506229400635,-0.011661529541015625,-0.03646039962768555
1684115025681075500,9.992075439453124,-0.03373187780380249,-0.0021409988403320312,0.013936042785644531
1684115025691116000,10.002115966796875,-0.03526005148887634,-0.030426979064941406,0.018646240234375
1684115025701156600,10.012156494140624,-0.036632657051086426,-0.013500213623046875,0.004374504089355469
1684115025711197400,10.022197509765626,-0.012214034795761108,-0.015680313110351562,-0.009666681289672852
1684115025721238000,10.032238037109375,-0.0001157522201538086,-0.017803192138671875,-0.018828153610229492
1684115025731278600,10.042278564453126,0.011824578046798706,-0.019876480102539062,-0.025547504425048828
1684115025741319200,10.052319091796875,0.016531378030776978,-0.007761955261230469,0.031299591064453125
1684115025751359700,10.06235986328125,0.04233291745185852,0.018317222595214844,0.05171656608581543
1684115025761400300,10.072400390625,0.04864001274108887,0.039259910583496094,0.09064793586730957
1684115025771441200,10.082441162109374,0.029002070426940918,0.02218151092529297,0.0606684684753418
1684115025781481700,10.092481689453125,0.03328964114189148,0.012415885925292969,0.05956387519836426
1684115025791522300,10.102522216796874,0.02106812596321106,-0.02076435089111328,0.039771318435668945
1684115025801563000,10.11256298828125,0.006595402956008911,-0.010996818542480469,-0.0009291172027587891
1684115025811603500,10.122603515625,-0.007622510194778442,-0.05081939697265625,0.008437156677246094
1684115025821644000,10.13264404296875,-0.012142986059188843,-0.049941062927246094,0.01993703842163086
1684115025831684600,10.1426845703125,-0.02337825298309326,-0.056107521057128906,0.045191287994384766
1684115025841725400,10.152725341796875,-0.013080328702926636,-0.04327106475830078,0.03677248954772949
1684115025851766000,10.16276611328125,0.00910484790802002,-0.021181106567382812,0.04001569747924805
1684115025861806600,10.172806640625,0.03317639231681824,0.0076274871826171875,-0.0063135623931884766
1684115025871847200,10.18284716796875,0.009766042232513428,0.010100364685058594,-0.012004852294921875
1684115025881887700,10.1928876953125,0.005711346864700317,0.040802001953125,-0.036535024642944336
1684115025891928300,10.20292822265625,0.0017393827438354492,0.0568389892578125,-0.03936767578125
1684115025901969000,10.212968994140626,0.03287270665168762,0.027883529663085938,-0.013874292373657227
1684115025912009500,10.223009521484375,0.027971267700195312,0.020569801330566406,-0.002780437469482422
1684115025922050300,10.23305029296875,0.02546226978302002,0.013334274291992188,-0.008171319961547852
1684115025932091000,10.2430908203125,0.0020939409732818604,-0.010297775268554688,-0.013368606567382812
1684115025942131500,10.25313134765625,0.03344765305519104,0.01824951171875,-0.013773679733276367
1684115025952172000,10.263172119140625,0.03813865780830383,0.003907203674316406,-0.0163419246673584
1684115025962212600,10.273212646484374,0.04230567812919617,-0.019616127014160156,-0.03760480880737305
1684115025972253200,10.283253173828125,0.027568966150283813,-0.03337669372558594,-0.0347898006439209
1684115025982294000,10.2932939453125,0.0015074312686920166,-0.013998985290527344,-0.03656339645385742
1684115025992334600,10.30333447265625,0.006570905447006226,-0.020844459533691406,-0.03125
1684115026002375200,10.313375244140625,0.011406630277633667,0.01713085174560547,-0.0000095367431640625
1684115026012415700,10.323415771484376,0.016018390655517578,0.0026845932006835938,0.00952768325805664
1684115026022456300,10.333456298828125,0.03453579545021057,0.0025844573974609375,0.01901531219482422
1684115026032497000,10.343496826171876,0.01997196674346924,0.0024347305297851562,0.05676412582397461
1684115026042537500,10.353537353515625,0.015354335308074951,-0.014216423034667969,0.05155539512634277
1684115026052578300,10.363578369140624,0.008701980113983154,-0.02826404571533203,0.0606229305267334
1684115026062619000,10.373618896484375,0.030466794967651367,0.03326416015625,0.04360675811767578
1684115026072659500,10.383659423828124,0.037484437227249146,0.01843738555908203,0.04337930679321289
1684115026082700000,10.393699951171875,0.03958919644355774,0.02029132843017578,0.008039712905883789
1684115026092740600,10.40374072265625,0.015833497047424316,-0.027315139770507812,-0.024405717849731445
1684115026102781200,10.41378125,0.030212312936782837,-0.05058860778808594,-0.04689645767211914
1684115026112822000,10.423822021484375,0.013847321271896362,-0.03345489501953125,-0.08549952507019043
1684115026122862600,10.433862548828126,0.018972337245941162,-0.02602100372314453,-0.07168197631835938
1684115026132903200,10.443903076171875,-0.02538210153579712,0.03074359893798828,-0.03462815284729004
1684115026142943700,10.45394384765625,-0.03147292137145996,0.06534004211425781,-0.0074422359466552734
1684115026152984300,10.463984375,-0.0352516770362854,0.07104015350341797,0.014873981475830078
1684115026163025000,10.47402490234375,-0.0506824254989624,0.03421974182128906,0.06995844841003418
1684115026173065500,10.4840654296875,-0.04462471604347229,-0.025527000427246094,0.05584549903869629
1684115026183106000,10.49410595703125,-0.033784180879592896,-0.041828155517578125,0.039286136627197266
1684115026193147000,10.50414697265625,-0.011433809995651245,-0.062460899353027344,0.04614424705505371
1684115026203187500,10.5141875,-0.008585244417190552,-0.0025625228881835938,0.017068147659301758
1684115026213228000,10.52422802734375,-0.006210774183273315,0.023504257202148438,0.02336287498474121
1684115026223268600,10.5342685546875,0.005282849073410034,0.02329540252685547,-0.03888559341430664
1684115026233309200,10.54430908203125,0.0070955753326416016,0.02776813507080078,-0.0623016357421875
1684115026243349800,10.554349853515625,0.011403053998947144,0.013324737548828125,-0.08531689643859863
1684115026253390600,10.564390625,-0.005349189043045044,0.0438232421875,-0.07492685317993164
1684115026263431200,10.57443115234375,-0.009894073009490967,0.03611183166503906,-0.05046796798706055
1684115026273471700,10.5844716796875,-0.012225955724716187,0.061489105224609375,-0.05699276924133301
1684115026283512300,10.59451220703125,-0.024009376764297485,0.04166698455810547,-0.009067058563232422
1684115026293553000,10.604552978515626,-0.03094714879989624,0.04568672180175781,-0.02772235870361328
1684115026303593500,10.614593505859375,-0.02835249900817871,0.037853240966796875,-0.020113706588745117
1684115026313634300,10.62463427734375,-0.004770159721374512,0.037207603454589844,-0.03611922264099121
1684115026323675000,10.6346748046875,-0.019418329000473022,-0.012825965881347656,-0.04492044448852539
1684115026333715500,10.644715576171874,0.001408696174621582,-0.012560844421386719,-0.0677938461303711
1684115026343756000,10.654756103515625,0.0005630254745483398,-0.0287322998046875,-0.05513405799865723
1684115026353796600,10.664796630859374,0.006856828927993774,0.0072116851806640625,-0.026429176330566406
1684115026363837200,10.674837158203125,0.010681360960006714,-0.011533737182617188,-0.012537956237792969
1684115026373877800,10.684877685546875,0.014343172311782837,-0.004021644592285156,-0.010832786560058594
1684115026383918300,10.69491845703125,0.020198017358779907,-0.0060596466064453125,-0.016164064407348633
1684115026393959200,10.704959228515625,0.01894843578338623,0.022548675537109375,0.018568992614746094
1684115026403999700,10.714999755859376,0.00830027461051941,0.02944469451904297,-0.005939483642578125
1684115026414040300,10.725040283203125,0.0003396272659301758,-0.0038785934448242188,-0.02267765998840332
1684115026424081000,10.735080810546876,0.002126932144165039,0.01742839813232422,0.003482818603515625
1684115026434121500,10.74512158203125,0.01819363236427307,0.04300212860107422,-0.02934408187866211
1684115026444162000,10.755162109375,0.02679935097694397,0.028069496154785156,-0.009579658508300781
1684115026454203000,10.765202880859375,0.03524616360664368,0.013340950012207031,-0.006439208984375
1684115026464243500,10.775243408203124,0.03416478633880615,0.041233062744140625,-0.03160691261291504
1684115026474284000,10.785283935546875,0.016666173934936523,0.026268959045410156,-0.06572198867797852
1684115026484324600,10.79532470703125,0.013640820980072021,0.01864147186279297,-0.04287123680114746
1684115026494365200,10.805365234375,0.008180737495422363,-0.0005578994750976562,-0.039498329162597656
1684115026504405800,10.81540576171875,0.01683485507965088,-0.04764366149902344,-0.022209882736206055
1684115026514446600,10.825446533203126,0.018511861562728882,-0.03730487823486328,-0.01991581916809082
1684115026524487200,10.835487060546875,0.046463072299957275,-0.010519027709960938,-0.0418241024017334
1684115026534527700,10.84552783203125,0.05309835076332092,-0.02410888671875,-0.09439206123352051
1684115026544568300,10.855568359375,0.09277483820915222,0.040370941162109375,-0.18438482284545898
1684115026554609000,10.86560888671875,0.08488279581069946,0.08273696899414062,-0.24052953720092773
1684115026564649500,10.8756494140625,0.10093998908996582,0.15746498107910156,-0.2938690185546875
1684115026574690000,10.88568994140625,0.05332699418067932,0.21215534210205078,-0.3724031448364258
1684115026584731000,10.89573095703125,0.018382251262664795,0.2846946716308594,-0.4352245330810547
1684115026594771500,10.905771484375,-0.03488123416900635,0.29694175720214844,-0.46547794342041016
1684115026604812000,10.91581201171875,-0.09938615560531616,0.2826976776123047,-0.44420552253723145
1684115026614852600,10.9258525390625,-0.1539638638496399,0.20930957794189453,-0.35053229331970215
1684115026624893200,10.93589306640625,-0.1969226896762848,0.0966196060180664,-0.10563397407531738
1684115026634933800,10.945933837890625,-0.24459391832351685,-0.007630348205566406,0.16311955451965332
1684115026644974600,10.955974609375,-0.22328752279281616,-0.09408283233642578,0.3842759132385254
1684115026655015200,10.96601513671875,-0.1668747067451477,-0.15583515167236328,0.572201132774353
1684115026665055700,10.9760556640625,-0.04511776566505432,-0.172027587890625,0.5693583488464355
1684115026675096300,10.986096435546875,0.04670408368110657,-0.16455364227294922,0.44700193405151367
1684115026685137000,10.996136962890626,0.14608970284461975,-0.12647724151611328,0.2438657283782959
1684115026695177500,11.006177490234375,0.14147040247917175,-0.10528182983398438,0.045751333236694336
1684115026705218300,11.01621826171875,0.10051825642585754,-0.07955741882324219,-0.13309383392333984
1684115026715259000,11.0262587890625,-0.02063661813735962,-0.07052421569824219,-0.18020153045654297
1684115026725299500,11.036299560546874,-0.10486564040184021,-0.07312774658203125,-0.10750293731689453
1684115026735340000,11.046340087890625,-0.17147544026374817,-0.07298851013183594,-0.0325932502746582
1684115026745380600,11.056380615234374,-0.2017483413219452,-0.1195526123046875,0.1220247745513916
1684115026755421200,11.066421142578125,-0.252267986536026,-0.2026510238647461,0.2255699634552002
1684115026765462000,11.0764619140625,-0.27262961864471436,-0.22516822814941406,0.26236701011657715
1684115026775502600,11.086502685546876,-0.272473007440567,-0.23755741119384766,0.34650278091430664
1684115026785543200,11.096543212890625,-0.21942928433418274,-0.18349552154541016,0.37131571769714355
1684115026795583700,11.106583740234376,-0.1597331166267395,-0.08768939971923828,0.33339738845825195
1684115026805624300,11.116624267578125,-0.07950255274772644,-0.03097057342529297,0.23885631561279297
1684115026815665000,11.126664794921876,-0.014486819505691528,0.048430442810058594,0.1337437629699707
1684115026825705500,11.13670556640625,0.04472789168357849,0.09824752807617188,-0.007254362106323242
1684115026835746300,11.146746337890624,0.07689124345779419,0.10941028594970703,-0.10290813446044922
1684115026845787000,11.156786865234375,0.08465272188186646,0.13664531707763672,-0.20312833786010742
1684115026855827500,11.166827392578124,0.08485850691795349,0.1349334716796875,-0.2653615474700928
1684115026865868000,11.176867919921875,0.09653973579406738,0.15650081634521484,-0.29242777824401855
1684115026875908600,11.18690869140625,0.0959077775478363,0.13509082794189453,-0.2850942611694336
1684115026885949200,11.19694921875,0.07812893390655518,0.127960205078125,-0.2393345832824707
1684115026895990000,11.206989990234375,0.09976375102996826,0.1302032470703125,-0.13472509384155273
1684115026906030600,11.217030517578126,0.05633747577667236,0.09933853149414062,-0.028900861740112305
1684115026916071200,11.2270712890625,-0.0013694167137145996,-0.013503074645996094,0.05445551872253418
1684115026926111700,11.23711181640625,-0.058547258377075195,-0.0727376937866211,0.1861572265625
1684115026936152300,11.24715234375,-0.11924982070922852,-0.100433349609375,0.2828648090362549
1684115026946193000,11.25719287109375,-0.15221035480499268,-0.2947673797607422,0.3541104793548584
1684115026956233700,11.267233642578125,-0.19051188230514526,-0.40798187255859375,0.3950066566467285
1684115026966274300,11.2772744140625,-0.16614386439323425,-0.41072845458984375,0.46460509300231934
1684115026976315000,11.28731494140625,-0.14642062783241272,-0.3942861557006836,0.48235201835632324
1684115026986355500,11.29735546875,-0.13150626420974731,-0.3589658737182617,0.4702855348587036
1684115026996396000,11.30739599609375,-0.1001385748386383,-0.3403902053833008,0.48537135124206543
1684115027006436600,11.3174365234375,-0.04979139566421509,-0.27482128143310547,0.4333244562149048
1684115027016477200,11.327477294921875,0.01032191514968872,-0.16304969787597656,0.36933350563049316
1684115027026518000,11.33751806640625,0.06867197155952454,-0.03885841369628906,0.2395954132080078
1684115027036558600,11.34755859375,0.15317954123020172,0.1233987808227539,0.06190824508666992
1684115027046599200,11.35759912109375,0.2059880793094635,0.24298858642578125,-0.14843988418579102
1684115027056639700,11.3676396484375,0.2621069550514221,0.3370323181152344,-0.3269155025482178
1684115027066680300,11.377680419921875,0.30906593799591064,0.39405059814453125,-0.47339725494384766
1684115027076721200,11.38772119140625,0.2951546907424927,0.36748790740966797,-0.5715751647949219
1684115027086761700,11.39776171875,0.25922608375549316,0.34338855743408203,-0.5748114585876465
1684115027096802300,11.40780224609375,0.21614234149456024,0.28398704528808594,-0.5480787754058838
1684115027106843000,11.4178427734375,0.17095816135406494,0.192230224609375,-0.4801750183105469
1684115027116883500,11.427883544921874,0.14742183685302734,0.08995532989501953,-0.3652005195617676
1684115027126924000,11.437924072265625,0.11002078652381897,0.03154468536376953,-0.23480582237243652
1684115027136964900,11.44796484375,0.09674499928951263,-0.023651123046875,-0.13205218315124512
1684115027147005400,11.45800537109375,0.08618056774139404,-0.033234596252441406,-0.03559303283691406
1684115027157046000,11.4680458984375,0.07132413983345032,-0.04026985168457031,0.06850290298461914
1684115027167086600,11.478086669921876,0.08741714060306549,-0.04481220245361328,0.0836484432220459
1684115027177127200,11.488127197265625,0.07040828466415405,-0.046886444091796875,0.13133859634399414
1684115027187167700,11.498167724609376,0.03498357534408569,-0.06538772583007812,0.20169401168823242
1684115027197208600,11.50820849609375,0.01450580358505249,-0.052908897399902344,0.26351308822631836
1684115027207249200,11.518249267578126,0.015773028135299683,-0.05704498291015625,0.27927327156066895
1684115027217289700,11.528289794921875,0.0030212104320526123,-0.07756614685058594,0.29465532302856445
1684115027227330300,11.538330322265624,0.0044161975383758545,-0.07658576965332031,0.2228078842163086
1684115027237371000,11.548370849609375,-0.041302889585494995,-0.07096385955810547,0.18767452239990234
1684115027247411500,11.558411376953124,-0.05798932909965515,-0.09141731262207031,0.1628720760345459
1684115027257452300,11.568452392578125,-0.06714418530464172,-0.08103275299072266,0.1506483554840088
1684115027267492900,11.578492919921874,-0.05456545948982239,-0.09446048736572266,0.1601414680480957
1684115027277533400,11.588533447265625,-0.04168587923049927,-0.11242485046386719,0.1696147918701172
1684115027287574000,11.598573974609375,0.004650533199310303,-0.06184673309326172,0.1765880584716797
1684115027297614600,11.608614501953125,0.08108930289745331,-0.033265113830566406,0.16680479049682617
1684115027307655200,11.6186552734375,0.1489468663930893,0.016091346740722656,0.10281920433044434
1684115027317696000,11.628696044921876,0.20546786487102509,0.06470775604248047,0.034975290298461914
1684115027327736600,11.638736572265625,0.21294651925563812,0.07961750030517578,-0.071868896484375
1684115027337777200,11.648777099609376,0.18881124258041382,0.09668159484863281,-0.11344003677368164
1684115027347817700,11.658817626953125,0.14329183101654053,0.0875396728515625,-0.13297224044799805
1684115027357858300,11.6688583984375,0.08394798636436462,0.05257987976074219,-0.12358784675598145
1684115027367899100,11.678899169921875,0.03235447406768799,0.04870796203613281,-0.08100104331970215
1684115027377939700,11.688939697265624,-0.01830810308456421,-0.021135330200195312,0.0013511180877685547
1684115027387980300,11.698980224609375,-0.04425737261772156,-0.06403636932373047,0.0921485424041748
1684115027398020900,11.709020751953124,-0.06218555569648743,-0.09919357299804688,0.19326519966125488
1684115027408061400,11.7190615234375,-0.06959879398345947,-0.10080146789550781,0.24314475059509277
1684115027418102000,11.72910205078125,-0.03148597478866577,-0.08586311340332031,0.22839617729187012
1684115027428142800,11.739142822265626,0.034455835819244385,-0.07109355926513672,0.14998912811279297
1684115027438183400,11.749183349609375,0.08518815040588379,-0.056479454040527344,0.027814388275146484
1684115027448224000,11.75922412109375,0.06919077038764954,-0.05615806579589844,-0.05025219917297363
1684115027458264600,11.7692646484375,0.07022280991077423,-0.041609764099121094,-0.10391569137573242
1684115027468305200,11.77930517578125,0.0596538782119751,-0.06255340576171875,-0.1357746124267578
1684115027478345700,11.789345703125,0.04455485939979553,-0.061903953552246094,-0.14848685264587402
1684115027488386600,11.799386474609374,0.03220668435096741,-0.047059059143066406,-0.06008553504943848
1684115027498427100,11.80942724609375,0.03441402316093445,-0.01826190948486328,0.01946878433227539
1684115027508467700,11.8194677734375,0.046294912695884705,-0.03935527801513672,0.036353349685668945
1684115027518508300,11.82950830078125,0.0677126795053482,-0.003589630126953125,-0.0059664249420166016
1684115027528548900,11.839548828125,0.09115289151668549,0.0009870529174804688,-0.002897500991821289
1684115027538589400,11.84958935546875,0.11179867386817932,0.04551982879638672,-0.03523063659667969
1684115027548630300,11.85963037109375,0.141239196062088,0.04693889617919922,-0.010504722595214844
1684115027558670800,11.8696708984375,0.1369696408510208,0.04832267761230469,-0.02614450454711914
1684115027568711400,11.87971142578125,0.1421762853860855,-0.004489898681640625,0.0033159255981445312
1684115027578752000,11.889751953125,0.10495349764823914,-0.025786399841308594,0.003911495208740234
1684115027588792600,11.89979248046875,0.06367547810077667,-0.07253360748291016,0.048874616622924805
1684115027598833400,11.90983349609375,0.05627760291099548,-0.08780860900878906,0.07860755920410156
1684115027608874000,11.9198740234375,0.011730432510375977,-0.0885915756225586,0.10736250877380371
1684115027618914600,11.92991455078125,-0.010388493537902832,-0.03739452362060547,0.0784144401550293
1684115027628955100,11.939955078125,-0.0012532174587249756,0.015437126159667969,0.01644134521484375
1684115027638995700,11.94999560546875,0.010017186403274536,0.02744770050048828,-0.042450666427612305
1684115027649036500,11.96003662109375,0.018617331981658936,0.0792999267578125,-0.10748767852783203
1684115027659077000,11.9700771484375,0.041112154722213745,0.07845306396484375,-0.14066219329833984
1684115027669117700,11.98011767578125,0.04690738022327423,0.10109519958496094,-0.17775559425354004
1684115027679158300,11.990158203125,0.0549691766500473,0.11618804931640625,-0.15495777130126953
1684115027689198800,12.00019873046875,0.01586371660232544,0.11204147338867188,-0.1625528335571289
1684115027699239400,12.010239501953125,-0.017688840627670288,0.09605979919433594,-0.15541577339172363
1684115027709280000,12.020280029296876,-0.08334919810295105,0.10375213623046875,-0.10318660736083984
1684115027719320800,12.03032080078125,-0.10061517357826233,0.07352733612060547,-0.07258272171020508
1684115027729361400,12.040361328125,-0.09641581773757935,0.06726455688476562,-0.049239158630371094
1684115027739402000,12.050402099609375,-0.12282407283782959,0.028082847595214844,-0.05664992332458496
1684115027749442600,12.060442626953124,-0.10157567262649536,-0.02460479736328125,-0.02381277084350586
1684115027759483100,12.070483154296875,-0.08996260166168213,-0.05759716033935547,0.008515596389770508
1684115027769524000,12.08052392578125,-0.08098992705345154,-0.09004688262939453,0.04976010322570801
1684115027779564500,12.090564453125,-0.07235893607139587,-0.1148080825805664,0.1159062385559082
1684115027789605000,12.100605224609374,-0.06404975056648254,-0.09430885314941406,0.1546308994293213
1684115027799645700,12.110645751953125,-0.03955155611038208,-0.05755901336669922,0.16639447212219238
1684115027809686300,12.120686279296875,-0.027609676122665405,-0.007241249084472656,0.1165914535522461
1684115027819727000,12.13072705078125,-0.006717771291732788,0.014019966125488281,0.05811452865600586
1684115027829767700,12.140767578125,-0.01707550883293152,0.027866363525390625,0.04537367820739746
1684115027839808300,12.150808349609376,-0.020412921905517578,0.04854011535644531,0.03288912773132324
1684115027849848800,12.160848876953125,-0.0543399453163147,0.031192779541015625,0.020648956298828125
1684115027859889400,12.170889404296876,-0.05242389440536499,0.009378433227539062,-0.010029077529907227
1684115027869930000,12.180929931640625,-0.09050938487052917,-0.05210113525390625,0.00455021858215332
1684115027879970800,12.190970703125,-0.12292400002479553,-0.051314353942871094,0.03284192085266113
1684115027890011400,12.201011474609375,-0.1308688521385193,-0.04813957214355469,0.032176971435546875
1684115027900052000,12.211052001953124,-0.12210261821746826,-0.05437946319580078,0.03835892677307129
1684115027910092500,12.221092529296875,-0.10871949791908264,-0.046321868896484375,0.006493091583251953
1684115027920133000,12.231133056640624,-0.09542763233184814,-0.040709495544433594,-0.0038361549377441406
1684115027930173700,12.241173583984375,-0.06568646430969238,-0.0022211074829101562,-0.032904624938964844
1684115027940214500,12.251214599609375,-0.04100281000137329,0.02388286590576172,-0.06161618232727051
1684115027950255000,12.261255126953126,0.004531830549240112,0.08014106750488281,-0.08509635925292969
1684115027960295700,12.271295654296875,0.01859116554260254,0.0860137939453125,-0.09872055053710938
1684115027970336300,12.281336181640626,0.020476430654525757,0.0917673110961914,-0.07905364036560059
1684115027980376800,12.291376953125,0.01733630895614624,0.07852840423583984,-0.09945154190063477
1684115027990417700,12.301417724609376,-0.01879701018333435,0.03252410888671875,-0.06995248794555664
1684115028000458200,12.311458251953125,-0.04503071308135986,0.010767936706542969,-0.054824113845825195
1684115028010498800,12.321498779296874,-0.056635141372680664,-0.0036296844482421875,-0.039703369140625
1684115028020539400,12.331539306640625,-0.06569454073905945,-0.03659343719482422,-0.006106853485107422
