time,seconds_elapsed,z,y,x
1684109937334510000,0.031510009765625,0,0,0
1684109937344551400,0.041551513671875,-0.09314775466918945,-0.10914134979248047,0.03316903114318848
1684109937354592500,0.051592529296875,0.03101968765258789,-0.5687679052352905,0.23695307970046997
1684109937364633900,0.0616337890625,0.3944568634033203,-0.6427446603775024,0.6050914525985718
1684109937374675200,0.07167529296875,1.2502236366271973,0.3037635087966919,-0.1082344651222229
1684109937384716300,0.08171630859375,1.6435823440551758,0.7357612252235413,0.33041536808013916
1684109937394757600,0.091757568359375,1.6922597885131836,0.6388035416603088,0.5316754579544067
1684109937404798700,0.101798828125,1.8019165992736816,0.42365753650665283,0.9311163425445557
1684109937414840000,0.111840087890625,1.996934413909912,0.13016819953918457,1.5670274496078491
1684109937424881400,0.12188134765625,1.4089536666870117,-0.37131965160369873,1.5024340152740479
1684109937434922500,0.131922607421875,0.6154608726501465,-0.5816899538040161,1.042393445968628
1684109937444963800,0.1419638671875,0.09304285049438477,-0.5017122030258179,0.6270296573638916
1684109937455005000,0.1520048828125,-0.16492176055908203,-0.20710885524749756,0.27486085891723633
1684109937465046300,0.16204638671875,-0.1247248649597168,0.20353662967681885,0.013933897018432617
1684109937475087600,0.172087646484375,-0.6169223785400391,0.335607647895813,0.02845931053161621
1684109937485128700,0.182128662109375,0.5202732086181641,0.1989227533340454,0.3962242603302002
1684109937495170000,0.192170166015625,0.6876263618469238,-0.1527385711669922,-0.015062093734741211
1684109937505211100,0.202211181640625,1.1679844856262207,0.0823054313659668,0.4060041904449463
1684109937515252500,0.21225244140625,2.0620975494384766,0.14543938636779785,0.8223097324371338
1684109937525293800,0.2222939453125,2.782926559448242,-0.09545040130615234,1.5402321815490723
1684109937535335000,0.2323349609375,3.329522132873535,-0.5769176483154297,2.1747355461120605
1684109937545376300,0.242376220703125,3.792189121246338,-0.7088353633880615,2.987677812576294
1684109937555417300,0.252417236328125,3.883115768432617,-0.20769333839416504,3.3880984783172607
1684109937565458700,0.262458740234375,3.6154723167419434,0.5948390960693359,3.2422406673431396
1684109937575500000,0.2725,3.104480743408203,1.3786790370941162,2.747545003890991
1684109937585541000,0.282541015625,2.585576057434082,1.7373846769332886,2.1080691814422607
1684109937595582500,0.29258251953125,2.336239814758301,1.4158467054367065,1.3933131694793701
1684109937605623600,0.30262353515625,2.476215362548828,0.8343944549560547,1.0902698040008545
1684109937615665000,0.312664794921875,2.265380859375,0.11772966384887695,0.8093469142913818
1684109937625706000,0.3227060546875,1.9726934432983398,-0.1355140209197998,0.6604142189025879
1684109937635747300,0.332747314453125,1.5403509140014648,0.16551804542541504,0.5904338359832764
1684109937645788700,0.34278857421875,1.5154476165771484,0.7174296379089355,0.5762209892272949
1684109937655829800,0.352829833984375,1.944727897644043,1.4385769367218018,0.505584716796875
1684109937665871000,0.36287109375,2.285490036010742,1.8110394477844238,0.46187305450439453
1684109937675912200,0.372912109375,2.912625312805176,1.9377940893173218,0.4993400573730469
1684109937685953500,0.38295361328125,3.350475311279297,1.5192339420318604,0.6591620445251465
1684109937695995000,0.392994873046875,3.610544204711914,0.8543665409088135,1.126725673675537
1684109937706036000,0.403035888671875,3.732144355773926,0.288724422454834,1.635673999786377
1684109937716077300,0.413077392578125,3.4645891189575195,-0.11115503311157227,1.530684471130371
1684109937726118700,0.42311865234375,2.552863121032715,-0.4007728099822998,1.2703042030334473
1684109937736159700,0.43315966796875,1.5092215538024902,-0.34832143783569336,0.6887550354003906
1684109937746201000,0.443201171875,1.3909683227539062,-0.07923579216003418,0.2872438430786133
1684109937756242200,0.4532421875,1.585017204284668,0.8308925628662109,0.9028816223144531
1684109937766283500,0.463283447265625,0.7099652290344238,0.9219532012939453,1.750340461730957
1684109937776324900,0.473324951171875,0.023110389709472656,0.8052785396575928,2.1357312202453613
1684109937786366000,0.483365966796875,-0.7142577171325684,0.9018211364746094,2.2498278617858887
1684109937796407300,0.4934072265625,-1.4611101150512695,0.4339277744293213,2.5312447547912598
1684109937806448400,0.503448486328125,-1.1767749786376953,-0.026456356048583984,1.858205795288086
1684109937816489700,0.51348974609375,-0.8756909370422363,0.6151423454284668,0.31450366973876953
1684109937826531000,0.523531005859375,-0.6753010749816895,0.7722568511962891,0.2754631042480469
1684109937836572200,0.533572265625,-0.5754818916320801,0.17451167106628418,0.5187849998474121
1684109937846613500,0.543613525390625,-0.5760798454284668,-0.17722439765930176,0.4496493339538574
1684109937856654600,0.553654541015625,-0.30426549911499023,-0.24479985237121582,0.23677873611450195
1684109937866696000,0.563696044921875,-0.10196495056152344,-0.34001827239990234,0.1479792594909668
1684109937876737000,0.573737060546875,-0.1589488983154297,-0.4815969467163086,-0.1562824249267578
1684109937886778400,0.5837783203125,-0.18672943115234375,-0.6718666553497314,-0.269500732421875
1684109937896819700,0.59381982421875,-5.816921710968018,-2.773496150970459,1.6295151710510254
1684109937906860800,0.60386083984375,-6.067200660705566,-1.5498409271240234,1.2937350273132324
1684109937916902100,0.613902099609375,-0.9312162399291992,0.9770803451538086,0.22650527954101562
1684109937926943500,0.623943603515625,-0.8860106468200684,-0.05894064903259277,0.32344818115234375
1684109937936984600,0.633984619140625,-1.1779284477233887,-0.34955883026123047,-0.3617238998413086
1684109937947026000,0.64402587890625,-1.3339972496032715,-1.2544193267822266,0.07561254501342773
1684109937957067000,0.65406689453125,-0.9110417366027832,-1.1249029636383057,-0.5015339851379395
1684109937967108400,0.6641083984375,-0.27479124069213867,-0.26179933547973633,-1.1332459449768066
1684109937977149700,0.674149658203125,0.5617809295654297,-0.19615602493286133,-1.8149213790893555
1684109937987190800,0.684190673828125,2.0108704566955566,-0.6008131504058838,-1.1217641830444336
1684109937997232000,0.694232177734375,2.24273681640625,-1.0460455417633057,-0.9777007102966309
1684109938007273200,0.704273193359375,2.403256416320801,-0.47371792793273926,-0.4253087043762207
1684109938017314600,0.714314453125,1.2343616485595703,0.2817380428314209,0.6919384002685547
1684109938027356000,0.72435595703125,-0.43288755416870117,0.6121587753295898,0.8376693725585938
1684109938037397000,0.73439697265625,-1.5963830947875977,0.7207860946655273,1.165247917175293
1684109938047438300,0.744438232421875,-2.3269951343536377,0.8815340995788574,1.8292102813720703
1684109938057479400,0.7544794921875,-2.498434066772461,1.0700664520263672,2.028709888458252
1684109938067520800,0.764520751953125,-2.5255656242370605,0.8793332576751709,1.892472743988037
1684109938077562000,0.77456201171875,-2.617598533630371,0.5621025562286377,1.4931883811950684
1684109938087603200,0.784603271484375,-2.7705323696136475,0.3658313751220703,1.2131867408752441
1684109938097644500,0.79464453125,-2.62215518951416,0.24811673164367676,0.956171989440918
1684109938107686000,0.804685791015625,-2.157240867614746,0.3771388530731201,0.5814342498779297
1684109938117727000,0.81472705078125,-1.688577651977539,-0.21358180046081543,0.8060402870178223
1684109938127768300,0.824768310546875,-1.1519746780395508,-1.2716493606567383,1.2575874328613281
1684109938137809400,0.834809326171875,0.1616520881652832,-1.3785741329193115,1.3142967224121094
1684109938147850800,0.844850830078125,1.2324762344360352,-1.223081111907959,1.0887656211853027
1684109938157892000,0.85489208984375,1.4043598175048828,-0.8482069969177246,0.08919668197631836
1684109938167933200,0.86493310546875,0.6729865074157715,-0.7827436923980713,-0.5991978645324707
1684109938177974500,0.874974609375,-0.5216846466064453,-0.607764482498169,-0.7689690589904785
1684109938188015600,0.885015625,-1.2975001335144043,-0.34623193740844727,-1.088442325592041
1684109938198057000,0.895056884765625,-1.2657346725463867,-0.0733327865600586,-1.1267805099487305
1684109938208098300,0.905098388671875,-0.6369390487670898,0.09828948974609375,-0.8284769058227539
1684109938218139400,0.915139404296875,-0.22736406326293945,0.13485407829284668,-0.6518125534057617
1684109938228180700,0.9251806640625,0.027919769287109375,0.15123462677001953,-0.6782894134521484
1684109938238221800,0.935221923828125,0.11362648010253906,0.044539451599121094,-0.5321540832519531
1684109938248263200,0.94526318359375,0.12618398666381836,0.03382444381713867,-0.32030439376831055
1684109938258304500,0.955304443359375,0.20970773696899414,-0.02232193946838379,-0.37650108337402344
1684109938268345600,0.965345703125,0.2441248893737793,-0.30953168869018555,-0.2367258071899414
1684109938278387000,0.975386962890625,-0.027892589569091797,-0.49420881271362305,-0.16326665878295898
1684109938288428300,0.98542822265625,-0.38590288162231445,-0.42142724990844727,-0.2447066307067871
1684109938298469400,0.995469482421875,-0.7491855621337891,-0.6310288906097412,-0.32565975189208984
1684109938308510700,1.0055107421875,-1.037020206451416,-0.6986231803894043,-0.213470458984375
1684109938318552000,1.015552001953125,-1.0910334587097168,-0.7737281322479248,-0.1549515724182129
1684109938328593200,1.02559326171875,-0.9348220825195312,-0.8118247985839844,-0.11289024353027344
1684109938338634500,1.035634521484375,-0.9708251953125,-0.7081215381622314,0.13581418991088867
1684109938348675600,1.045675537109375,-0.9345893859863281,-0.6265554428100586,0.46055078506469727
1684109938358717000,1.055717041015625,-0.8252573013305664,-0.420393705368042,0.7910861968994141
1684109938368758000,1.065758056640625,-0.7109780311584473,-0.2558324337005615,0.4368462562561035
1684109938378799400,1.07579931640625,-0.5368742942810059,-0.5301337242126465,0.4518289566040039
1684109938388840700,1.0858408203125,-0.5418839454650879,-0.5984251499176025,0.2930607795715332
1684109938398881800,1.0958818359375,-0.5850710868835449,-0.3795914649963379,-0.12798023223876953
1684109938408923100,1.105923095703125,-0.6810727119445801,-0.3136117458343506,-0.2208576202392578
1684109938418964500,1.115964599609375,-1.0121469497680664,-0.3210296630859375,-0.1487259864807129
1684109938429005600,1.126005615234375,-1.1557703018188477,-0.0983285903930664,-0.44803285598754883
1684109938439047000,1.136046875,-0.9967784881591797,-0.20157957077026367,-0.44744110107421875
1684109938449088300,1.146088134765625,-0.656898021697998,-0.25777220726013184,-0.3522515296936035
1684109938459129300,1.15612939453125,-0.3595876693725586,-0.2108449935913086,-0.6743159294128418
1684109938469170700,1.166170654296875,-0.25119543075561523,-0.1846301555633545,-0.9912505149841309
1684109938479211800,1.176211669921875,-0.26064157485961914,-0.09426736831665039,-1.1711034774780273
1684109938489253000,1.186253173828125,-0.1496891975402832,0.03408455848693848,-1.2692179679870605
1684109938499294200,1.196294189453125,-0.24283266067504883,0.026499032974243164,-0.7786002159118652
1684109938509335600,1.20633544921875,-0.9407691955566406,-0.06787610054016113,-2.122432231903076
1684109938519377000,1.216376953125,0.8595371246337891,0.316058874130249,-1.1288175582885742
1684109938529418000,1.22641796875,0.8132157325744629,0.2836287021636963,-0.8996853828430176
1684109938539459300,1.236459228515625,0.6577849388122559,0.2955963611602783,-0.2847862243652344
1684109938549500700,1.246500732421875,0.20243358612060547,0.487041711807251,-0.022481918334960938
1684109938559541800,1.256541748046875,-0.2675056457519531,0.6669855117797852,0.0032205581665039062
1684109938569583000,1.2665830078125,-0.11725139617919922,0.7046306133270264,0.41169166564941406
1684109938579624400,1.27662451171875,-0.022198200225830078,0.8865525722503662,0.4501819610595703
1684109938589665500,1.28666552734375,-0.061690330505371094,0.7907042503356934,0.1872425079345703
1684109938599707000,1.296706787109375,-0.14419317245483398,0.5455434322357178,-0.2456226348876953
1684109938609748000,1.306748046875,-0.2976045608520508,0.5370221138000488,-1.2137837409973145
1684109938619789300,1.316789306640625,-0.32882046699523926,0.41217899322509766,-1.7152042388916016
1684109938629830700,1.32683056640625,-0.012476205825805664,0.12653875350952148,-1.7376084327697754
1684109938639871700,1.336871826171875,0.19391655921936035,0.07614874839782715,-1.466085433959961
1684109938649913000,1.3469130859375,0.2501795291900635,-0.08285808563232422,-1.3281245231628418
1684109938659954400,1.356954345703125,0.24372971057891846,-0.10020565986633301,-1.0792818069458008
1684109938669995500,1.36699560546875,0.1485532522201538,-0.1686398983001709,-0.7059049606323242
1684109938680036900,1.377036865234375,0.11996579170227051,0.05331850051879883,-0.7316436767578125
1684109938690078200,1.387078125,0.07032471895217896,0.15321612358093262,-0.8008718490600586
1684109938700119300,1.397119384765625,-0.2801254093647003,0.07786011695861816,-0.7170124053955078
1684109938710160600,1.40716064453125,-0.4405234158039093,-0.07376933097839355,-0.7608022689819336
1684109938720201700,1.41720166015625,0.09087362885475159,0.03393721580505371,-0.49413013458251953
1684109938730243000,1.4272431640625,0.12538546323776245,0.001971721649169922,-0.06401920318603516
1684109938740284200,1.4372841796875,0.034618258476257324,-0.06116962432861328,0.26003551483154297
1684109938750325500,1.447325439453125,-0.5073617696762085,0.24608302116394043,0.7420587539672852
1684109938760366800,1.457366943359375,-2.3702969551086426,0.4622480869293213,1.015298843383789
1684109938770408000,1.467407958984375,-3.9574429988861084,0.829420804977417,0.9531011581420898
1684109938780449300,1.47744921875,-3.74753999710083,1.2465028762817383,0.44076061248779297
1684109938790490600,1.48749072265625,-1.6774108409881592,1.0235259532928467,0.3326120376586914
1684109938800531700,1.49753173828125,-0.22982287406921387,0.16004180908203125,0.1601266860961914
1684109938810573000,1.507572998046875,0.5813300609588623,-0.42491912841796875,-0.017797470092773438
1684109938820614400,1.517614501953125,0.6788285970687866,-0.7057802677154541,0.031226158142089844
1684109938830655500,1.527655517578125,0.7453888654708862,-0.8552746772766113,-0.050182342529296875
1684109938840696800,1.53769677734375,0.6406810283660889,-0.8296821117401123,-0.1169443130493164
1684109938850738000,1.547738037109375,0.7648426294326782,-0.501237154006958,-0.26042842864990234
1684109938860779300,1.557779296875,0.46369075775146484,-0.482283353805542,-0.33277416229248047
1684109938870820600,1.567820556640625,0.013936042785644531,-0.5661301612854004,-0.3433656692504883
1684109938880861700,1.57786181640625,-0.25284337997436523,-0.44413161277770996,-0.6778316497802734
1684109938890903000,1.587903076171875,-0.4403681755065918,-0.5534024238586426,-0.4376554489135742
1684109938900944400,1.5979443359375,-0.36715221405029297,-0.5510692596435547,-0.5314607620239258
1684109938910985500,1.6079853515625,-0.08295965194702148,-0.6443476676940918,-0.3350400924682617
1684109938921026800,1.61802685546875,0.2724161148071289,-0.6251616477966309,0.05636787414550781
1684109938931068000,1.62806787109375,0.3665039539337158,-0.44678616523742676,-0.014878273010253906
1684109938941109200,1.638109130859375,0.477733850479126,-0.4575924873352051,-0.02434825897216797
1684109938951150600,1.648150634765625,0.38358449935913086,-0.33357810974121094,-0.5216760635375977
1684109938961191700,1.658191650390625,0.28006744384765625,-0.33492374420166016,-0.6291131973266602
1684109938971233000,1.66823291015625,0.14112281799316406,-0.30953121185302734,-0.5559253692626953
1684109938981274400,1.6782744140625,0.02194666862487793,0.11500835418701172,-0.2439746856689453
1684109938991315500,1.6883154296875,-0.11888957023620605,0.1881275177001953,-0.05203056335449219
1684109939001356800,1.698356689453125,-0.07106351852416992,0.2411208152770996,0.2048664093017578
1684109939011398100,1.708398193359375,-0.2750420570373535,0.23804378509521484,0.09556865692138672
1684109939021439200,1.718439208984375,-0.47904276847839355,0.1717071533203125,0.11951255798339844
1684109939031480600,1.72848046875,-0.49573421478271484,0.1326909065246582,-0.1797933578491211
1684109939041521700,1.738521728515625,-0.39737439155578613,0.09343099594116211,-0.23483753204345703
1684109939051563000,1.74856298828125,-0.380265474319458,0.041489601135253906,-0.39165496826171875
1684109939061604400,1.758604248046875,-0.6236176490783691,0.2097325325012207,-0.703671932220459
1684109939071645400,1.7686455078125,-1.0407445430755615,-0.004771709442138672,-0.21923160552978516
1684109939081686800,1.778686767578125,-1.0231077671051025,-0.10662508010864258,0.11997032165527344
1684109939091728100,1.78872802734375,-1.0420105457305908,0.10864496231079102,0.10500335693359375
1684109939101769200,1.798769287109375,-0.9888126850128174,0.045342445373535156,0.592555046081543
1684109939111810600,1.808810546875,-0.8746898174285889,0.28911781311035156,0.31091785430908203
1684109939121852000,1.818851806640625,-0.9163608551025391,0.5258383750915527,0.2818431854248047
1684109939131893000,1.82889306640625,-0.8343403339385986,0.6144089698791504,0.2715587615966797
1684109939141934300,1.838934326171875,-0.8084909915924072,0.4801177978515625,0.5287055969238281
1684109939151975400,1.848975341796875,-0.8687632083892822,0.4185333251953125,0.6894903182983398
1684109939162016800,1.859016845703125,-1.1014652252197266,0.19315481185913086,0.8964052200317383
1684109939172058000,1.86905810546875,-1.1815218925476074,-0.01442861557006836,0.9955263137817383
1684109939182099200,1.87909912109375,-1.3303537368774414,-0.17825651168823242,1.2747907638549805
1684109939192140500,1.889140625,-1.3207635879516602,-0.6522107124328613,1.3580408096313477
1684109939202182000,1.899181884765625,-1.0928962230682373,-0.7055234909057617,1.2407817840576172
1684109939212223000,1.909222900390625,-0.5582177639007568,-0.6815624237060547,1.0538463592529297
1684109939222264300,1.919264404296875,0.21263623237609863,-0.8519101142883301,0.5452919006347656
1684109939232305400,1.929305419921875,0.692774772644043,-0.9742894172668457,-0.021047592163085938
1684109939242346800,1.9393466796875,-0.6680675745010376,-2.4355955123901367,0.8001823425292969
1684109939252388000,1.94938818359375,1.569333791732788,-0.6178278923034668,-1.5083699226379395
1684109939262429200,1.95942919921875,0.3412137031555176,-0.9432435035705566,-0.6228923797607422
1684109939272470500,1.969470458984375,0.643429160118103,-0.08006620407104492,-0.4343833923339844
1684109939282512000,1.979511962890625,1.047408103942871,0.333651065826416,-0.24386119842529297
1684109939292553000,1.989552978515625,0.22372138500213623,-0.18446111679077148,0.013011932373046875
1684109939302594300,1.99959423828125,-0.19572234153747559,-0.47790050506591797,0.28810977935791016
1684109939312635600,2.0096357421875,-0.5468435287475586,-0.7584009170532227,0.5292224884033203
1684109939322676700,2.0196767578125,-0.20170223712921143,-0.8247737884521484,0.6914138793945312
1684109939332718000,2.029718017578125,0.15019571781158447,-0.9720964431762695,0.35080718994140625
1684109939342759200,2.03975927734375,1.2317298650741577,-1.0146818161010742,0.7026710510253906
1684109939352800500,2.049800537109375,0.7448962926864624,-0.9717140197753906,0.8872976303100586
1684109939362841900,2.059841796875,0.2673426866531372,-1.2658429145812988,0.6551065444946289
1684109939372883000,2.069883056640625,-0.47164344787597656,-1.557072639465332,0.3673105239868164
1684109939382924300,2.07992431640625,0.013944149017333984,-1.3728275299072266,-0.09384918212890625
1684109939392965600,2.089965576171875,0.6414303183555603,-1.0654549598693848,-1.241776466369629
1684109939403006700,2.1000068359375,1.62404203414917,-0.5176277160644531,-1.46406888961792
1684109939413048000,2.110048095703125,1.9880015850067139,-0.39254045486450195,-0.9062480926513672
1684109939423089400,2.12008935546875,1.8318090438842773,-0.44327640533447266,-0.9446067810058594
1684109939433130500,2.130130615234375,1.3500806093215942,-0.6071257591247559,-1.2174701690673828
1684109939443171800,2.140171875,0.9657042622566223,-0.5686402320861816,-1.7621245384216309
1684109939453213200,2.150213134765625,0.7176082134246826,-0.39472293853759766,-2.5077667236328125
1684109939463254300,2.160254150390625,0.8022772073745728,-0.3021245002746582,-3.0407910346984863
1684109939473295600,2.170295654296875,1.0442941188812256,-0.3346395492553711,-3.055058002471924
1684109939483336700,2.180336669921875,1.3204386234283447,-0.7030463218688965,-3.077787399291992
1684109939493378000,2.1903779296875,1.9231895208358765,-0.9692802429199219,-2.84340763092041
1684109939503419400,2.20041943359375,2.0063159465789795,-1.4475736618041992,-2.799398899078369
1684109939513460500,2.21046044921875,1.75454580783844,-2.0708417892456055,-2.8865509033203125
1684109939523501800,2.220501708984375,1.2606513500213623,-2.0749754905700684,-2.552853584289551
1684109939533543200,2.230543212890625,0.3847389817237854,-1.883493423461914,-1.9889864921569824
1684109939543584300,2.240584228515625,0.07495498657226562,-1.5127201080322266,-1.509434700012207
1684109939553625600,2.25062548828125,0.2884475588798523,-1.2307343482971191,-1.3384513854980469
1684109939563667000,2.2606669921875,0.7620984315872192,-0.6810336112976074,-1.0109729766845703
1684109939573708000,2.2707080078125,1.2063007354736328,-0.31197214126586914,-0.3482542037963867
1684109939583749400,2.280749267578125,1.3555892705917358,-0.14134550094604492,0.05640411376953125
1684109939593790500,2.29079052734375,1.2654471397399902,-0.30783510208129883,0.23186683654785156
1684109939603831800,2.300831787109375,1.3298015594482422,-0.33544445037841797,0.21821308135986328
1684109939613873200,2.310873046875,1.0238744020462036,-0.4823875427246094,-0.10069561004638672
1684109939623914200,2.320914306640625,0.7600042819976807,-0.3846769332885742,-0.7096004486083984
1684109939633955600,2.33095556640625,1.6507511138916016,0.9671707153320312,-1.503756046295166
1684109939643997000,2.340996826171875,1.4464877843856812,0.6990184783935547,0.0017004013061523438
1684109939654038000,2.3510380859375,0.5245324373245239,-0.8055906295776367,1.2631330490112305
1684109939664079400,2.361079345703125,0.3112337589263916,-0.5885982513427734,1.6397323608398438
1684109939674120700,2.37112060546875,0.6114599108695984,0.4863567352294922,1.4059028625488281
1684109939684161800,2.381161865234375,1.0578653812408447,1.0486936569213867,0.9594860076904297
1684109939694203100,2.391203125,0.7824039459228516,0.679725170135498,0.2922554016113281
1684109939704244500,2.401244384765625,0.9738627672195435,0.46265649795532227,-0.32841014862060547
1684109939714285600,2.41128564453125,0.9266541004180908,0.3230748176574707,-0.9444026947021484
1684109939724327000,2.421326904296875,1.10539710521698,0.7324714660644531,-1.5654125213623047
1684109939734368300,2.4313681640625,1.310423493385315,0.997652530670166,-1.3383727073669434
1684109939744409300,2.441409423828125,1.370588779449463,0.9359292984008789,-0.27906036376953125
1684109939754450700,2.45145068359375,1.688135027885437,0.760127067565918,1.2658014297485352
1684109939764491800,2.46149169921875,1.488480806350708,0.876838207244873,2.0236778259277344
1684109939774533000,2.471533203125,0.439609169960022,0.8744492530822754,2.2285327911376953
1684109939784574500,2.481574462890625,-0.3968409597873688,1.0830349922180176,2.9021806716918945
1684109939794615800,2.49161572265625,-0.3471572995185852,1.3519582748413086,2.9748544692993164
1684109939804657000,2.501656982421875,0.0344485342502594,1.276266098022461,1.997471809387207
1684109939814698200,2.5116982421875,0.31350818276405334,1.0046958923339844,1.1836786270141602
1684109939824739300,2.5217392578125,-0.29285183548927307,0.5277209281921387,0.4718666076660156
1684109939834780700,2.53178076171875,-0.8149794340133667,0.3096036911010742,-0.26053333282470703
1684109939844822000,2.541822021484375,-0.6579283475875854,0.12663698196411133,-0.2361297607421875
1684109939854863000,2.551863037109375,-0.1490083783864975,0.12075567245483398,0.5199308395385742
1684109939864904400,2.561904541015625,0.3556748926639557,0.28836965560913086,0.8583369255065918
1684109939874945800,2.57194580078125,0.18990707397460938,0.12022781372070312,0.3137836456298828
1684109939884987000,2.58198681640625,0.3595237135887146,0.20740795135498047,0.5345711708068848
1684109939895028200,2.5920283203125,0.265183687210083,0.11339235305786133,0.7936549186706543
1684109939905069300,2.6020693359375,0.22389990091323853,0.20502090454101562,0.7701420783996582
1684109939915110700,2.612110595703125,0.061921119689941406,0.33760881423950195,0.9498958587646484
1684109939925152000,2.622152099609375,-0.3007167875766754,0.36055755615234375,1.0666322708129883
1684109939935193300,2.632193359375,-0.6228598952293396,-0.037899017333984375,1.2961864471435547
1684109939945234400,2.642234375,-0.5235936641693115,0.2623476982116699,1.2043328285217285
1684109939955275800,2.65227587890625,-0.5690774917602539,0.5998969078063965,0.6143608093261719
1684109939965316900,2.66231689453125,-0.15434980392456055,0.8582892417907715,0.39281177520751953
1684109939975358200,2.672358154296875,0.037171006202697754,0.9171638488769531,0.23416709899902344
1684109939985399600,2.682399658203125,-0.29800838232040405,0.7669134140014648,-0.18622970581054688
1684109939995440600,2.692440673828125,0.03240537643432617,1.0639333724975586,-0.7222757339477539
1684109940005482000,2.70248193359375,0.1788620948791504,1.0765299797058105,-1.1157631874084473
1684109940015523300,2.7125234375,-0.040404677391052246,0.29662418365478516,-0.8790831565856934
1684109940025564400,2.722564453125,0.13410937786102295,-0.2810173034667969,-0.6773262023925781
1684109940035605800,2.732605712890625,0.38471996784210205,0.03949260711669922,-1.0649495124816895
1684109940045647000,2.742647216796875,0.37923741340637207,0.6003093719482422,-0.9837417602539062
1684109940055688200,2.752688232421875,0.48730576038360596,0.5717158317565918,-0.3895301818847656
1684109940065729500,2.7627294921875,0.40363872051239014,0.46117353439331055,-0.12670135498046875
1684109940075771000,2.77277099609375,0.28721773624420166,0.48814964294433594,0.14746665954589844
1684109940085812000,2.78281201171875,0.11695575714111328,0.8128323554992676,0.429318904876709
1684109940095853300,2.792853271484375,-0.007191061973571777,0.9064650535583496,0.6452999114990234
1684109940105894700,2.802894775390625,-0.1506563425064087,0.7722630500793457,0.5096392631530762
1684109940115935700,2.812935791015625,-0.2894543409347534,0.5667853355407715,0.17611026763916016
1684109940125977000,2.82297705078125,-0.2322777509689331,0.48944997787475586,0.020986557006835938
1684109940136018400,2.833018310546875,-0.14091241359710693,0.3473048210144043,-0.1530156135559082
1684109940146059500,2.8430595703125,0.16383206844329834,0.15960216522216797,-0.3573031425476074
1684109940156100900,2.853100830078125,0.8485747575759888,0.12061071395874023,-0.5185976028442383
1684109940166142200,2.86314208984375,1.6583912372589111,0.0026345252990722656,-0.2833395004272461
1684109940176183300,2.873183349609375,2.0811080932617188,-0.11937618255615234,0.07897472381591797
1684109940186224600,2.883224609375,1.932098627090454,-0.036043643951416016,0.17688846588134766
1684109940196265700,2.893265625,1.5335553884506226,0.18734169006347656,0.2766714096069336
1684109940206307000,2.90330712890625,1.3081390857696533,0.400144100189209,0.45427513122558594
1684109940216348400,2.913348388671875,0.6650398969650269,0.4606022834777832,0.4775576591491699
1684109940226389800,2.9233896484375,-0.004347801208496094,0.35944175720214844,0.38337087631225586
1684109940236430800,2.933430908203125,-0.3568154275417328,0.48734617233276367,-0.2682676315307617
1684109940246472200,2.94347216796875,-1.041093349456787,0.6459736824035645,-0.6534738540649414
1684109940256513300,2.95351318359375,-1.10545814037323,0.8439326286315918,-0.5627808570861816
1684109940266554600,2.9635546875,-0.5560086369514465,0.9704384803771973,-0.31129932403564453
1684109940276596000,2.973595947265625,-0.0073108673095703125,0.7790069580078125,-0.19248676300048828
1684109940286637000,2.983636962890625,0.0784406065940857,0.455538272857666,-0.6288418769836426
1684109940296678400,2.993678466796875,0.19630363583564758,0.256927490234375,-0.6524538993835449
1684109940306719700,3.0037197265625,0.3235079348087311,0.029914379119873047,-0.5319523811340332
1684109940316760800,3.0137607421875,0.7352370023727417,-0.012881278991699219,-0.549720287322998
1684109940326802200,3.02380224609375,0.7359888553619385,-0.17211627960205078,-0.42610931396484375
1684109940336843500,3.033843505859375,0.627455472946167,-0.21998214721679688,-0.3525257110595703
1684109940346884600,3.043884521484375,0.3805464506149292,-0.17273616790771484,-0.04744529724121094
1684109940356926000,3.053926025390625,-0.18121947348117828,-0.0065155029296875,0.39177894592285156
1684109940366967300,3.06396728515625,-1.008800983428955,0.6154837608337402,0.5715928077697754
1684109940377008400,3.07400830078125,-1.3601629734039307,1.0024957656860352,0.6234431266784668
1684109940387049700,3.0840498046875,-1.4090118408203125,0.8957400321960449,0.8593692779541016
1684109940397091000,3.094091064453125,-0.8892052173614502,0.5295200347900391,1.1651835441589355
1684109940407132200,3.104132080078125,-1.0431218147277832,0.7264523506164551,0.9538745880126953
1684109940417173500,3.114173583984375,-1.039947271347046,-0.49111366271972656,1.3418259620666504
1684109940427214800,3.12421484375,0.016274571418762207,-1.229330062866211,1.4473543167114258
1684109940437256000,3.134255859375,1.1547772884368896,-1.8266820907592773,1.835883617401123
1684109940447297300,3.14429736328125,1.429502010345459,-3.0221900939941406,2.4589719772338867
1684109940457338600,3.154338623046875,1.8184475898742676,-1.8408899307250977,2.4935927391052246
1684109940467379700,3.164379638671875,1.1890097856521606,-0.7830362319946289,2.2748823165893555
1684109940477421000,3.174421142578125,0.1332142949104309,-0.32131004333496094,1.812760353088379
1684109940487462400,3.18446240234375,-0.4944697618484497,-0.4096393585205078,1.7814898490905762
1684109940497503500,3.19450341796875,-0.5938876867294312,0.4558730125427246,0.8257684707641602
1684109940507544800,3.204544921875,-0.5440782308578491,0.3648257255554199,0.05676460266113281
1684109940517586200,3.214586181640625,0.114310622215271,-0.3387470245361328,-0.27109193801879883
1684109940527627300,3.224627197265625,0.35870492458343506,1.9379844665527344,-1.5264759063720703
1684109940537668600,3.234668701171875,0.3704093098640442,-0.0022449493408203125,-0.7791366577148438
1684109940547709700,3.244709716796875,0.8547322750091553,-0.8225412368774414,-0.595954418182373
1684109940557751000,3.2547509765625,1.4406640529632568,-0.32793140411376953,-0.2437300682067871
1684109940567792400,3.26479248046875,1.6644139289855957,0.4682488441467285,-0.04170846939086914
1684109940577833700,3.274833740234375,1.3619117736816406,0.619441032409668,-0.023379802703857422
1684109940587874800,3.284874755859375,1.1576259136199951,0.3352179527282715,-0.19440221786499023
1684109940597916200,3.294916259765625,0.8169985413551331,0.08010005950927734,-0.6447458267211914
1684109940607957200,3.304957275390625,0.4770110249519348,0.07566356658935547,-1.2316837310791016
1684109940617998600,3.31499853515625,0.2220037877559662,-0.35398197174072266,-1.1540555953979492
1684109940628040000,3.3250400390625,-0.26992571353912354,0.4815196990966797,-1.5991911888122559
1684109940638081300,3.335081298828125,-2.9874472618103027,0.2212972640991211,-0.9117937088012695
1684109940648122400,3.345122314453125,-2.913813829421997,0.856844425201416,-0.06807279586791992
1684109940658163700,3.355163818359375,-1.51983642578125,1.4896678924560547,-0.22734832763671875
1684109940668204800,3.365204833984375,-0.7629706859588623,-0.37867212295532227,-0.01563549041748047
1684109940678246100,3.37524609375,-0.11123991012573242,-0.8898153305053711,-0.7159824371337891
1684109940688287500,3.38528759765625,0.1834389865398407,-0.7446112632751465,-0.9434685707092285
1684109940698328600,3.39532861328125,-0.07615947723388672,-0.8215866088867188,-1.0331978797912598
1684109940708370000,3.405369873046875,0.05776470899581909,-0.7790079116821289,-1.3334202766418457
1684109940718411300,3.415411376953125,0.5688833594322205,-0.39581966400146484,-1.7837738990783691
1684109940728452400,3.425452392578125,0.7835198640823364,-0.6361122131347656,-1.313100814819336
1684109940738493700,3.43549365234375,0.6888507008552551,-0.7928705215454102,-0.5554409027099609
1684109940748535000,3.44553515625,-0.1897742748260498,-0.816561222076416,-0.5153260231018066
1684109940758576000,3.455576171875,-1.161444902420044,-0.584963321685791,-0.6566176414489746
1684109940768617500,3.465617431640625,-1.4077949523925781,-0.14695978164672852,-0.5661215782165527
1684109940778658800,3.475658935546875,-1.105739712715149,0.049449920654296875,-0.8095188140869141
1684109940788700000,3.485699951171875,-0.4471280574798584,-0.26669979095458984,-0.7713909149169922
1684109940798741200,3.4957412109375,-0.16094970703125,-0.766535758972168,-0.5015134811401367
1684109940808782600,3.505782470703125,0.034712791442871094,-1.067892074584961,0.018311500549316406
1684109940818823700,3.51582373046875,0.06404447555541992,-1.189528465270996,0.3859896659851074
1684109940828865000,3.525864990234375,0.3901711702346802,-0.35474538803100586,-0.1393294334411621
1684109940838906400,3.53590625,0.01635885238647461,-0.7179751396179199,0.2523655891418457
1684109940848947500,3.545947509765625,0.15877366065979004,-0.780515193939209,-0.17458105087280273
1684109940858988800,3.55598876953125,0.3465917110443115,-0.7299838066101074,-0.5848007202148438
1684109940869030100,3.566030029296875,0.8925641775131226,-0.5741763114929199,-0.9276366233825684
1684109940879071200,3.5760712890625,1.4566367864608765,-0.5128850936889648,-1.0367355346679688
1684109940889112600,3.586112548828125,1.9258673191070557,-0.17318010330200195,-1.1274781227111816
1684109940899154000,3.59615380859375,1.9131916761398315,-0.12142515182495117,-1.127875804901123
1684109940909195000,3.606195068359375,1.475412130355835,0.22734403610229492,-1.239241600036621
1684109940919236400,3.616236328125,1.1760015487670898,1.8686637878417969,-0.42325401306152344
1684109940929277700,3.626277587890625,0.4874826669692993,3.120866298675537,0.1461191177368164
1684109940939318800,3.63631884765625,0.2692701816558838,2.739935874938965,-0.12933111190795898
1684109940949360000,3.646360107421875,0.41745924949645996,1.956367015838623,-0.5003385543823242
1684109940959401500,3.6564013671875,0.5824681520462036,0.7309370040893555,-0.5335273742675781
1684109940969442600,3.666442626953125,0.25596117973327637,-0.7529497146606445,-0.43544960021972656
1684109940979484000,3.67648388671875,-0.470064640045166,-2.2670392990112305,-0.45744943618774414
1684109940989525200,3.686525146484375,-1.0674223899841309,-2.8442959785461426,-0.5144186019897461
1684109940999566300,3.69656640625,-0.6691129207611084,-2.1703696250915527,-0.5278944969177246
1684109941009607700,3.706607666015625,-0.07153034210205078,-0.8551554679870605,-0.37718820571899414
1684109941019649000,3.71664892578125,-0.16659307479858398,0.0380101203918457,-0.5890593528747559
1684109941029690000,3.726690185546875,-0.5365676879882812,0.39362573623657227,-0.9291911125183105
1684109941039731500,3.7367314453125,-0.5640385150909424,0.7669830322265625,-1.1169099807739258
1684109941049772800,3.746772705078125,-0.4625098705291748,0.3975348472595215,-1.2463164329528809
1684109941059814000,3.75681396484375,-0.05897092819213867,-0.6567082405090332,-0.7091646194458008
1684109941069855200,3.766855224609375,0.22524499893188477,-1.0138912200927734,0.3139524459838867
1684109941079896600,3.776896484375,0.3193373680114746,-1.210888385772705,1.3942360877990723
1684109941089937700,3.786937744140625,0.19105267524719238,-1.2334718704223633,1.8707318305969238
1684109941099979000,3.79697900390625,0.21420907974243164,-0.8594074249267578,1.5647006034851074
1684109941110020400,3.807020263671875,0.06217384338378906,-0.1986851692199707,0.4279789924621582
1684109941120061400,3.8170615234375,-0.0026497840881347656,0.46532249450683594,-0.2440476417541504
1684109941130102800,3.827102783203125,-0.27497124671936035,1.0779786109924316,-0.5632853507995605
1684109941140144000,3.83714404296875,-0.15228009223937988,0.5635504722595215,-1.1073594093322754
1684109941150185200,3.847185302734375,-0.1591167449951172,-0.67779541015625,-1.0304450988769531
1684109941160226600,3.8572265625,0.37043142318725586,-0.15162038803100586,-0.42148828506469727
1684109941170267600,3.867267578125,0.01449275016784668,-0.3039207458496094,-0.32407474517822266
1684109941180309000,3.87730908203125,-1.0122547149658203,-0.3576664924621582,-0.3574652671813965
1684109941190350300,3.887350341796875,-0.712740421295166,1.077610969543457,0.11736822128295898
1684109941200391700,3.8973916015625,0.5539014339447021,0.8274965286254883,-0.0562596321105957
1684109941210432800,3.907432861328125,0.8024952411651611,0.216766357421875,-0.752659797668457
1684109941220474000,3.91747412109375,0.40750348567962646,0.1360468864440918,-0.8601956367492676
1684109941230515200,3.92751513671875,0.5150384902954102,-0.0690464973449707,-0.6268401145935059
1684109941240556500,3.937556640625,0.659022331237793,0.09081268310546875,-0.27899885177612305
1684109941250598000,3.947597900390625,0.6739897727966309,0.40812158584594727,-0.19699478149414062
1684109941260639200,3.95763916015625,0.5518698692321777,0.4223160743713379,-0.3023390769958496
1684109941270680300,3.967680419921875,0.3422865867614746,0.3747138977050781,-0.3415541648864746
1684109941280721700,3.9777216796875,0.22609543800354004,0.3097724914550781,-0.24459552764892578
1684109941290762800,3.9877626953125,0.24102914333343506,0.39950990676879883,-0.11852455139160156
1684109941300804000,3.99780419921875,0.31321287155151367,0.5178928375244141,-0.17402315139770508
1684109941310845400,4.007845458984375,0.46007227897644043,0.638035774230957,-0.07567739486694336
1684109941320886800,4.01788671875,0.6280002593994141,0.9288949966430664,0.1785421371459961
1684109941330927900,4.027927978515625,0.8656191825866699,1.4059653282165527,-0.15697622299194336
1684109941340969200,4.03796923828125,0.6721831560134888,1.340959072113037,-0.2207651138305664
1684109941351010300,4.04801025390625,0.29947781562805176,1.0824861526489258,-0.32204675674438477
1684109941361051600,4.0580517578125,-0.23686671257019043,0.03208160400390625,-0.5642213821411133
1684109941371093000,4.068093017578125,0.07788896560668945,0.8659834861755371,-0.13922595977783203
1684109941381134300,4.07813427734375,-0.5012397766113281,0.30080556869506836,-0.0005130767822265625
1684109941391175400,4.088175537109375,-0.7601170539855957,0.47503662109375,0.021308422088623047
1684109941401216800,4.098216796875,-0.5620386600494385,0.8978848457336426,0.04425811767578125
1684109941411257900,4.1082578125,-0.3038644790649414,1.6359596252441406,0.18116378784179688
1684109941421299200,4.11829931640625,0.4275391101837158,3.89469575881958,0.8184962272644043
1684109941431340500,4.128340576171875,-0.31909775733947754,3.7955236434936523,0.07532978057861328
1684109941441382000,4.1383818359375,-0.7714400291442871,3.1072354316711426,-0.17362737655639648
1684109941451423000,4.148423095703125,-0.5930306911468506,1.825554370880127,-0.3641815185546875
1684109941461464300,4.15846435546875,0.0338282585144043,0.28307056427001953,-0.7069439888000488
1684109941471505400,4.16850537109375,0.6138598918914795,-1.7208800315856934,-0.9462151527404785
1684109941481546800,4.178546630859375,0.9891829490661621,-3.50960111618042,-1.0995149612426758
1684109941491588000,4.188588134765625,1.0545412302017212,-4.408544063568115,-1.0376710891723633
1684109941501629400,4.19862939453125,0.6945338249206543,-4.3200602531433105,-0.8856630325317383
1684109941511670500,4.20867041015625,0.6950095891952515,-1.5598506927490234,-0.34482669830322266
1684109941521711900,4.2187119140625,-0.2820267677307129,0.31137800216674805,-0.08448266983032227
1684109941531753000,4.2287529296875,-2.140105724334717,-0.021713733673095703,-0.33468008041381836
1684109941541794300,4.238794189453125,-3.271048069000244,-0.14173221588134766,0.11319112777709961
1684109941551835600,4.248835693359375,-3.496636390686035,0.26915836334228516,0.972724437713623
1684109941561877000,4.258876953125,-3.1532397270202637,0.14014148712158203,1.615664005279541
1684109941571918000,4.26891796875,-2.5897254943847656,-0.5615472793579102,2.100253105163574
1684109941581959400,4.27895947265625,-1.4795551300048828,-1.2338428497314453,2.4702305793762207
1684109941592000500,4.28900048828125,0.3294440507888794,-1.6167030334472656,2.8758187294006348
1684109941602041900,4.299041748046875,1.991650104522705,-1.657358169555664,2.819216251373291
1684109941612083200,4.309083251953125,2.697575330734253,-1.5840654373168945,2.508016586303711
1684109941622124500,4.31912451171875,2.6678621768951416,-1.1878204345703125,1.7850208282470703
1684109941632165600,4.32916552734375,2.1564879417419434,-0.4292755126953125,0.4958381652832031
1684109941642207000,4.33920703125,1.4965918064117432,0.33124256134033203,-0.7900404930114746
1684109941652248000,4.349248046875,0.9904038310050964,0.8853240013122559,-1.7762160301208496
1684109941662289400,4.359289306640625,0.4468381404876709,1.2428827285766602,-2.468745708465576
1684109941672330800,4.369330810546875,0.042180418968200684,1.3711309432983398,-2.7551534175872803
1684109941682372000,4.3793720703125,-0.08225846290588379,1.1750035285949707,-2.772050142288208
1684109941692413200,4.3894130859375,0.20535314083099365,0.7172336578369141,-2.356945514678955
1684109941702454500,4.39945458984375,0.8727853298187256,0.4361381530761719,-1.563366174697876
1684109941712495900,4.409495849609375,1.31956946849823,0.44988059997558594,-0.7557506561279297
1684109941722537000,4.419536865234375,1.6818681955337524,0.0006093978881835938,-0.42639875411987305
1684109941732578300,4.429578369140625,2.0574839115142822,-0.3854665756225586,-0.015418052673339844
1684109941742619600,4.43961962890625,2.1762115955352783,-0.5090484619140625,0.12949466705322266
1684109941752660700,4.44966064453125,2.043457508087158,-0.7325649261474609,0.14133167266845703
1684109941762702000,4.4597021484375,1.9347472190856934,-0.9645147323608398,-0.014492511749267578
1684109941772743400,4.469743408203125,1.6779873371124268,-1.1399354934692383,-0.13254213333129883
1684109941782784500,4.479784423828125,1.1381099224090576,-1.2058696746826172,-0.04773998260498047
1684109941792825900,4.489825927734375,0.4568982422351837,-1.0126571655273438,0.2000141143798828
1684109941802867200,4.4998671875,-0.23420464992523193,-0.5780820846557617,0.21807384490966797
1684109941812908300,4.509908203125,-0.5503957867622375,-0.34250736236572266,0.037661075592041016
1684109941822949600,4.51994970703125,-0.3907257914543152,-0.14934349060058594,-0.17686223983764648
1684109941832991000,4.529990966796875,0.0649183988571167,-0.0308837890625,-0.4694838523864746
1684109941843032000,4.540031982421875,0.6087720990180969,-0.05528545379638672,-0.8316636085510254
1684109941853073400,4.550073486328125,1.1525399684906006,0.06498527526855469,-1.0612819194793701
1684109941863114800,4.56011474609375,1.437671184539795,0.13667011260986328,-1.2817509174346924
1684109941873155800,4.57015576171875,1.3826794624328613,0.24086570739746094,-1.4721145629882812
1684109941883197200,4.580197265625,1.356124997138977,-0.6146249771118164,-1.5291216373443604
1684109941893238500,4.590238525390625,1.7424097061157227,-0.6241989135742188,-1.1831705570220947
1684109941903279600,4.600279541015625,1.8713955879211426,-0.1520547866821289,-1.1000778675079346
1684109941913321000,4.610321044921875,1.543811321258545,-0.0243988037109375,-1.1305820941925049
1684109941923362300,4.6203623046875,1.1855589151382446,0.018713951110839844,-1.2237207889556885
1684109941933403400,4.6304033203125,0.8648418188095093,0.15064716339111328,-1.2829208374023438
1684109941943444700,4.64044482421875,0.6458249092102051,0.15273475646972656,-1.3070330619812012
1684109941953486000,4.650486083984375,0.5101484060287476,0.13885211944580078,-1.292306661605835
1684109941963527200,4.660527099609375,0.4939616322517395,-0.10068702697753906,-1.01723051071167
1684109941973568500,4.670568603515625,0.44087278842926025,-0.5051689147949219,-0.4934968948364258
1684109941983609900,4.68060986328125,0.3834690451622009,-0.5592002868652344,0.1152501106262207
1684109941993651000,4.69065087890625,0.2947603464126587,-0.5601844787597656,0.5869762897491455
1684109942003692300,4.7006923828125,0.3566831350326538,-0.459442138671875,0.839102029800415
1684109942013733600,4.710733642578125,0.5700480937957764,-0.22015094757080078,0.7760612964630127
1684109942023774700,4.720774658203125,0.43737491965293884,-0.15691089630126953,0.8287887573242188
1684109942033816000,4.730816162109375,0.4928961992263794,0.24686717987060547,0.7751007080078125
1684109942043857400,4.740857421875,0.6900267601013184,0.8138236999511719,0.6816244125366211
1684109942053898500,4.7508984375,0.9309602975845337,1.3702011108398438,0.643756628036499
1684109942063939800,4.76093994140625,0.6293252110481262,1.1254949569702148,0.05499267578125
1684109942073981200,4.770981201171875,0.4912707209587097,1.8978967666625977,0.07206320762634277
1684109942084022300,4.781022216796875,0.01760697364807129,1.5227980613708496,-0.21836352348327637
1684109942094063600,4.791063720703125,0.0845828652381897,0.9857139587402344,-0.2768840789794922
1684109942104105000,4.80110498046875,-0.44035452604293823,-0.898284912109375,-0.7352087497711182
1684109942114146000,4.81114599609375,0.14473623037338257,-1.520843505859375,-0.2001938819885254
1684109942124187400,4.8211875,0.41887277364730835,-2.6837987899780273,-0.028929471969604492
1684109942134228700,4.831228759765625,1.032184362411499,-2.065885543823242,0.5738058090209961
1684109942144269800,4.841269775390625,1.508460521697998,-0.43625736236572266,1.2080447673797607
1684109942154311200,4.851311279296875,1.080924153327942,0.12819480895996094,1.3683247566223145
1684109942164352500,4.8613525390625,0.2853280305862427,-0.17148685455322266,1.1796603202819824
1684109942174393600,4.8713935546875,-0.18801307678222656,-0.1749439239501953,1.0833311080932617
1684109942184435000,4.88143505859375,-0.29236242175102234,0.000255584716796875,1.0513684749603271
1684109942194476300,4.891476318359375,-0.27490800619125366,0.2343120574951172,0.9308521747589111
1684109942204517400,4.901517333984375,-0.16539491713047028,0.2503633499145508,0.7179901599884033
1684109942214558700,4.911558837890625,0.004024803638458252,0.33374691009521484,0.5699772834777832
1684109942224600000,4.92160009765625,0.21984630823135376,0.2990999221801758,0.5163893699645996
1684109942234641200,4.93164111328125,0.3759041428565979,0.2427377700805664,0.6851532459259033
1684109942244682500,4.9416826171875,0.5282812714576721,0.14970111846923828,0.9181699752807617
1684109942254723800,4.951723876953125,0.5471839308738708,-0.06897163391113281,1.0172598361968994
1684109942264765000,4.961764892578125,0.5511136054992676,0.07106208801269531,1.1783981323242188
1684109942274806300,4.97180615234375,0.39333948493003845,0.12158966064453125,1.195784091949463
1684109942284847600,4.98184765625,0.2535635232925415,0.12092971801757812,1.0430808067321777
1684109942294888700,4.991888671875,0.14665579795837402,0.15772342681884766,0.8119330406188965
1684109942304930000,5.001929931640625,0.17148013412952423,0.25882530212402344,0.6124067306518555
1684109942314971400,5.011971435546875,0.16901615262031555,0.3814525604248047,0.5341193675994873
1684109942325012700,5.0220126953125,0.1679733544588089,0.4418001174926758,0.5546777248382568
1684109942335053800,5.0320537109375,0.15878018736839294,0.39191150665283203,0.5339663028717041
1684109942345095200,5.04209521484375,0.16485220193862915,1.0646696090698242,0.7218894958496094
1684109942355136300,5.05213623046875,0.12357863783836365,0.35519886016845703,0.3666269779205322
1684109942365177600,5.062177490234375,0.2867003083229065,0.2500782012939453,0.2735006809234619
1684109942375219000,5.072218994140625,0.4433608055114746,0.2792224884033203,0.37061262130737305
1684109942385260300,5.08226025390625,0.4216688871383667,0.32976722717285156,0.38642311096191406
1684109942395301400,5.09230126953125,0.364179402589798,0.3491096496582031,0.4238088130950928
1684109942405342700,5.1023427734375,0.3014839291572571,0.37762928009033203,0.5508360862731934
1684109942415383800,5.1123837890625,0.3207656145095825,0.3195762634277344,0.575427770614624
1684109942425425200,5.122425048828125,0.3288218379020691,0.3926277160644531,0.5366365909576416
1684109942435466500,5.132466552734375,0.40755897760391235,0.6036300659179688,0.6447398662567139
1684109942445507800,5.1425078125,0.413632869720459,0.8348503112792969,0.7782268524169922
1684109942455549000,5.152548828125,0.21930262446403503,0.9188041687011719,0.7591571807861328
1684109942465590300,5.16259033203125,0.10269024968147278,0.4452962875366211,0.6319184303283691
1684109942475631400,5.17263134765625,0.04286019504070282,-0.4471445083618164,0.322676420211792
1684109942485672700,5.182672607421875,0.31189680099487305,-0.8035421371459961,0.26160717010498047
1684109942495714000,5.192714111328125,0.636726438999176,-0.5629329681396484,0.3173985481262207
1684109942505755400,5.20275537109375,0.9210361242294312,0.005085945129394531,0.4628171920776367
1684109942515796500,5.21279638671875,0.9284557104110718,0.36647987365722656,0.6349303722381592
1684109942525837800,5.222837890625,0.7892441749572754,0.14193058013916016,0.6901841163635254
1684109942535879200,5.232879150390625,0.6801469326019287,-0.17790889739990234,0.754030704498291
1684109942545920300,5.242920166015625,0.768062174320221,-0.15108108520507812,0.7448322772979736
1684109942555961600,5.252961669921875,0.774062991142273,-0.15067577362060547,0.7189412117004395
1684109942566003000,5.2630029296875,0.6700356006622314,-0.2052021026611328,0.7508955001831055
1684109942576044000,5.2730439453125,0.4777717590332031,-0.42684364318847656,0.878861665725708
1684109942586085400,5.28308544921875,0.2676326036453247,-0.7581596374511719,1.0255638360977173
1684109942596126700,5.293126708984375,0.21759851276874542,-0.8029804229736328,1.317773461341858
1684109942606167800,5.303167724609375,0.17264950275421143,-0.7919406890869141,1.6417443752288818
1684109942616209200,5.313209228515625,0.016375482082366943,-1.0855588912963867,1.807118535041809
1684109942626250500,5.32325048828125,0.017533063888549805,-1.2906513214111328,2.139578342437744
1684109942636291600,5.33329150390625,0.053699493408203125,-1.2325716018676758,2.396127223968506
1684109942646333000,5.3433330078125,-0.0624426007270813,-1.2571935653686523,2.4628658294677734
1684109942656374300,5.353374267578125,-0.4062351584434509,-1.664717674255371,2.5425896644592285
1684109942666415400,5.363415283203125,-0.8364288806915283,-1.4485845565795898,2.1447434425354004
1684109942676456700,5.373456787109375,-1.3744945526123047,-0.527796745300293,1.6560163497924805
1684109942686498000,5.383498046875,-1.8985248804092407,0.2364940643310547,1.2377569675445557
1684109942696539100,5.3935390625,-2.210263967514038,0.5527868270874023,0.7122867107391357
1684109942706580500,5.40358056640625,-2.3304362297058105,0.5932521820068359,-0.046987056732177734
1684109942716621800,5.413621826171875,-1.7778316736221313,0.7308855056762695,-0.74870765209198
1684109942726663000,5.423662841796875,-0.8722906112670898,0.7539558410644531,-1.274442434310913
1684109942736704300,5.433704345703125,0.10431694984436035,0.738037109375,-1.677027940750122
1684109942746745600,5.44374560546875,1.0210247039794922,0.7389812469482422,-1.7346949577331543
1684109942756786700,5.45378662109375,1.5872182846069336,0.7977657318115234,-1.5764061212539673
1684109942766828000,5.463828125,2.0646350383758545,0.7092475891113281,-1.2268558740615845
1684109942776869400,5.473869384765625,2.2877750396728516,0.4140052795410156,-0.813226580619812
1684109942786910500,5.483910400390625,2.0178310871124268,0.30635738372802734,-0.47544240951538086
1684109942796951800,5.493951904296875,1.7001218795776367,0.2535743713378906,-0.2241804599761963
1684109942806993200,5.5039931640625,1.3532644510269165,0.029851913452148438,-0.016324758529663086
1684109942817034200,5.5140341796875,1.0694018602371216,-0.307830810546875,-0.09574484825134277
1684109942827075600,5.52407568359375,0.9653080701828003,-0.5529441833496094,-0.4080474376678467
1684109942837117000,5.534116943359375,1.0399906635284424,-0.7352714538574219,-0.5648206472396851
1684109942847158000,5.544157958984375,1.0502392053604126,-1.0648880004882812,-0.5124073028564453
1684109942857199400,5.554199462890625,1.1607816219329834,-1.4097509384155273,-0.484511137008667
1684109942867240700,5.56424072265625,1.3586724996566772,-1.2309284210205078,-0.5715243816375732
1684109942877281800,5.57428173828125,1.4423900842666626,-0.8677587509155273,-0.6172518730163574
1684109942887323100,5.5843232421875,1.6174384355545044,-0.20217418670654297,-0.5736037492752075
1684109942897364500,5.594364501953125,1.4664013385772705,-0.40445518493652344,-0.3778355121612549
1684109942907405600,5.604405517578125,1.4341540336608887,-0.5932407379150391,-0.25095486640930176
1684109942917447000,5.614447021484375,1.4470618963241577,-0.6844873428344727,-0.1634523868560791
1684109942927488300,5.62448828125,1.4823360443115234,-0.6674261093139648,-0.2486107349395752
1684109942937529300,5.634529296875,1.6295044422149658,-0.4386262893676758,-0.45270562171936035
1684109942947570700,5.64457080078125,1.6655304431915283,-0.053971290588378906,-0.7038800716400146
1684109942957612000,5.654612060546875,1.663593053817749,0.2660350799560547,-0.7399059534072876
1684109942967653000,5.664653076171875,1.5828616619110107,0.49575138092041016,-0.5738029479980469
1684109942977694500,5.674694580078125,1.3105061054229736,0.5480966567993164,-0.33783864974975586
1684109942987735800,5.68473583984375,0.9237189292907715,0.5364351272583008,-0.1907503604888916
1684109942997777200,5.694777099609375,0.6346825361251831,0.6483659744262695,-0.11842823028564453
1684109943007818200,5.704818359375,0.43754756450653076,0.7920055389404297,-0.07975411415100098
1684109943017859600,5.714859619140625,0.316941499710083,0.8615074157714844,0.002218961715698242
1684109943027900700,5.724900634765625,0.15978050231933594,0.7256813049316406,0.02059006690979004
1684109943037942000,5.73494189453125,0.1730811595916748,0.29186534881591797,-0.15777087211608887
1684109943047983400,5.7449833984375,0.14244520664215088,0.0006427764892578125,-0.4282536506652832
1684109943058024700,5.755024658203125,0.17275261878967285,-0.16884326934814453,-0.6689519882202148
1684109943068065800,5.765065673828125,0.22866177558898926,-0.39520263671875,-0.859961748123169
1684109943078107100,5.775107177734375,0.31011903285980225,-0.4892129898071289,-0.9899642467498779
1684109943088148200,5.785148193359375,0.4396406412124634,-0.4054880142211914,-0.9076695442199707
1684109943098189600,5.795189453125,0.42539310455322266,-0.37387752532958984,-0.7520248889923096
1684109943108231000,5.80523095703125,0.26689398288726807,-0.28516578674316406,-0.537804365158081
1684109943118272300,5.815272216796875,0.10240435600280762,-0.3270711898803711,-0.258101224899292
1684109943128313300,5.825313232421875,0.004961252212524414,-0.2515678405761719,0.05499434471130371
1684109943138354700,5.835354736328125,0.05066072940826416,-0.09961414337158203,0.3200995922088623
1684109943148396000,5.84539599609375,0.16666364669799805,-0.011795997619628906,0.49538397789001465
1684109943158437000,5.85543701171875,0.2048588991165161,0.23212814331054688,0.6013631820678711
1684109943168478500,5.865478515625,0.1911853551864624,0.13791179656982422,0.3253664970397949
1684109943178519800,5.875519775390625,0.3033396005630493,-0.022210121154785156,-0.29387474060058594
1684109943188561000,5.885560791015625,0.5805861949920654,-0.20805931091308594,-0.9555950164794922
1684109943198602200,5.895602294921875,0.9204753637313843,-0.35875511169433594,-1.4312493801116943
1684109943208643600,5.9056435546875,1.1592353582382202,-0.4841594696044922,-1.6892807483673096
1684109943218684700,5.9156845703125,1.3651068210601807,-0.14336872100830078,-1.6972841024398804
1684109943228726000,5.92572607421875,1.4110713005065918,0.19371318817138672,-1.6751940250396729
1684109943238767400,5.935767333984375,1.4656858444213867,0.3286113739013672,-1.708172082901001
1684109943248808400,5.945808349609375,1.488098382949829,0.48102283477783203,-1.619804859161377
1684109943258849800,5.955849853515625,1.4976389408111572,0.5573568344116211,-1.3602068424224854
1684109943268891100,5.96589111328125,1.3982722759246826,0.5671625137329102,-1.0906000137329102
1684109943278932200,5.97593212890625,1.2601122856140137,0.4863090515136719,-0.7948956489562988
1684109943288973600,5.9859736328125,1.0944013595581055,0.4530925750732422,-0.44931888580322266
1684109943299015000,5.996014892578125,0.9729412794113159,0.5276660919189453,-0.10837745666503906
1684109943309056000,6.006055908203125,0.7932459115982056,0.45048999786376953,0.30843663215637207
1684109943319097300,6.016097412109375,0.5033433437347412,0.22346019744873047,0.680922269821167
1684109943329138700,6.026138671875,0.29947054386138916,0.10140705108642578,0.8741376399993896
1684109943339179800,6.0361796875,0.2851356267929077,0.03189849853515625,0.938880443572998
1684109943349221000,6.04622119140625,0.406758189201355,0.03749370574951172,0.8529119491577148
1684109943359262500,6.056262451171875,0.5101699829101562,0.09463691711425781,0.7282886505126953
1684109943369303600,6.066303466796875,0.6524505615234375,0.1214914321899414,0.5087239742279053
1684109943379345000,6.076344970703125,0.9164341688156128,0.12324142456054688,0.1363818645477295
1684109943389386200,6.08638623046875,1.1120340824127197,0.13412761688232422,-0.2748739719390869
1684109943399427300,6.09642724609375,1.1582589149475098,0.10139083862304688,-0.5629518032073975
1684109943409468700,6.10646875,1.248522162437439,0.07957267761230469,-0.6745791435241699
1684109943419510000,6.116510009765625,1.1434519290924072,0.020666122436523438,-0.8377809524536133
1684109943429551000,6.126551025390625,0.8121212720870972,-0.09485721588134766,-0.8723328113555908
1684109943439592400,6.136592529296875,0.2795301675796509,-0.19842815399169922,-0.8208913803100586
1684109943449633800,6.1466337890625,-0.4520890712738037,-0.34604644775390625,-0.7450952529907227
1684109943459675100,6.156675048828125,-0.9992578029632568,-0.43050670623779297,-0.6658179759979248
1684109943469716200,6.16671630859375,-1.2879433631896973,-0.36545848846435547,-0.5970690250396729
1684109943479757600,6.176757568359375,-1.4704328775405884,-0.23421764373779297,-0.40769457817077637
1684109943489798700,6.186798583984375,-1.378907322883606,-0.05287647247314453,-0.1445157527923584
1684109943499840000,6.196840087890625,-1.023082971572876,0.29163074493408203,0.061258554458618164
1684109943509881300,6.20688134765625,-0.5509464740753174,0.6472225189208984,0.17022967338562012
1684109943519922700,6.216922607421875,-0.09776031970977783,0.9192705154418945,0.13681459426879883
1684109943529963800,6.2269638671875,0.33714497089385986,1.0103740692138672,0.08692693710327148
1684109943540005000,6.237005126953125,0.8215155601501465,0.9012203216552734,0.12470841407775879
1684109943550046500,6.24704638671875,1.3342466354370117,0.5438175201416016,0.16979432106018066
1684109943560087600,6.257087646484375,1.7681217193603516,0.12000274658203125,0.08341193199157715
1684109943570129000,6.26712890625,1.9607861042022705,-0.2527799606323242,0.0818943977355957
1684109943580170200,6.277170166015625,1.8482115268707275,-0.719944953918457,0.08778190612792969
1684109943590211300,6.28721142578125,1.190567970275879,-1.3505516052246094,0.09235382080078125
1684109943600252700,6.297252685546875,-0.3261615037918091,-2.137968063354492,-0.015287160873413086
1684109943610294000,6.3072939453125,-2.617918014526367,-3.072134017944336,0.027274608612060547
1684109943620335000,6.317335205078125,-3.4107306003570557,-4.024105072021484,0.7063350677490234
1684109943630376400,6.32737646484375,-1.4995777606964111,-4.2290239334106445,1.8386681079864502
1684109943640417800,6.337417724609375,0.6823387742042542,-3.1257448196411133,2.3373851776123047
1684109943650459000,6.347458984375,1.8626911640167236,-0.9807004928588867,1.6504700183868408
1684109943660500200,6.357500244140625,2.4532904624938965,0.5232763290405273,0.6788120269775391
1684109943670541600,6.36754150390625,2.517364740371704,1.3634653091430664,-0.17139244079589844
1684109943680582700,6.377582763671875,2.186951160430908,1.8953142166137695,-0.5770361423492432
1684109943690624000,6.3876240234375,1.723365306854248,2.2792177200317383,-0.8043115139007568
1684109943700665300,6.397665283203125,1.1967756748199463,2.565227508544922,-0.9646967649459839
1684109943710706400,6.40770654296875,0.3837919235229492,2.650393009185791,-1.0620163679122925
1684109943720747800,6.417747802734375,-0.8622235059738159,2.3509931564331055,-1.2324891090393066
1684109943730789000,6.4277890625,-1.7890214920043945,1.6844801902770996,-1.2221016883850098
1684109943740830200,6.437830322265625,-1.4510536193847656,0.9883842468261719,-0.8745455741882324
1684109943750871600,6.44787158203125,-0.3191254734992981,0.4227581024169922,-0.298179030418396
1684109943760913000,6.457912841796875,0.8410124182701111,-0.0724649429321289,0.2194981575012207
1684109943770954000,6.4679541015625,1.583763599395752,-0.46638011932373047,0.5602900981903076
1684109943780995300,6.477995361328125,1.85942542552948,-0.8307123184204102,0.6466336250305176
1684109943791036700,6.48803662109375,1.8521263599395752,-1.091273307800293,0.6080005168914795
1684109943801077800,6.498077880859375,1.6485741138458252,-1.183791160583496,0.43484699726104736
1684109943811119000,6.508119140625,1.2717926502227783,-1.0087699890136719,0.31636595726013184
1684109943821160400,6.518160400390625,0.873720645904541,-0.6011161804199219,0.2639971971511841
1684109943831201500,6.528201416015625,0.4984890818595886,-0.11266708374023438,0.2546510696411133
1684109943841243000,6.538242919921875,0.3185354471206665,0.24810314178466797,0.23713266849517822
1684109943851284200,6.5482841796875,0.4594285190105438,0.5147733688354492,0.23308277130126953
1684109943861325300,6.5583251953125,0.8152640461921692,0.6424283981323242,0.2565404176712036
1684109943871366700,6.56836669921875,1.2571003437042236,0.710810661315918,0.11615550518035889
1684109943881408000,6.578407958984375,1.6975812911987305,0.6754426956176758,-0.0001233816146850586
1684109943891449300,6.588449462890625,2.111114025115967,0.6183261871337891,0.015230059623718262
1684109943901490400,6.598490478515625,2.4411814212799072,0.6329441070556641,0.062455177307128906
1684109943911531800,6.60853173828125,2.6090915203094482,0.5854959487915039,0.1105952262878418
1684109943921572900,6.61857275390625,2.6765244007110596,0.5262918472290039,0.18604224920272827
1684109943931614200,6.6286142578125,2.637085199356079,0.42661285400390625,0.26956605911254883
1684109943941655600,6.638655517578125,2.5753817558288574,0.3103914260864258,0.2972748279571533
1684109943951697000,6.64869677734375,2.514112949371338,0.16083812713623047,0.3459012508392334
1684109943961738000,6.658738037109375,2.487732172012329,0.01374053955078125,0.3723940849304199
1684109943971779300,6.668779296875,2.411348581314087,-0.07130146026611328,0.3960905075073242
1684109943981820700,6.678820556640625,2.343627691268921,-0.1542530059814453,0.42872190475463867
1684109943991861800,6.68886181640625,2.2898919582366943,-0.12773704528808594,0.47224175930023193
1684109944001903000,6.698903076171875,2.2099568843841553,-0.054139137268066406,0.4004341661930084
1684109944011944400,6.7089443359375,2.077742099761963,0.10463428497314453,0.33655691146850586
1684109944021985500,6.718985595703125,1.910028338432312,0.31732654571533203,0.10143023729324341
1684109944032027000,6.72902685546875,1.6208947896957397,0.5407447814941406,-0.17726370692253113
1684109944042068200,6.739068115234375,1.2180477380752563,0.6791276931762695,-0.41608044505119324
1684109944052109300,6.749109375,0.32488057017326355,0.6917753219604492,-0.6869685649871826
1684109944062150700,6.759150634765625,-0.5435240864753723,0.5787391662597656,-0.9180350303649902
1684109944072192000,6.76919189453125,-0.7638821601867676,0.4190826416015625,-0.9797235727310181
1684109944082233000,6.779233154296875,-0.35675472021102905,0.28470802307128906,-0.9055421352386475
1684109944092274400,6.7892744140625,0.28802913427352905,0.127960205078125,-0.8106254935264587
1684109944102315800,6.799315673828125,0.8337033987045288,-0.05572509765625,-0.6108425259590149
1684109944112356900,6.80935693359375,1.2607200145721436,-0.24696731567382812,-0.3728974461555481
1684109944122398200,6.819398193359375,1.4938831329345703,-0.40007495880126953,-0.13462185859680176
1684109944132439600,6.829439453125,1.5890183448791504,-0.483612060546875,0.077140212059021
1684109944142480600,6.839480712890625,1.5180675983428955,-0.5783052444458008,0.2804720401763916
1684109944152522000,6.84952197265625,1.4357386827468872,-0.6571683883666992,0.467367947101593
1684109944162563300,6.859563232421875,1.3056914806365967,-0.7171993255615234,0.5967350006103516
1684109944172604400,6.8696044921875,1.215206265449524,-0.6461696624755859,0.6322532892227173
1684109944182645800,6.879645751953125,1.152740240097046,-0.094940185546875,0.22857749462127686
1684109944192687000,6.88968701171875,0.9664286971092224,0.05292320251464844,0.2547560930252075
1684109944202728200,6.899728271484375,0.850666880607605,0.011241912841796875,0.5688738226890564
1684109944212769500,6.90976953125,0.6934541463851929,0.014985084533691406,0.7771142721176147
1684109944222811000,6.919810791015625,0.48821377754211426,0.047524452209472656,0.8616304993629456
1684109944232852000,6.92985205078125,0.29058343172073364,0.013295173645019531,0.9088923931121826
1684109944242893300,6.939893310546875,0.16809678077697754,-0.018248558044433594,0.8929728269577026
1684109944252934700,6.9499345703125,0.154587984085083,0.005484580993652344,0.8139908313751221
1684109944262976000,6.95997607421875,0.25004249811172485,0.036599159240722656,0.7201367616653442
1684109944273017000,6.97001708984375,0.4370952844619751,0.10371780395507812,0.6640484929084778
1684109944283058400,6.980058349609375,0.6237695813179016,0.10402488708496094,0.5882292985916138
1684109944293099500,6.990099609375,0.7899588346481323,0.11889266967773438,0.5519384145736694
1684109944303140900,7.000140869140625,0.8862878084182739,0.09799385070800781,0.4694613218307495
1684109944313182200,7.01018212890625,0.9382622241973877,0.053249359130859375,0.41294145584106445
1684109944323223600,7.0202236328125,0.8933768272399902,0.06109905242919922,0.29184478521347046
1684109944333264600,7.0302646484375,0.8024771809577942,0.06641292572021484,0.1428910493850708
1684109944343306000,7.040305908203125,0.6880794167518616,-0.011926651000976562,0.09261655807495117
1684109944353347300,7.050347412109375,0.5912691354751587,-0.13788127899169922,-0.03580808639526367
1684109944363388400,7.060388427734375,0.4760388135910034,-0.16574859619140625,-0.13889992237091064
1684109944373429800,7.0704296875,0.35268259048461914,-0.062287330627441406,-0.17140734195709229
1684109944383471000,7.08047119140625,0.2508047819137573,0.01701068878173828,-0.15978217124938965
1684109944393512200,7.09051220703125,0.21353572607040405,0.07689762115478516,-0.10584855079650879
1684109944403553500,7.100553466796875,0.15458202362060547,0.11727714538574219,-0.018357276916503906
1684109944413595000,7.110594970703125,0.19091737270355225,0.16440868377685547,0.24139249324798584
1684109944423636000,7.120635986328125,0.28624653816223145,0.18011474609375,0.5266872048377991
1684109944433677300,7.13067724609375,0.4287670850753784,0.11921310424804688,0.7937430739402771
1684109944443718700,7.14071875,0.6110700368881226,0.04169464111328125,1.0441854000091553
1684109944453759700,7.150759765625,0.8040024042129517,-0.04038047790527344,1.219997763633728
1684109944463801000,7.160801025390625,0.9854815006256104,-0.1340961456298828,1.3493468761444092
1684109944473842400,7.170842529296875,1.1047110557556152,-0.24409961700439453,1.4553048610687256
1684109944483883800,7.1808837890625,1.187110424041748,-0.3894214630126953,1.4633920192718506
1684109944493924900,7.1909248046875,1.1887136697769165,-0.5532083511352539,1.4615720510482788
1684109944503966200,7.20096630859375,1.1233785152435303,-0.5872945785522461,1.377734661102295
1684109944514007300,7.21100732421875,1.028888463973999,-0.5040311813354492,1.2411696910858154
1684109944524048600,7.221048583984375,0.9058735966682434,-0.4614276885986328,1.1436271667480469
1684109944534090000,7.231090087890625,0.7600913047790527,-0.49292564392089844,1.0621733665466309
1684109944544131300,7.24113134765625,0.7215617895126343,-0.5054998397827148,0.9034423828125
1684109944554172400,7.25117236328125,0.6622492074966431,-0.7570858001708984,0.8804056644439697
1684109944564213800,7.2612138671875,0.5786517262458801,-1.017110824584961,0.8885518312454224
1684109944574255000,7.271255126953125,0.5725609660148621,-1.0574970245361328,0.757681667804718
1684109944584296200,7.281296142578125,0.5491193532943726,-0.899012565612793,0.5562448501586914
1684109944594337500,7.291337646484375,0.4321891665458679,-0.8397445678710938,0.37510573863983154
1684109944604379000,7.30137890625,0.16400885581970215,-0.8570117950439453,0.22883307933807373
1684109944614420000,7.311419921875,-0.11778074502944946,-0.8223333358764648,0.03900039196014404
1684109944624461300,7.32146142578125,-0.4737088084220886,-0.7351827621459961,-0.16490685939788818
1684109944634502700,7.331502685546875,-0.8488113880157471,-0.5718669891357422,-0.3158228397369385
1684109944644543700,7.341543701171875,-1.1997315883636475,-0.20357227325439453,-0.3824324607849121
1684109944654585000,7.351585205078125,-1.4385182857513428,0.1447277069091797,-0.3530139923095703
1684109944664626400,7.36162646484375,-1.4744155406951904,0.47794055938720703,-0.18604052066802979
1684109944674667500,7.37166748046875,-1.1689985990524292,0.7363309860229492,0.040644168853759766
1684109944684708900,7.381708984375,-0.7058439254760742,0.958012580871582,0.25521862506866455
1684109944694750200,7.391750244140625,-0.25828924775123596,0.9949312210083008,0.48094868659973145
1684109944704791300,7.401791259765625,0.09910234808921814,0.9717464447021484,0.6526799201965332
1684109944714832600,7.41183251953125,0.3383318781852722,0.8099117279052734,0.7126069068908691
1684109944724874000,7.4218740234375,0.4619079828262329,0.6651716232299805,0.7845483422279358
1684109944734915000,7.4319150390625,0.49978339672088623,0.44925403594970703,0.7821497917175293
1684109944744956400,7.441956298828125,0.570253849029541,0.23431777954101562,0.8759067058563232
1684109944754997800,7.451997802734375,0.5981900095939636,0.10390663146972656,0.8533053994178772
1684109944765038800,7.462038818359375,0.5851280093193054,0.018770217895507812,0.6784094572067261
1684109944775080200,7.472080078125,0.5078836679458618,-0.016572952270507812,0.6769230365753174
1684109944785121500,7.48212158203125,0.41085007786750793,-0.0449676513671875,0.5790368318557739
1684109944795163000,7.492162841796875,0.28843414783477783,0.0170745849609375,0.313096284866333
1684109944805204000,7.502203857421875,0.21324290335178375,0.1020517349243164,0.028959274291992188
1684109944815245300,7.512245361328125,0.20202383399009705,0.19276714324951172,-0.17636895179748535
1684109944825286700,7.52228662109375,0.2562200129032135,0.2721700668334961,-0.33307480812072754
1684109944835327700,7.53232763671875,0.2551800012588501,0.3042736053466797,-0.521946907043457
1684109944845369000,7.542369140625,0.20970416069030762,0.2748136520385742,-0.6186782121658325
1684109944855410400,7.552410400390625,0.20666468143463135,0.18413829803466797,-0.7008564472198486
1684109944865451500,7.562451416015625,0.17017829418182373,0.07568740844726562,-0.7456574440002441
1684109944875492900,7.572492919921875,0.20351886749267578,-0.04773998260498047,-0.7660183906555176
1684109944885534200,7.5825341796875,0.37789177894592285,-0.16639137268066406,-0.7417677640914917
1684109944895575300,7.5925751953125,0.5430287718772888,-0.30823230743408203,-0.667506217956543
1684109944905616600,7.60261669921875,0.6819763779640198,-0.5273513793945312,-0.49358248710632324
1684109944915658000,7.612657958984375,0.7523338198661804,-0.6366939544677734,-0.3969153165817261
1684109944925699000,7.622698974609375,0.8738581538200378,-0.5788049697875977,-0.35247671604156494
1684109944935740400,7.632740478515625,1.1867159605026245,-0.37520503997802734,-0.31331515312194824
1684109944945781800,7.64278173828125,1.5632456541061401,-0.1169729232788086,-0.17123186588287354
1684109944955823000,7.652822998046875,1.797072172164917,0.08270931243896484,0.024016737937927246
1684109944965864200,7.6628642578125,1.9075331687927246,0.2350940704345703,0.2556734085083008
1684109944975905500,7.672905517578125,2.0292959213256836,0.359039306640625,0.5393589735031128
1684109944985947000,7.68294677734375,2.089721441268921,0.4786720275878906,0.8223698735237122
1684109944995988000,7.692988037109375,2.116117000579834,0.5751934051513672,1.0066838264465332
1684109945006029300,7.703029296875,2.0598268508911133,0.7490520477294922,1.0596553087234497
1684109945016070700,7.713070556640625,1.873868465423584,0.8446264266967773,0.9798720479011536
1684109945026111700,7.72311181640625,1.6794506311416626,0.9404287338256836,0.8335868120193481
1684109945036153000,7.733153076171875,1.4042682647705078,0.8520183563232422,0.6751278042793274
1684109945046194400,7.7431943359375,0.967595636844635,0.6581020355224609,0.39063334465026855
1684109945056235500,7.753235595703125,0.5269001722335815,0.3610849380493164,0.24269795417785645
1684109945066276900,7.76327685546875,0.09209048748016357,0.049530982971191406,0.11401486396789551
1684109945076318200,7.773318115234375,-0.4037715196609497,-0.25261783599853516,0.014076590538024902
1684109945086359300,7.783359375,-0.7982262372970581,-0.47839927673339844,-0.024439096450805664
1684109945096400600,7.793400634765625,-0.9028352499008179,-0.5682106018066406,-0.12899422645568848
1684109945106442000,7.80344189453125,-0.8092132806777954,-0.5987319946289062,-0.4002021551132202
1684109945116483000,7.813483154296875,-0.6483416557312012,-0.6345996856689453,-0.5858774185180664
1684109945126524400,7.8235244140625,-0.4173622131347656,-0.6161260604858398,-0.8449544906616211
1684109945136565800,7.833565673828125,-0.20006990432739258,-0.5290670394897461,-0.9823000431060791
1684109945146606800,7.84360693359375,0.05980658531188965,-0.46172237396240234,-1.1087381839752197
1684109945156648200,7.853648193359375,0.3337894678115845,-0.3588094711303711,-1.1878217458724976
1684109945166689500,7.863689453125,0.5386651754379272,-0.20357227325439453,-1.2554110288619995
1684109945176730600,7.873730712890625,0.6347239017486572,-0.07956695556640625,-1.244869589805603
1684109945186772000,7.88377197265625,0.6574990749359131,0.10172462463378906,-1.186370849609375
1684109945196813300,7.893813232421875,0.6240777969360352,0.29718971252441406,-0.9605355262756348
1684109945206854700,7.903854736328125,0.6551710367202759,0.48264598846435547,-0.9612492918968201
1684109945216895700,7.913895751953125,0.6564943790435791,0.6983489990234375,-0.9313539266586304
1684109945226937000,7.92393701171875,0.6721121072769165,0.8580408096313477,-0.8778607845306396
1684109945236978400,7.933978515625,0.6776748895645142,0.9262142181396484,-0.7654216289520264
1684109945247019500,7.94401953125,0.6887946128845215,0.9463968276977539,-0.6253333687782288
1684109945257060900,7.954060791015625,0.7539315223693848,0.9191474914550781,-0.40984320640563965
1684109945267102200,7.964102294921875,0.7453771829605103,0.8544282913208008,-0.24818676710128784
1684109945277143300,7.974143310546875,0.5497493743896484,0.7091960906982422,-0.09347885847091675
1684109945287184600,7.9841845703125,0.3035461902618408,0.6121635437011719,0.04818063974380493
1684109945297226000,7.99422607421875,0.1806623935699463,0.555694580078125,0.23052793741226196
1684109945307267000,8.00426708984375,0.11984682083129883,0.4845552444458008,0.35442474484443665
1684109945317308400,8.014308349609376,0.12575960159301758,0.4943199157714844,0.4124284088611603
1684109945327349800,8.024349853515625,0.19066810607910156,0.4678621292114258,0.4714815616607666
1684109945337390800,8.034390869140625,0.29711413383483887,0.4244861602783203,0.47708654403686523
1684109945347432200,8.04443212890625,0.46590375900268555,0.4144716262817383,0.4157647490501404
1684109945357473500,8.0544736328125,0.6003813743591309,0.3400135040283203,0.3530432879924774
1684109945367514600,8.0645146484375,0.7138038873672485,0.28751373291015625,0.2727360129356384
1684109945377556000,8.074555908203125,0.8002326488494873,0.3455810546875,0.14428913593292236
1684109945387597300,8.084597412109375,0.841524600982666,0.3949718475341797,0.04387384653091431
1684109945397638700,8.094638671875,0.8842331171035767,0.40025997161865234,-0.002454996109008789
1684109945407679700,8.1046796875,0.8476139307022095,0.4211387634277344,-0.0855025053024292
1684109945417721000,8.11472119140625,0.7399611473083496,0.4072074890136719,-0.07909619808197021
1684109945427762400,8.124762451171875,0.529624342918396,0.37725257873535156,-0.12953871488571167
1684109945437803500,8.134803466796875,0.1997833251953125,0.3832855224609375,-0.2266969084739685
1684109945447844900,8.144844970703126,-0.10717415809631348,0.43204784393310547,-0.3343052864074707
1684109945457886200,8.15488623046875,-0.19565272331237793,0.559300422668457,-0.2326589822769165
1684109945467927300,8.16492724609375,-0.07975506782531738,0.7580862045288086,-0.03191268444061279
1684109945477968600,8.17496875,0.1077113151550293,0.8756790161132812,0.1308513879776001
1684109945488010000,8.185010009765625,0.2421586513519287,0.8144817352294922,0.12585437297821045
1684109945498051000,8.195051025390624,0.33350563049316406,0.6632223129272461,0.0014110803604125977
1684109945508092400,8.205092529296875,0.3004460334777832,0.41261863708496094,-0.13950049877166748
1684109945518133800,8.2151337890625,0.1075286865234375,0.2420330047607422,-0.21615952253341675
1684109945528174800,8.2251748046875,-0.256237268447876,0.19887924194335938,-0.2191588282585144
1684109945538216200,8.23521630859375,-0.5718157291412354,0.2728891372680664,-0.2814865708351135
1684109945548257500,8.245257568359374,-0.7218797206878662,0.3632946014404297,-0.33759188652038574
1684109945558299000,8.255298828125,-0.6857695579528809,0.4414491653442383,-0.3701542615890503
1684109945568340000,8.265340087890625,-0.5053563117980957,0.5385894775390625,-0.4195026159286499
1684109945578381300,8.27538134765625,-0.3323357105255127,0.621394157409668,-0.513863742351532
1684109945588422700,8.285422607421875,-0.1481473445892334,0.6374311447143555,-0.6527220010757446
1684109945598463700,8.295463623046874,0.060515642166137695,0.47476959228515625,-0.9071319699287415
1684109945608505000,8.305505126953125,0.41811609268188477,0.1317605972290039,-1.2134478092193604
1684109945618546400,8.31554638671875,0.6876413822174072,-0.333526611328125,-1.4647092819213867
1684109945628587500,8.32558740234375,0.6521784067153931,-0.8728446960449219,-1.6624432802200317
1684109945638628900,8.33562890625,0.1479661464691162,-1.1884469985961914,-2.020252227783203
1684109945648670200,8.345670166015625,-0.6616026163101196,-1.4974966049194336,-2.420398712158203
1684109945658711300,8.355711181640626,-1.910485029220581,-1.844529151916504,-2.5407257080078125
1684109945668752600,8.365752685546875,-3.7186951637268066,-2.448781967163086,-2.306148052215576
1684109945678794000,8.3757939453125,-5.141175746917725,-3.41058349609375,-1.312211513519287
1684109945688835000,8.3858349609375,-4.656595230102539,-4.009943008422852,0.27990400791168213
1684109945698876400,8.39587646484375,-2.9619383811950684,-3.2443065643310547,1.5342028141021729
1684109945708917800,8.405917724609376,-0.9954220056533813,-1.7473030090332031,2.1073882579803467
1684109945718958800,8.415958740234375,0.8396115899085999,-0.5879306793212891,2.6495392322540283
1684109945729000200,8.426000244140624,2.226318836212158,0.2670469284057617,2.851378917694092
1684109945739041500,8.43604150390625,3.144381523132324,1.2030210494995117,2.1089916229248047
1684109945749083000,8.446082763671875,3.5097756385803223,1.822575569152832,1.3962295055389404
1684109945759124000,8.4561240234375,3.4877543449401855,2.1238160133361816,1.069469690322876
1684109945769165300,8.466165283203125,3.354006052017212,2.2153496742248535,0.9299762845039368
1684109945779206700,8.47620654296875,3.2045297622680664,2.124311923980713,0.8557067513465881
1684109945789247700,8.486247802734376,3.025430679321289,1.8849363327026367,0.8342786431312561
1684109945799289000,8.4962890625,2.8723368644714355,1.481241226196289,0.8908458352088928
1684109945809330400,8.506330322265624,2.6584386825561523,0.9924983978271484,0.8717666268348694
1684109945819371500,8.51637158203125,2.410078287124634,0.4566640853881836,0.742835283279419
1684109945829412900,8.526412841796875,2.1139299869537354,-0.07388877868652344,0.5914980173110962
1684109945839454200,8.5364541015625,1.7164256572723389,-0.5105094909667969,0.5574767589569092
1684109945849495600,8.54649560546875,1.1547850370407104,-0.753331184387207,0.662723183631897
1684109945859536600,8.55653662109375,0.44971346855163574,-0.7780532836914062,0.6956584453582764
1684109945869578000,8.566577880859375,-0.24867630004882812,-0.818324089050293,0.6450402736663818
1684109945879619000,8.576619140625,-0.8274635076522827,-0.9011240005493164,0.48592686653137207
1684109945889660400,8.586660400390626,-1.2350847721099854,-0.9717550277709961,0.08835113048553467
1684109945899701800,8.59670166015625,-1.3352596759796143,-0.984858512878418,-0.389323353767395
1684109945909743000,8.6067431640625,-1.0837762355804443,-0.8137063980102539,-0.7940839529037476
1684109945919784200,8.6167841796875,-0.6889656782150269,-0.4437713623046875,-1.0444656610488892
1684109945929825500,8.626825439453125,-0.28815287351608276,0.02721691131591797,-1.1267566680908203
1684109945939867000,8.636866943359376,0.049463093280792236,0.4037437438964844,-1.132521629333496
1684109945949908000,8.646907958984375,0.30522701144218445,0.7723512649536133,-1.13860285282135
1684109945959949300,8.65694921875,0.5330077409744263,0.9993200302124023,-1.032324194908142
1684109945969990700,8.66699072265625,0.7079657912254333,1.051131248474121,-0.974319577217102
1684109945980031700,8.67703173828125,0.9181700944900513,0.9877185821533203,-0.8039888143539429
1684109945990073000,8.687072998046874,1.138503074645996,0.8547649383544922,-0.6797666549682617
1684109946000114400,8.697114501953125,1.3406420946121216,0.6380672454833984,-0.6324069499969482
1684109946010155500,8.707155517578125,1.5073540210723877,0.4381685256958008,-0.6139472723007202
1684109946020196900,8.71719677734375,1.6349068880081177,0.3267707824707031,-0.5599702596664429
1684109946030238200,8.72723828125,1.7496880292892456,0.18198204040527344,-0.46352124214172363
1684109946040279600,8.737279541015624,1.7881368398666382,-0.058205604553222656,-0.3029376268386841
1684109946050320600,8.747320556640625,1.7408177852630615,-0.22869110107421875,-0.002648472785949707
1684109946060362000,8.757362060546875,1.6759042739868164,-0.3103494644165039,0.29447925090789795
1684109946070403300,8.7674033203125,1.6042547225952148,-0.3199501037597656,0.5249481201171875
1684109946080444400,8.7774443359375,1.5525305271148682,-0.2098245620727539,0.5927572250366211
1684109946090485800,8.78748583984375,1.4942904710769653,-0.10927009582519531,0.6178866624832153
1684109946100527000,8.797527099609376,1.4220072031021118,-0.049345970153808594,0.6674796342849731
1684109946110568200,8.807568115234375,1.3018319606781006,-0.041831016540527344,0.6813361644744873
1684109946120609500,8.817609619140624,1.1191843748092651,-0.1056985855102539,0.659399151802063
1684109946130651000,8.82765087890625,0.8625893592834473,-0.09734249114990234,0.6389269828796387
1684109946140692000,8.83769189453125,0.5615660548210144,-0.02906322479248047,0.4797813892364502
1684109946150733300,8.8477333984375,0.25291094183921814,0.0675363540649414,0.2417508363723755
1684109946160774700,8.857774658203125,-0.10417278110980988,0.06833839416503906,0.09142613410949707
1684109946170816000,8.86781591796875,-0.3934270143508911,0.11943531036376953,-0.07239794731140137
1684109946180857000,8.877857177734375,-0.556553065776825,0.27526187896728516,-0.34246885776519775
1684109946190898400,8.8878984375,-0.5514921545982361,0.37279415130615234,-0.49597764015197754
1684109946200939800,8.897939697265626,-0.3813900947570801,0.29999732971191406,-0.49732112884521484
1684109946210980900,8.90798095703125,-0.1014539822936058,0.22462749481201172,-0.4313850402832031
1684109946221022200,8.918022216796874,0.17218142747879028,0.19684410095214844,-0.31537675857543945
1684109946231063600,8.9280634765625,0.4507221281528473,0.1926422119140625,-0.10914647579193115
1684109946241104600,8.938104736328125,0.6555272340774536,0.16901874542236328,0.05047750473022461
1684109946251146000,8.94814599609375,0.8429158329963684,0.17133808135986328,0.2186729907989502
1684109946261187300,8.958187255859375,0.9527788162231445,0.11831474304199219,0.37395191192626953
1684109946271228700,8.968228759765625,1.0332638025283813,0.04109764099121094,0.5952688455581665
1684109946281269800,8.978269775390626,1.0035717487335205,0.016173362731933594,0.786827564239502
1684109946291311000,8.98831103515625,0.972007691860199,0.048331260681152344,0.9693930149078369
1684109946301352400,8.9983525390625,0.8915297985076904,0.04690074920654297,1.0821068286895752
1684109946311393500,9.0083935546875,0.8148791790008545,0.014514923095703125,1.1696600914001465
1684109946321435000,9.018434814453125,0.7295979261398315,0.023019790649414062,1.2217788696289062
1684109946331476200,9.028476318359376,0.6370663642883301,-0.030364990234375,1.16424560546875
1684109946341517300,9.038517333984375,0.506273627281189,-0.1336193084716797,1.0454120635986328
1684109946351558700,9.04855859375,0.3859923779964447,-0.14330577850341797,0.9203586578369141
1684109946361600000,9.05860009765625,0.2731209993362427,-0.15282726287841797,0.8087254762649536
1684109946371641000,9.06864111328125,0.18364077806472778,-0.13113689422607422,0.6296931505203247
1684109946381682400,9.078682373046876,0.19697517156600952,-0.0974874496459961,0.4652519226074219
1684109946391723800,9.088723876953125,0.20499521493911743,-0.11887073516845703,0.2943542003631592
1684109946401764900,9.098764892578124,0.19271624088287354,-0.09023284912109375,0.198888897895813
1684109946411806200,9.10880615234375,0.14511901140213013,-0.04040813446044922,0.17398416996002197
1684109946421847600,9.11884765625,0.11674922704696655,0.03053569793701172,0.18834924697875977
1684109946431888600,9.128888671875,0.07203561067581177,0.02235889434814453,0.2604907751083374
1684109946441930000,9.138929931640625,0.05239051580429077,-0.00014400482177734375,0.3111124038696289
1684109946451971300,9.148971435546875,0.026800870895385742,-0.048897743225097656,0.3428303003311157
1684109946462012700,9.1590126953125,0.028390169143676758,-0.07851886749267578,0.32483041286468506
1684109946472053800,9.1690537109375,0.015844762325286865,-0.10828113555908203,0.3460022211074829
1684109946482095000,9.17909521484375,-0.022795915603637695,-0.13823890686035156,0.3778179883956909
1684109946492136400,9.189136474609375,-0.07020056247711182,-0.13017749786376953,0.38219618797302246
1684109946502177500,9.199177490234375,-0.08607399463653564,-0.026480674743652344,0.4696861505508423
1684109946512219000,9.209218994140626,-0.10444092750549316,0.06590843200683594,0.6064796447753906
1684109946522260200,9.21926025390625,-0.09423983097076416,0.10495281219482422,0.7770949602127075
1684109946532301300,9.22930126953125,-0.09610521793365479,0.1316680908203125,0.9051239490509033
1684109946542342700,9.2393427734375,-0.08695083856582642,0.1275482177734375,1.0163871049880981
1684109946552384000,9.249384033203125,-0.1174803376197815,0.0930948257446289,1.0284513235092163
1684109946562425000,9.259425048828126,-0.1363058090209961,0.0475616455078125,0.9429925680160522
1684109946572466400,9.269466552734375,-0.1467999815940857,0.07105541229248047,0.8231014013290405
1684109946582507800,9.2795078125,-0.17474901676177979,0.0046062469482421875,0.6415793895721436
1684109946592549000,9.289549072265626,-0.23289185762405396,-0.0701761245727539,0.4583885669708252
1684109946602590200,9.299590087890625,-0.2695915699005127,-0.14360809326171875,0.32303130626678467
1684109946612631600,9.309631591796874,-0.2628363370895386,-0.1381063461303711,0.19082140922546387
1684109946622673000,9.3196728515625,-0.23376989364624023,-0.11861419677734375,0.17998623847961426
1684109946632714000,9.3297138671875,-0.12845712900161743,-0.13709640502929688,0.24115490913391113
1684109946642755300,9.33975537109375,0.023098111152648926,-0.21408748626708984,0.3492560386657715
1684109946652796700,9.349796630859375,0.2075943946838379,-0.3651151657104492,0.49391651153564453
1684109946662837800,9.359837646484374,0.40728873014450073,-0.4428873062133789,0.6926532983779907
1684109946672879000,9.369879150390625,0.5625765323638916,-0.4556465148925781,0.908926248550415
1684109946682920400,9.37992041015625,0.6833159327507019,-0.40216636657714844,1.1237530708312988
1684109946692961500,9.38996142578125,0.8125165104866028,-0.30731201171875,1.2157790660858154
1684109946703003000,9.4000029296875,0.9049340486526489,-0.3528623580932617,1.4097572565078735
1684109946713044200,9.410044189453124,1.0219638347625732,-0.4439277648925781,1.5734384059906006
1684109946723085600,9.42008544921875,1.1406188011169434,-0.49465465545654297,1.575840950012207
1684109946733126700,9.430126708984375,1.2822177410125732,-0.33376121520996094,1.4419153928756714
1684109946743168000,9.44016796875,1.3906362056732178,-0.27828502655029297,1.2504173517227173
1684109946753209300,9.450209228515625,1.4378604888916016,-0.15745925903320312,0.9666157960891724
1684109946763250400,9.46025048828125,1.427915096282959,-0.27846431732177734,0.8536525964736938
1684109946773291800,9.470291748046876,1.4177098274230957,-0.39334583282470703,0.7547546625137329
1684109946783333000,9.4803330078125,1.2964812517166138,-0.39557361602783203,0.5534876585006714
1684109946793374200,9.490374267578124,1.0510907173156738,-0.4193258285522461,0.32999587059020996
1684109946803415600,9.50041552734375,0.7473223805427551,-0.3527202606201172,-0.025491833686828613
1684109946813457000,9.510456787109375,0.3460831046104431,-0.30408668518066406,-0.4992712736129761
1684109946823498000,9.520498046875,-0.0759546160697937,-0.3901338577270508,-0.8069356679916382
1684109946833539300,9.530539306640625,-0.4255198836326599,-0.4024028778076172,-1.1260833740234375
1684109946843580700,9.54058056640625,-0.7668142318725586,-0.23339462280273438,-1.4467494487762451
1684109946853622000,9.5506220703125,-1.0546901226043701,-0.0720968246459961,-1.6228547096252441
1684109946863663000,9.5606630859375,-1.1407783031463623,0.1558666229248047,-1.6611416339874268
1684109946873704400,9.570704345703126,-1.1199580430984497,0.35038185119628906,-1.5979883670806885
1684109946883745800,9.580745849609375,-0.9641129970550537,0.5021734237670898,-1.3071575164794922
1684109946893787100,9.590787109375,-0.7267292141914368,0.6105718612670898,-1.0783791542053223
1684109946903828200,9.600828125,-0.502638041973114,0.4839153289794922,-0.5745410919189453
1684109946913869600,9.61086962890625,-0.29003795981407166,0.3883094787597656,0.04364919662475586
1684109946923911000,9.620910888671874,-0.1371375322341919,0.35750484466552734,0.49208545684814453
1684109946933952000,9.630951904296875,-0.06563609838485718,0.3484220504760742,0.808984637260437
1684109946943993300,9.640993408203125,-0.06308454275131226,0.3636207580566406,1.06781804561615
1684109946954034700,9.65103466796875,-0.1670129895210266,0.3436574935913086,1.2053669691085815
1684109946964075800,9.66107568359375,-0.3209161162376404,0.2960777282714844,1.2281253337860107
1684109946974117000,9.6711171875,-0.5083833932876587,0.1923513412475586,1.1006592512130737
1684109946984158500,9.681158447265625,-0.7098451256752014,0.015793800354003906,0.9483178853988647
1684109946994199600,9.691199462890625,-0.8796379566192627,-0.18583202362060547,0.7384902238845825
1684109947004241000,9.701240966796876,-0.9208540916442871,-0.3291616439819336,0.5316072702407837
1684109947014282200,9.7112822265625,-0.9461109042167664,-0.4217996597290039,0.3062783479690552
1684109947024323600,9.721323486328124,-0.9682165384292603,-0.418975830078125,0.022695541381835938
1684109947034364700,9.73136474609375,-0.9282156825065613,-0.3381471633911133,-0.19633841514587402
1684109947044406000,9.741406005859375,-0.8370699882507324,-0.24193382263183594,-0.29354000091552734
1684109947054447400,9.751447265625,-0.5983315706253052,-0.1759052276611328,-0.2840235233306885
1684109947064488400,9.761488525390625,-0.34313997626304626,-0.1518535614013672,-0.1358795166015625
1684109947074529800,9.77152978515625,-0.023808181285858154,-0.18137836456298828,0.06783902645111084
1684109947084571100,9.781571044921876,0.27607032656669617,-0.1711893081665039,0.13112914562225342
1684109947094612200,9.7916123046875,0.5476729869842529,-0.2075967788696289,0.09655165672302246
1684109947104653600,9.801653564453124,0.6125852465629578,-0.3167610168457031,0.11715376377105713
1684109947114695000,9.81169482421875,0.59576815366745,-0.4293651580810547,0.020163416862487793
1684109947124736300,9.821736328125,0.6890466213226318,-0.43825721740722656,-0.07873666286468506
1684109947134777300,9.83177734375,0.8622127175331116,-0.43257713317871094,-0.2817422151565552
1684109947144818700,9.841818603515625,0.9799994230270386,-0.49140167236328125,-0.4791980981826782
1684109947154860000,9.851860107421874,1.0293922424316406,-0.5857667922973633,-0.6206139326095581
1684109947164901000,9.861901123046875,1.0989323854446411,-0.6173582077026367,-0.8008345365524292
1684109947174942500,9.8719423828125,1.0808049440383911,-0.7217769622802734,-0.8909882307052612
1684109947184983800,9.88198388671875,1.2137136459350586,-0.9119234085083008,-0.8198339939117432
1684109947195025200,9.892025146484375,1.5181951522827148,-1.0523948669433594,-0.6885930299758911
1684109947205066200,9.902066162109374,1.877013087272644,-0.9199647903442383,-0.47107958793640137
1684109947215107600,9.912107666015626,2.2297661304473877,-0.5674934387207031,-0.30058741569519043
1684109947225149000,9.92214892578125,2.5395455360412598,-0.22755050659179688,-0.18674874305725098
1684109947235190000,9.93218994140625,2.6996710300445557,-0.0438232421875,-0.017434358596801758
1684109947245231400,9.9422314453125,2.745253801345825,0.1149606704711914,0.11014509201049805
1684109947255272700,9.952272705078125,2.7603225708007812,0.2914619445800781,0.13300740718841553
1684109947265313800,9.962313720703126,2.7955355644226074,0.5547323226928711,0.08277368545532227
1684109947275355100,9.972355224609375,2.740043878555298,0.7828655242919922,0.036738038063049316
1684109947285396500,9.982396484375,2.615060329437256,0.9495048522949219,-0.07006168365478516
1684109947295437600,9.9924375,2.2951128482818604,0.9704303741455078,-0.30044853687286377
1684109947305479000,10.00247900390625,1.922802209854126,0.8123950958251953,-0.43960821628570557
1684109947315520300,10.012520263671876,1.5252267122268677,0.5429668426513672,-0.44036996364593506
1684109947325561600,10.0225615234375,1.16677987575531,0.38719749450683594,-0.38613009452819824
1684109947335602700,10.032602783203124,0.8656764030456543,0.2567415237426758,-0.29954302310943604
1684109947345644000,10.04264404296875,0.6947479248046875,0.1564044952392578,-0.26088035106658936
1684109947355685400,10.052685302734375,0.5744462013244629,0.0904083251953125,-0.38015425205230713
1684109947365726700,10.062726806640624,0.46459734439849854,-0.02309703826904297,-0.5646251440048218
1684109947375767800,10.072767822265625,0.29744958877563477,-0.11513328552246094,-0.6724320650100708
1684109947385809200,10.08280908203125,0.1210474967956543,-0.20283222198486328,-0.619499921798706
1684109947395850500,10.0928505859375,-0.006951570510864258,-0.1361560821533203,-0.6254394054412842
1684109947405891600,10.1028916015625,-0.19827699661254883,-0.10223865509033203,-0.5274547338485718
1684109947415933000,10.112932861328124,-0.3191254138946533,-0.041718482971191406,-0.513278067111969
1684109947425974300,10.122974365234375,-0.2378368377685547,-0.021703720092773438,-0.5513033270835876
1684109947436015400,10.133015380859375,-0.025150537490844727,0.010521888732910156,-0.6616449952125549
1684109947446056700,10.143056640625,0.2263648509979248,0.09336662292480469,-0.8072856664657593
1684109947456098000,10.15309814453125,0.519965648651123,0.24131298065185547,-0.8874120712280273
1684109947466139100,10.16313916015625,0.7800161838531494,0.392333984375,-1.0322538614273071
1684109947476180500,10.173180419921875,1.0649642944335938,0.49649810791015625,-1.1402533054351807
1684109947486221800,10.183221923828125,1.277936577796936,0.6162261962890625,-1.2126836776733398
1684109947496263200,10.19326318359375,1.4388827085494995,0.7304725646972656,-1.2452330589294434
1684109947506304300,10.20330419921875,1.5697157382965088,0.8279857635498047,-1.1960442066192627
1684109947516345600,10.213345703125,1.6139663457870483,0.9117717742919922,-1.161993384361267
1684109947526387000,10.223386962890626,1.5713249444961548,0.8890857696533203,-1.0684558153152466
1684109947536428000,10.233427978515625,1.4583617448806763,0.813054084777832,-1.003370761871338
1684109947546469400,10.243469482421874,1.3471026420593262,0.6934604644775391,-0.9224666357040405
1684109947556510700,10.2535107421875,1.1688756942749023,0.6306705474853516,-0.8409672975540161
1684109947566551800,10.2635517578125,0.9697079658508301,0.5432891845703125,-0.7833130359649658
1684109947576593200,10.27359326171875,0.747840166091919,0.4360485076904297,-0.7761151790618896
1684109947586634500,10.283634521484375,0.48462796211242676,0.33278369903564453,-0.759587287902832
1684109947596675800,10.29367578125,0.23340129852294922,0.1282205581665039,-0.7147263288497925
1684109947606717000,10.303717041015625,-0.07346677780151367,-0.12287425994873047,-0.6587144136428833
1684109947616758300,10.31375830078125,-0.37851452827453613,-0.2658367156982422,-0.5437161922454834
1684109947626799600,10.323799560546876,-0.717043399810791,-0.33998775482177734,-0.39104998111724854
1684109947636840700,10.3338408203125,-1.0123765468597412,-0.2697877883911133,-0.15536987781524658
1684109947646882000,10.343882080078124,-1.1319727897644043,-0.1179962158203125,0.007302045822143555
1684109947656923400,10.35392333984375,-0.9267482757568359,0.06043052673339844,-0.05285978317260742
1684109947666964700,10.36396484375,-0.6031398773193359,0.12978839874267578,-0.3214603662490845
1684109947677005800,10.374005859375,-0.2907991409301758,0.10530567169189453,-0.5770623683929443
1684109947687047200,10.384047119140625,0.034093618392944336,0.10254287719726562,-0.7192604541778564
1684109947697088500,10.394088623046875,0.4640846252441406,0.2513132095336914,-0.772625207901001
1684109947707129600,10.404129638671876,0.886246919631958,0.5282354354858398,-0.6851316690444946
1684109947717171000,10.4141708984375,1.1607279777526855,0.7494668960571289,-0.6285756826400757
1684109947727212300,10.42421240234375,1.2788665294647217,0.8050432205200195,-0.6258389949798584
1684109947737253600,10.434253662109375,1.2080429792404175,0.6522083282470703,-0.5115509033203125
1684109947747294700,10.444294677734375,0.9376732110977173,0.45362091064453125,-0.31498658657073975
1684109947757336000,10.454336181640626,0.5176396369934082,0.41426753997802734,-0.0959850549697876
1684109947767377400,10.46437744140625,0.12407207489013672,0.4615926742553711,0.15568023920059204
1684109947777418500,10.47441845703125,-0.19864916801452637,0.5160655975341797,0.321247398853302
1684109947787459800,10.4844599609375,-0.41858530044555664,0.5032176971435547,0.4043582081794739
1684109947797501200,10.494501220703125,-0.5108911991119385,0.44667720794677734,0.4011884331703186
1684109947807542300,10.504542236328126,-0.4101707935333252,0.43933773040771484,0.34551072120666504
1684109947817583600,10.51458349609375,-0.09280610084533691,0.4715452194213867,0.28207725286483765
1684109947827625000,10.524625,0.4293100833892822,0.5199251174926758,0.14995020627975464
1684109947837666300,10.534666259765626,0.9926912784576416,0.4491996765136719,-0.08530354499816895
1684109947847707400,10.544707275390625,1.4768893718719482,0.21524810791015625,-0.40797126293182373
1684109947857748700,10.554748779296874,1.8362932205200195,-0.1521921157836914,-0.7417869567871094
1684109947867790000,10.5647900390625,2.0049843788146973,-0.6048221588134766,-1.0884737968444824
1684109947877831200,10.5748310546875,1.8943790197372437,-1.1377887725830078,-1.4687482118606567
1684109947887872500,10.58487255859375,1.5194520950317383,-1.634521484375,-1.9081875085830688
1684109947897913900,10.594913818359375,0.7535749673843384,-1.906076431274414,-2.623688220977783
1684109947907955200,10.604955078125,-0.4969658851623535,-2.4965572357177734,-2.9174838066101074
1684109947917996300,10.614996337890625,-1.9673296213150024,-3.0116472244262695,-2.5049939155578613
1684109947928037600,10.62503759765625,-2.946892261505127,-3.026339530944824,-1.3637577295303345
1684109947938079000,10.635078857421876,-2.868093490600586,-2.016697883605957,-0.18290042877197266
1684109947948120300,10.645120361328125,-2.022392749786377,-0.7025632858276367,0.2915881872177124
1684109947958161400,10.655161376953124,-1.0366761684417725,0.08996963500976562,0.7474076747894287
1684109947968202800,10.66520263671875,-0.16729986667633057,0.6626462936401367,1.0839793682098389
1684109947978244000,10.675244140625,0.49332308769226074,1.0958890914916992,1.0424737930297852
1684109947988285200,10.68528515625,0.873530924320221,1.4763803482055664,0.8711615204811096
1684109947998326500,10.695326416015625,1.1110399961471558,1.6946616172790527,0.6446897387504578
1684109948008367900,10.705367919921875,1.3060057163238525,1.653646469116211,0.44970405101776123
1684109948018409000,10.715408935546876,1.4718955755233765,1.4662952423095703,0.22203540802001953
1684109948028450300,10.7254501953125,1.6266920566558838,1.196986198425293,0.02016592025756836
1684109948038491600,10.73549169921875,1.7702360153198242,0.8120822906494141,-0.0989910364151001
1684109948048532700,10.74553271484375,1.885306715965271,0.3546266555786133,-0.11503994464874268
1684109948058574000,10.755573974609375,2.0066683292388916,-0.05849170684814453,-0.14975547790527344
1684109948068615400,10.765615478515626,2.039449691772461,-0.5757646560668945,-0.17584013938903809
1684109948078656800,10.77565673828125,1.9482125043869019,-0.9654092788696289,-0.18105638027191162
1684109948088697900,10.78569775390625,1.6923649311065674,-1.158421516418457,-0.18252015113830566
1684109948098739200,10.7957392578125,1.2688854932785034,-1.1195201873779297,-0.1196894645690918
1684109948108780500,10.805780517578125,0.6468127369880676,-0.9060506820678711,0.15928959846496582
1684109948118821600,10.815821533203126,-0.14339208602905273,-0.39374351501464844,0.368625283241272
1684109948128863000,10.825863037109375,-0.7003172636032104,0.19132709503173828,0.3224794864654541
1684109948138904300,10.835904296875,-0.8062986135482788,0.5756359100341797,0.14166724681854248
1684109948148945700,10.845945556640626,-0.44453394412994385,0.833369255065918,0.04347646236419678
1684109948158986800,10.85598681640625,0.19433891773223877,0.9197931289672852,-0.07425880432128906
1684109948169028000,10.866028076171874,0.9351651668548584,0.7640533447265625,-0.24364125728607178
1684109948179069400,10.8760693359375,1.5672019720077515,0.6132287979125977,-0.3590278625488281
1684109948189110800,10.88611083984375,1.9816325902938843,0.5395832061767578,-0.3667747974395752
1684109948199151900,10.89615185546875,2.1972053050994873,0.5219278335571289,-0.42332184314727783
1684109948209193200,10.906193115234375,2.29300856590271,0.42906856536865234,-0.5146749019622803
1684109948219234600,10.916234619140624,2.2365221977233887,0.32100772857666016,-0.5764765739440918
1684109948229275600,10.926275634765625,2.0019478797912598,0.16628456115722656,-0.6405278444290161
1684109948239317000,10.93631689453125,1.7026559114456177,0.1477985382080078,-0.7543424367904663
1684109948249358300,10.9463583984375,1.3359500169754028,0.038761138916015625,-0.598790168762207
1684109948259399400,10.9563994140625,0.8802697658538818,-0.08622360229492188,-0.4548991918563843
1684109948269440800,10.966440673828124,0.3347729444503784,-0.1152353286743164,-0.4730679988861084
1684109948279482000,10.976482177734376,-0.307180792093277,-0.08029556274414062,-0.5130802392959595
1684109948289523500,10.9865234375,-0.9125779867172241,-0.1349201202392578,-0.6532485485076904
1684109948299564500,10.996564453125,-1.3255393505096436,-0.1549205780029297,-0.8095248937606812
1684109948309606000,11.00660595703125,-1.4275532960891724,-0.09971046447753906,-0.9600639343261719
1684109948319647200,11.016647216796875,-1.133631944656372,0.02086162567138672,-1.1288180351257324
1684109948329688300,11.026688232421876,-0.5027220845222473,0.1779794692993164,-1.0776821374893188
1684109948339729700,11.036729736328125,0.19941352307796478,0.16189289093017578,-0.8851783275604248
1684109948349771000,11.04677099609375,0.8425285816192627,0.157470703125,-0.7041176557540894
1684109948359812400,11.056812255859375,1.32767915725708,0.1649169921875,-0.6014692783355713
1684109948369853400,11.066853515625,1.6219640970230103,0.2225360870361328,-0.5220500230789185
1684109948379894800,11.076894775390626,1.7793679237365723,0.2681541442871094,-0.48726415634155273
1684109948389936000,11.08693603515625,1.8228509426116943,0.25159263610839844,-0.43963897228240967
1684109948399977200,11.096977294921874,1.769112467765808,0.20869922637939453,-0.40046584606170654
1684109948410018600,11.1070185546875,1.6730329990386963,0.14899158477783203,-0.3027942180633545
1684109948420060000,11.117059814453125,1.5644642114639282,0.10838031768798828,-0.15210509300231934
1684109948430101200,11.127101318359376,1.4627749919891357,0.09170341491699219,0.04113936424255371
1684109948440142300,11.137142333984375,1.3408228158950806,-0.010790824890136719,0.24478328227996826
1684109948450183700,11.14718359375,1.18367338180542,-0.06504631042480469,0.39598870277404785
1684109948460225000,11.15722509765625,1.0011661052703857,-0.18346023559570312,0.5115252733230591
1684109948470266000,11.16726611328125,0.7950373888015747,-0.28224849700927734,0.5504575967788696
1684109948480307500,11.177307373046874,0.5871737599372864,-0.3351602554321289,0.5796440839767456
1684109948490348800,11.187348876953125,0.39763522148132324,-0.3040618896484375,0.5394598245620728
1684109948500390100,11.19739013671875,0.24803052842617035,-0.2798643112182617,0.48285484313964844
1684109948510431200,11.20743115234375,0.17556948959827423,-0.23629093170166016,0.4319254159927368
1684109948520472600,11.21747265625,0.1825486272573471,-0.16385364532470703,0.40379786491394043
1684109948530514000,11.227513916015624,0.27255743741989136,-0.11759662628173828,0.38683485984802246
1684109948540555300,11.23755517578125,0.4127150774002075,-0.08552932739257812,0.3738551139831543
1684109948550596400,11.247596435546875,0.5531753301620483,-0.09153079986572266,0.34573042392730713
1684109948560637700,11.2576376953125,0.6679754257202148,-0.04246711730957031,0.3481423854827881
1684109948570679000,11.267678955078125,0.7528102397918701,0.03521919250488281,0.35465776920318604
1684109948580720000,11.27772021484375,0.8016068935394287,0.098358154296875,0.32270872592926025
1684109948590761500,11.287761474609376,0.8184635043144226,0.12777233123779297,0.34833645820617676
1684109948600802800,11.297802734375,0.8199959993362427,0.16176986694335938,0.3213900327682495
1684109948610844200,11.30784423828125,0.7968482971191406,0.17166519165039062,0.2778700590133667
1684109948620885200,11.31788525390625,0.7454203963279724,0.1814289093017578,0.19387245178222656
1684109948630926600,11.327926513671875,0.7005218267440796,0.16961097717285156,0.12916231155395508
1684109948640968000,11.337968017578126,0.6559956669807434,0.16968441009521484,0.021863937377929688
1684109948651009000,11.348009033203125,0.6027230024337769,0.11233711242675781,-0.07989251613616943
1684109948661050400,11.35805029296875,0.5644916296005249,0.14574432373046875,-0.17593133449554443
1684109948671091700,11.368091796875,0.5126867294311523,0.15980243682861328,-0.24220669269561768
1684109948681133000,11.378133056640625,0.46198776364326477,0.171295166015625,-0.29073238372802734
1684109948691174100,11.388174072265626,0.4131656289100647,0.16112327575683594,-0.3523467779159546
1684109948701215500,11.398215576171875,0.3976355791091919,0.16275882720947266,-0.29781579971313477
1684109948711256800,11.4082568359375,0.42938506603240967,0.12124347686767578,-0.24206483364105225
1684109948721298000,11.4182978515625,0.49834707379341125,0.024763107299804688,-0.1494694948196411
1684109948731339300,11.42833935546875,0.5752585530281067,-0.03574085235595703,-0.025334477424621582
1684109948741380600,11.438380615234376,0.6550010442733765,-0.07227897644042969,0.03214883804321289
1684109948751421700,11.448421630859375,0.6897230744361877,-0.07293224334716797,0.08499455451965332
1684109948761463000,11.458463134765625,0.7219714522361755,-0.023427963256835938,0.11854207515716553
1684109948771504400,11.46850439453125,0.7539286017417908,-0.024199485778808594,0.1662358045578003
1684109948781545700,11.478545654296875,0.744803786277771,0.027585983276367188,0.1490640640258789
1684109948791586800,11.4885869140625,0.7732445597648621,0.045833587646484375,0.16976499557495117
1684109948801628200,11.498628173828125,0.7627955675125122,0.07596969604492188,0.14958631992340088
1684109948811669500,11.50866943359375,0.7579895257949829,0.10451126098632812,0.1558396816253662
1684109948821710600,11.518710693359376,0.7370198369026184,0.10433197021484375,0.15017390251159668
1684109948831752000,11.528751953125,0.7169779539108276,0.10654830932617188,0.12563884258270264
1684109948841793300,11.538793212890624,0.7145894169807434,0.08051490783691406,0.11094152927398682
1684109948851834600,11.548834716796875,0.7199933528900146,0.10905075073242188,0.10850787162780762
1684109948861875700,11.558875732421875,0.7163278460502625,0.10647773742675781,0.10402441024780273
1684109948871917000,11.5689169921875,0.6705259084701538,0.13215923309326172,0.08571600914001465
1684109948881958400,11.57895849609375,0.6631051898002625,0.0937347412109375,0.08711600303649902
1684109948891999700,11.588999755859374,0.6202540993690491,0.08173370361328125,0.06542706489562988
1684109948902040800,11.599040771484376,0.5567785501480103,0.0675039291381836,0.07499444484710693
1684109948912082200,11.609082275390625,0.5084133148193359,0.05112934112548828,0.11271893978118896
1684109948922123500,11.61912353515625,0.44516438245773315,0.020923614501953125,0.1405705213546753
1684109948932164600,11.62916455078125,0.45315998792648315,0.0030794143676757812,0.18241560459136963
1684109948942206000,11.6392060546875,0.4988451600074768,-0.028474807739257812,0.2051914930343628
1684109948952247300,11.649247314453126,0.5601906776428223,-0.00286102294921875,0.22783362865447998
1684109948962288600,11.65928857421875,0.6194390654563904,0.015334129333496094,0.19615638256072998
1684109948972329700,11.669329833984374,0.6448578834533691,0.012027740478515625,0.15335500240325928
1684109948982371000,11.67937109375,0.6286779046058655,-0.019593238830566406,0.043122291564941406
1684109948992412400,11.689412353515625,0.5193883776664734,-0.006152153015136719,-0.0390477180480957
1684109949002453500,11.69945361328125,0.38241446018218994,-0.023729324340820312,-0.15943586826324463
1684109949012494800,11.709494873046875,0.2500297427177429,-0.010525703430175781,-0.18777179718017578
1684109949022536200,11.7195361328125,0.177792489528656,0.0024957656860351562,-0.1845874786376953
1684109949032577500,11.72957763671875,0.1847361922264099,0.010674476623535156,-0.18775367736816406
1684109949042618600,11.73961865234375,0.2748040556907654,0.00004673004150390625,-0.12671566009521484
1684109949052660000,11.749659912109376,0.44560980796813965,-0.024435997009277344,-0.049749135971069336
1684109949062701300,11.759701416015625,0.6140180230140686,-0.06025123596191406,0.00474095344543457
1684109949072742700,11.76974267578125,0.6934407353401184,-0.0955963134765625,0.03711354732513428
1684109949082783700,11.77978369140625,0.6819442510604858,-0.05295848846435547,-0.02956080436706543
1684109949092825000,11.7898251953125,0.6043740510940552,-0.0042724609375,-0.07832789421081543
1684109949102866400,11.799866455078124,0.47000551223754883,0.059821128845214844,-0.11160862445831299
1684109949112907500,11.809907470703125,0.3191699981689453,0.0779733657836914,-0.08238732814788818
1684109949122948900,11.819948974609375,0.24329131841659546,0.0957794189453125,0.0038527250289916992
1684109949132990200,11.829990234375,0.21798723936080933,0.07326698303222656,0.06371474266052246
1684109949143031600,11.840031494140625,0.23717236518859863,0.04647254943847656,0.14891517162322998
1684109949153072600,11.85007275390625,0.2968626022338867,0.008349418640136719,0.18826472759246826
1684109949163114000,11.860114013671875,0.35574573278427124,0.010867118835449219,0.1940828561782837
1684109949173155300,11.8701552734375,0.3616912364959717,0.013273239135742188,0.17174136638641357
1684109949183196700,11.88019677734375,0.32710880041122437,0.02025318145751953,0.14526116847991943
1684109949193237800,11.89023779296875,0.2434467077255249,0.06467723846435547,0.13839435577392578
1684109949203279000,11.900279052734374,0.1824895739555359,0.068267822265625,0.13194239139556885
1684109949213320400,11.910320556640626,0.14666807651519775,0.026993751525878906,0.1308063268661499
1684109949223361500,11.920361572265625,0.138241708278656,-0.03246116638183594,0.08775138854980469
1684109949233403000,11.93040283203125,0.13549208641052246,-0.0791616439819336,0.09273803234100342
1684109949243444200,11.9404443359375,0.13358074426651,-0.07566547393798828,0.08380067348480225
1684109949253485600,11.950485595703125,0.13001441955566406,-0.058106422424316406,0.09397673606872559
1684109949263526700,11.960526611328126,0.09901469945907593,-0.07608985900878906,0.11795151233673096
1684109949273568000,11.970568115234375,0.09802621603012085,-0.06535530090332031,0.15990984439849854
1684109949283609300,11.980609375,0.114749014377594,-0.04509735107421875,0.18366754055023193
1684109949293650400,11.990650390625,0.15055924654006958,-0.015523910522460938,0.19656729698181152
1684109949303691800,12.00069189453125,0.1498982310295105,0.025412559509277344,0.10963153839111328
1684109949313733000,12.010733154296876,0.11684644222259521,0.08198165893554688,0.009974002838134766
1684109949323774500,12.0207744140625,0.04488813877105713,0.11134147644042969,0.025877952575683594
1684109949333815600,12.030815673828124,-0.037831246852874756,0.1256723403930664,0.05964016914367676
1684109949343857000,12.04085693359375,-0.06743514537811279,0.06884193420410156,0.17953979969024658
1684109949353898200,12.050898193359375,0.013706564903259277,0.02221965789794922,0.3511490821838379
1684109949363939600,12.060939697265624,0.22311335802078247,-0.028375625610351562,0.568466305732727
1684109949373980700,12.070980712890625,0.5273284912109375,-0.07807064056396484,0.7946631908416748
1684109949384022000,12.08102197265625,0.8783149719238281,-0.16205596923828125,1.0025544166564941
1684109949394063400,12.0910634765625,1.2047350406646729,-0.15495681762695312,1.1587491035461426
1684109949404104400,12.1011044921875,1.4578732252120972,-0.1830425262451172,1.256474494934082
1684109949414145800,12.111145751953124,1.6413397789001465,-0.1539325714111328,1.3409521579742432
1684109949424187100,12.121187255859375,1.7001221179962158,-0.06863880157470703,1.3320984840393066
1684109949434228500,12.131228515625,1.658486247062683,-0.0552825927734375,1.3042550086975098
1684109949444269600,12.14126953125,1.5194916725158691,-0.027864456176757812,1.2759032249450684
1684109949454311000,12.151310791015625,1.3193697929382324,0.03693580627441406,1.1852948665618896
1684109949464352300,12.161352294921874,0.9839023947715759,0.1079092025756836,1.0118526220321655
1684109949474393600,12.1713935546875,0.5683523416519165,0.11888313293457031,0.8023785352706909
1684109949484434700,12.1814345703125,0.09557175636291504,0.1649942398071289,0.523039698600769
1684109949494476000,12.19147607421875,-0.4107874929904938,0.1869373321533203,0.2088090181350708
1684109949504517400,12.201517333984375,-0.8351660966873169,0.18775272369384766,-0.023674964904785156
1684109949514558500,12.211558349609374,-1.1727595329284668,0.1796436309814453,-0.22831964492797852
1684109949524599800,12.221599853515626,-1.4308836460113525,0.16749858856201172,-0.4888179302215576
1684109949534641200,12.23164111328125,-1.484008550643921,0.12046432495117188,-0.6285812854766846
1684109949544682500,12.2416826171875,-1.451906442642212,0.007731437683105469,-0.6843287944793701
1684109949554723600,12.2517236328125,-1.2127844095230103,-0.010896682739257812,-0.75836181640625
1684109949564765000,12.261764892578125,-0.8662183880805969,0.032470703125,-0.8795311450958252
1684109949574806300,12.27180615234375,-0.5993278622627258,0.0774383544921875,-0.8531639575958252
1684109949584847400,12.281847412109375,-0.3826029300689697,0.19082164764404297,-0.7542130947113037
1684109949594888700,12.291888671875,-0.15066522359848022,0.2195577621459961,-0.5832998752593994
1684109949604930000,12.301929931640625,0.06344658136367798,0.2855339050292969,-0.5079386234283447
1684109949614971400,12.311971435546875,0.19451844692230225,0.22880077362060547,-0.35687923431396484
1684109949625012500,12.322012451171876,0.2592111825942993,0.18592453002929688,-0.1644136905670166
1684109949635053800,12.3320537109375,0.2578502893447876,0.13311100006103516,-0.04809832572937012
1684109949645095200,12.34209521484375,0.17694419622421265,0.039643287658691406,0.06756114959716797
1684109949655136500,12.352136474609376,0.006150543689727783,-0.010546684265136719,0.13660717010498047
1684109949665177600,12.362177490234375,-0.20480287075042725,-0.01979541778564453,0.15667831897735596
1684109949675219000,12.372218994140624,-0.4205782413482666,-0.012026786804199219,0.08526325225830078
1684109949685260300,12.38226025390625,-0.596647322177887,0.017592430114746094,0.06115579605102539
1684109949695301400,12.39230126953125,-0.7696227431297302,-0.012067794799804688,-0.05666971206665039
1684109949705342700,12.4023427734375,-0.8522956371307373,-0.12941551208496094,-0.11530423164367676
1684109949715384000,12.412384033203125,-0.7921189069747925,-0.1956787109375,-0.21073055267333984
1684109949725425400,12.42242529296875,-0.645085871219635,-0.28273868560791016,-0.2592165470123291
1684109949735466500,12.432466552734375,-0.46060436964035034,-0.3239107131958008,-0.31064367294311523
1684109949745507800,12.4425078125,-0.25467124581336975,-0.3696317672729492,-0.3767991065979004
1684109949755549200,12.452549072265626,-0.07670068740844727,-0.32935333251953125,-0.407076358795166
1684109949765590500,12.462590576171875,0.017966747283935547,-0.3251180648803711,-0.45889854431152344
1684109949775631600,12.472631591796874,-0.0013115406036376953,-0.28996944427490234,-0.5202512741088867
1684109949785673000,12.4826728515625,-0.07618987560272217,-0.3076210021972656,-0.6242656707763672
1684109949795714300,12.49271435546875,-0.21261881291866302,-0.3160076141357422,-0.7486138343811035
1684109949805755400,12.50275537109375,-0.3402019441127777,-0.32726383209228516,-0.9355740547180176
1684109949815796700,12.512796630859375,-0.4727751612663269,-0.32967662811279297,-1.1006410121917725
1684109949825838000,12.522838134765625,-0.5578553676605225,-0.383056640625,-1.2486541271209717
1684109949835879400,12.53287939453125,-0.6248139142990112,-0.3845548629760742,-1.3061575889587402
1684109949845920500,12.54292041015625,-0.6311766505241394,-0.3698263168334961,-1.203324317932129
