time,seconds_elapsed,z,y,x
1684115076083858700,0.035858642578125,0,0,0
1684115076093899300,0.045899169921875,0.1865081787109375,0.007060527801513672,-0.14358526468276978
1684115076103939800,0.05593994140625,0.34397363662719727,0.3984447717666626,-0.6448969841003418
1684115076113980700,0.065980712890625,0.3495168685913086,0.21703243255615234,-0.6820526123046875
1684115076124021200,0.076021240234375,0.5342602729797363,-0.0788501501083374,-0.39073941111564636
1684115076134061800,0.086061767578125,0.710479736328125,0.054375290870666504,-0.30576422810554504
1684115076144102400,0.096102294921875,0.7738375663757324,0.35900938510894775,-0.26647549867630005
1684115076154143000,0.10614306640625,0.7608375549316406,0.5503747463226318,-0.0564936101436615
1684115076164183600,0.11618359375,0.7763996124267578,0.7294086217880249,0.18819954991340637
1684115076174224400,0.126224365234375,0.8340797424316406,0.855007529258728,0.4596872925758362
1684115076184265000,0.136264892578125,0.7680730819702148,0.9084055423736572,0.5922040939331055
1684115076194305500,0.146305419921875,0.6897392272949219,0.9708452820777893,0.7766517996788025
1684115076204346000,0.15634619140625,0.3120079040527344,0.9175822138786316,0.8395009636878967
1684115076214386700,0.16638671875,-0.0468292236328125,1.2294654846191406,0.4469969570636749
1684115076224427300,0.17642724609375,-0.08004379272460938,0.6913050413131714,0.8534437417984009
1684115076234467800,0.1864677734375,-0.04460620880126953,0.16275525093078613,0.9699127078056335
1684115076244508700,0.1965087890625,0.3722562789916992,-0.007068634033203125,1.0841243267059326
1684115076254549200,0.20654931640625,1.5319948196411133,0.2822216749191284,0.4743543863296509
1684115076264589800,0.21658984375,1.7337284088134766,0.3660334348678589,0.9422696232795715
1684115076274630400,0.22663037109375,2.565023422241211,0.636380672454834,1.078641653060913
1684115076284671000,0.2366708984375,2.835606575012207,0.6350342035293579,1.4739658832550049
1684115076294711800,0.2467119140625,3.1872119903564453,0.8196098804473877,1.7006258964538574
1684115076304752400,0.25675244140625,2.8965654373168945,0.5791869163513184,1.789231538772583
1684115076314793000,0.26679296875,2.3450241088867188,0.0573047399520874,1.7035959959030151
1684115076324833500,0.27683349609375,1.6828994750976562,-0.48523998260498047,1.7009515762329102
1684115076334874000,0.2868740234375,1.2191038131713867,-0.5388820171356201,1.395388126373291
1684115076344914700,0.296914794921875,1.0411920547485352,-0.15697526931762695,0.9435784816741943
1684115076354955500,0.30695556640625,1.37530517578125,0.6511366367340088,0.6049973964691162
1684115076364996000,0.31699609375,2.0421457290649414,1.4735907316207886,0.5346550941467285
1684115076375036700,0.32703662109375,2.354145050048828,1.657461166381836,0.9219212532043457
1684115076385077200,0.3370771484375,1.9860029220581055,1.2828950881958008,1.3980557918548584
1684115076395117800,0.347117919921875,1.6050119400024414,0.883354663848877,1.8205881118774414
1684115076405158700,0.35715869140625,1.0632438659667969,0.6603363752365112,2.0429210662841797
1684115076415199200,0.36719921875,0.32541561126708984,0.4591560363769531,2.197779417037964
1684115076425239800,0.37723974609375,-0.3543882369995117,0.422870397567749,2.1292598247528076
1684115076435280400,0.3872802734375,-0.9860043525695801,0.5639526844024658,1.980896234512329
1684115076445321000,0.397321044921875,-1.444854736328125,0.612982988357544,1.8486721515655518
1684115076455361500,0.407361572265625,-1.4297337532043457,0.7095279693603516,1.446631669998169
1684115076465402000,0.417402099609375,-1.55999755859375,0.9503605365753174,1.2650408744812012
1684115076475443000,0.42744287109375,-1.8675050735473633,1.0486036539077759,1.2023673057556152
1684115076485483500,0.4374833984375,-1.7512640953063965,0.8992674350738525,0.5908055305480957
1684115076495524000,0.447524169921875,-1.1312541961669922,1.0873805284500122,0.051583290100097656
1684115076505564700,0.457564697265625,0.27367687225341797,1.0930805206298828,-0.7511661052703857
1684115076515605200,0.467605224609375,1.5593080520629883,0.8058815002441406,-0.8361971378326416
1684115076525646000,0.47764599609375,1.9612188339233398,0.5410189628601074,-0.10735750198364258
1684115076535686700,0.487686767578125,2.1235780715942383,0.5661580562591553,0.053029537200927734
1684115076545727200,0.497727294921875,2.0868053436279297,0.10949277877807617,0.8752303123474121
1684115076555767800,0.507767822265625,1.5361833572387695,-0.512629508972168,2.4802803993225098
1684115076565808400,0.517808349609375,0.9393539428710938,-0.2810173034667969,3.756337881088257
1684115076575849200,0.52784912109375,0.565617561340332,0.7958376407623291,3.3451621532440186
1684115076585889800,0.537889892578125,0.49600887298583984,1.6408603191375732,2.207676649093628
1684115076595930400,0.547930419921875,0.4843454360961914,1.7010681629180908,1.718216896057129
1684115076605971000,0.557970947265625,0.5170526504516602,1.0412311553955078,1.9615962505340576
1684115076616011500,0.568011474609375,0.6796646118164062,0.5269200801849365,2.300107955932617
1684115076626052400,0.57805224609375,0.8716201782226562,0.5003976821899414,2.448882818222046
1684115076636093000,0.588093017578125,0.932194709777832,0.741901159286499,2.342223644256592
1684115076646133500,0.598133544921875,0.908686637878418,0.8855609893798828,2.4315121173858643
1684115076656174000,0.608174072265625,0.7196063995361328,0.8763711452484131,2.6227285861968994
1684115076666214700,0.618214599609375,0.5345945358276367,0.8461825847625732,2.7074265480041504
1684115076676255200,0.628255126953125,0.42911243438720703,0.8646800518035889,2.7284300327301025
1684115076686296000,0.638296142578125,0.31067371368408203,0.784005880355835,2.6628897190093994
1684115076696336600,0.648336669921875,0.17680740356445312,0.6478157043457031,2.5480449199676514
1684115076706377200,0.658377197265625,0.1113739013671875,0.5507826805114746,2.406472682952881
1684115076716417800,0.668417724609375,0.025689125061035156,0.48751068115234375,2.2674672603607178
1684115076726458400,0.678458251953125,-0.10189247131347656,0.4569735527038574,2.0895614624023438
1684115076736499200,0.688499267578125,-0.2127552032470703,0.33994483947753906,1.9696228504180908
1684115076746539800,0.698539794921875,-0.4119710922241211,0.2556455135345459,1.8209786415100098
1684115076756580400,0.708580322265625,-0.710291862487793,0.20792937278747559,1.6088142395019531
1684115076766621000,0.718620849609375,-0.8984012603759766,0.19077587127685547,1.5098521709442139
1684115076776661500,0.72866162109375,-0.9484925270080566,0.23538684844970703,1.4665560722351074
1684115076786702300,0.738702392578125,-0.8038969039916992,0.28705358505249023,1.489738941192627
1684115076796743000,0.748742919921875,-0.4251680374145508,0.3278388977050781,1.4376606941223145
1684115076806783500,0.758783447265625,-0.23841190338134766,0.35961151123046875,1.4922692775726318
1684115076816824000,0.768823974609375,-0.101287841796875,0.260150671005249,1.4658396244049072
1684115076826864600,0.77886474609375,-0.08454704284667969,0.16036272048950195,1.6258203983306885
1684115076836905500,0.788905517578125,-0.40226173400878906,-0.013213157653808594,1.6526272296905518
1684115076846946000,0.798946044921875,-0.5186624526977539,-0.32452869415283203,1.3720471858978271
1684115076856986600,0.808986572265625,-0.6806292533874512,-0.07160043716430664,1.2890231609344482
1684115076867027200,0.819027099609375,-0.8814740180969238,-0.05590248107910156,1.5708305835723877
1684115076877067800,0.82906787109375,-0.820244312286377,-0.426236629486084,1.513258695602417
1684115076887108600,0.839108642578125,-0.4942302703857422,-0.44826269149780273,1.284228801727295
1684115076897149200,0.849149169921875,-0.4824495315551758,-1.1713380813598633,0.6089119911193848
1684115076907189800,0.859189697265625,-0.6398429870605469,-0.6531262397766113,0.9118287563323975
1684115076917230300,0.869230224609375,-0.5219449996948242,0.21490931510925293,1.380568027496338
1684115076927271000,0.87927099609375,-0.4665212631225586,0.3807106018066406,1.3542797565460205
1684115076937311500,0.8893115234375,-0.4065704345703125,-0.07625961303710938,1.2289369106292725
1684115076947352300,0.899352294921875,-0.5179100036621094,-0.44277334213256836,1.125293493270874
1684115076957393000,0.909392822265625,-0.7058801651000977,-0.30798768997192383,1.018808364868164
1684115076967433500,0.91943359375,-0.9583978652954102,-0.1900017261505127,1.0864882469177246
1684115076977474000,0.92947412109375,-1.2288813591003418,-0.23204755783081055,1.094787836074829
1684115076987514600,0.9395146484375,-1.269582748413086,-0.23113203048706055,1.1859800815582275
1684115076997555500,0.949555419921875,-1.3482890129089355,-0.2138826847076416,1.1262555122375488
1684115077007596000,0.959595947265625,-1.2587394714355469,-0.4282195568084717,0.9407370090484619
1684115077017636600,0.96963671875,-1.0002460479736328,-0.668616771697998,0.8871238231658936
1684115077027677200,0.97967724609375,-0.9698905944824219,-0.8354911804199219,0.7163662910461426
1684115077037718000,0.989718017578125,-0.9053025245666504,-0.9121754169464111,0.3935880661010742
1684115077047758600,0.999758544921875,-0.7911252975463867,-0.9582717418670654,0.49022984504699707
1684115077057799200,1.009799072265625,-0.7207760810852051,-1.0063068866729736,0.5633533000946045
1684115077067839700,1.01983984375,-0.4313821792602539,-0.9195520877838135,0.4765291213989258
1684115077077880300,1.02988037109375,-0.23411273956298828,-0.9112651348114014,0.21875715255737305
1684115077087921200,1.039921142578125,-0.1685962677001953,-0.9575881958007812,-0.1555013656616211
1684115077097961700,1.049961669921875,0.003943443298339844,-0.8380415439605713,-0.20357823371887207
1684115077108002300,1.060002197265625,0.08739376068115234,-0.6421349048614502,-0.08922529220581055
1684115077118043000,1.07004296875,-0.19238948822021484,-0.6829643249511719,-0.10983633995056152
1684115077128083500,1.08008349609375,-0.42220115661621094,-0.8313338756561279,-0.06930708885192871
1684115077138124000,1.0901240234375,-0.4314403533935547,-0.9804532527923584,-0.24234247207641602
1684115077148164900,1.100164794921875,-0.1339550018310547,-1.0221459865570068,-0.46256327629089355
1684115077158205400,1.110205322265625,0.047240257263183594,-1.1493771076202393,-0.5362539291381836
1684115077168246000,1.12024609375,0.004077911376953125,-1.2508106231689453,-0.6386570930480957
1684115077178286600,1.13028662109375,-0.21090126037597656,-1.271315574645996,-0.6470108032226562
1684115077188327400,1.140327392578125,-0.5353460311889648,-1.091846227645874,-0.6246747970581055
1684115077198368000,1.150367919921875,-0.6984481811523438,-0.9348306655883789,-0.7861011028289795
1684115077208408600,1.16040869140625,-0.4435310363769531,-0.8046159744262695,-0.4590945243835449
1684115077218449200,1.17044921875,-0.28090953826904297,-0.759490966796875,0.10712432861328125
1684115077228489700,1.18048974609375,-0.6318049430847168,-0.7494814395904541,0.4541616439819336
1684115077238530600,1.190530517578125,-1.01308012008667,-0.6621809005737305,0.5671873092651367
1684115077248571100,1.200571044921875,-1.441340446472168,-0.5546185970306396,0.6314525604248047
1684115077258611700,1.21061181640625,-1.698835849761963,-0.41589975357055664,0.4245266914367676
1684115077268652300,1.22065234375,-1.7379908561706543,-0.31699657440185547,0.014080524444580078
1684115077278693000,1.230693115234375,-1.6973934173583984,-0.31121110916137695,-0.4135880470275879
1684115077288733700,1.240733642578125,-1.5635452270507812,-0.16424322128295898,-0.14366483688354492
1684115077298774300,1.250774169921875,-1.6503591537475586,0.22693729400634766,0.8485207557678223
1684115077308814800,1.26081494140625,-1.780041217803955,0.714563250541687,1.6807618141174316
1684115077318855400,1.27085546875,-2.1672534942626953,0.983993649482727,2.189882755279541
1684115077328896300,1.280896240234375,-2.356022357940674,0.9661933183670044,1.6712145805358887
1684115077338936800,1.290936767578125,-2.049185276031494,0.5375921726226807,0.9880046844482422
1684115077348977400,1.300977294921875,-0.8390388488769531,-0.14225172996520996,0.1494154930114746
1684115077359018000,1.31101806640625,0.8089189529418945,-0.7059342861175537,-0.4089798927307129
1684115077369058800,1.321058837890625,2.37943696975708,-0.7299017906188965,-0.8051776885986328
1684115077379099400,1.331099365234375,3.3870062828063965,0.44462287425994873,-1.6329188346862793
1684115077389140000,1.341139892578125,3.304973602294922,-0.7984533309936523,-0.46683645248413086
1684115077399180500,1.3511806640625,1.7516131401062012,-3.6794607639312744,1.9393644332885742
1684115077409221000,1.36122119140625,-0.08104991912841797,-2.9769558906555176,1.6611518859863281
1684115077419262000,1.371261962890625,-0.15949583053588867,-0.4775649309158325,-0.8625211715698242
1684115077429302500,1.381302490234375,0.03943157196044922,-0.211838960647583,-1.7432904243469238
1684115077439343000,1.391343017578125,-0.5968656539916992,-1.2406504154205322,-0.838775634765625
1684115077449383700,1.4013837890625,-1.0314226150512695,-1.3800524473190308,-0.4249138832092285
1684115077459424300,1.41142431640625,-0.7262420654296875,-1.2259461879730225,-0.5882582664489746
1684115077469465000,1.421465087890625,-0.4218564033508301,-0.9735983610153198,-0.6470808982849121
1684115077479505700,1.431505615234375,-0.5282225608825684,-1.012290596961975,-0.5283470153808594
1684115077489546200,1.441546142578125,-0.5719027519226074,-1.0896433591842651,-0.46830034255981445
1684115077499586800,1.4515869140625,-0.8798890113830566,-1.0478239059448242,-0.26462841033935547
1684115077509627600,1.461627685546875,-0.6919503211975098,-0.6685885190963745,-0.3223991394042969
1684115077519668200,1.471668212890625,-0.939612627029419,-0.5546563863754272,-0.42228221893310547
1684115077529708800,1.481708740234375,-0.6108293533325195,-0.941204309463501,-0.4785137176513672
1684115077539749400,1.491749267578125,-0.5453646183013916,-1.8775728940963745,-0.42209529876708984
1684115077549790000,1.5017900390625,-0.621037483215332,-2.093630313873291,-0.4238624572753906
1684115077559830800,1.511830810546875,-0.05571937561035156,-0.9431540966033936,-0.9951696395874023
1684115077569871400,1.521871337890625,0.5476956367492676,0.4342331886291504,-1.5886445045471191
1684115077579912000,1.531911865234375,0.23881769180297852,-0.14528536796569824,-0.6362361907958984
1684115077589952500,1.541952392578125,0.24912595748901367,-0.7864524126052856,-0.23905563354492188
1684115077599993300,1.551993408203125,-1.4291725158691406,-1.8533436059951782,0.4765644073486328
1684115077610034000,1.562033935546875,-0.030924558639526367,0.3475404977798462,-1.3126220703125
1684115077620074500,1.572074462890625,-0.12289237976074219,0.39768528938293457,-1.1261634826660156
1684115077630115000,1.582114990234375,-0.1152791976928711,0.722848653793335,-1.4450106620788574
1684115077640155600,1.59215576171875,-0.3067665100097656,-0.7329375743865967,-0.7025184631347656
1684115077650196500,1.602196533203125,0.15915966033935547,-1.3474165201187134,-0.3221254348754883
1684115077660237000,1.612237060546875,-0.940894603729248,-2.837655544281006,0.3032350540161133
1684115077670277600,1.622277587890625,1.6999006271362305,0.3455251455307007,-1.429032802581787
1684115077680318200,1.632318115234375,1.0817644596099854,0.3073103427886963,-1.0902214050292969
1684115077690359000,1.642359130859375,1.054584264755249,-0.17701423168182373,-0.1524639129638672
1684115077700399600,1.652399658203125,0.3225727081298828,-0.5146162509918213,0.5022306442260742
1684115077710440200,1.662440185546875,-0.7067136764526367,-0.5426446199417114,0.7827930450439453
1684115077720480800,1.672480712890625,-1.0264830589294434,-0.08614134788513184,0.28761768341064453
1684115077730521600,1.682521484375,-1.0040662288665771,-0.6773862838745117,0.017154693603515625
1684115077740562200,1.692562255859375,-0.49263691902160645,-0.979577898979187,-0.169281005859375
1684115077750602800,1.702602783203125,-0.09639286994934082,-1.0924420356750488,-0.2319326400756836
1684115077760643300,1.712643310546875,0.2665112018585205,-1.1380820274353027,-0.2103900909423828
1684115077770684200,1.72268408203125,1.1225740909576416,-0.9015307426452637,-0.4929618835449219
1684115077780724700,1.732724853515625,0.32625651359558105,-1.2942240238189697,-1.1573972702026367
1684115077790765300,1.742765380859375,-0.22040367126464844,-1.278618574142456,-1.2825918197631836
1684115077800806000,1.752805908203125,-0.17946791648864746,-1.0911002159118652,-0.5079822540283203
1684115077810846500,1.762846435546875,-0.2612799406051636,-0.9126980304718018,-0.36198997497558594
1684115077820887300,1.77288720703125,-0.3222242593765259,-0.9965989589691162,-0.3632497787475586
1684115077830928000,1.782927978515625,-0.5447314977645874,-0.8126766681671143,-0.5382452011108398
1684115077840968400,1.792968505859375,-0.7847579121589661,-0.6796209812164307,-0.6449117660522461
1684115077851009000,1.803009033203125,-0.9318885207176208,-0.3784210681915283,-0.8733901977539062
1684115077861049900,1.8130498046875,-0.7253085374832153,-0.29759693145751953,-0.9613304138183594
1684115077871090400,1.82309033203125,-0.40671396255493164,-0.2750561237335205,-0.9942359924316406
1684115077881131000,1.833131103515625,-0.13648808002471924,-0.49492645263671875,-0.6800165176391602
1684115077891171600,1.843171630859375,0.19032573699951172,-0.6294989585876465,-0.5985116958618164
1684115077901212200,1.853212158203125,0.39354991912841797,-0.8577771186828613,-0.29152774810791016
1684115077911253000,1.8632529296875,0.4216824769973755,-0.7211627960205078,-0.2688722610473633
1684115077921293600,1.87329345703125,0.07677733898162842,-0.5282974243164062,-0.4388399124145508
1684115077931334100,1.883334228515625,-0.17394477128982544,-0.26431918144226074,-0.5371294021606445
1684115077941374700,1.893374755859375,-0.5208919048309326,-0.15468096733093262,-0.732783317565918
1684115077951415600,1.90341552734375,-0.7148217558860779,-0.16046690940856934,-0.9485187530517578
1684115077961456000,1.9134560546875,-0.8202383518218994,-0.19440484046936035,-1.2143564224243164
1684115077971496700,1.92349658203125,-0.9074559211730957,-0.30164623260498047,-1.3933510780334473
1684115077981537300,1.933537353515625,-0.7663882970809937,-0.5702517032623291,-1.1697845458984375
1684115077991578000,1.943578125,-0.10865575075149536,-0.7977628707885742,-0.5798740386962891
1684115078001618700,1.95361865234375,0.2947250008583069,-1.1195616722106934,0.2651100158691406
1684115078011659300,1.9636591796875,0.5568922162055969,-1.2207894325256348,1.1267976760864258
1684115078021699800,1.973699951171875,0.6333515644073486,-0.9948468208312988,1.6758012771606445
1684115078031740700,1.98374072265625,0.4196576476097107,-0.7099146842956543,1.9165449142456055
1684115078041781200,1.99378125,0.011095046997070312,-0.619081974029541,1.9542150497436523
1684115078051821800,2.00382177734375,-0.354850709438324,-0.6070585250854492,1.6467056274414062
1684115078061862400,2.0138623046875,-0.6464250087738037,-0.6702885627746582,1.2563724517822266
1684115078071903200,2.0239033203125,-0.6683069467544556,-1.0599136352539062,0.8345613479614258
1684115078081943800,2.03394384765625,-0.6288405656814575,-1.161482810974121,0.32502269744873047
1684115078091984400,2.043984375,-0.6585018038749695,-1.2510571479797363,-0.27735233306884766
1684115078102025000,2.05402490234375,-0.6371673941612244,-1.4171233177185059,-0.4136075973510742
1684115078112065800,2.064065673828125,-0.4946814179420471,-1.3407831192016602,-0.4126443862915039
1684115078122106400,2.0741064453125,-0.1892704963684082,-1.0340194702148438,-0.3167743682861328
1684115078132147000,2.08414697265625,0.19861125946044922,-0.9983921051025391,0.36576080322265625
1684115078142187500,2.0941875,0.7728606462478638,-0.42673492431640625,0.356414794921875
1684115078152228400,2.104228271484375,0.8250221014022827,-0.5135636329650879,1.058934211730957
1684115078162269000,2.11426904296875,0.831200361251831,-0.4913473129272461,1.0721216201782227
1684115078172309500,2.1243095703125,0.681764543056488,-0.46583127975463867,0.8025970458984375
1684115078182350000,2.13435009765625,0.4134087562561035,-0.5431003570556641,0.3869924545288086
1684115078192391000,2.144390869140625,0.013169050216674805,-0.33011913299560547,-0.1718158721923828
1684115078202431500,2.154431396484375,-0.27422863245010376,-0.27874279022216797,-0.5849895477294922
1684115078212472000,2.16447216796875,-0.35119572281837463,-0.1753840446472168,-0.7700376510620117
1684115078222512600,2.1745126953125,-0.2773473262786865,-0.029003620147705078,-0.8660163879394531
1684115078232553500,2.184553466796875,0.8563582301139832,0.10670185089111328,-0.8570184707641602
1684115078242594000,2.194593994140625,2.263822078704834,-1.1981525421142578,-1.3168034553527832
1684115078252634600,2.204634521484375,1.757962703704834,-1.3134102821350098,-2.362213611602783
1684115078262675200,2.21467529296875,1.1257951259613037,-2.4412145614624023,-0.24461650848388672
1684115078272716000,2.224716064453125,0.9450823068618774,-1.978769302368164,1.0134296417236328
1684115078282756600,2.234756591796875,1.2774758338928223,-0.2784085273742676,0.8590717315673828
1684115078292797200,2.244797119140625,1.2352718114852905,0.9342741966247559,-0.1851029396057129
1684115078302837800,2.254837646484375,0.3904067575931549,0.9090352058410645,-0.8058366775512695
1684115078312878600,2.264878662109375,-0.7560077905654907,0.14245986938476562,-0.609311580657959
1684115078322919200,2.274919189453125,-1.2131904363632202,-0.40154170989990234,-0.16029071807861328
1684115078332959700,2.284959716796875,-1.0570814609527588,-0.47179079055786133,-0.05126523971557617
1684115078343000300,2.295000244140625,-0.5203654170036316,-0.21761274337768555,-0.2821788787841797
1684115078353041200,2.305041259765625,0.005715608596801758,0.11014270782470703,-0.4785346984863281
1684115078363081700,2.315081787109375,0.29232633113861084,-0.044413089752197266,-0.22024869918823242
1684115078373122300,2.325122314453125,0.5048046708106995,-0.2928810119628906,0.27679920196533203
1684115078383163000,2.335162841796875,0.5084434747695923,-0.3323650360107422,0.7220702171325684
1684115078393203700,2.34520361328125,0.36176663637161255,-0.33428049087524414,1.1563949584960938
1684115078403244300,2.355244384765625,-0.06490224599838257,-0.24008560180664062,1.3560233116149902
1684115078413284900,2.365284912109375,-0.6750884652137756,0.209747314453125,0.7834405899047852
1684115078423325400,2.375325439453125,-1.102884292602539,-0.17317819595336914,0.17904090881347656
1684115078433366300,2.3853662109375,-0.43194687366485596,-0.3003959655761719,-0.08931398391723633
1684115078443406800,2.39540673828125,0.33979618549346924,-0.41933298110961914,-0.295198917388916
1684115078453447400,2.405447509765625,0.594653844833374,-0.9608383178710938,-0.04306364059448242
1684115078463488000,2.415488037109375,0.14836186170578003,-1.1506977081298828,-0.16198062896728516
1684115078473528800,2.42552880859375,-0.6494789123535156,-0.9187870025634766,-0.45930910110473633
1684115078483569400,2.4355693359375,-1.0880190134048462,-0.716921329498291,-0.21842050552368164
1684115078493610000,2.44560986328125,-0.37152740359306335,0.6527299880981445,-0.9060530662536621
1684115078503650600,2.455650634765625,-0.6480795741081238,2.178534984588623,-1.4892902374267578
1684115078513691400,2.46569140625,-1.5351853370666504,0.8851432800292969,-0.7621736526489258
1684115078523732000,2.47573193359375,-1.9011831283569336,0.6025667190551758,-0.3828282356262207
1684115078533772500,2.4857724609375,-1.250744342803955,1.8088808059692383,0.2214646339416504
1684115078543813400,2.4958134765625,-0.5938601493835449,2.222686290740967,-0.2983579635620117
1684115078553854000,2.50585400390625,-0.043673038482666016,2.041473388671875,0.40717458724975586
1684115078563894500,2.51589453125,0.5648307204246521,1.3706798553466797,1.0910921096801758
1684115078573935000,2.52593505859375,1.1225193738937378,0.6478180885314941,1.2032036781311035
1684115078583976000,2.535975830078125,1.6754562854766846,-0.298738956451416,0.9997963905334473
1684115078594016500,2.5460166015625,2.0419704914093018,-1.0910277366638184,1.5274109840393066
1684115078604057000,2.55605712890625,1.9570034742355347,-2.0803890228271484,1.6921277046203613
1684115078614097700,2.56609765625,1.8644579648971558,-3.4094395637512207,1.0512347221374512
1684115078624138500,2.576138427734375,1.8695296049118042,-3.823211193084717,0.12346744537353516
1684115078634179000,2.586178955078125,2.06726336479187,-2.6345677375793457,-0.8959541320800781
1684115078644219600,2.5962197265625,2.0175459384918213,-1.3005456924438477,-1.658635139465332
1684115078654260500,2.606260498046875,1.3162695169448853,-0.6026058197021484,-1.8223705291748047
1684115078664301000,2.616301025390625,0.6255930662155151,-0.5477185249328613,-1.730875015258789
1684115078674341600,2.626341552734375,0.11015987396240234,-0.6106500625610352,-1.4676017761230469
1684115078684382200,2.63638232421875,-0.11995673179626465,-0.7442984580993652,-1.3239192962646484
1684115078694422800,2.6464228515625,-0.06457090377807617,-0.6444287300109863,-1.1334567070007324
1684115078704463600,2.656463623046875,-0.027839183807373047,-0.6874403953552246,-0.9500536918640137
1684115078714504200,2.666504150390625,0.4234126806259155,1.056788444519043,-1.0725460052490234
1684115078724544800,2.676544677734375,0.4957619905471802,0.1910080909729004,-1.1425132751464844
1684115078734585300,2.68658544921875,0.3358466625213623,-0.6914920806884766,-1.3106675148010254
1684115078744626200,2.696626220703125,0.1277916431427002,-1.3442459106445312,-1.1975350379943848
1684115078754666800,2.706666748046875,-0.2540097236633301,-1.4041366577148438,-0.8471531867980957
1684115078764707300,2.716707275390625,0.05120420455932617,-0.862342357635498,-0.5170445442199707
1684115078774748200,2.726748046875,0.9404622316360474,-0.7103137969970703,-0.039823055267333984
1684115078784788700,2.736788818359375,1.943336009979248,-0.6061496734619141,0.5974469184875488
1684115078794829300,2.746829345703125,2.616960048675537,-1.1564130783081055,0.8324432373046875
1684115078804870000,2.756869873046875,2.736786365509033,-1.3266491889953613,0.4493746757507324
1684115078814910700,2.76691064453125,2.5383286476135254,-0.9358096122741699,0.0566248893737793
1684115078824951300,2.776951416015625,2.19288969039917,-0.756309986114502,-0.5913524627685547
1684115078834991900,2.786991943359375,1.804819941520691,-1.09434175491333,-0.8598895072937012
1684115078845032700,2.79703271484375,1.424442172050476,-1.048119068145752,-0.9856505393981934
1684115078855073300,2.8070732421875,0.38954806327819824,-0.4425191879272461,-0.5852947235107422
1684115078865113900,2.81711376953125,-0.757521390914917,0.23251581192016602,-0.13322019577026367
1684115078875154400,2.827154541015625,-1.0468778610229492,-0.1503443717956543,0.5151963233947754
1684115078885195300,2.8371953125,-1.1074416637420654,-0.33518171310424805,1.0336065292358398
1684115078895235800,2.84723583984375,-1.3359732627868652,-0.13849830627441406,0.608914852142334
1684115078905276400,2.8572763671875,-1.23799467086792,-0.4306302070617676,0.05495786666870117
1684115078915317000,2.86731689453125,-1.1456540822982788,-0.5732846260070801,-0.5263714790344238
1684115078925357800,2.87735791015625,-1.0818606615066528,-1.168931484222412,-0.47453880310058594
1684115078935398400,2.8873984375,-0.8674536347389221,-0.9041581153869629,-0.19745826721191406
1684115078945439000,2.89743896484375,-0.6226619482040405,-0.3721628189086914,-0.08675432205200195
1684115078955479600,2.9074794921875,-0.5753445029258728,0.15688467025756836,-0.20351409912109375
1684115078965520400,2.917520263671875,-0.4232866168022156,0.8717050552368164,-0.490936279296875
1684115078975561000,2.92756103515625,-0.4273723363876343,1.1935391426086426,-0.790194034576416
1684115078985601500,2.9376015625,-0.5208776593208313,2.634598731994629,-1.4169511795043945
1684115078995642400,2.947642333984375,-0.7150854468345642,1.8224663734436035,-1.800584316253662
1684115079005683000,2.957682861328125,-0.07330048829317093,1.16786527633667,-1.8050990104675293
1684115079015723500,2.9677236328125,0.3724854290485382,0.4241476058959961,-1.7659449577331543
1684115079025764000,2.97776416015625,0.530728280544281,-0.4513735771179199,-1.4925293922424316
1684115079035805000,2.987804931640625,0.49739834666252136,-0.9943504333496094,-1.3820862770080566
1684115079045845500,2.997845458984375,0.5009409785270691,-1.4157915115356445,-1.1536779403686523
1684115079055886000,3.007885986328125,0.6862558722496033,-1.9249563217163086,-0.41382598876953125
1684115079065927000,3.017927001953125,0.9400342106819153,-2.045079231262207,0.6118402481079102
1684115079075967500,3.027967529296875,1.2443283796310425,-1.481734275817871,1.5560321807861328
1684115079086008000,3.038008056640625,1.1880382299423218,-0.6691360473632812,2.2192492485046387
1684115079096048600,3.048048583984375,0.7725098133087158,0.1486968994140625,2.2105836868286133
1684115079106089500,3.05808935546875,0.10967749357223511,0.5619392395019531,1.4916119575500488
1684115079116130000,3.068130126953125,-0.5204759240150452,0.5418567657470703,0.5893912315368652
1684115079126170600,3.078170654296875,-0.8616341948509216,0.6260366439819336,-0.29038238525390625
1684115079136211500,3.08821142578125,-1.064619779586792,0.6291341781616211,-0.8521466255187988
1684115079146252000,3.098251953125,-1.023472547531128,0.8615627288818359,-0.6072320938110352
1684115079156292600,3.108292724609375,-0.8783324956893921,0.18752765655517578,-0.5232172012329102
1684115079166333200,3.118333251953125,-0.4250016510486603,0.06903553009033203,-0.3853888511657715
1684115079176374000,3.1283740234375,0.01777040958404541,0.18210697174072266,-0.3366212844848633
1684115079186414600,3.13841455078125,0.07826092839241028,0.31992435455322266,-0.4111776351928711
1684115079196455200,3.148455078125,-0.08819326758384705,0.07965278625488281,-0.3900313377380371
1684115079206496000,3.15849609375,-0.2042025923728943,-0.30495357513427734,-0.5193979740142822
1684115079216536600,3.16853662109375,-0.15715330839157104,-0.18090438842773438,-0.7851142883300781
1684115079226577200,3.1785771484375,-0.08930540084838867,-0.02483844757080078,-0.9778528213500977
1684115079236617700,3.18861767578125,-0.03564023971557617,0.20363807678222656,-1.2350273132324219
1684115079246658600,3.198658447265625,-0.01724308729171753,0.505859375,-1.5482029914855957
1684115079256699100,3.20869921875,-0.09045737981796265,0.015045166015625,-1.6992943286895752
1684115079266739700,3.21873974609375,0.10417568683624268,-0.5820598602294922,-1.3215415477752686
1684115079276780300,3.2287802734375,0.47703659534454346,-0.5659055709838867,-0.8868627548217773
1684115079286821000,3.238821044921875,0.6973180174827576,-0.10602378845214844,-0.5480649471282959
1684115079296861700,3.24886181640625,0.66215980052948,0.15443801879882812,-0.30814170837402344
1684115079306902300,3.25890234375,0.4467434585094452,0.22049713134765625,-0.13455963134765625
1684115079316943000,3.268943115234375,0.12916845083236694,0.16803264617919922,0.004361152648925781
1684115079326983700,3.278983642578125,-0.029080450534820557,-0.18631267547607422,0.1258692741394043
1684115079337024300,3.289024169921875,-0.08545982837677002,-0.42885494232177734,0.06351900100708008
1684115079347064800,3.29906494140625,-0.352536678314209,-0.6689176559448242,0.07525014877319336
1684115079357105700,3.309105712890625,-0.11941707134246826,-0.6093997955322266,0.5696778297424316
1684115079367146200,3.319146240234375,0.5986896753311157,-0.6228361129760742,1.0248494148254395
1684115079377186800,3.329186767578125,0.7935065031051636,-0.8660135269165039,1.0409586429595947
1684115079387227600,3.3392275390625,0.6900442838668823,-0.9247255325317383,0.9163076877593994
1684115079397268200,3.349268310546875,0.6196984052658081,-0.6515979766845703,0.7683897018432617
1684115079407308800,3.359308837890625,0.62975013256073,-0.6069974899291992,0.47957754135131836
1684115079417349400,3.369349365234375,0.5089375376701355,-0.5077857971191406,0.20220375061035156
1684115079427390200,3.37939013671875,0.2181081771850586,-0.32547473907470703,-0.025300979614257812
1684115079437430800,3.3894306640625,0.03894519805908203,-0.22786617279052734,-0.2991020679473877
1684115079447471400,3.399471435546875,-0.2756229639053345,-0.3356351852416992,-0.7434031963348389
1684115079457512200,3.40951220703125,-0.4857124090194702,-0.3987255096435547,-0.9508676528930664
1684115079467552800,3.419552734375,-0.6061338186264038,-0.4175081253051758,-1.01527738571167
1684115079477593300,3.42959326171875,-0.6141046285629272,-0.2695655822753906,-0.9181492328643799
1684115079487634200,3.43963427734375,-0.4926208257675171,-0.14174461364746094,-0.6893656253814697
1684115079497674800,3.4496748046875,-0.4088391065597534,-0.07703399658203125,-0.4135129451751709
1684115079507715300,3.45971533203125,-0.40469372272491455,-0.032593727111816406,-0.21060729026794434
1684115079517756000,3.469755859375,-0.5180603265762329,-0.2632150650024414,-0.37639522552490234
1684115079527796700,3.479796630859375,-0.6404722929000854,-0.04603290557861328,-0.0355830192565918
1684115079537837300,3.48983740234375,-0.6492583751678467,-0.10944652557373047,0.013852119445800781
1684115079547878000,3.4998779296875,-0.6310616731643677,-0.6344194412231445,0.2473008632659912
1684115079557918500,3.50991845703125,-0.27583324909210205,-1.262125015258789,0.6294000148773193
1684115079567959300,3.519959228515625,0.11852848529815674,-1.4321107864379883,1.1213805675506592
1684115079578000000,3.529999755859375,0.14893770217895508,-1.1546869277954102,1.2742516994476318
1684115079588040400,3.54004052734375,-0.09589755535125732,-0.4556283950805664,1.0728480815887451
1684115079598081300,3.550081298828125,-0.5170212984085083,-0.038855552673339844,0.7613842487335205
1684115079608121900,3.560121826171875,-1.0604941844940186,-0.0038967132568359375,0.08753132820129395
1684115079618162400,3.570162353515625,-1.4674906730651855,-0.11359024047851562,-0.4696369171142578
1684115079628203300,3.580203369140625,-1.5440548658370972,0.25301170349121094,-0.8050994873046875
1684115079638243800,3.590243896484375,-1.4408705234527588,0.2713308334350586,-0.9103236198425293
1684115079648284400,3.600284423828125,-1.1832704544067383,1.0044760704040527,-0.513615608215332
1684115079658325200,3.6103251953125,-0.6941279172897339,0.033489227294921875,-1.0298819541931152
1684115079668365800,3.62036572265625,0.008019208908081055,-0.37673377990722656,-0.8378498554229736
1684115079678406400,3.630406494140625,0.45163941383361816,-0.4375276565551758,-0.5779061317443848
1684115079688447000,3.640447021484375,0.6071367263793945,-0.3343238830566406,-0.5025947093963623
1684115079698487800,3.65048779296875,0.5574909448623657,-0.249908447265625,-0.5837137699127197
1684115079708528400,3.6605283203125,0.42801225185394287,-0.05445671081542969,-0.7609131336212158
1684115079718569000,3.67056884765625,0.353809118270874,-0.05385398864746094,-0.9272713661193848
1684115079728609800,3.68060986328125,0.31765127182006836,-0.11862754821777344,-1.0828874111175537
1684115079738650400,3.690650390625,0.5057786703109741,-0.1022634506225586,-1.087918758392334
1684115079748691000,3.70069091796875,0.6646864414215088,-0.18633270263671875,-0.9616937637329102
1684115079758731800,3.710731689453125,0.7388128042221069,-0.3437929153442383,-0.8544712066650391
1684115079768772400,3.7207724609375,0.721176028251648,-0.5072193145751953,-0.6954054832458496
1684115079778813000,3.73081298828125,0.58719801902771,-0.6532201766967773,-0.5565395355224609
1684115079788853500,3.740853515625,0.4311072826385498,-0.5606184005737305,-0.43526291847229004
1684115079798894300,3.750894287109375,0.2602219581604004,-0.46921730041503906,-0.47169065475463867
1684115079808935000,3.760934814453125,0.12978577613830566,-0.4563627243041992,-0.5010037422180176
1684115079818975500,3.7709755859375,0.12429165840148926,-0.3241243362426758,-0.5306878089904785
1684115079829016300,3.781016357421875,0.25064826011657715,-0.34708118438720703,-0.6769313812255859
1684115079839057000,3.791056884765625,0.36772704124450684,-0.3478069305419922,-0.7810006141662598
1684115079849097500,3.801097412109375,0.4177122116088867,-0.23823070526123047,-0.7936031818389893
1684115079859138000,3.811137939453125,0.45171642303466797,-0.14078807830810547,-0.8170905113220215
1684115079869179000,3.821178955078125,0.5173563957214355,-0.04164695739746094,-0.8813729286193848
1684115079879219500,3.831219482421875,0.585378885269165,0.032867431640625,-1.0345797538757324
1684115079889260000,3.841260009765625,0.6225070953369141,-0.04823589324951172,-1.263103723526001
1684115079899300900,3.85130078125,0.7022078037261963,0.04977226257324219,-1.468601942062378
1684115079909341400,3.861341552734375,0.6157171726226807,0.6375131607055664,-1.2069449424743652
1684115079919382000,3.871382080078125,0.6028509140014648,-0.20073986053466797,-1.789185881614685
1684115079929422800,3.8814228515625,0.4997541904449463,-0.2827329635620117,-1.6350939273834229
1684115079939463400,3.89146337890625,0.33673524856567383,-0.1846780776977539,-1.3181805610656738
1684115079949504000,3.90150390625,0.14754390716552734,-0.16298580169677734,-0.9584803581237793
1684115079959544800,3.911544921875,-0.05467510223388672,-0.2779874801635742,-0.6091368198394775
1684115079969585400,3.92158544921875,-0.23552656173706055,-0.25551795959472656,-0.31376218795776367
1684115079979626000,3.9316259765625,-0.4377603530883789,-0.22475051879882812,-0.22400808334350586
1684115079989666600,3.94166650390625,-0.5809824466705322,-0.38301753997802734,-0.17730975151062012
1684115079999707400,3.951707275390625,-0.7360115051269531,-0.5195522308349609,-0.12291502952575684
1684115080009748000,3.961748046875,-1.035238265991211,-0.2668008804321289,0.30695271492004395
1684115080019788500,3.97178857421875,-1.2916531562805176,-0.47063350677490234,0.4818248748779297
1684115080029829400,3.981829345703125,-1.151012659072876,-1.761488914489746,0.3553483486175537
1684115080039870000,3.991869873046875,-0.9572513103485107,-1.2893972396850586,0.6751670837402344
1684115080049910500,4.00191064453125,-0.8185703754425049,-0.6628208160400391,0.4809999465942383
1684115080059951400,4.011951416015625,-0.7885572910308838,-0.7151784896850586,0.3139197826385498
1684115080069992000,4.021991943359375,-0.7019271850585938,-0.8239336013793945,0.17735576629638672
1684115080080032500,4.032032470703125,-0.5735554695129395,-0.786128044128418,0.08591914176940918
1684115080090073300,4.0420732421875,-0.4485328197479248,-0.700221061706543,-0.05792737007141113
1684115080100114000,4.052114013671875,-0.23053693771362305,-0.5011520385742188,-0.25943565368652344
1684115080110154500,4.062154541015625,-0.10404133796691895,-0.3153085708618164,-0.4159731864929199
1684115080120195000,4.072195068359375,-0.24679327011108398,-0.5270662307739258,-0.6650409698486328
1684115080130236000,4.08223583984375,-0.2687950134277344,-0.47191810607910156,-0.7386620044708252
1684115080140276500,4.0922763671875,-0.10506606101989746,0.15872859954833984,-0.6513078212738037
1684115080150317000,4.102317138671875,0.4475901126861572,1.3345403671264648,-0.6365687847137451
1684115080160358000,4.11235791015625,0.6203947067260742,1.366661548614502,-0.47657012939453125
1684115080170398500,4.1223984375,0.09452462196350098,0.833855152130127,-1.0624403953552246
1684115080180439000,4.13243896484375,0.11708521842956543,0.5057220458984375,-0.6914479732513428
1684115080190480000,4.14247998046875,0.16979074478149414,0.7904767990112305,-0.3246018886566162
1684115080200520400,4.1525205078125,0.13553881645202637,0.8539562225341797,-0.3626124858856201
1684115080210561000,4.16256103515625,0.16023755073547363,0.8754358291625977,-0.40254902839660645
1684115080220601900,4.172601806640625,0.1688549518585205,0.8298406600952148,-0.38616037368774414
1684115080230642400,4.182642333984375,0.16376399993896484,0.4775848388671875,-0.4921441078186035
1684115080240683000,4.19268310546875,0.24240446090698242,0.2609405517578125,-0.4978768825531006
1684115080250723800,4.202723876953125,0.2877979278564453,-0.09959697723388672,-0.6084549427032471
1684115080260764400,4.212764404296875,0.2908378839492798,-0.33596229553222656,-0.6748695373535156
1684115080270805000,4.222804931640625,0.27674078941345215,-0.5316915512084961,-0.7496516704559326
1684115080280845600,4.232845458984375,0.23801350593566895,-0.6169834136962891,-0.76363205909729
1684115080290886400,4.242886474609375,0.19147944450378418,-0.5246543884277344,-0.8076822757720947
1684115080300927000,4.252927001953125,0.15309691429138184,-0.33842945098876953,-0.797842264175415
1684115080310967600,4.262967529296875,0.03706932067871094,-0.25443077087402344,-0.7724111080169678
1684115080321008400,4.27300830078125,-0.025618314743041992,-0.2414846420288086,-0.7319865226745605
1684115080331049000,4.283049072265625,-0.044722795486450195,-0.08227348327636719,-0.8042950630187988
1684115080341089500,4.293089599609375,0.004253387451171875,-0.029499053955078125,-0.7589430809020996
1684115080351130400,4.30313037109375,0.020903825759887695,-0.1388721466064453,-0.5700500011444092
1684115080361171000,4.3131708984375,-0.0824575424194336,-0.3360414505004883,-0.321455717086792
1684115080371211500,4.32321142578125,-0.09530019760131836,0.1408233642578125,-0.22300982475280762
1684115080381252400,4.33325244140625,-0.07065129280090332,0.4308137893676758,0.19092941284179688
1684115080391293000,4.34329296875,0.05837440490722656,0.8971090316772461,0.40967583656311035
1684115080401333500,4.35333349609375,0.03480935096740723,0.835780143737793,0.3239161968231201
1684115080411374300,4.363374267578125,-0.18493032455444336,0.509251594543457,0.21650409698486328
1684115080421415000,4.373414794921875,-0.36216306686401367,0.4940681457519531,0.37325501441955566
1684115080431455500,4.38345556640625,-0.5274803638458252,0.37789344787597656,0.3490426540374756
1684115080441496000,4.39349609375,-0.580061674118042,0.33994197845458984,0.22054243087768555
1684115080451537000,4.403536865234375,-0.5620512962341309,0.2837409973144531,0.15236544609069824
1684115080461577500,4.413577392578125,-0.44645094871520996,0.2489175796508789,0.17740416526794434
1684115080471618000,4.4236181640625,-0.25960755348205566,0.326080322265625,0.07002615928649902
1684115080481659000,4.433658935546875,-0.0732874870300293,0.42780494689941406,-0.13359999656677246
1684115080491699500,4.443699462890625,0.09155893325805664,0.5079803466796875,-0.34078145027160645
1684115080501740000,4.453739990234375,0.239485502243042,0.5491352081298828,-0.5036337375640869
1684115080511780900,4.46378076171875,0.34128546714782715,0.5049381256103516,-0.6619372367858887
1684115080521821400,4.473821533203125,0.4031423330307007,0.43410205841064453,-0.7686221599578857
1684115080531862000,4.483862060546875,0.46289026737213135,0.3540000915527344,-0.7850823402404785
1684115080541902800,4.49390283203125,0.5017579793930054,0.27410221099853516,-0.7218964099884033
1684115080551943400,4.503943359375,0.4454991817474365,0.28937435150146484,-0.6007161140441895
1684115080561984000,4.51398388671875,0.32404518127441406,0.27707576751708984,-0.5038509368896484
1684115080572024800,4.52402490234375,0.21684050559997559,0.24149608612060547,-0.3820197582244873
1684115080582065400,4.5340654296875,0.1186751127243042,0.1752033233642578,-0.3268465995788574
1684115080592106000,4.54410595703125,0.07514417171478271,0.10186958312988281,-0.21674537658691406
1684115080602146800,4.554146728515625,0.010558485984802246,-0.011682510375976562,-0.20123839378356934
1684115080612187400,4.5641875,-0.07304131984710693,-0.20520687103271484,-0.2928481101989746
1684115080622228000,4.57422802734375,-0.17892873287200928,-0.42015552520751953,-0.3890066146850586
1684115080632268800,4.584268798828125,-0.22611701488494873,-0.6056852340698242,-0.3497490882873535
1684115080642309400,4.594309326171875,-0.18497180938720703,-0.7407035827636719,-0.30931925773620605
1684115080652350000,4.604349853515625,-0.0371166467666626,-0.8451194763183594,-0.18175411224365234
1684115080662390800,4.614390869140625,0.46737366914749146,-0.7528162002563477,0.0034952163696289062
1684115080672431400,4.624431396484375,0.38008826971054077,-0.6809206008911133,0.40634727478027344
1684115080682472000,4.634471923828125,-3.0711100101470947,-0.6923360824584961,1.3288841247558594
1684115080692512800,4.6445126953125,-6.555150508880615,-0.5771827697753906,2.2853331565856934
1684115080702553300,4.65455322265625,-5.114870071411133,-0.4228801727294922,1.3972115516662598
1684115080712594000,4.664593994140625,-3.3547112941741943,-0.20426177978515625,0.06608891487121582
1684115080722634800,4.674634765625,-1.6380865573883057,0.04438972473144531,-0.8578019142150879
1684115080732675300,4.68467529296875,-0.22973358631134033,0.2843046188354492,-1.442399263381958
1684115080742716000,4.6947158203125,0.8183344602584839,0.17131519317626953,-1.6779251098632812
1684115080752756500,4.704756591796875,1.412389874458313,-0.05111217498779297,-1.6378889083862305
1684115080762797300,4.71479736328125,1.557822585105896,-0.3480997085571289,-1.280747652053833
1684115080772838000,4.724837890625,1.385699987411499,-0.8866043090820312,-0.6973133087158203
1684115080782878500,4.73487841796875,1.076540231704712,-1.4422855377197266,-0.2674565315246582
1684115080792919300,4.744919189453125,0.8368315100669861,-1.8133735656738281,-0.057650089263916016
1684115080802960000,4.7549599609375,0.7984983921051025,-1.9827356338500977,-0.23604369163513184
1684115080813000400,4.76500048828125,0.7509965300559998,-1.7992353439331055,0.09263801574707031
1684115080823041300,4.775041259765625,0.707335352897644,-1.2398977279663086,0.46111488342285156
1684115080833081900,4.785081787109375,0.7184665203094482,-0.5608892440795898,0.7446858882904053
1684115080843122400,4.795122314453125,0.5916385054588318,0.16888713836669922,0.7723970413208008
1684115080853163300,4.805163330078125,0.25180351734161377,0.7370786666870117,0.6622323989868164
1684115080863203800,4.815203857421875,-0.28793108463287354,1.1427931785583496,0.4986696243286133
1684115080873244400,4.825244384765625,-0.852993369102478,1.2989535331726074,0.4343595504760742
1684115080883285200,4.83528515625,-1.270592212677002,1.2975363731384277,0.43871545791625977
1684115080893325800,4.845325927734375,-1.2644637823104858,1.075294017791748,0.36487722396850586
1684115080903366400,4.855366455078125,-0.7318716049194336,0.8111371994018555,0.08307409286499023
1684115080913407200,4.8654072265625,0.03612208366394043,0.34486961364746094,-0.3341102600097656
1684115080923447800,4.87544775390625,0.8234648108482361,-0.1426525115966797,-0.7928342819213867
1684115080933488400,4.88548828125,1.4716414213180542,-0.5795555114746094,-1.179664134979248
1684115080943529200,4.895529296875,1.8649636507034302,-0.870570182800293,-1.4500572681427002
1684115080953569800,4.90556982421875,2.060774326324463,-1.0114030838012695,-1.5920078754425049
1684115080963610400,4.9156103515625,2.073568344116211,-1.1243696212768555,-1.6507902145385742
1684115080973651200,4.925651123046875,1.998574137687683,-1.1220817565917969,-1.604034423828125
1684115080983691800,4.93569189453125,1.7644481658935547,-1.0301752090454102,-1.4477951526641846
1684115080993732400,4.945732421875,1.367708683013916,-0.8865194320678711,-1.2557854652404785
1684115081003773200,4.955773193359375,0.7606939077377319,-0.6686010360717773,-1.069483757019043
1684115081013813800,4.965813720703125,-0.053066790103912354,-0.3596515655517578,-0.8813400268554688
1684115081023854300,4.975854248046875,-0.9705568552017212,-0.09560394287109375,-0.5750038623809814
1684115081033895200,4.985895263671875,-1.467071294784546,0.06359291076660156,-0.2953987121582031
1684115081043935700,4.995935791015625,-1.441453218460083,0.14642906188964844,-0.19205474853515625
1684115081053976300,5.005976318359375,-0.9281966090202332,0.16289901733398438,-0.18926167488098145
1684115081064017000,5.016016845703125,-0.1373167634010315,0.13306903839111328,-0.2832498550415039
1684115081074057700,5.0260576171875,0.7102696895599365,0.053587913513183594,-0.44599246978759766
1684115081084098300,5.036098388671875,1.3876419067382812,0.002655029296875,-0.6464617252349854
1684115081094139100,5.04613916015625,1.8312811851501465,0.02664661407470703,-0.7637202739715576
1684115081104179700,5.0561796875,2.034104347229004,-0.008423805236816406,-0.7458617687225342
1684115081114220300,5.06622021484375,2.0226964950561523,-0.00044536590576171875,-0.6830129623413086
1684115081124261000,5.07626123046875,1.9200398921966553,0.023481369018554688,-0.6171650886535645
1684115081134301700,5.0863017578125,1.7479814291000366,0.0027828216552734375,-0.44486021995544434
1684115081144342300,5.09634228515625,1.5568668842315674,0.02271556854248047,-0.26589369773864746
1684115081154383000,5.106383056640625,1.3439950942993164,0.1185598373413086,-0.14077043533325195
1684115081164423700,5.116423583984375,1.1166718006134033,0.18474483489990234,0.021003007888793945
1684115081174464300,5.12646435546875,0.85601407289505,0.26413631439208984,0.18580961227416992
1684115081184505000,5.136505126953125,0.5631953477859497,0.356689453125,0.2704482078552246
1684115081194545700,5.146545654296875,0.32654282450675964,0.44341564178466797,0.30454349517822266
1684115081204586200,5.156586181640625,0.09441997110843658,0.4503507614135742,0.35067081451416016
1684115081214627000,5.166626953125,-0.10864824056625366,0.48721885681152344,0.4389636516571045
1684115081224667600,5.176667724609375,-0.3206038177013397,0.4796266555786133,0.47514843940734863
1684115081234708200,5.186708251953125,-0.47916877269744873,0.38930416107177734,0.3986785411834717
1684115081244749000,5.1967490234375,-0.553209125995636,0.20217514038085938,0.26177382469177246
1684115081254789600,5.20678955078125,-0.5429191589355469,-0.10504817962646484,0.1363520622253418
1684115081264830200,5.216830322265625,-0.4379556477069855,-0.37647056579589844,0.01075124740600586
1684115081274871000,5.22687109375,-0.30866071581840515,-0.5400009155273438,-0.13066506385803223
1684115081284911600,5.23691162109375,-0.15576574206352234,-0.5814990997314453,-0.1537764072418213
1684115081294952200,5.2469521484375,0.0098763108253479,-0.5825424194335938,-0.11125516891479492
1684115081304993000,5.256992919921875,0.15428680181503296,-0.5215644836425781,-0.02400660514831543
1684115081315033600,5.26703369140625,0.2639245092868805,-0.42011165618896484,0.11548352241516113
1684115081325074200,5.27707421875,0.36183759570121765,-0.30956172943115234,0.2970418930053711
1684115081335115000,5.287114990234375,0.45030477643013,-0.1376047134399414,0.45318603515625
1684115081345155600,5.297155517578125,0.5896062254905701,-0.0047397613525390625,0.5670804977416992
1684115081355196200,5.307196044921875,0.6893934011459351,0.16326045989990234,0.6151247024536133
1684115081365237000,5.317237060546875,0.7991334199905396,0.34015464782714844,0.5931093692779541
1684115081375277600,5.327277587890625,0.8983913064002991,0.4496335983276367,0.5829005241394043
1684115081385318100,5.337318115234375,0.9860234260559082,0.5420503616333008,0.613344669342041
1684115081395359000,5.34735888671875,1.043936014175415,0.719970703125,0.6387143135070801
1684115081405399600,5.357399658203125,1.0762004852294922,0.830230712890625,0.6612334251403809
1684115081415440100,5.367440185546875,1.0660089254379272,0.7343645095825195,0.6997342109680176
1684115081425481000,5.37748095703125,1.0094261169433594,0.5095558166503906,0.7261073589324951
1684115081435521500,5.387521484375,0.9531300067901611,0.30909061431884766,0.6808781623840332
1684115081445562000,5.39756201171875,0.8673198223114014,0.1875324249267578,0.5800273418426514
1684115081455603000,5.40760302734375,0.7865735292434692,0.12088203430175781,0.3903183937072754
1684115081465643500,5.4176435546875,0.7021155953407288,0.03763580322265625,0.19376873970031738
1684115081475684000,5.42768408203125,0.666683554649353,-0.06197166442871094,0.03620314598083496
1684115081485725000,5.437724853515625,0.612864077091217,-0.13965511322021484,-0.09904241561889648
1684115081495765500,5.447765625,0.5666570067405701,-0.1954822540283203,-0.18574857711791992
1684115081505806000,5.45780615234375,0.5306851863861084,-0.22948360443115234,-0.29088616371154785
1684115081515847000,5.467846923828125,0.4743652939796448,-0.25125598907470703,-0.3810429573059082
1684115081525887500,5.477887451171875,0.42672741413116455,-0.2609090805053711,-0.41115546226501465
1684115081535928000,5.487927978515625,0.39077162742614746,-0.27045154571533203,-0.5057723522186279
1684115081545969000,5.497968994140625,0.3788759112358093,-0.23213863372802734,-0.5287535190582275
1684115081556009500,5.508009521484375,0.3603006601333618,-0.21068763732910156,-0.5570788383483887
1684115081566050000,5.518050048828125,0.3543139696121216,-0.1894378662109375,-0.5504255294799805
1684115081576091000,5.5280908203125,0.39652836322784424,-0.20433330535888672,-0.5378177165985107
1684115081586131500,5.53813134765625,0.41753506660461426,-0.20991802215576172,-0.5288403034210205
1684115081596172000,5.548172119140625,0.44346851110458374,-0.25629615783691406,-0.47548675537109375
1684115081606212900,5.558212890625,0.47831404209136963,-0.31467437744140625,-0.45644378662109375
1684115081616253400,5.56825341796875,0.5189350247383118,-0.33478355407714844,-0.43781614303588867
1684115081626294000,5.5782939453125,0.5477831959724426,-0.33554840087890625,-0.45697689056396484
1684115081636334800,5.5883349609375,0.6027225255966187,-0.26674747467041016,-0.44182372093200684
1684115081646375400,5.59837548828125,0.6497007608413696,-0.1667623519897461,-0.47593045234680176
1684115081656416300,5.608416259765625,0.6909528970718384,-0.062005043029785156,-0.43992137908935547
1684115081666456800,5.618456787109375,0.724168598651886,0.03079986572265625,-0.42710185050964355
1684115081676497400,5.628497314453125,0.6968282461166382,0.04247760772705078,-0.408646821975708
1684115081686538200,5.638538330078125,0.7024881839752197,0.02333354949951172,-0.3345797061920166
1684115081696578800,5.648578857421875,0.6958142518997192,0.009160041809082031,-0.3008558750152588
1684115081706619400,5.658619384765625,0.6867027282714844,0.033303260803222656,-0.26940393447875977
1684115081716660000,5.668659912109375,0.6535893678665161,0.019186973571777344,-0.2284255027770996
1684115081726700800,5.67870068359375,0.6441303491592407,0.017055511474609375,-0.20895719528198242
1684115081736741400,5.688741455078125,0.6080288290977478,-0.013769149780273438,-0.22062206268310547
1684115081746782000,5.698781982421875,0.5751421451568604,-0.027467727661132812,-0.24080610275268555
1684115081756822800,5.70882275390625,0.5471214652061462,-0.029206275939941406,-0.29836320877075195
1684115081766863400,5.71886328125,0.5361072421073914,-0.07094764709472656,-0.3102760314941406
1684115081776904000,5.728904052734375,0.5185383558273315,-0.1072530746459961,-0.3196091651916504
1684115081786944800,5.73894482421875,0.4916645288467407,-0.1075601577758789,-0.3615260124206543
1684115081796985300,5.7489853515625,0.4503558874130249,-0.08187103271484375,-0.39767932891845703
1684115081807026200,5.759026123046875,0.41325366497039795,-0.10835647583007812,-0.41409850120544434
1684115081817066800,5.769066650390625,0.34248650074005127,-0.12966537475585938,-0.42996716499328613
1684115081827107300,5.779107421875,0.2769199013710022,-0.15765762329101562,-0.42421722412109375
1684115081837148200,5.789148193359375,0.22411233186721802,-0.17098045349121094,-0.4042186737060547
1684115081847188700,5.799188720703125,0.14688640832901,-0.1651315689086914,-0.4055359363555908
1684115081857229300,5.809229248046875,0.09274041652679443,-0.1782054901123047,-0.4163229465484619
1684115081867270100,5.819270263671875,0.03304654359817505,-0.16762256622314453,-0.36843252182006836
1684115081877310700,5.829310791015625,-0.006203591823577881,-0.14548301696777344,-0.36391305923461914
1684115081887351300,5.839351318359375,-0.06529495120048523,-0.12140560150146484,-0.34086036682128906
1684115081897392000,5.84939208984375,-0.09668785333633423,-0.10022830963134766,-0.32810282707214355
1684115081907432700,5.8594326171875,-0.12664341926574707,-0.04662513732910156,-0.30910372734069824
1684115081917473300,5.869473388671875,-0.14548522233963013,-0.022369384765625,-0.262866735458374
1684115081927514000,5.87951416015625,-0.16475969552993774,-0.015117645263671875,-0.21087384223937988
1684115081937554700,5.8895546875,-0.14655384421348572,-0.012770652770996094,-0.13665056228637695
1684115081947595300,5.89959521484375,-0.10820525884628296,0.013037681579589844,-0.08985328674316406
1684115081957636000,5.909635986328125,-0.08119308948516846,0.0029439926147460938,-0.03493237495422363
1684115081967676700,5.9196767578125,-0.06341719627380371,-0.030681610107421875,0.03746986389160156
1684115081977717500,5.929717529296875,-0.02897915244102478,-0.06618976593017578,0.05193972587585449
1684115081987758000,5.939758056640625,0.019252538681030273,-0.044760704040527344,0.07286405563354492
1684115081997798700,5.949798583984375,0.033809155225753784,-0.028661727905273438,0.062204837799072266
1684115082007839500,5.959839599609375,0.022113889455795288,0.036454200744628906,-0.04746890068054199
1684115082017880000,5.969880126953125,0.05511194467544556,0.1522216796875,-0.1718437671661377
1684115082027920600,5.979920654296875,0.06631603837013245,0.1553020477294922,-0.16252970695495605
1684115082037961200,5.989961181640625,0.08682572841644287,0.09708118438720703,-0.16990256309509277
1684115082048002000,6.000001953125,0.14702996611595154,-0.021203994750976562,-0.12485051155090332
1684115082058042600,6.010042724609375,0.17956793308258057,-0.038413047790527344,-0.10102462768554688
1684115082068083500,6.02008349609375,0.21218731999397278,-0.09284019470214844,-0.053421974182128906
1684115082078124000,6.0301240234375,0.24187225103378296,-0.056725502014160156,-0.04593324661254883
1684115082088164600,6.04016455078125,0.23810341954231262,-0.013952255249023438,-0.07785344123840332
1684115082098205400,6.050205322265625,0.2297026515007019,0.007175445556640625,-0.09188485145568848
1684115082108246000,6.06024609375,0.1959308385848999,0.056488037109375,-0.10005950927734375
1684115082118286600,6.07028662109375,0.1537901759147644,0.0933675765991211,-0.13341355323791504
1684115082128327400,6.080327392578125,0.11279574036598206,0.05668449401855469,-0.08591461181640625
1684115082138368000,6.090367919921875,0.06632593274116516,-0.0006418228149414062,-0.03217720985412598
1684115082148408600,6.10040869140625,-0.0016053617000579834,-0.06181049346923828,0.015826702117919922
1684115082158449400,6.110449462890625,-0.08092021942138672,-0.11745357513427734,0.048461198806762695
1684115082168490000,6.120489990234375,-0.19478006660938263,-0.1533832550048828,0.019274473190307617
1684115082178530600,6.130530517578125,-0.30253326892852783,-0.1486225128173828,-0.023317813873291016
1684115082188571400,6.1405712890625,-0.38669854402542114,-0.1085662841796875,-0.08628964424133301
1684115082198612000,6.150612060546875,-0.4224306643009186,-0.0856485366821289,-0.1601850986480713
1684115082208652500,6.160652587890625,-0.4180314540863037,-0.053741455078125,-0.22394990921020508
1684115082218693400,6.170693359375,-0.3708118200302124,-0.10238361358642578,-0.25173330307006836
1684115082228734000,6.18073388671875,-0.2756277620792389,-0.13115787506103516,-0.26466965675354004
1684115082238774800,6.19077490234375,-0.14015187323093414,-0.17567920684814453,-0.26035189628601074
1684115082248815400,6.2008154296875,-0.01661340892314911,-0.167327880859375,-0.23395991325378418
1684115082258856000,6.21085595703125,0.061064451932907104,-0.1375904083251953,-0.19991016387939453
1684115082268896800,6.220896728515625,0.11643794178962708,-0.07283496856689453,-0.13040614128112793
1684115082278937300,6.230937255859375,0.11220577359199524,-0.006730079650878906,-0.06640005111694336
1684115082288978000,6.24097802734375,0.061194151639938354,0.03947734832763672,0.017982006072998047
1684115082299018800,6.251018798828125,0.007064104080200195,0.051878929138183594,0.09145855903625488
1684115082309059300,6.261059326171875,-0.08224131166934967,0.09215831756591797,0.15626764297485352
1684115082319100000,6.271099853515625,-0.13224351406097412,0.09152793884277344,0.19823503494262695
1684115082329140700,6.281140625,-0.1638849675655365,0.10245418548583984,0.22001242637634277
1684115082339181300,6.291181396484375,-0.1747877597808838,0.13417911529541016,0.21491146087646484
1684115082349222000,6.301221923828125,-0.16284745931625366,0.11809635162353516,0.1951885223388672
1684115082359262700,6.3112626953125,-0.08677640557289124,0.10213565826416016,0.1330118179321289
1684115082369303300,6.32130322265625,-0.030759528279304504,0.06282615661621094,0.11171460151672363
1684115082379344100,6.33134423828125,0.033581241965293884,0.05480670928955078,0.0673379898071289
1684115082389384700,6.341384765625,0.09631247818470001,0.030472755432128906,0.045011281967163086
1684115082399425300,6.35142529296875,0.13596758246421814,0.03018665313720703,-0.026071786880493164
1684115082409465900,6.3614658203125,0.14081570506095886,0.037072181701660156,-0.04855179786682129
1684115082419506700,6.371506591796875,0.13221199810504913,0.043906211853027344,-0.07982897758483887
1684115082429547300,6.38154736328125,0.1388157159090042,0.027177810668945312,-0.0679023265838623
1684115082439588000,6.391588134765625,0.07101306319236755,0.006134986877441406,-0.055812835693359375
1684115082449628700,6.401628662109375,0.00789041817188263,0.011408805847167969,-0.008371829986572266
1684115082459669200,6.411669189453125,-0.038408368825912476,-0.0021657943725585938,0.0031909942626953125
1684115082469710000,6.4217099609375,-0.12384345382452011,0.008086204528808594,0.005290031433105469
1684115082479750700,6.431750732421875,-0.14826995134353638,0.013413429260253906,0.04958081245422363
1684115082489791200,6.441791259765625,-0.17575296759605408,0.006824493408203125,0.03877735137939453
1684115082499832000,6.45183203125,-0.16844552755355835,0.014394760131835938,0.06085634231567383
1684115082509872600,6.46187255859375,-0.16019615530967712,-0.00177764892578125,0.058782339096069336
1684115082519913200,6.471913330078125,-0.11619183421134949,0.03405284881591797,-0.0069921016693115234
1684115082529954000,6.4819541015625,-0.058566249907016754,0.0222015380859375,-0.026939868927001953
1684115082539994600,6.49199462890625,0.021510466933250427,0.017691612243652344,-0.05104494094848633
1684115082550035500,6.502035400390625,0.0831688940525055,0.015641212463378906,-0.03461623191833496
1684115082560076000,6.512075927734375,0.10274292528629303,0.004256248474121094,-0.05360770225524902
1684115082570116600,6.52211669921875,0.127835214138031,0.023650169372558594,-0.05109095573425293
1684115082580157400,6.532157470703125,0.1210567057132721,0.0026845932006835938,-0.039201974868774414
1684115082590198000,6.542197998046875,0.09263305366039276,0.031475067138671875,-0.022861242294311523
1684115082600238600,6.552238525390625,0.05004143714904785,0.01736164093017578,-0.01631641387939453
1684115082610279400,6.562279541015625,0.017247915267944336,0.026895523071289062,-0.007857084274291992
1684115082620320000,6.572320068359375,-0.024640537798404694,0.026851654052734375,-0.04426240921020508
1684115082630360600,6.582360595703125,-0.03992973268032074,-0.0015039443969726562,-0.016660690307617188
1684115082640401400,6.5924013671875,-0.052283160388469696,-0.010507583618164062,-0.06945490837097168
1684115082650442000,6.60244189453125,-0.04288071393966675,-0.01929759979248047,-0.06235814094543457
1684115082660482800,6.61248291015625,-0.0026190727949142456,0.0074138641357421875,-0.07882571220397949
1684115082670523400,6.6225234375,0.03240962326526642,-0.006279945373535156,-0.0524899959564209
1684115082680564000,6.63256396484375,0.055174052715301514,0.024979591369628906,-0.04308652877807617
1684115082690604800,6.642604736328125,0.06089125573635101,-0.0008106231689453125,-0.02448558807373047
1684115082700645400,6.652645263671875,0.05919821560382843,-0.009715080261230469,-0.03449845314025879
1684115082710686000,6.66268603515625,0.0853363573551178,-0.011479377746582031,-0.018609285354614258
1684115082720726800,6.672726806640625,0.08014774322509766,0.0031995773315429688,-0.017276287078857422
1684115082730767400,6.682767333984375,0.06534254550933838,-0.008329391479492188,0.0050563812255859375
1684115082740808000,6.692807861328125,0.08349160850048065,0.013263702392578125,-0.04837203025817871
1684115082750848800,6.702848876953125,0.05380697548389435,-0.0007343292236328125,-0.09831953048706055
1684115082760889300,6.712889404296875,0.05706551671028137,0.009038925170898438,-0.11916685104370117
1684115082770930000,6.722929931640625,0.07656615972518921,-0.04728984832763672,-0.15854430198669434
1684115082780970800,6.732970703125,0.08194085955619812,-0.10023689270019531,-0.12170720100402832
1684115082791011300,6.74301123046875,0.07336245477199554,-0.1216115951538086,-0.09232759475708008
1684115082801052000,6.753052001953125,0.07889676094055176,-0.09078121185302734,-0.06326985359191895
1684115082811092700,6.7630927734375,0.06020396947860718,-0.07451820373535156,-0.01092529296875
1684115082821133300,6.77313330078125,0.03411191701889038,-0.05381011962890625,0.03590059280395508
1684115082831174100,6.783174072265625,-0.017797455191612244,-0.026475906372070312,0.11939072608947754
1684115082841214700,6.793214599609375,-0.056814178824424744,-0.03268146514892578,0.14935302734375
1684115082851255300,6.80325537109375,-0.08269388973712921,-0.03425407409667969,0.17594361305236816
1684115082861296000,6.813296142578125,-0.08572324365377426,-0.031218528747558594,0.1498851776123047
1684115082871336700,6.823336669921875,-0.09478268027305603,-0.007174491882324219,0.09796643257141113
1684115082881377300,6.833377197265625,-0.05854250490665436,-0.02835369110107422,0.06076502799987793
1684115082891418000,6.843418212890625,-0.027446672320365906,-0.009276390075683594,-0.0020360946655273438
1684115082901458700,6.853458740234375,-0.01807709038257599,0.011736869812011719,-0.0876002311706543
1684115082911499300,6.863499267578125,0.005060061812400818,-0.014742851257324219,-0.12009453773498535
1684115082921540000,6.8735400390625,0.0064709484577178955,-0.036026954650878906,-0.16603875160217285
1684115082931580700,6.88358056640625,0.019782036542892456,-0.04265880584716797,-0.16132640838623047
1684115082941621500,6.89362158203125,0.05213552713394165,-0.044358253479003906,-0.14700055122375488
1684115082951662000,6.903662109375,0.07013650238513947,0.017580032348632812,-0.1163320541381836
1684115082961702700,6.91370263671875,0.11864928901195526,0.017358779907226562,-0.09302711486816406
1684115082971743500,6.923743408203125,0.12142117321491241,0.014801979064941406,-0.11007809638977051
1684115082981784000,6.9337841796875,0.12368744611740112,0.012301445007324219,-0.09146952629089355
1684115082991824600,6.94382470703125,0.14197860658168793,-0.013683319091796875,-0.0754547119140625
1684115083001865500,6.953865478515625,0.1151113510131836,-0.018024444580078125,-0.09023833274841309
1684115083011906000,6.963906005859375,0.13122102618217468,-0.0011186599731445312,-0.06009387969970703
1684115083021947000,6.97394677734375,0.12376995384693146,-0.0033245086669921875,-0.051645517349243164
1684115083031987500,6.983987548828125,0.14472679793834686,-0.0030603408813476562,-0.04312539100646973
1684115083042028000,6.994028076171875,0.1601165235042572,0.01372528076171875,-0.013399600982666016
1684115083052068900,7.00406884765625,0.13434353470802307,0.04201793670654297,-0.007605075836181641
1684115083062109400,7.014109375,0.11545483767986298,0.05808734893798828,0.03585386276245117
1684115083072150000,7.02414990234375,0.09946136176586151,0.05734062194824219,0.04778766632080078
1684115083082190800,7.03419091796875,0.09849658608436584,0.047110557556152344,0.06397652626037598
1684115083092231400,7.0442314453125,0.1002146303653717,0.048743247985839844,0.06788897514343262
1684115083102272000,7.05427197265625,0.13257670402526855,0.014863967895507812,0.11128902435302734
1684115083112312800,7.064312744140625,0.13114961981773376,0.10874748229980469,0.05295205116271973
1684115083122353400,7.074353515625,0.09161052107810974,0.10695648193359375,0.06640934944152832
1684115083132394000,7.08439404296875,0.0947200357913971,0.10744285583496094,0.029949188232421875
1684115083142434800,7.094434814453125,0.11463358998298645,0.08905315399169922,0.03635549545288086
1684115083152475400,7.104475341796875,0.12547257542610168,0.05679512023925781,0.04953145980834961
1684115083162516200,7.11451611328125,0.150806725025177,0.027425765991210938,0.048310041427612305
1684115083172556800,7.124556884765625,0.15948504209518433,0.010354042053222656,0.04718804359436035
1684115083182597400,7.134597412109375,0.17273005843162537,0.019414901733398438,0.03654074668884277
1684115083192638200,7.14463818359375,0.19983989000320435,-0.011707305908203125,0.018982887268066406
1684115083202678800,7.1546787109375,0.23586660623550415,-0.02587127685546875,0.04869794845581055
1684115083212719400,7.16471923828125,0.2474798858165741,-0.03272819519042969,0.05442523956298828
1684115083222760200,7.17476025390625,0.24413469433784485,0.0005674362182617188,0.08370256423950195
1684115083232800800,7.18480078125,0.216642826795578,0.01683807373046875,0.09374761581420898
1684115083242841300,7.19484130859375,0.1680392324924469,0.03521156311035156,0.06369233131408691
1684115083252882200,7.204882080078125,0.103718101978302,0.06501579284667969,0.06466364860534668
1684115083262922800,7.2149228515625,0.06901910901069641,0.05659675598144531,0.05366230010986328
1684115083272963600,7.224963623046875,0.05662941932678223,0.04598045349121094,0.05460953712463379
1684115083283004200,7.235004150390625,0.056878238916397095,0.05202293395996094,0.03194856643676758
1684115083293044700,7.245044677734375,0.0740269124507904,0.02260589599609375,0.023624897003173828
1684115083303085600,7.25508544921875,0.09805023670196533,0.000728607177734375,-0.012854814529418945
1684115083313126100,7.265126220703125,0.10979121923446655,-0.023116111755371094,-0.027467966079711914
1684115083323166700,7.275166748046875,0.09305831789970398,-0.027708053588867188,-0.0017535686492919922
1684115083333207600,7.28520751953125,0.06487500667572021,-0.046341896057128906,-0.06356143951416016
1684115083343248100,7.295248046875,0.04919597506523132,-0.06694316864013672,-0.08413910865783691
1684115083353289000,7.3052890625,0.027173757553100586,-0.05180644989013672,-0.08537006378173828
1684115083363329500,7.31532958984375,0.041289687156677246,-0.05103015899658203,-0.09834718704223633
1684115083373370000,7.3253701171875,0.060413360595703125,-0.05024528503417969,-0.05931401252746582
1684115083383411000,7.335410888671875,0.07936418056488037,-0.040065765380859375,-0.025676488876342773
1684115083393451500,7.345451416015625,0.07408910989761353,-0.041848182678222656,-0.03970813751220703
1684115083403492000,7.3554921875,0.06104061007499695,-0.022382736206054688,-0.027446746826171875
1684115083413533000,7.365532958984375,0.033285677433013916,-0.00800323486328125,-0.027219533920288086
1684115083423573500,7.375573486328125,0.017604589462280273,0.04849052429199219,0.017688751220703125
1684115083433614300,7.3856142578125,0.009678065776824951,0.07811260223388672,0.07819628715515137
1684115083443655000,7.395655029296875,-0.002276211977005005,0.06239604949951172,0.1420426368713379
1684115083453695500,7.405695556640625,-0.01656639575958252,0.04680919647216797,0.15740346908569336
1684115083463736000,7.415736083984375,-0.04079297184944153,0.033748626708984375,0.10879325866699219
1684115083473777000,7.42577685546875,-0.053567469120025635,-0.00739288330078125,0.07035446166992188
1684115083483817500,7.4358173828125,-0.09207314252853394,-0.014860153198242188,0.027936220169067383
1684115083493858300,7.4458583984375,-0.11773382127285004,-0.029262542724609375,-0.011458873748779297
1684115083503899000,7.45589892578125,-0.09725537896156311,-0.029300689697265625,-0.02911376953125
1684115083513939500,7.465939453125,-0.06424054503440857,-0.0222930908203125,-0.023087263107299805
1684115083523980300,7.475980224609375,-0.028704583644866943,-0.03659343719482422,-0.045493364334106445
1684115083534020900,7.486020751953125,-0.005343884229660034,-0.06479740142822266,-0.032270193099975586
1684115083544061700,7.496061767578125,-0.0016102194786071777,-0.08780479431152344,-0.019182205200195312
1684115083554102300,7.506102294921875,-0.03183245658874512,-0.09862422943115234,-0.09559059143066406
1684115083564142800,7.516142822265625,-0.05541005730628967,-0.09037590026855469,-0.12810945510864258
1684115083574183700,7.52618359375,-0.05725565552711487,-0.07520389556884766,-0.13186311721801758
1684115083584224300,7.536224365234375,-0.04626321792602539,-0.04379463195800781,-0.14504098892211914
1684115083594264800,7.546264892578125,-0.055675625801086426,-0.038707733154296875,-0.1507723331451416
1684115083604305700,7.5563056640625,-0.06509989500045776,-0.05252647399902344,-0.11869287490844727
1684115083614346200,7.56634619140625,-0.056167662143707275,-0.05430793762207031,-0.08698725700378418
1684115083624387000,7.576386962890625,-0.059475868940353394,-0.020620346069335938,-0.09075427055358887
1684115083634427600,7.586427734375,-0.06190750002861023,-0.00392913818359375,-0.06146502494812012
1684115083644468200,7.59646826171875,-0.03956681489944458,0.028969764709472656,-0.0445253849029541
1684115083654509000,7.606509033203125,-0.016917288303375244,0.0212554931640625,-0.02333974838256836
1684115083664549600,7.616549560546875,-0.0016879439353942871,0.015964508056640625,0.0091094970703125
1684115083674590200,7.626590087890625,0.029306560754776,-0.010476112365722656,0.02680683135986328
1684115083684631000,7.636631103515625,0.0450463593006134,-0.0011777877807617188,0.05128645896911621
1684115083694671600,7.646671630859375,0.06712692975997925,0.022050857543945312,0.03763079643249512
1684115083704712400,7.65671240234375,0.057698994874954224,0.018998146057128906,0.06427788734436035
1684115083714753000,7.6667529296875,0.05741378664970398,0.04424858093261719,0.05285787582397461
1684115083724793600,7.676793701171875,0.054223477840423584,0.033782958984375,0.05114150047302246
1684115083734834400,7.68683447265625,0.020037680864334106,0.030637741088867188,0.004986763000488281
1684115083744875000,7.696875,0.021381288766860962,0.025236129760742188,0.01390218734741211
1684115083754915600,7.70691552734375,0.0017047524452209473,0.0670461654663086,0.02510213851928711
1684115083764956400,7.716956298828125,0.0016292035579681396,0.058684349060058594,0.047750234603881836
1684115083774997000,7.7269970703125,-0.012605041265487671,0.010354995727539062,0.06508851051330566
1684115083785037800,7.737037841796875,-0.04364022612571716,-0.02073955535888672,0.046744585037231445
1684115083795078400,7.747078369140625,-0.08637121319770813,-0.05129432678222656,0.005259990692138672
1684115083805119000,7.757118896484375,-0.11403872072696686,-0.06953144073486328,-0.016619205474853516
1684115083815159800,7.767159912109375,-0.12822940945625305,-0.037947654724121094,-0.047457218170166016
1684115083825200400,7.777200439453125,-0.06996260583400726,-0.051563262939453125,-0.04481172561645508
1684115083835241000,7.787240966796875,-0.004489719867706299,-0.010779380798339844,-0.0563662052154541
1684115083845281800,7.79728173828125,0.045697927474975586,-0.020013809204101562,-0.05568337440490723
1684115083855322400,7.807322265625,0.10122144222259521,-0.024347305297851562,-0.05718517303466797
1684115083865363000,7.817363037109375,0.11919903755187988,0.011462211608886719,-0.03723001480102539
1684115083875403800,7.82740380859375,0.10769441723823547,0.04900550842285156,0.013015985488891602
1684115083885444400,7.8374443359375,0.07453152537345886,0.03176403045654297,0.04596996307373047
1684115083895485200,7.847485107421875,0.03919750452041626,0.05711555480957031,0.08999252319335938
1684115083905525800,7.85752587890625,0.00428500771522522,0.04430961608886719,0.1095740795135498
1684115083915566300,7.86756640625,-0.03948262333869934,0.03402233123779297,0.1216425895690918
1684115083925607200,7.877607177734375,-0.06808650493621826,0.03800678253173828,0.08868765830993652
1684115083935647700,7.887647705078125,-0.06022903323173523,0.013616561889648438,0.07019472122192383
1684115083945688600,7.8976884765625,-0.06855493783950806,-0.019843101501464844,0.05181550979614258
1684115083955729200,7.907729248046875,-0.05740666389465332,-0.012690544128417969,0.007887125015258789
1684115083965769700,7.917769775390625,-0.048779457807540894,-0.03384113311767578,-0.03512978553771973
1684115083975810600,7.927810546875,-0.0002346634864807129,-0.01685810089111328,-0.06537032127380371
1684115083985851100,7.93785107421875,0.014611363410949707,0.0022802352905273438,-0.0689845085144043
1684115083995891700,7.9478916015625,0.03134012222290039,0.018850326538085938,-0.04399561882019043
1684115084005932500,7.9579326171875,0.04733628034591675,0.013971328735351562,-0.0005137920379638672
1684115084015973000,7.96797314453125,0.03695526719093323,-0.009669303894042969,0.01163339614868164
1684115084026014000,7.978013916015625,0.02414417266845703,0.0377197265625,0.04481387138366699
1684115084036054500,7.988054443359375,0.0069512128829956055,0.046607017517089844,0.0608365535736084
1684115084046095000,7.99809521484375,-0.007398098707199097,0.02468109130859375,0.03639078140258789
1684115084056136000,8.008135986328124,-0.01670214533805847,0.014851570129394531,0.03342556953430176
1684115084066176500,8.018176513671875,-0.02347034215927124,-0.008957862854003906,0.04929542541503906
1684115084076217300,8.02821728515625,-0.01616153120994568,-0.0017461776733398438,0.036715030670166016
1684115084086258000,8.0382578125,-0.01855456829071045,0.03366279602050781,0.03159761428833008
1684115084096298500,8.048298583984375,-0.018408119678497314,0.08013153076171875,0.04271364212036133
1684115084106339300,8.05833935546875,0.008344650268554688,0.019834518432617188,0.05815291404724121
1684115084116380000,8.0683798828125,0.025754451751708984,0.007671356201171875,0.023966550827026367
1684115084126420500,8.07842041015625,0.04496645927429199,0.01692676544189453,0.04930520057678223
1684115084136461300,8.08846142578125,0.07024148106575012,0.03312969207763672,0.03200888633728027
1684115084146502000,8.098501953125,0.09693136811256409,0.03722667694091797,0.031355857849121094
1684115084156542700,8.108542724609375,0.10416576266288757,0.04590797424316406,0.025875329971313477
1684115084166583300,8.118583251953124,0.1062781810760498,0.03558635711669922,-0.007808685302734375
1684115084176623900,8.128623779296875,0.07965612411499023,-0.0028200149536132812,-0.02677607536315918
1684115084186664700,8.138664794921874,0.03655725717544556,-0.04059123992919922,-0.03127765655517578
1684115084196705300,8.148705322265625,-0.0015060007572174072,-0.05415630340576172,-0.0473484992980957
1684115084206745900,8.158745849609375,-0.059892863035202026,-0.03680133819580078,-0.06058096885681152
1684115084216786700,8.16878662109375,-0.07877567410469055,-0.014944076538085938,-0.06638789176940918
1684115084226827300,8.1788271484375,-0.0983957052230835,-0.02164459228515625,-0.02499103546142578
1684115084236868000,8.1888681640625,-0.053013116121292114,-0.03295326232910156,-0.0055980682373046875
1684115084246908700,8.19890869140625,-0.01277780532836914,-0.011098861694335938,-0.019475221633911133
1684115084256949200,8.20894921875,0.028721392154693604,-0.0013227462768554688,-0.023514747619628906
1684115084266990000,8.218989990234375,0.0830334722995758,0.036591529846191406,-0.05554914474487305
1684115084277030700,8.22903076171875,0.11249643564224243,0.038544654846191406,-0.03526163101196289
1684115084287071200,8.2390712890625,0.12225958704948425,0.02397441864013672,0.010587692260742188
1684115084297112000,8.249112060546874,0.09365677833557129,-0.009221076965332031,0.04385995864868164
1684115084307152600,8.259152587890625,0.055577754974365234,0.0146026611328125,0.08124423027038574
1684115084317193500,8.269193359375,0.013329416513442993,0.019165992736816406,0.06143760681152344
1684115084327234000,8.279234130859376,0.0004017949104309082,0.04002571105957031,0.09108233451843262
1684115084337274600,8.289274658203125,-0.011761665344238281,0.04634857177734375,0.0847020149230957
1684115084347315500,8.2993154296875,0.023646622896194458,0.03132820129394531,0.0829782485961914
1684115084357356000,8.30935595703125,0.03722715377807617,0.0235443115234375,0.06931376457214355
1684115084367396900,8.31939697265625,0.06434017419815063,0.006436347961425781,0.03227710723876953
1684115084377437400,8.3294375,0.04811650514602661,-0.01508331298828125,-0.027607202529907227
1684115084387478000,8.33947802734375,0.0178108811378479,-0.0032625198364257812,-0.07463598251342773
1684115084397518800,8.349518798828125,-0.018785566091537476,-0.03866004943847656,-0.09485220909118652
1684115084407559400,8.359559326171874,-0.049664974212646484,-0.05219459533691406,-0.11219072341918945
1684115084417600300,8.369600341796875,-0.058456361293792725,-0.05598258972167969,-0.11723113059997559
1684115084427640800,8.379640869140625,-0.050407975912094116,-0.06671619415283203,-0.11265325546264648
1684115084437681400,8.389681396484375,-0.03267541527748108,-0.07723617553710938,-0.10573816299438477
1684115084447722200,8.39972216796875,-0.01698213815689087,-0.059243202209472656,-0.11054253578186035
1684115084457762800,8.4097626953125,0.017788439989089966,-0.0250701904296875,-0.08470749855041504
1684115084467803400,8.419803466796875,0.057005882263183594,-0.022078514099121094,-0.0734717845916748
1684115084477844200,8.42984423828125,0.08601158857345581,-0.033257484436035156,-0.06004500389099121
1684115084487884800,8.439884765625,0.085836261510849,-0.02069091796875,-0.04910922050476074
1684115084497925600,8.449925537109374,0.09441143274307251,-0.031887054443359375,-0.03126168251037598
1684115084507966200,8.45996630859375,0.07182827591896057,-0.03821754455566406,-0.03493666648864746
1684115084518006800,8.4700068359375,0.044857919216156006,-0.013840675354003906,-0.03384137153625488
1684115084528047600,8.480047607421875,0.032776206731796265,-0.0016775131225585938,0.0024237632751464844
1684115084538088200,8.490088134765625,0.016396254301071167,-0.0038557052612304688,-0.016121625900268555
1684115084548128800,8.500128662109375,-0.0018770694732666016,-0.003658294677734375,0.024439096450805664
1684115084558169600,8.510169677734375,0.01789778470993042,0.02003765106201172,0.01712656021118164
1684115084568210200,8.520210205078126,-0.00035253167152404785,0.022068023681640625,0.009721755981445312
1684115084578251000,8.5302509765625,0.0004433095455169678,0.03344154357910156,0.007051229476928711
1684115084588291600,8.54029150390625,0.017829686403274536,0.0021924972534179688,0.05370020866394043
1684115084598332200,8.550332275390625,-0.0073385536670684814,0.004405975341796875,0.06655740737915039
1684115084608373000,8.560373046875,-0.02292919158935547,0.02545452117919922,0.03459525108337402
1684115084618413600,8.57041357421875,-0.01956486701965332,0.029600143432617188,0.0524287223815918
1684115084628454400,8.580454345703124,-0.001893162727355957,0.03600883483886719,0.05575704574584961
1684115084638495000,8.590494873046875,-0.029008835554122925,0.0140838623046875,0.042593955993652344
1684115084648535600,8.60053564453125,-0.034353107213974,-0.0074710845947265625,-0.0009567737579345703
1684115084658576400,8.610576416015626,-0.02317100763320923,0.0067501068115234375,-0.03408336639404297
1684115084668617000,8.620616943359375,-0.00032007694244384766,0.0067138671875,-0.04520058631896973
1684115084678657800,8.63065771484375,0.0387633740901947,-0.009781837463378906,-0.03490638732910156
1684115084688698400,8.640698486328125,0.04418879747390747,-0.011796951293945312,-0.0057337284088134766
1684115084698739000,8.650739013671876,0.053591251373291016,0.007479667663574219,0.013780355453491211
1684115084708779800,8.66077978515625,0.04551553726196289,0.014684677124023438,0.051935672760009766
1684115084718820400,8.6708203125,0.020692765712738037,0.02879619598388672,0.07997870445251465
1684115084728861000,8.68086083984375,0.005841612815856934,0.026105880737304688,0.10024642944335938
1684115084738901800,8.69090185546875,-0.022529780864715576,0.03748035430908203,0.09161663055419922
1684115084748942300,8.7009423828125,-0.01948121190071106,0.006229400634765625,0.09471368789672852
1684115084758983200,8.710983154296875,-0.040038853883743286,0.01780986785888672,0.07404685020446777
1684115084769023700,8.721023681640625,-0.02248319983482361,0.01736927032470703,0.06298017501831055
1684115084779064300,8.731064208984375,-0.005032569169998169,0.02162933349609375,0.0473322868347168
1684115084789105200,8.741105224609376,0.0049880146980285645,0.009357452392578125,0.022585630416870117
1684115084799145700,8.751145751953125,0.0028485357761383057,0.027866363525390625,0.00996708869934082
1684115084809186600,8.7611865234375,0.012077152729034424,-0.00804901123046875,-0.021153926849365234
1684115084819227100,8.77122705078125,-0.0003000497817993164,-0.012747764587402344,-0.00932168960571289
1684115084829267700,8.781267822265624,-0.0006711184978485107,-0.017412185668945312,-0.0213468074798584
1684115084839308500,8.79130859375,-0.024348199367523193,0.01565265655517578,-0.03087925910949707
1684115084849349000,8.80134912109375,-0.002588897943496704,-0.017760276794433594,-0.016763925552368164
1684115084859390000,8.811389892578125,0.007050067186355591,-0.024740219116210938,-0.014706611633300781
1684115084869430500,8.821430419921874,-0.009486585855484009,-0.008063316345214844,0.006155490875244141
1684115084879471000,8.83147119140625,-0.004670888185501099,-0.010500907897949219,0.012544631958007812
1684115084889512000,8.841511962890625,-0.02595597505569458,0.010615348815917969,-0.00948190689086914
1684115084899552500,8.851552490234376,-0.02802377939224243,0.01016998291015625,-0.03826737403869629
1684115084909593300,8.86159326171875,-0.041563838720321655,-0.0020732879638671875,-0.05962514877319336
1684115084919634000,8.871634033203126,-0.049823492765426636,-0.0259552001953125,-0.0455322265625
1684115084929674500,8.881674560546875,-0.041301995515823364,-0.047031402587890625,-0.09981966018676758
1684115084939715300,8.89171533203125,-0.018514275550842285,-0.051199913024902344,-0.10829710960388184
1684115084949756000,8.901755859375,-0.002822369337081909,-0.05518150329589844,-0.12106037139892578
1684115084959796500,8.91179638671875,0.02701103687286377,-0.04010581970214844,-0.0932011604309082
1684115084969837300,8.92183740234375,0.05402779579162598,-0.022884368896484375,-0.07511019706726074
1684115084979878000,8.9318779296875,0.0708501935005188,-0.0036029815673828125,-0.03376960754394531
1684115084989918700,8.941918701171875,0.0726122260093689,-0.005824089050292969,-0.02835702896118164
1684115084999959300,8.951959228515625,0.04803147912025452,-0.0010204315185546875,-0.009068727493286133
1684115085010000000,8.961999755859376,0.014472275972366333,-0.012798309326171875,-0.006644248962402344
1684115085020040700,8.972040771484375,-0.015964627265930176,-0.04085350036621094,-0.006618022918701172
1684115085030081300,8.982081298828126,-0.012642383575439453,-0.011957168579101562,-0.006658792495727539
1684115085040122000,8.9921220703125,0.0025773048400878906,-0.004749298095703125,0.012068033218383789
1684115085050162700,9.00216259765625,0.01989758014678955,-0.01184844970703125,0.009128332138061523
1684115085060203300,9.012203369140625,0.008615493774414062,0.018815994262695312,0.0038330554962158203
1684115085070244000,9.022244140625,0.011541157960891724,0.037220001220703125,-0.010725975036621094
1684115085080284700,9.03228466796875,0.014222532510757446,0.0034570693969726562,0.01952838897705078
1684115085090325500,9.042325439453125,-0.006788283586502075,-0.015659332275390625,0.0044460296630859375
1684115085100366000,9.052365966796875,-0.03221863508224487,-0.015671730041503906,0.03187108039855957
1684115085110406700,9.06240673828125,-0.0404028594493866,0.007904052734375,0.0071375370025634766
1684115085120447500,9.072447509765626,-0.036421120166778564,0.033379554748535156,0.017949819564819336
1684115085130488000,9.082488037109375,-0.05554591119289398,0.025461196899414062,0.0026159286499023438
1684115085140529000,9.09252880859375,-0.04116344451904297,-0.012945175170898438,-0.026648759841918945
1684115085150569500,9.102569580078125,-0.02466106414794922,-0.05539512634277344,-0.020048141479492188
1684115085160610000,9.112610107421874,-0.0015344619750976562,-0.05227851867675781,-0.09559869766235352
1684115085170651000,9.12265087890625,0.013962149620056152,-0.011422157287597656,-0.0753786563873291
1684115085180691500,9.13269140625,0.017458617687225342,-0.0041446685791015625,-0.05769038200378418
1684115085190732300,9.142732177734375,0.03246137499809265,0.012544631958007812,-0.03526592254638672
1684115085200772900,9.15277294921875,0.03020620346069336,0.07140159606933594,0.01055598258972168
1684115085210813400,9.1628134765625,0.022793859243392944,0.037407875061035156,0.029610157012939453
1684115085220854300,9.172854248046875,0.008367955684661865,0.008619308471679688,0.09054350852966309
1684115085230894800,9.182894775390626,-0.0033501386642456055,-0.017378807067871094,0.0726480484008789
1684115085240935700,9.192935791015625,-0.021996527910232544,-0.0076999664306640625,0.06193852424621582
1684115085250976300,9.202976318359376,-0.021435201168060303,-0.014703750610351562,0.05364537239074707
1684115085261016800,9.213016845703125,-0.039465755224227905,0.023143768310546875,0.010170221328735352
1684115085271057700,9.2230576171875,-0.02398058772087097,0.003826141357421875,-0.004438638687133789
1684115085281098200,9.23309814453125,-0.018103957176208496,-0.00574493408203125,0.002400636672973633
1684115085291139000,9.24313916015625,-0.007598251104354858,-0.02692127227783203,-0.014404058456420898
1684115085301179600,9.2531796875,0.00270882248878479,-0.0336151123046875,-0.061517953872680664
1684115085311220200,9.26322021484375,-0.0014631450176239014,-0.0024261474609375,-0.05341291427612305
1684115085321261000,9.273260986328125,-0.022338062524795532,0.016551971435546875,-0.05462765693664551
1684115085331301600,9.283301513671875,-0.01944717764854431,0.04000091552734375,-0.03676939010620117
1684115085341342500,9.293342529296876,-0.009631693363189697,0.030139923095703125,0.018567323684692383
1684115085351383000,9.303383056640625,-0.01166081428527832,0.01573657989501953,0.04944109916687012
1684115085361423600,9.313423583984376,-0.03012774884700775,0.013363838195800781,0.03512120246887207
1684115085371464400,9.32346435546875,-0.027175769209861755,0.02046680450439453,0.02815985679626465
1684115085381505000,9.333505126953124,-0.03846690058708191,0.027490615844726562,0.030838727951049805
1684115085391545900,9.3435458984375,-0.025832489132881165,0.02258777618408203,0.03100109100341797
1684115085401586400,9.35358642578125,-0.020241379737854004,0.029521942138671875,0.02874588966369629
1684115085411627000,9.363626953125,0.008714139461517334,0.008069038391113281,0.04531288146972656
1684115085421667800,9.373667724609374,0.02062326669692993,-0.020046234130859375,0.04288768768310547
1684115085431708400,9.38370849609375,0.015569210052490234,0.008777618408203125,0.02161884307861328
1684115085441749200,9.393749267578125,0.017286837100982666,0.018320083618164062,0.06673622131347656
1684115085451789800,9.403789794921876,0.016330599784851074,0.05829906463623047,0.054598331451416016
1684115085461830400,9.413830322265625,0.019955486059188843,0.06691265106201172,0.09421801567077637
1684115085471871200,9.423871337890626,0.007148325443267822,0.06354427337646484,0.09767603874206543
1684115085481911800,9.433911865234375,-0.0029301345348358154,0.043669700622558594,0.11497116088867188
1684115085491952600,9.44395263671875,-0.00593903660774231,0.021727561950683594,0.049479007720947266
1684115085501993200,9.4539931640625,-0.023155122995376587,0.023691177368164062,0.0580599308013916
1684115085512033800,9.46403369140625,0.004428774118423462,0.009096145629882812,0.012248754501342773
1684115085522074600,9.47407470703125,-0.015734463930130005,-0.0052585601806640625,0.02371382713317871
1684115085532115200,9.484115234375,-0.037944942712783813,-0.031142234802246094,-0.00031828880310058594
1684115085542156000,9.494156005859375,-0.059772104024887085,-0.028301239013671875,-0.005002021789550781
1684115085552196600,9.504196533203125,-0.045504987239837646,-0.016037940979003906,-0.007149219512939453
1684115085562237200,9.5142373046875,-0.04980717599391937,0.0101776123046875,0.002552509307861328
1684115085572278000,9.524278076171875,-0.04166679084300995,0.01948833465576172,0.007366657257080078
1684115085582318600,9.534318603515626,-0.002814382314682007,0.023921966552734375,0.0261690616607666
1684115085592359400,9.544359375,0.03757813572883606,-0.009412765502929688,0.011643409729003906
1684115085602400000,9.55439990234375,0.06041377782821655,-0.0045528411865234375,0.009085893630981445
1684115085612440800,9.56444091796875,0.04959028959274292,0.000217437744140625,-0.021676301956176758
1684115085622481400,9.5744814453125,0.024634480476379395,0.007256507873535156,-0.040152788162231445
1684115085632522000,9.58452197265625,0.035275399684906006,-0.011700630187988281,-0.03707623481750488
1684115085642562800,9.594562744140624,0.010405004024505615,-0.02323627471923828,-0.05041766166687012
1684115085652603400,9.604603271484375,-0.014037638902664185,-0.010973930358886719,-0.023345470428466797
1684115085662644200,9.614644287109375,-0.016892939805984497,-0.02241230010986328,-0.03662919998168945
1684115085672684800,9.624684814453126,-0.010082811117172241,0.004076957702636719,-0.06364870071411133
1684115085682725400,9.634725341796875,-0.007642596960067749,0.02309417724609375,-0.028958559036254883
1684115085692766200,9.64476611328125,0.009104251861572266,0.008864402770996094,0.005209207534790039
1684115085702806800,9.654806884765625,0.03718981146812439,-0.0027780532836914062,0.017622947692871094
1684115085712847600,9.66484765625,0.05244472622871399,0.006927490234375,0.015661239624023438
1684115085722888200,9.67488818359375,0.017513394355773926,-0.023563385009765625,0.018450260162353516
1684115085732928800,9.6849287109375,0.004158824682235718,-0.0064487457275390625,0.03301215171813965
1684115085742969600,9.694969482421875,-0.015951424837112427,-0.00141143798828125,0.0731651782989502
1684115085753010200,9.70501025390625,-0.03546798229217529,-0.015331268310546875,0.06544184684753418
1684115085763050800,9.71505078125,-0.05646181106567383,0.010947227478027344,0.07178282737731934
1684115085773091600,9.725091552734375,-0.03195077180862427,0.02021312713623047,0.07537388801574707
1684115085783132200,9.735132080078126,-0.002867758274078369,0.0033693313598632812,0.03870820999145508
1684115085793173000,9.745173095703125,0.006812632083892822,0.015036582946777344,0.012022018432617188
1684115085803213600,9.755213623046876,0.030108153820037842,0.021856307983398438,-0.03758358955383301
1684115085813254400,9.76525439453125,0.03855481743812561,0.023828506469726562,-0.04167461395263672
1684115085823295000,9.775294921875,0.0349498987197876,0.006953239440917969,-0.036217451095581055
1684115085833335600,9.78533544921875,0.017203330993652344,-0.016641616821289062,-0.04245424270629883
1684115085843376400,9.79537646484375,0.01625308394432068,-0.030364036560058594,-0.024880409240722656
1684115085853417000,9.8054169921875,-0.0009863972663879395,-0.041457176208496094,-0.028681278228759766
1684115085863457800,9.815457763671875,-0.008389681577682495,-0.031133651733398438,-0.027601242065429688
1684115085873498400,9.825498291015625,-0.0013720691204071045,-0.011533737182617188,-0.040599822998046875
1684115085883539000,9.8355390625,0.005534380674362183,-0.006382942199707031,-0.053372859954833984
1684115085893579800,9.845579833984376,-0.004120826721191406,-0.015456199645996094,-0.04713869094848633
1684115085903620400,9.855620361328125,0.0052092671394348145,-0.03147697448730469,-0.017557621002197266
1684115085913661200,9.8656611328125,0.004959762096405029,-0.04247856140136719,-0.028374195098876953
1684115085923701800,9.87570166015625,0.01200711727142334,-0.013184547424316406,-0.003480672836303711
1684115085933742300,9.885742431640624,0.033286213874816895,0.0038299560546875,0.016219615936279297
1684115085943783200,9.895783203125,0.03079494833946228,0.020540237426757812,0.021399974822998047
1684115085953823700,9.90582373046875,0.04471355676651001,0.0228424072265625,0.02649378776550293
1684115085963864600,9.915864501953125,0.060413628816604614,0.03682708740234375,0.02668905258178711
1684115085973905200,9.9259052734375,0.05656662583351135,0.03404521942138672,0.03854656219482422
1684115085983946000,9.935946044921875,0.03819912672042847,0.03361034393310547,0.024210453033447266
1684115085993986600,9.945986572265625,0.027053236961364746,0.0025768280029296875,0.021897554397583008
1684115086004027100,9.956027099609376,-0.00743529200553894,0.01675128936767578,0.05012059211730957
1684115086014068000,9.96606787109375,0.003596693277359009,-0.004641532897949219,0.0424959659576416
1684115086024108500,9.976108642578126,-0.018179237842559814,0.014349937438964844,0.056171417236328125
1684115086034149400,9.9861494140625,-0.011055082082748413,0.021234512329101562,0.05070900917053223
1684115086044190000,9.99618994140625,0.0009455084800720215,0.004464149475097656,0.031192541122436523
1684115086054230800,10.006230712890625,-0.003718137741088867,0.016221046447753906,0.02140641212463379
1684115086064271400,10.016271240234374,0.005668014287948608,-0.0052032470703125,0.016440153121948242
1684115086074312000,10.02631201171875,0.005375713109970093,-0.0003948211669921875,-0.02380204200744629
1684115086084352800,10.036352783203125,0.014344394207000732,-0.00035572052001953125,0.002608776092529297
1684115086094393300,10.046393310546875,0.02329564094543457,-0.012084007263183594,-0.011443853378295898
1684115086104434200,10.05643408203125,0.050952374935150146,-0.016617774963378906,0.03342390060424805
1684115086114474800,10.066474853515626,0.0424312949180603,0.0001430511474609375,0.014103174209594727
1684115086124515300,10.076515380859375,0.0218982994556427,0.03074169158935547,0.02571868896484375
1684115086134556200,10.08655615234375,-0.010522902011871338,0.02075481414794922,0.03233218193054199
1684115086144596700,10.0965966796875,-0.03513839840888977,0.020353317260742188,0.05530238151550293
1684115086154637300,10.10663720703125,-0.03997993469238281,0.03642749786376953,0.0660402774810791
1684115086164678100,10.11667822265625,-0.034897059202194214,0.00981903076171875,0.08116793632507324
1684115086174718700,10.12671875,0.029163062572479248,0.009456634521484375,0.1287364959716797
1684115086184759600,10.136759521484375,0.035416364669799805,0.058582305908203125,0.06029486656188965
1684115086194800000,10.146800048828124,0.017390012741088867,0.0927276611328125,0.0023713111877441406
1684115086204841000,10.156841064453126,-0.0009083449840545654,0.010916709899902344,-0.028718948364257812
1684115086214881500,10.166881591796875,-0.028376221656799316,-0.036589622497558594,-0.0734562873840332
1684115086224922000,10.176922119140626,-0.033936768770217896,-0.06437301635742188,-0.09131836891174316
1684115086234963000,10.186962890625,-0.029480665922164917,-0.07278156280517578,-0.11813902854919434
1684115086245003500,10.19700341796875,0.013096451759338379,-0.06911563873291016,-0.10646438598632812
1684115086255044400,10.20704443359375,0.048098355531692505,-0.053635597229003906,-0.07354259490966797
1684115086265085000,10.2170849609375,0.05160742998123169,-0.043051719665527344,-0.05272626876831055
1684115086275125500,10.22712548828125,0.023951560258865356,-0.0325927734375,-0.010886907577514648
1684115086285166300,10.237166259765624,0.012969940900802612,0.01062774658203125,-0.0027396678924560547
1684115086295207000,10.24720703125,-0.000052362680435180664,0.03419780731201172,0.030904293060302734
1684115086305247700,10.257247802734375,-0.012344300746917725,0.05724811553955078,0.05654025077819824
1684115086315288300,10.267288330078125,0.013674229383468628,0.013860702514648438,0.04368281364440918
1684115086325329200,10.2773291015625,0.008662164211273193,-0.017118453979492188,0.00020694732666015625
1684115086335369700,10.28736962890625,0.00611644983291626,-0.03581428527832031,-0.02371835708618164
1684115086345410300,10.297410400390625,0.017711400985717773,-0.02117919921875,-0.03296160697937012
1684115086355451100,10.307451171875,-0.010783731937408447,-0.011468887329101562,-0.07024145126342773
1684115086365491700,10.31749169921875,-0.0105208158493042,0.007504463195800781,-0.07392334938049316
1684115086375532500,10.327532470703124,-0.000611424446105957,-0.0021152496337890625,-0.04467630386352539
1684115086385573000,10.337572998046875,-0.00016096234321594238,-0.02095794677734375,-0.04880023002624512
1684115086395614000,10.347614013671874,0.010011047124862671,-0.048933982849121094,-0.012943267822265625
1684115086405654500,10.357654541015625,0.022480398416519165,-0.03871440887451172,-0.02461695671081543
1684115086415695000,10.367695068359374,0.03927776217460632,0.0020322799682617188,-0.049953460693359375
1684115086425736000,10.37773583984375,0.043711960315704346,0.004401206970214844,-0.04432034492492676
1684115086435776500,10.387776611328125,0.05985674262046814,-0.026205062866210938,-0.01988816261291504
1684115086445817300,10.3978173828125,0.04750925302505493,-0.016256332397460938,-0.012279510498046875
1684115086455858000,10.40785791015625,0.05184563994407654,-0.0158843994140625,-0.02832317352294922
1684115086465898800,10.417898681640626,0.04878923296928406,-0.0014171600341796875,-0.006474733352661133
1684115086475939300,10.427939208984375,0.04089519381523132,0.008091926574707031,-0.008535623550415039
1684115086485980000,10.43797998046875,0.028063863515853882,0.010323524475097656,0.0222775936126709
1684115086496020700,10.448020751953125,0.0013495385646820068,-0.0017156600952148438,0.04052019119262695
1684115086506061300,10.458061279296874,0.0012617707252502441,-0.013566017150878906,0.05133509635925293
1684115086516102100,10.46810205078125,-0.038575589656829834,0.0147705078125,0.010071992874145508
1684115086526142700,10.478142822265625,-0.0349636971950531,0.009649276733398438,-0.016491174697875977
1684115086536183600,10.48818359375,-0.014647454023361206,-0.011816024780273438,-0.030735492706298828
1684115086546224000,10.49822412109375,-0.003996491432189941,0.009454727172851562,-0.000010967254638671875
1684115086556264700,10.5082646484375,-0.0007463395595550537,-0.02611064910888672,-0.012108564376831055
1684115086566305500,10.518305419921875,-0.007267266511917114,-0.03748035430908203,-0.002632617950439453
1684115086576346000,10.52834619140625,-0.02074950933456421,-0.027451515197753906,-0.03092026710510254
1684115086586386700,10.53838671875,-0.026651591062545776,0.0036668777465820312,-0.009144067764282227
1684115086596427500,10.548427490234374,0.0010394155979156494,0.02484130859375,0.03338789939880371
1684115086606468000,10.558468017578125,0.009643852710723877,0.05275249481201172,-0.0024261474609375
1684115086616509000,10.568509033203124,0.05326458811759949,0.056611061096191406,0.030521392822265625
1684115086626549500,10.578549560546875,0.06499063968658447,0.010867118835449219,0.03916120529174805
1684115086636590300,10.58859033203125,0.06188851594924927,0.022411346435546875,0.017169713973999023
1684115086646631000,10.598630859375,0.04678332805633545,-0.013333320617675781,0.04497337341308594
1684115086656671500,10.60867138671875,0.04127165675163269,-0.015490531921386719,0.03238964080810547
1684115086666712300,10.61871240234375,0.01226186752319336,0.0035505294799804688,0.045850515365600586
1684115086676753000,10.6287529296875,-0.01852858066558838,0.04342460632324219,-0.0045855045318603516
1684115086686793700,10.638793701171876,-0.03477999567985535,0.004970550537109375,-0.023501157760620117
1684115086696834300,10.648834228515625,-0.03172758221626282,0.016631126403808594,-0.02319502830505371
1684115086706875100,10.658875244140624,-0.04722633957862854,-0.00014209747314453125,-0.06527018547058105
1684115086716915700,10.668915771484375,-0.012687772512435913,-0.007187843322753906,-0.024196863174438477
1684115086726956300,10.678956298828124,0.0026157796382904053,-0.014134407043457031,-0.002703428268432617
1684115086736997000,10.6889970703125,-0.0013299286365509033,0.0025959014892578125,-0.021524667739868164
1684115086747037700,10.69903759765625,-0.010183960199356079,-0.013891220092773438,0.00006341934204101562
1684115086757078500,10.70907861328125,-0.023843467235565186,-0.006522178649902344,-0.02095484733581543
1684115086767119000,10.719119140625,-0.041797488927841187,-0.013326644897460938,-0.01790165901184082
1684115086777160000,10.729159912109376,-0.04488247632980347,-0.008233070373535156,0.013350486755371094
1684115086787200500,10.739200439453125,-0.04745060205459595,-0.012667655944824219,0.01807236671447754
1684115086797241000,10.749240966796876,-0.014377683401107788,0.015935897827148438,0.0062296390533447266
1684115086807282000,10.759281982421875,-0.010391563177108765,0.022867202758789062,0.0322566032409668
1684115086817322500,10.769322509765624,0.019048839807510376,0.03911113739013672,0.03907489776611328
1684115086827363300,10.77936328125,0.017026066780090332,0.04567432403564453,0.0317082405090332
1684115086837404000,10.78940380859375,0.024288535118103027,0.05922222137451172,0.04103994369506836
1684115086847444700,10.79944482421875,0.010306626558303833,0.05376625061035156,0.01975727081298828
1684115086857485300,10.8094853515625,0.015467852354049683,0.04603004455566406,0.024668216705322266
1684115086867526000,10.81952587890625,0.013208836317062378,0.04549980163574219,0.03191637992858887
1684115086877566700,10.829566650390625,0.017778337001800537,0.042598724365234375,0.02958083152770996
1684115086887607300,10.839607177734376,0.040869563817977905,0.018465042114257812,0.06001639366149902
1684115086897648000,10.849648193359375,0.035147011280059814,-0.035988807678222656,0.09200358390808105
1684115086907688700,10.859688720703126,0.010304957628250122,-0.028341293334960938,0.08813881874084473
1684115086917729500,10.8697294921875,-0.026403307914733887,-0.023184776306152344,0.05140089988708496
1684115086927770000,10.87977001953125,-0.076362743973732,-0.03218364715576172,0.020106077194213867
1684115086937810700,10.889810791015625,-0.11049696803092957,-0.0009393692016601562,-0.019971132278442383
1684115086947851500,10.8998515625,-0.08640699088573456,-0.017290115356445312,-0.03355884552001953
1684115086957892000,10.90989208984375,-0.04522240161895752,-0.023908615112304688,-0.03511977195739746
1684115086967933000,10.919932861328125,-0.006513625383377075,-0.03038501739501953,0.00811004638671875
1684115086977973500,10.929973388671876,0.06193423271179199,-0.03207969665527344,0.024652957916259766
1684115086988014300,10.940014404296875,0.10485285520553589,-0.04319000244140625,0.08329248428344727
1684115086998055000,10.950054931640626,0.108165442943573,-0.009441375732421875,0.09382963180541992
1684115087008095500,10.960095458984375,0.0727463960647583,0.047260284423828125,0.09243988990783691
1684115087018136300,10.97013623046875,0.028236448764801025,0.07238578796386719,0.08160519599914551
1684115087028177000,10.980177001953125,0.005985468626022339,0.08996772766113281,0.09901094436645508
1684115087038217700,10.9902177734375,-0.02490532398223877,0.05544757843017578,0.08544087409973145
1684115087048258300,11.00025830078125,-0.04108497500419617,0.040332794189453125,0.07208609580993652
1684115087058299000,11.010298828125,-0.03362494707107544,0.020689964294433594,0.0328822135925293
1684115087068339700,11.020339599609375,-0.04984438419342041,0.006081581115722656,0.027287006378173828
1684115087078380300,11.03038037109375,-0.03249141573905945,0.015261650085449219,0.009994029998779297
1684115087088421000,11.040421142578126,-0.02675756812095642,0.010211944580078125,0.004848003387451172
1684115087098461700,11.050461669921875,-0.018667250871658325,0.012310981750488281,0.0092010498046875
1684115087108502500,11.06050244140625,-0.02024725079536438,0.00260162353515625,-0.03359651565551758
1684115087118543000,11.070543212890625,0.008650273084640503,0.000091552734375,-0.03335714340209961
1684115087128584000,11.080583984375,0.03692623972892761,0.0023517608642578125,-0.021288156509399414
1684115087138624500,11.09062451171875,0.03170880675315857,0.006928443908691406,-0.0588531494140625
1684115087148665000,11.1006650390625,0.03364625573158264,-0.04510974884033203,-0.0582270622253418
1684115087158706000,11.110705810546875,0.004616856575012207,-0.05846881866455078,-0.0689704418182373
1684115087168746500,11.12074658203125,-0.0005479156970977783,-0.015085220336914062,-0.08417868614196777
1684115087178787300,11.130787353515625,-0.03609919548034668,-0.038295745849609375,-0.06606531143188477
1684115087188828000,11.140827880859375,-0.0376187264919281,-0.032858848571777344,-0.02943277359008789
1684115087198868700,11.15086865234375,-0.055113762617111206,-0.015725135803222656,-0.024013757705688477
1684115087208909300,11.160909423828125,-0.02959713339805603,-0.0013189315795898438,-0.000110626220703125
1684115087218950000,11.170949951171876,-0.002084583044052124,-0.027187347412109375,-0.0048940181732177734
1684115087228990700,11.18099072265625,0.015355348587036133,-0.012620925903320312,-0.016694307327270508
1684115087239031300,11.19103125,0.053525835275650024,0.008780479431152344,0.023549556732177734
1684115087249072000,11.201072021484375,0.0649648904800415,0.01804065704345703,0.011314630508422852
1684115087259112700,11.21111279296875,0.06865859031677246,0.055380821228027344,0.04165363311767578
1684115087269153500,11.221153564453125,0.07877138257026672,0.06380462646484375,0.05023694038391113
1684115087279194000,11.231194091796874,0.03889670968055725,0.015489578247070312,0.046678781509399414
1684115087289235000,11.24123486328125,-0.009793370962142944,-0.006167411804199219,0.021886348724365234
1684115087299275500,11.251275634765625,-0.04817292094230652,-0.010956764221191406,-0.007138729095458984
1684115087309316000,11.261316162109376,-0.09032262861728668,-0.02270030975341797,-0.04739737510681152
1684115087319357000,11.27135693359375,-0.08890022337436676,-0.0036287307739257812,-0.028139352798461914
1684115087329397500,11.2813974609375,-0.07279017567634583,-0.006011009216308594,0.007367134094238281
1684115087339438300,11.291438232421875,-0.028481721878051758,-0.022432327270507812,0.016488075256347656
1684115087349479000,11.30147900390625,-0.015550613403320312,-0.012664794921875,0.030219078063964844
1684115087359519700,11.311519775390625,0.020785897970199585,-0.012480735778808594,0.006038188934326172
1684115087369560300,11.321560302734374,0.03761675953865051,0.0065250396728515625,0.059931278228759766
1684115087379601000,11.331600830078125,0.025668412446975708,0.003930091857910156,0.049134016036987305
1684115087389641700,11.341641845703125,0.034473150968551636,0.010761260986328125,0.0031638145446777344
1684115087399682300,11.351682373046875,-0.013961434364318848,0.022172927856445312,-0.020840167999267578
1684115087409723100,11.36172314453125,-0.012541502714157104,0.031011581420898438,-0.009172677993774414
1684115087419763700,11.371763671875,-0.041374385356903076,0.018525123596191406,-0.03772425651550293
1684115087429804500,11.381804443359375,-0.050050199031829834,-0.01490020751953125,-0.049284934997558594
1684115087439845000,11.39184521484375,-0.043935731053352356,-0.061835289001464844,-0.06289792060852051
1684115087449885700,11.4018857421875,-0.026120394468307495,-0.03018665313720703,-0.09011530876159668
1684115087459926500,11.411926513671874,-0.015839189291000366,-0.02485942840576172,-0.09305405616760254
1684115087469967000,11.421967041015625,0.024806112051010132,-0.0030612945556640625,-0.07924556732177734
1684115087480008000,11.432008056640624,0.04361468553543091,-0.00041961669921875,-0.037313222885131836
1684115087490048500,11.442048583984375,0.047857969999313354,-0.004883766174316406,-0.047861576080322266
1684115087500089300,11.45208935546875,0.030436575412750244,-0.03521537780761719,0.01936817169189453
1684115087510130000,11.4621298828125,-0.02246895432472229,-0.03448486328125,0.031244516372680664
1684115087520170500,11.47217041015625,-0.03945362567901611,-0.017370223999023438,0.028598785400390625
1684115087530211300,11.48221142578125,-0.06752987205982208,-0.0005750656127929688,0.05413103103637695
1684115087540252000,11.492251953125,-0.06367000937461853,0.027604103088378906,0.06240415573120117
1684115087550292700,11.502292724609376,-0.037815213203430176,0.008144378662109375,0.020797014236450195
1684115087560333300,11.512333251953125,-0.016618967056274414,-0.011003494262695312,0.0033576488494873047
1684115087570374100,11.5223740234375,0.013619810342788696,-0.018039703369140625,-0.027858495712280273
1684115087580414700,11.532414794921875,0.045318007469177246,0.0009708404541015625,-0.05136680603027344
1684115087590455600,11.54245556640625,0.06888124346733093,0.019739151000976562,-0.07424402236938477
1684115087600496000,11.55249609375,0.07512599229812622,0.007582664489746094,-0.05435037612915039
1684115087610536700,11.56253662109375,0.06688296794891357,0.02393817901611328,-0.0040051937103271484
1684115087620577500,11.57257763671875,0.06321373581886292,0.011765480041503906,-0.018053770065307617
1684115087630618000,11.5826181640625,0.03580722212791443,-0.00017070770263671875,-0.008217096328735352
1684115087640659000,11.592658935546876,-0.002995729446411133,-0.011934280395507812,-0.010377168655395508
1684115087650699500,11.602699462890625,-0.024400681257247925,0.018899917602539062,-0.028934001922607422
1684115087660740400,11.612740234375,-0.05449804663658142,-0.007267951965332031,-0.03070068359375
1684115087670781000,11.622781005859375,-0.03424590826034546,-0.023529052734375,-0.022911787033081055
1684115087680821800,11.63282177734375,-0.037804290652275085,-0.008889198303222656,0.008348226547241211
1684115087690862300,11.6428623046875,-0.0036093294620513916,-0.0015325546264648438,-0.03147578239440918
1684115087700903000,11.65290283203125,0.0018764734268188477,0.017455101013183594,-0.0024204254150390625
1684115087710943700,11.66294384765625,0.04726347327232361,0.017273902893066406,-0.0068569183349609375
1684115087720984300,11.672984375,0.03286314010620117,-0.004090309143066406,0.009987115859985352
1684115087731025200,11.683025146484376,0.034741997718811035,-0.01812458038330078,0.014580249786376953
1684115087741065700,11.693065673828125,-0.001565784215927124,-0.0272064208984375,0.0003361701965332031
1684115087751106600,11.7031064453125,-0.02087894082069397,-0.005450248718261719,-0.04170060157775879
1684115087761147100,11.713147216796875,-0.032422661781311035,0.03951072692871094,-0.014732122421264648
1684115087771188000,11.72318798828125,-0.029049605131149292,0.008378028869628906,0.011713981628417969
1684115087781228500,11.733228515625,-0.004148721694946289,-0.0057468414306640625,0.023589134216308594
1684115087791269000,11.74326904296875,-0.01970687508583069,-0.01958942413330078,0.00478816032409668
1684115087801310000,11.75331005859375,-0.007061511278152466,-0.0354766845703125,0.012425422668457031
1684115087811350500,11.7633505859375,-0.004194855690002441,0.005517005920410156,-0.010346174240112305
1684115087821391400,11.773391357421875,0.008029133081436157,0.04588508605957031,0.03568243980407715
1684115087831432000,11.783431884765625,0.02946782112121582,0.08559703826904297,0.06921529769897461
1684115087841472800,11.79347265625,0.031187206506729126,0.06806755065917969,0.12792515754699707
1684115087851513300,11.803513427734375,0.010979950428009033,0.07198333740234375,0.1385345458984375
1684115087861554200,11.81355419921875,-0.009181797504425049,0.06875991821289062,0.15131807327270508
1684115087871594800,11.8235947265625,-0.014670222997665405,0.060814857482910156,0.13779473304748535
1684115087881635600,11.833635498046876,-0.02894413471221924,0.06233501434326172,0.09598445892333984
1684115087891676200,11.84367626953125,-0.019303947687149048,0.03786945343017578,0.09000229835510254
1684115087901716700,11.853716796875,-0.019380807876586914,0.016142845153808594,0.044049739837646484
1684115087911757600,11.863757568359375,0.010903120040893555,0.025341033935546875,0.03408050537109375
1684115087921798100,11.873798095703124,0.017098188400268555,0.0038003921508789062,0.005502462387084961
1684115087931839000,11.8838388671875,0.03269109129905701,-0.005589485168457031,-0.0013625621795654297
1684115087941879600,11.893879638671875,-0.010830789804458618,-0.000698089599609375,-0.005759239196777344
1684115087951920000,11.903920166015626,0.00517764687538147,-0.02880096435546875,-0.0005459785461425781
1684115087961961000,11.9139609375,-0.0262489914894104,-0.03291606903076172,-0.02607274055480957
1684115087972001500,11.92400146484375,-0.014784097671508789,-0.03929328918457031,-0.008737802505493164
1684115087982042400,11.93404248046875,-0.0432540625333786,-0.05255603790283203,0.0014121532440185547
1684115087992083000,11.9440830078125,-0.02379623055458069,-0.011400222778320312,0.006783485412597656
1684115088002123800,11.954123779296875,-0.018598437309265137,-0.0038900375366210938,-0.009137868881225586
1684115088012164400,11.964164306640624,0.012387782335281372,0.010558128356933594,-0.0036046504974365234
1684115088022205200,11.974205078125,0.012063533067703247,-0.0011730194091796875,0.025283336639404297
1684115088032245800,11.984245849609374,0.009235620498657227,0.006125450134277344,0.023102283477783203
1684115088042286600,11.99428662109375,0.01116904616355896,0.013284683227539062,0.0256197452545166
1684115088052327200,12.0043271484375,0.029536187648773193,0.00382232666015625,0.02097296714782715
1684115088062367700,12.01436767578125,0.01694473624229431,0.013327598571777344,0.037531375885009766
1684115088072408600,12.02440869140625,0.027967125177383423,0.008542060852050781,0.03261852264404297
1684115088082449200,12.03444921875,0.01509144902229309,-0.012673377990722656,0.046556711196899414
1684115088092490000,12.044489990234375,0.023591220378875732,0.03706645965576172,0.04372096061706543
1684115088102530600,12.054530517578126,-0.005932241678237915,0.005883216857910156,0.017273902893066406
1684115088112571400,12.0645712890625,-0.0019972026348114014,0.012885093688964844,0.0548253059387207
1684115088122612000,12.074612060546874,-0.005203694105148315,0.03626823425292969,0.018822669982910156
1684115088132652800,12.08465283203125,-0.012988507747650146,0.016867637634277344,0.03280067443847656
1684115088142693400,12.094693359375,0.0006840825080871582,0.021312713623046875,0.020586729049682617
1684115088152734200,12.104734130859375,0.00016444921493530273,0.004497528076171875,-0.0032033920288085938
1684115088162774800,12.11477490234375,0.006668210029602051,0.0044384002685546875,-0.01718592643737793
1684115088172815400,12.1248154296875,0.015412002801895142,-0.040352821350097656,-0.00033974647521972656
1684115088182856200,12.134856201171875,0.031095415353775024,-0.06554794311523438,0.0044934749603271484
1684115088192896800,12.144896728515626,0.0038698017597198486,-0.0243072509765625,-0.054030418395996094
1684115088202937600,12.1549375,-0.018670499324798584,0.020995140075683594,-0.13497400283813477
1684115088212978200,12.164978271484374,-0.026623457670211792,0.00201416015625,-0.1297307014465332
1684115088223019000,12.17501904296875,-0.045577049255371094,-0.05662822723388672,-0.07271933555603027
1684115088233059600,12.1850595703125,-0.018881618976593018,-0.08131122589111328,-0.05196571350097656
1684115088243100400,12.195100341796875,0.0005075931549072266,-0.07492828369140625,-0.02673625946044922
1684115088253141000,12.20514111328125,0.009831041097640991,-0.04039478302001953,-0.03248238563537598
1684115088263181800,12.215181884765625,0.02800700068473816,0.017129898071289062,-0.04745054244995117
1684115088273222400,12.225222412109375,0.03176313638687134,0.026582717895507812,-0.008098602294921875
1684115088283263000,12.235262939453126,0.01678970456123352,0.00046539306640625,0.025610923767089844
1684115088293303800,12.2453037109375,0.02327263355255127,-0.025289535522460938,0.013834714889526367
1684115088303344400,12.255344482421876,-0.019882619380950928,-0.027129173278808594,-0.030843019485473633
1684115088313385200,12.26538525390625,-0.0363750159740448,-0.038303375244140625,-0.027560949325561523
