time,seconds_elapsed,z,y,x
1684115135495713000,0.032713134765625,0,0,0
1684115135505753900,0.04275390625,0.0027399063110351562,-0.03193962574005127,0.026549339294433594
1684115135515794700,0.052794677734375,0.055878639221191406,-0.010181337594985962,0.20067214965820312
1684115135525835300,0.062835205078125,0.41164302825927734,-0.48621171712875366,-0.36620616912841797
1684115135535876000,0.0728759765625,0.7292146682739258,-0.5629132986068726,-0.4635956287384033
1684115135545917000,0.0829169921875,1.0030241012573242,-0.524541974067688,-0.08246517181396484
1684115135555957500,0.09295751953125,0.9509830474853516,-0.49157679080963135,0.09416484832763672
1684115135565998300,0.102998291015625,0.7658071517944336,-0.312153697013855,0.005767345428466797
1684115135576039200,0.1130390625,0.3159217834472656,-0.28524768352508545,-0.013668537139892578
1684115135586080000,0.123080078125,-0.2855806350708008,-0.41054368019104004,0.04930734634399414
1684115135596120600,0.13312060546875,-0.8837184906005859,-0.6403772830963135,0.09285879135131836
1684115135606161400,0.143161376953125,-1.410998821258545,-0.7402042150497437,0.1452474594116211
1684115135616202200,0.1532021484375,-1.6105976104736328,-0.7763117551803589,0.10045003890991211
1684115135626243000,0.1632431640625,-1.447643756866455,-0.7064844369888306,0.05607748031616211
1684115135636283600,0.17328369140625,-1.3310456275939941,-0.5876473188400269,0.04488086700439453
1684115135646324500,0.183324462890625,-1.0015439987182617,-0.37087202072143555,0.009026527404785156
1684115135656365300,0.193365234375,-0.6126537322998047,-0.3630284070968628,-0.20200729370117188
1684115135666406000,0.203406005859375,-0.1472015380859375,-0.2998347282409668,-0.5017266273498535
1684115135676446700,0.21344677734375,0.10587310791015625,-0.4975309371948242,-0.4632692337036133
1684115135686487600,0.223487548828125,0.014035224914550781,-0.8563135862350464,-0.47615671157836914
1684115135696528400,0.2335283203125,-0.33063793182373047,-1.047655463218689,-0.3101797103881836
1684115135706569000,0.24356884765625,-1.0617265701293945,-1.0600547790527344,-0.21396160125732422
1684115135716609800,0.25360986328125,-1.5344104766845703,-1.1170059442520142,-0.026520252227783203
1684115135726650600,0.263650634765625,-1.7594032287597656,-1.118537425994873,0.19911718368530273
1684115135736691500,0.27369140625,-1.7436318397521973,-1.200657606124878,0.2155323028564453
1684115135746732000,0.28373193359375,-1.3666353225708008,-0.8980307579040527,0.18759632110595703
1684115135756772900,0.29377294921875,-0.7709188461303711,-0.7026162147521973,0.9122343063354492
1684115135766813700,0.303813720703125,0.37021636962890625,-0.8979673385620117,0.644803524017334
1684115135776854300,0.313854248046875,0.37932682037353516,0.11004805564880371,-0.1986546516418457
1684115135786895000,0.32389501953125,0.881655216217041,0.44276487827301025,0.4343538284301758
1684115135796936000,0.33393603515625,0.5997037887573242,0.02792811393737793,0.9313898086547852
1684115135806976800,0.343976806640625,0.2825050354003906,-0.5455541610717773,1.0996208190917969
1684115135817017300,0.354017333984375,0.37548065185546875,-0.7616353034973145,1.1345672607421875
1684115135827058200,0.36405810546875,0.5105462074279785,-0.8598804473876953,1.1737489700317383
1684115135837099000,0.37409912109375,0.4674186706542969,-0.8326456546783447,1.16318941116333
1684115135847139800,0.384139892578125,0.4876708984375,-0.3228495121002197,1.0668187141418457
1684115135857180400,0.394180419921875,-0.19012117385864258,-1.118701696395874,1.7775516510009766
1684115135867221200,0.40422119140625,-0.9946651458740234,-1.2378439903259277,2.2651352882385254
1684115135877262000,0.414261962890625,-1.447718620300293,-0.5855503082275391,1.9948234558105469
1684115135887303000,0.424302978515625,-1.6664700508117676,-0.07447338104248047,1.3554372787475586
1684115135897343500,0.434343505859375,-1.4715375900268555,-0.04263639450073242,0.9555220603942871
1684115135907384300,0.44438427734375,-1.0927519798278809,-0.23580360412597656,0.7735824584960938
1684115135917425200,0.454425048828125,-0.8550896644592285,-0.34627485275268555,0.43202781677246094
1684115135927466000,0.464466064453125,-0.2827739715576172,-0.15575242042541504,0.011318206787109375
1684115135937506600,0.474506591796875,-0.032291412353515625,-1.3656561374664307,0.5663113594055176
1684115135947547400,0.48454736328125,-0.05566740036010742,-1.632375717163086,0.9312601089477539
1684115135957588200,0.494588134765625,0.6382017135620117,-0.6106429100036621,0.21777105331420898
1684115135967628800,0.50462890625,1.037428379058838,-0.9128894805908203,0.4367547035217285
1684115135977669600,0.514669677734375,0.8625030517578125,-1.1365842819213867,0.6237406730651855
1684115135987710500,0.52471044921875,0.9682159423828125,-0.3357992172241211,0.35765552520751953
1684115135997751300,0.534751220703125,0.6871156692504883,-0.6587834358215332,0.8088369369506836
1684115136007791900,0.5447919921875,0.2928924560546875,-0.8208091259002686,0.985295295715332
1684115136017832700,0.554832763671875,0.23610258102416992,-0.3788020610809326,0.7447614669799805
1684115136027873500,0.56487353515625,0.29824209213256836,0.005288600921630859,0.1252574920654297
1684115136037914400,0.574914306640625,0.7158541679382324,0.15112090110778809,-0.2845420837402344
1684115136047955000,0.584954833984375,0.9701895713806152,0.01585674285888672,-0.3984556198120117
1684115136057995800,0.594995849609375,0.282895565032959,-0.12173986434936523,-0.9922385215759277
1684115136068036600,0.60503662109375,0.14810848236083984,0.5132851600646973,-1.743114948272705
1684115136078077400,0.615077392578125,0.21576547622680664,-0.39696788787841797,-0.9975433349609375
1684115136088118000,0.625117919921875,-0.06824827194213867,-0.8196427822113037,-0.1212453842163086
1684115136098158800,0.635158935546875,-0.205780029296875,-0.522235631942749,-0.25552988052368164
1684115136108199700,0.64519970703125,-0.08701467514038086,-0.3285715579986572,-0.9195218086242676
1684115136118240500,0.655240478515625,0.0882868766784668,-0.47871994972229004,-1.2542037963867188
1684115136128281000,0.665281005859375,1.8287301063537598,-0.8851406574249268,-2.4928412437438965
1684115136138322000,0.675322021484375,2.8463592529296875,-0.6042840480804443,-2.441373825073242
1684115136148362800,0.68536279296875,1.7978153228759766,-1.026613712310791,-1.7815561294555664
1684115136158403600,0.695403564453125,0.11840105056762695,-0.8906912803649902,-1.938908576965332
1684115136168444200,0.705444091796875,-0.6003127098083496,-0.1910560131072998,-1.9473562240600586
1684115136178485000,0.715485107421875,-0.16478443145751953,0.08447122573852539,-1.6457128524780273
1684115136188525800,0.72552587890625,0.46813154220581055,-0.25177979469299316,-1.4696736335754395
1684115136198566700,0.735566650390625,0.5374050140380859,-0.48141932487487793,-1.156801700592041
1684115136208607200,0.745607177734375,0.48691463470458984,-0.33907628059387207,-1.0122036933898926
1684115136218648000,0.75564794921875,0.5099425315856934,-0.10916304588317871,-1.0287981033325195
1684115136228689000,0.76568896484375,0.31244897842407227,-0.17676544189453125,-1.0631694793701172
1684115136238729700,0.775729736328125,-5.085981369018555,-0.9429144859313965,-1.4005870819091797
1684115136248770300,0.785770263671875,0.7596559524536133,0.09243762493133545,-1.1558918952941895
1684115136258811100,0.79581103515625,1.4419565200805664,-0.536200761795044,-1.4635605812072754
1684115136268852000,0.80585205078125,1.0055828094482422,-1.0689451694488525,-1.4034833908081055
1684115136278892800,0.815892822265625,0.7901153564453125,-1.6542046070098877,-0.8373012542724609
1684115136288933400,0.825933349609375,0.48102664947509766,-1.4499144554138184,-1.2718796730041504
1684115136298974200,0.83597412109375,0.6697735786437988,-0.5881252288818359,-1.5173406600952148
1684115136309015000,0.84601513671875,0.8988699913024902,-0.7328367233276367,-1.6332216262817383
1684115136319056000,0.856055908203125,1.5657391548156738,-0.8432276248931885,-1.248128890991211
1684115136329096400,0.866096435546875,1.600480079650879,-1.0610229969024658,-0.9935975074768066
1684115136339137300,0.87613720703125,1.0605101585388184,-1.002746820449829,-1.0595550537109375
1684115136349178000,0.88617822265625,0.8879032135009766,-0.6785163879394531,-1.2020940780639648
1684115136359219000,0.896218994140625,0.8117671012878418,-0.5571498870849609,-1.1040053367614746
1684115136369259500,0.906259521484375,0.41420936584472656,-0.47002673149108887,-1.0710058212280273
1684115136379300400,0.91630029296875,0.07381486892700195,-0.3474271297454834,-1.0387587547302246
1684115136389341200,0.926341064453125,-0.1773357391357422,-0.15668225288391113,-0.9895100593566895
1684115136399382000,0.936382080078125,-0.49149227142333984,0.039389848709106445,-0.9616937637329102
1684115136409422600,0.946422607421875,-0.7024016380310059,0.17048466205596924,-0.9248948097229004
1684115136419463400,0.95646337890625,-0.5511951446533203,0.25551891326904297,-0.7866711616516113
1684115136429504300,0.966504150390625,-0.43115854263305664,0.19326162338256836,-0.5329794883728027
1684115136439545000,0.976545166015625,-0.3161473274230957,0.20065617561340332,-0.4225344657897949
1684115136449585700,0.986585693359375,-0.015368938446044922,0.056643009185791016,-0.42822837829589844
1684115136459626500,0.99662646484375,0.35838937759399414,-0.1538715362548828,-0.35257959365844727
1684115136469667300,1.006667236328125,0.5618386268615723,-0.2232370376586914,-0.4397444725036621
1684115136479708200,1.016708251953125,0.6431746482849121,-0.30662989616394043,-0.30352258682250977
1684115136489748700,1.026748779296875,0.546607494354248,-0.4365837574005127,-0.10286521911621094
1684115136499789600,1.03678955078125,0.36734771728515625,-0.5347946882247925,0.027414321899414062
1684115136509830400,1.046830322265625,0.43335771560668945,-0.3989454507827759,0.21051406860351562
1684115136519871200,1.056871337890625,0.6499919891357422,-0.38792121410369873,0.2982797622680664
1684115136529912000,1.066912109375,0.6927080154418945,-0.538938045501709,0.15083885192871094
1684115136539952600,1.07695263671875,0.7503542900085449,-0.6126543283462524,-0.005752086639404297
1684115136549993500,1.086993408203125,0.6497268676757812,-0.7381511926651001,-0.23023414611816406
1684115136560034300,1.097034423828125,0.7648968696594238,-0.7873828411102295,-0.44905614852905273
1684115136570075100,1.1070751953125,0.8400087356567383,-0.8521322011947632,-0.6030831336975098
1684115136580115700,1.11711572265625,0.6146869659423828,-0.900166392326355,-0.8468823432922363
1684115136590156500,1.127156494140625,0.44673824310302734,-0.8279346227645874,-1.0786633491516113
1684115136600197400,1.137197265625,0.019470691680908203,-0.7962583303451538,-1.005415916442871
1684115136610238200,1.14723828125,-0.3018527030944824,-0.619156002998352,-0.9975247383117676
1684115136620278800,1.15727880859375,-0.5020046234130859,-0.5178568363189697,-0.830817699432373
1684115136630319600,1.167319580078125,-0.6138882637023926,-0.42324793338775635,-0.6481213569641113
1684115136640360400,1.1773603515625,-0.6718902587890625,-0.2988576889038086,-0.39731597900390625
1684115136650401300,1.1874013671875,-0.5329709053039551,-0.07944536209106445,-0.24640321731567383
1684115136660441900,1.19744189453125,-0.16886520385742188,0.0895085334777832,0.07644462585449219
1684115136670482700,1.207482666015625,0.2218947410583496,0.3222081661224365,0.31722307205200195
1684115136680523500,1.2175234375,0.30621862411499023,0.4420894384384155,0.24300813674926758
1684115136690564400,1.227564453125,0.18433141708374023,0.2538282871246338,-0.7704453468322754
1684115136700605000,1.23760498046875,0.5779719352722168,-0.297504186630249,-0.8409533500671387
1684115136710645800,1.247645751953125,0.5195422172546387,-0.5749542713165283,-1.3512840270996094
1684115136720686600,1.2576865234375,0.30814599990844727,-0.5559549331665039,-1.0261316299438477
1684115136730727400,1.2677275390625,0.09149646759033203,0.027210712432861328,0.44712114334106445
1684115136740768000,1.27776806640625,-0.6324543952941895,0.493516206741333,0.43868589401245117
1684115136750808800,1.287808837890625,-0.9297652244567871,0.8083540201187134,0.24761056900024414
1684115136760849700,1.297849609375,-0.6832051277160645,0.84419846534729,-0.041296958923339844
1684115136770890500,1.307890380859375,-0.29816722869873047,0.5916543006896973,-0.2100987434387207
1684115136780931300,1.317931396484375,0.11572027206420898,0.18298125267028809,-0.27843666076660156
1684115136790972000,1.327971923828125,0.57366943359375,-0.23172378540039062,-0.09856796264648438
1684115136801012700,1.3380126953125,0.6898794174194336,-0.32396841049194336,-0.12144994735717773
1684115136811053600,1.348053466796875,0.6848430633544922,-0.40094542503356934,-0.03848838806152344
1684115136821094400,1.358094482421875,0.3660616874694824,-0.1826784610748291,-0.04821634292602539
1684115136831135000,1.368135009765625,-0.17890119552612305,-0.036460161209106445,-0.3468017578125
1684115136841175800,1.37817578125,-0.47483158111572266,0.08628964424133301,-0.4989309310913086
1684115136851216600,1.388216552734375,-0.5992412567138672,0.22867918014526367,-0.3721466064453125
1684115136861257500,1.398257568359375,-0.678490161895752,0.41402339935302734,-0.4111042022705078
1684115136871298000,1.408298095703125,-0.6263375282287598,0.4137382507324219,-0.5709495544433594
1684115136881339000,1.4183388671875,-0.5351195335388184,0.3272721767425537,-0.7837557792663574
1684115136891379700,1.428379638671875,-0.6830563545227051,0.20567893981933594,-1.0698647499084473
1684115136901420500,1.438420654296875,-0.739187479019165,0.5750260353088379,-1.4320564270019531
1684115136911461000,1.448461181640625,-0.5641756057739258,0.6211681365966797,-1.4368948936462402
1684115136921502000,1.458501953125,-0.3636207580566406,0.6788737773895264,-0.9873695373535156
1684115136931542800,1.468542724609375,-0.2617828845977783,0.5539572238922119,-0.3249168395996094
1684115136941583600,1.47858349609375,-0.3101656436920166,0.40740013122558594,0.6548843383789062
1684115136951624400,1.48862451171875,-0.466153621673584,0.4732043743133545,1.0886335372924805
1684115136961665000,1.4986650390625,-0.7729055881500244,0.726891040802002,1.1751651763916016
1684115136971705900,1.508705810546875,-0.922498345375061,1.141571044921875,0.6490163803100586
1684115136981746700,1.51874658203125,-0.963134765625,1.0158278942108154,0.15498924255371094
1684115136991787500,1.52878759765625,-0.7374267578125,0.6231083869934082,-0.02382373809814453
1684115137001828000,1.538828125,-0.18687057495117188,0.3526268005371094,0.00507354736328125
1684115137011869000,1.548868896484375,0.24271941184997559,0.38834214210510254,-0.3851327896118164
1684115137021909800,1.55890966796875,0.47021055221557617,0.5720326900482178,-0.955876350402832
1684115137031950600,1.56895068359375,0.5550483465194702,0.4936971664428711,-1.0896086692810059
1684115137041991400,1.578991455078125,0.7263309955596924,0.19699716567993164,-0.3589162826538086
1684115137052032000,1.589031982421875,0.8658615350723267,-0.11260247230529785,0.1484546661376953
1684115137062072800,1.59907275390625,1.0130478143692017,-0.2817802429199219,0.9921236038208008
1684115137072113700,1.60911376953125,1.2287344932556152,-0.20670199394226074,1.035243034362793
1684115137082154500,1.619154541015625,1.1102399826049805,-0.18748998641967773,1.1512031555175781
1684115137092195000,1.629195068359375,0.9365972280502319,-0.12502503395080566,0.8824262619018555
1684115137102236000,1.63923583984375,0.4252198338508606,-0.058249711990356445,0.6468276977539062
1684115137112276700,1.64927685546875,-0.12746042013168335,0.022099018096923828,0.15361309051513672
1684115137122317600,1.659317626953125,-0.8729810118675232,0.013535499572753906,0.2833271026611328
1684115137132358100,1.669358154296875,-1.560327410697937,0.22769665718078613,0.3958606719970703
1684115137142399000,1.67939892578125,-1.5424470901489258,0.5954375267028809,0.5884714126586914
1684115137152439800,1.689439697265625,-1.0893981456756592,0.6000165939331055,0.7324934005737305
1684115137162480600,1.699480712890625,-0.48917156457901,0.0591731071472168,1.5918035507202148
1684115137172521500,1.709521484375,-0.32998597621917725,-0.5231528282165527,2.3769235610961914
1684115137182562000,1.71956201171875,-0.23731641471385956,-0.6433944702148438,2.2903995513916016
1684115137192603000,1.729602783203125,-0.3112218677997589,-0.739166259765625,1.98736572265625
1684115137202643700,1.739643798828125,-0.4241516590118408,-0.812187671661377,1.955606460571289
1684115137212684500,1.7496845703125,-0.17477402091026306,-0.8821721076965332,1.9156618118286133
1684115137222725000,1.75972509765625,-0.19370001554489136,-0.9757323265075684,1.6204948425292969
1684115137232766000,1.769765869140625,-0.4283602833747864,-1.1091651916503906,1.078439712524414
1684115137242806800,1.779806884765625,-0.7057271599769592,-1.2089710235595703,0.12653255462646484
1684115137252847600,1.78984765625,-0.7325385808944702,-1.184007167816162,-0.520268440246582
1684115137262888400,1.799888427734375,-0.6063169836997986,-1.1423425674438477,-0.9289884567260742
1684115137272929000,1.809928955078125,-0.507136344909668,-0.8830294609069824,-1.1263618469238281
1684115137282969900,1.819969970703125,-0.2867816090583801,-0.6365923881530762,-1.244546890258789
1684115137293010700,1.8300107421875,0.0018238425254821777,-0.47996044158935547,-1.127152919769287
1684115137303051500,1.840051513671875,0.25005918741226196,-0.3215513229370117,-1.0238232612609863
1684115137313092000,1.850092041015625,0.09580183029174805,-0.33464622497558594,-0.9149556159973145
1684115137323133000,1.8601328125,-0.1076657772064209,-0.36262083053588867,-0.7436008453369141
1684115137333173800,1.870173828125,0.5667831301689148,-0.2166905403137207,-0.5714540481567383
1684115137343214600,1.880214599609375,0.1135721206665039,-0.466886043548584,-0.8679308891296387
1684115137353255400,1.89025537109375,-0.6542892456054688,-0.9861693382263184,-0.7949237823486328
1684115137363296000,1.9002958984375,-0.8949708938598633,-1.1339125633239746,-0.27715396881103516
1684115137373336800,1.9103369140625,-0.558334469795227,-0.7985286712646484,0.36588382720947266
1684115137383377700,1.920377685546875,-0.5650454759597778,-0.4841737747192383,0.8062458038330078
1684115137393418500,1.93041845703125,-0.8876931667327881,-0.4911327362060547,1.0541715621948242
1684115137403459300,1.940459228515625,-1.0305944681167603,-0.6032609939575195,1.156926155090332
1684115137413500000,1.9505,-0.811447024345398,-0.6982030868530273,1.1488656997680664
1684115137423540700,1.960540771484375,-0.6382418870925903,-0.9988431930541992,1.2489309310913086
1684115137433581600,1.97058154296875,-0.4282621145248413,-1.5174226760864258,1.2151002883911133
1684115137443622400,1.980622314453125,-0.03685784339904785,-1.7964611053466797,1.3153533935546875
1684115137453663000,1.9906630859375,-0.07333588600158691,-1.7486310005187988,1.3604650497436523
1684115137463703800,2.000703857421875,-0.1738147735595703,-1.4962124824523926,1.0199899673461914
1684115137473744600,2.01074462890625,-0.17033743858337402,-1.0460100173950195,0.29149627685546875
1684115137483785500,2.020785400390625,-0.05925297737121582,-0.46453428268432617,-0.4975261688232422
1684115137493826300,2.030826416015625,-0.15406417846679688,-0.5309324264526367,-0.9441757202148438
1684115137503867000,2.040866943359375,-0.25172531604766846,-0.782137393951416,-1.255824089050293
1684115137513907700,2.05090771484375,0.01806008815765381,-0.5473909378051758,-2.0779356956481934
1684115137523948500,2.060948486328125,-0.08896100521087646,-0.5221552848815918,-1.7016472816467285
1684115137533989400,2.0709892578125,0.11467349529266357,-0.1392192840576172,-2.0694313049316406
1684115137544030200,2.0810302734375,0.11771738529205322,0.03509998321533203,-1.6116924285888672
1684115137554070800,2.09107080078125,0.22215509414672852,0.21655893325805664,-1.659195899963379
1684115137564111600,2.101111572265625,1.3407540321350098,-0.359128475189209,-1.8948593139648438
1684115137574152400,2.11115234375,1.1495522260665894,-0.6556277275085449,-1.6896600723266602
1684115137584193300,2.121193359375,0.6260766386985779,0.4774014949798584,-1.9549827575683594
1684115137594233900,2.13123388671875,0.26062238216400146,0.8135697841644287,-2.8456296920776367
1684115137604274700,2.141274658203125,0.08815908432006836,0.33527255058288574,-2.800159454345703
1684115137614315500,2.1513154296875,-0.07794678211212158,-0.37098121643066406,-2.2787742614746094
1684115137624356400,2.1613564453125,-0.285256028175354,-1.0058808326721191,-1.9807376861572266
1684115137634397200,2.171397216796875,-0.26882338523864746,-1.9090862274169922,-1.504819393157959
1684115137644437800,2.181437744140625,-0.3028585910797119,-2.544602394104004,-0.6549491882324219
1684115137654478600,2.191478515625,-0.32572245597839355,-2.1981096267700195,-0.23373985290527344
1684115137664519400,2.20151953125,-0.2663137912750244,-1.5239934921264648,0.10877323150634766
1684115137674560300,2.211560302734375,-0.22823739051818848,-0.682121992111206,0.3460855484008789
1684115137684601000,2.22160107421875,-0.15471267700195312,-0.2881896495819092,0.7465114593505859
1684115137694641700,2.2316416015625,-0.1928846836090088,0.2837526798248291,0.34815502166748047
1684115137704682500,2.2416826171875,-0.3894531726837158,0.18076777458190918,0.36365699768066406
1684115137714723300,2.251723388671875,-0.39514827728271484,-0.3378763198852539,0.12587261199951172
1684115137724764200,2.26176416015625,-0.4485461711883545,-0.857018232345581,0.07744407653808594
1684115137734805000,2.271804931640625,-0.0669708251953125,-1.336547613143921,0.24248218536376953
1684115137744845600,2.281845458984375,-0.035968780517578125,-1.4548540115356445,0.2497081756591797
1684115137754886400,2.291886474609375,-0.05201911926269531,-1.0857315063476562,-0.01688861846923828
1684115137764927200,2.30192724609375,-0.1553633213043213,-0.7488436698913574,-0.19947433471679688
1684115137774968000,2.311968017578125,-0.25528645515441895,-0.4910564422607422,-0.4868659973144531
1684115137785009000,2.3220087890625,-0.29871654510498047,-0.22622966766357422,-0.6155452728271484
1684115137795049700,2.3320498046875,-0.33478760719299316,0.055058956146240234,-0.7223215103149414
1684115137805090300,2.34209033203125,-0.2943580150604248,0.19534683227539062,-0.7179951667785645
1684115137815131100,2.352131103515625,-0.1251523494720459,0.12594985961914062,-0.4818296432495117
1684115137825172000,2.362171875,0.23990845680236816,0.15584087371826172,-0.3296833038330078
1684115137835212800,2.372212890625,0.20374202728271484,-0.27370595932006836,-0.10029411315917969
1684115137845253600,2.382253662109375,0.6797287464141846,0.2559390068054199,-0.47949695587158203
1684115137855294200,2.392294189453125,0.4763162136077881,-0.19872140884399414,-0.10971641540527344
1684115137865335000,2.4023349609375,0.3830873966217041,-0.43953466415405273,0.09458351135253906
1684115137875375900,2.4123759765625,0.28754615783691406,-0.6361613273620605,0.2987813949584961
1684115137885416700,2.422416748046875,0.35244083404541016,-0.43012571334838867,-0.005009651184082031
1684115137895457500,2.43245751953125,0.3457520008087158,-0.24111080169677734,-0.48881006240844727
1684115137905498000,2.442498046875,0.24909424781799316,-0.3183159828186035,-0.7959203720092773
1684115137915539000,2.4525390625,-0.010185003280639648,0.01030874252319336,-1.1292181015014648
1684115137925579800,2.462579833984375,-0.42792177200317383,0.4875917434692383,-1.8447551727294922
1684115137935620600,2.47262060546875,-0.4021470546722412,-0.45154237747192383,-0.8066921234130859
1684115137945661400,2.482661376953125,-0.07323956489562988,-0.2707557678222656,-1.02040433883667
1684115137955702000,2.492701904296875,0.05806779861450195,-0.12803077697753906,-1.0524964332580566
1684115137965742800,2.502742919921875,0.06591081619262695,-0.2770261764526367,-0.8476095199584961
1684115137975783700,2.51278369140625,-0.029728174209594727,-0.5870728492736816,-0.44446563720703125
1684115137985824500,2.522824462890625,-0.12344169616699219,-0.8412113189697266,-0.27951717376708984
1684115137995865300,2.532865234375,-0.17235326766967773,-0.7826714515686035,-0.3672938346862793
1684115138005906000,2.542906005859375,-0.20613431930541992,-0.9121866226196289,-0.32388782501220703
1684115138015946800,2.55294677734375,-0.18878817558288574,-0.8141183853149414,-0.7491359710693359
1684115138025987600,2.562987548828125,-0.20216679573059082,-0.7171530723571777,-1.1536898612976074
1684115138036028400,2.5730283203125,-0.30685901641845703,-0.71429443359375,-1.3307061195373535
1684115138046069200,2.5830693359375,-0.48827028274536133,-0.629946231842041,-1.3455495834350586
1684115138056109800,2.59310986328125,-0.5564429759979248,-0.4967360496520996,-1.4640154838562012
1684115138066150700,2.603150634765625,-0.5864720344543457,-0.515894889831543,-1.6204338073730469
1684115138076191500,2.61319140625,-0.4995391368865967,-0.6438202857971191,-1.4645123481750488
1684115138086232300,2.623232421875,-0.38762545585632324,-0.5638165473937988,-1.7216262817382812
1684115138096273200,2.633273193359375,-0.35466957092285156,-0.604123592376709,-1.576962947845459
1684115138106313700,2.643313720703125,-0.33615541458129883,-0.6907920837402344,-1.3336634635925293
1684115138116354600,2.6533544921875,-0.4532957077026367,-0.42395782470703125,-1.202479362487793
1684115138126395400,2.6633955078125,-0.9383783340454102,-0.22980546951293945,-0.994166374206543
1684115138136436200,2.673436279296875,-1.6133923530578613,-0.07344436645507812,-0.2741408348083496
1684115138146477000,2.68347705078125,-2.058410167694092,0.13490819931030273,1.436081886291504
1684115138156517600,2.693517578125,-2.1597659587860107,-0.3059120178222656,2.7172021865844727
1684115138166558500,2.703558349609375,-1.4972829818725586,-0.4581308364868164,3.435579776763916
1684115138176599300,2.713599365234375,-0.5751538276672363,-0.5627155303955078,3.6815099716186523
1684115138186640100,2.72364013671875,0.06512141227722168,-0.41152334213256836,3.5309009552001953
1684115138196681000,2.733680908203125,0.18591785430908203,-0.7701106071472168,2.77297306060791
1684115138206721500,2.743721435546875,0.1441197395324707,-0.5678791999816895,1.523263931274414
1684115138216762400,2.753762451171875,0.2273242473602295,-0.27907848358154297,0.3457069396972656
1684115138226803200,2.76380322265625,0.4966752529144287,-0.15923070907592773,-0.35241079330444336
1684115138236844000,2.773843994140625,0.8776746988296509,-0.04326772689819336,-0.731328010559082
1684115138246884900,2.783884765625,1.1885019540786743,-0.36773014068603516,-1.090590000152588
1684115138256925400,2.793925537109375,1.3360018730163574,-0.6527762413024902,-1.3248581886291504
1684115138266966300,2.80396630859375,1.7824680805206299,-0.5727396011352539,-1.4295506477355957
1684115138277007000,2.814007080078125,1.7070183753967285,-0.17470407485961914,-1.5379037857055664
1684115138287048000,2.8240478515625,1.7077093124389648,-0.129913330078125,-1.337043285369873
1684115138297088800,2.8340888671875,1.67655348777771,-0.2741570472717285,-1.1609992980957031
1684115138307129300,2.84412939453125,1.5173474550247192,-0.2678666114807129,-1.0795660018920898
1684115138317170200,2.854170166015625,1.3785731792449951,-0.23230552673339844,-0.7514405250549316
1684115138327211000,2.8642109375,1.2440897226333618,-0.3127102851867676,-0.4311227798461914
1684115138337251800,2.874251953125,0.9824681282043457,-0.4390082359313965,-0.2606315612792969
1684115138347292700,2.884292724609375,0.5998735427856445,-0.3677964210510254,-0.19806528091430664
1684115138357333500,2.89433349609375,0.25320959091186523,-0.3005366325378418,-0.2173748016357422
1684115138367374000,2.9043740234375,0.06554365158081055,-0.4564971923828125,-0.349306583404541
1684115138377415000,2.914414794921875,0.3361232280731201,-0.45577001571655273,-0.5685148239135742
1684115138387455700,2.924455810546875,0.3652111291885376,-0.5324735641479492,-0.5966925621032715
1684115138397496600,2.93449658203125,-0.35622406005859375,-0.6204462051391602,-0.6216773986816406
1684115138407537400,2.944537353515625,-1.3292591571807861,-0.09569501876831055,-0.6230664253234863
1684115138417578000,2.954577880859375,-1.1314785480499268,-0.9073143005371094,-0.038342952728271484
1684115138427618800,2.964618896484375,-0.06611227989196777,-0.7872543334960938,0.014400959014892578
1684115138437659600,2.97465966796875,0.8299263119697571,-0.5404939651489258,-0.027935504913330078
1684115138447700500,2.984700439453125,1.031373143196106,-0.4675464630126953,0.15389204025268555
1684115138457741300,2.9947412109375,0.8950698375701904,-0.7573356628417969,0.3976883888244629
1684115138467782100,3.0047822265625,0.7975881099700928,-0.7673320770263672,0.6284098625183105
1684115138477822700,3.01482275390625,0.8816293478012085,-0.43686532974243164,0.6806726455688477
1684115138487863600,3.024863525390625,0.9570682644844055,-0.2176990509033203,0.42609500885009766
1684115138497904400,3.034904296875,0.9751272797584534,-0.2115187644958496,0.15009260177612305
1684115138507945200,3.0449453125,0.9351117014884949,-0.11127471923828125,-0.2558460235595703
1684115138517986000,3.054986083984375,0.7407187819480896,-0.13689136505126953,-0.798126220703125
1684115138528026600,3.065026611328125,0.42328259348869324,-0.0616912841796875,-1.1947145462036133
1684115138538067500,3.0750673828125,0.14833462238311768,0.026023387908935547,-1.3116354942321777
1684115138548108300,3.0851083984375,0.1299024224281311,0.15587377548217773,-1.1364412307739258
1684115138558149000,3.095149169921875,0.34458544850349426,0.2790064811706543,-0.8096451759338379
1684115138568190000,3.10518994140625,0.6088912487030029,0.22062206268310547,-0.40910863876342773
1684115138578230500,3.11523046875,0.7970044016838074,0.08066511154174805,-0.04822731018066406
1684115138588271400,3.125271240234375,0.9020318984985352,0.061769962310791016,0.10540962219238281
1684115138598312200,3.135312255859375,0.9504589438438416,0.07748889923095703,0.13324975967407227
1684115138608353000,3.14535302734375,0.8205876350402832,0.08369255065917969,0.05843400955200195
1684115138618393900,3.155393798828125,0.7864078283309937,0.08508825302124023,0.12455081939697266
1684115138628434700,3.1654345703125,0.6719211339950562,0.07349061965942383,0.16307640075683594
1684115138638475300,3.175475341796875,0.603044867515564,0.11459970474243164,0.020131587982177734
1684115138648516000,3.18551611328125,0.5234400033950806,-0.2478485107421875,0.07291364669799805
1684115138658557000,3.195556884765625,0.5722813606262207,-0.4632091522216797,0.030419349670410156
1684115138668597800,3.20559765625,0.5681124925613403,-0.6914286613464355,0.022235870361328125
1684115138678638600,3.215638671875,0.3109941780567169,1.697117805480957,-0.4561786651611328
1684115138688679400,3.225679443359375,0.19515389204025269,-1.0598225593566895,0.44560909271240234
1684115138698720000,3.235719970703125,0.20572009682655334,-0.8848376274108887,-0.4017448425292969
1684115138708760800,3.2457607421875,0.7069821953773499,-0.5542635917663574,-0.6723408699035645
1684115138718801700,3.2558017578125,0.8252226114273071,-0.6279616355895996,-0.48105716705322266
1684115138728842500,3.265842529296875,0.6265295743942261,-0.6044726371765137,-0.4388556480407715
1684115138738883300,3.27588330078125,0.462740421295166,-0.8162713050842285,-0.4431910514831543
1684115138748924000,3.285923828125,0.5176867842674255,-0.8489346504211426,-0.5911345481872559
1684115138758964700,3.29596484375,0.6320959329605103,-0.768582820892334,-0.480074405670166
1684115138769005600,3.306005615234375,0.7564873695373535,-0.5920696258544922,-0.2967391014099121
1684115138779046400,3.31604638671875,0.8747906684875488,-0.39280128479003906,-0.2098221778869629
1684115138789087200,3.326087158203125,0.9161619544029236,-0.37943220138549805,-0.30344057083129883
1684115138799128000,3.336128173828125,0.9191027879714966,-0.3696269989013672,-0.49311399459838867
1684115138809169000,3.3461689453125,0.8697442412376404,-0.40787649154663086,-0.6225681304931641
1684115138819209500,3.35620947265625,0.7994499206542969,-0.3958778381347656,-0.7680583000183105
1684115138829250300,3.366250244140625,0.6980923414230347,-0.40759849548339844,-0.6620893478393555
1684115138839291100,3.376291015625,0.7067530751228333,-0.4117403030395508,-0.42696475982666016
1684115138849332000,3.38633203125,0.6887157559394836,-0.2721977233886719,-0.23483657836914062
1684115138859372800,3.396372802734375,0.8570091724395752,0.3099250793457031,-0.11125946044921875
1684115138869413600,3.40641357421875,1.1050156354904175,1.0306897163391113,-0.15384769439697266
1684115138879454200,3.4164541015625,0.9052236080169678,0.8623404502868652,0.2008814811706543
1684115138889495000,3.4264951171875,0.755747377872467,0.9462676048278809,0.18183612823486328
1684115138899536000,3.436535888671875,0.6615899801254272,2.2521934509277344,-0.6910371780395508
1684115138909576700,3.44657666015625,0.41746610403060913,1.114609718322754,-0.6445789337158203
1684115138919617500,3.456617431640625,0.45102179050445557,0.5067753791809082,-0.626953125
1684115138929658400,3.466658447265625,0.6431488394737244,0.12231016159057617,-0.719632625579834
1684115138939699000,3.476698974609375,0.5267521142959595,-0.37569093704223633,-0.7697381973266602
1684115138949739800,3.48673974609375,0.3457910418510437,-0.7612109184265137,-0.7382245063781738
1684115138959780600,3.496780517578125,0.3197767734527588,-0.9350676536560059,-0.6515083312988281
1684115138969821400,3.506821533203125,0.3236796259880066,-0.6971573829650879,-0.6995902061462402
1684115138979862300,3.5168623046875,0.15279686450958252,-0.5053286552429199,-0.4427628517150879
1684115138989902800,3.52690283203125,-0.03228574991226196,-0.5094256401062012,-0.09633827209472656
1684115138999943700,3.536943603515625,0.03330308198928833,-0.5760455131530762,0.06778287887573242
1684115139009984500,3.546984619140625,0.3077303171157837,-0.39893674850463867,-0.2559323310852051
1684115139020025300,3.557025390625,0.6396129727363586,-0.2686805725097656,-0.2530679702758789
1684115139030066200,3.567066162109375,0.7940354347229004,-0.5148544311523438,-0.20130348205566406
1684115139040107000,3.57710693359375,0.8700228929519653,-0.5803751945495605,-0.14372968673706055
1684115139050147600,3.587147705078125,0.8614526987075806,-0.35865020751953125,-0.2501358985900879
1684115139060188400,3.5971884765625,0.7441186308860779,-0.22482967376708984,-0.16162538528442383
1684115139070229200,3.607229248046875,0.5828744173049927,0.012036323547363281,-0.08942413330078125
1684115139080270000,3.61727001953125,0.5185816884040833,0.15298843383789062,-0.010469436645507812
1684115139090311000,3.627310791015625,0.4776749014854431,0.24634695053100586,-0.09917736053466797
1684115139100351700,3.637351806640625,0.40117520093917847,-0.3349165916442871,0.10396242141723633
1684115139110392300,3.647392333984375,0.4275398850440979,-0.6031160354614258,0.0307769775390625
1684115139120433200,3.65743310546875,0.4054965376853943,-0.5357518196105957,0.011289119720458984
1684115139130474000,3.667473876953125,0.3864556550979614,-0.3638596534729004,0.08693981170654297
1684115139140514800,3.677514892578125,0.3875516653060913,-0.25684213638305664,0.2217559814453125
1684115139150555600,3.6875556640625,0.46413397789001465,-0.09373235702514648,0.11622190475463867
1684115139160596500,3.697596435546875,0.42329996824264526,0.000591278076171875,0.004760265350341797
1684115139170637000,3.707636962890625,0.4009631872177124,0.42558956146240234,-0.27163076400756836
1684115139180678000,3.717677978515625,0.37162643671035767,0.8720259666442871,-0.40467023849487305
1684115139190718700,3.72771875,0.22526150941848755,0.7710881233215332,-0.4122309684753418
1684115139200759600,3.737759521484375,0.11366385221481323,0.4363102912902832,-0.6632227897644043
1684115139210800400,3.74780029296875,0.02295321226119995,-0.045365333557128906,-0.7220554351806641
1684115139220841200,3.75784130859375,0.12266945838928223,-0.6224479675292969,-0.38305044174194336
1684115139230881800,3.7678818359375,0.23781412839889526,-1.0666260719299316,0.03637552261352539
1684115139240922600,3.777922607421875,0.30221086740493774,-0.9449973106384277,0.408111572265625
1684115139250963500,3.78796337890625,0.46767210960388184,-0.37127017974853516,0.6408977508544922
1684115139261004300,3.79800439453125,0.5592395067214966,-0.43152904510498047,0.8956608772277832
1684115139271045000,3.808045166015625,0.6223036050796509,-0.3176455497741699,0.5753178596496582
1684115139281086000,3.8180859375,0.6384919285774231,-0.09762859344482422,0.016217708587646484
1684115139291126500,3.82812646484375,0.5723558068275452,0.28489017486572266,-0.4137392044067383
1684115139301167400,3.83816748046875,0.4189718961715698,0.037923336029052734,-0.5849909782409668
1684115139311208200,3.848208251953125,0.3098127841949463,-0.23478126525878906,-0.37149667739868164
1684115139321249000,3.8582490234375,0.40810108184814453,-0.4355340003967285,-0.006392002105712891
1684115139331289900,3.868289794921875,0.4916077256202698,-0.44298839569091797,0.25162363052368164
1684115139341330700,3.87833056640625,0.5185270309448242,0.16518402099609375,0.1951756477355957
1684115139351371300,3.888371337890625,0.5492236018180847,0.37697505950927734,0.16859960556030273
1684115139361412000,3.898412109375,0.5091805458068848,0.01020193099975586,0.28487396240234375
1684115139371453000,3.908452880859375,0.585864782333374,0.0017552375793457031,0.13290166854858398
1684115139381493800,3.91849365234375,0.5916624069213867,0.3015103340148926,-0.1397867202758789
1684115139391534600,3.92853466796875,0.527105450630188,0.6333599090576172,-0.3833003044128418
1684115139401575400,3.938575439453125,0.38359808921813965,0.5314435958862305,-0.5487918853759766
1684115139411616300,3.9486162109375,0.24110835790634155,0.058619022369384766,-0.5844225883483887
1684115139421656800,3.95865673828125,0.19491785764694214,-0.16031265258789062,-0.5799350738525391
1684115139431697700,3.96869775390625,0.10085761547088623,-0.28980255126953125,-0.45172119140625
1684115139441738500,3.978738525390625,0.13910657167434692,-0.3739180564880371,-0.11759757995605469
1684115139451779300,3.988779296875,0.28277909755706787,-0.07234382629394531,-0.023798465728759766
1684115139461820200,3.998820068359375,0.357818067073822,0.05621910095214844,-0.1672654151916504
1684115139471861000,4.008861083984375,0.2910577654838562,0.43434906005859375,-0.37401628494262695
1684115139481901600,4.018901611328125,0.19931811094284058,1.66245698928833,-1.889716625213623
1684115139491942400,4.0289423828125,0.0804898738861084,-0.2809290885925293,-1.5948553085327148
1684115139501983200,4.038983154296875,0.2974293828010559,-0.551905632019043,-0.6747593879699707
1684115139512024000,4.049024169921875,0.5607900023460388,0.24799013137817383,0.22893381118774414
1684115139522065000,4.05906494140625,0.5838897824287415,0.28501415252685547,0.6641206741333008
1684115139532105700,4.069105712890625,0.5312029719352722,-0.03046703338623047,0.7877845764160156
1684115139542146300,4.079146240234375,0.5132151246070862,-0.1581711769104004,0.759251594543457
1684115139552187100,4.089187255859375,0.5871754884719849,-0.08172607421875,0.5788726806640625
1684115139562228000,4.09922802734375,0.5884430408477783,0.2826499938964844,0.06679153442382812
1684115139572268800,4.109268798828125,0.5276651978492737,0.11975383758544922,-0.20961618423461914
1684115139582309600,4.1193095703125,0.4997367262840271,-0.13130474090576172,-0.15157270431518555
1684115139592350500,4.1293505859375,0.4842138886451721,0.08830833435058594,-0.14145135879516602
1684115139602391000,4.13939111328125,0.39215362071990967,0.012090682983398438,-0.20630216598510742
1684115139612432000,4.149431884765625,0.23472410440444946,-0.36492490768432617,-0.19162654876708984
1684115139622472700,4.15947265625,0.1966714859008789,-0.2821311950683594,-0.2165684700012207
1684115139632513500,4.169513427734375,0.19853323698043823,-0.3768925666809082,-0.13392400741577148
1684115139642554400,4.179554443359375,0.28835487365722656,-0.26282215118408203,-0.07599258422851562
1684115139652595200,4.18959521484375,0.2874634265899658,-0.2640800476074219,0.19449472427368164
1684115139662636000,4.199635986328125,0.3277042806148529,-0.30374717712402344,0.40192508697509766
1684115139672676900,4.2096767578125,0.39186719059944153,-0.42206335067749023,0.5581822395324707
1684115139682717400,4.219717529296875,0.45800065994262695,-0.3732166290283203,0.6533360481262207
1684115139692758300,4.22975830078125,0.39188700914382935,-0.2788882255554199,0.6188101768493652
1684115139702799000,4.239799072265625,0.2911272943019867,-0.18021202087402344,0.5879631042480469
1684115139712840000,4.24983984375,0.24667853116989136,-0.20217084884643555,0.6744942665100098
1684115139722880800,4.259880859375,0.29015910625457764,-0.18554019927978516,0.41919755935668945
1684115139732921600,4.269921630859375,0.35256922245025635,0.102081298828125,0.08444404602050781
1684115139742962200,4.279962158203125,0.28920117020606995,0.03968524932861328,-0.20470094680786133
1684115139753003000,4.2900029296875,0.23554709553718567,0.11729097366333008,-0.47205543518066406
1684115139763043800,4.3000439453125,0.24951642751693726,0.06908369064331055,-0.5167727470397949
1684115139773084700,4.310084716796875,0.3552960753440857,0.04156827926635742,-0.42217063903808594
1684115139783125500,4.32012548828125,0.4633433222770691,0.12931394577026367,-0.2709341049194336
1684115139793166300,4.330166259765625,0.5762039422988892,0.03858232498168945,-0.01851940155029297
1684115139803207200,4.340207275390625,0.4633408784866333,0.06814098358154297,0.3500785827636719
1684115139813247700,4.350247802734375,0.4628574848175049,0.2505836486816406,0.5471978187561035
1684115139823288600,4.36028857421875,0.4975506365299225,0.3287930488586426,0.3768339157104492
1684115139833329400,4.370329345703125,0.545484721660614,0.317903995513916,0.2993173599243164
1684115139843370200,4.380370361328125,0.5809352397918701,0.33855199813842773,0.10327768325805664
1684115139853411000,4.3904111328125,0.5252206325531006,0.3656497001647949,0.08118343353271484
1684115139863452000,4.400451904296875,0.47979146242141724,0.6805534362792969,-0.22792387008666992
1684115139873492700,4.41049267578125,0.37314993143081665,0.3563656806945801,-0.36173200607299805
1684115139883533300,4.420533203125,0.4521205723285675,0.3834877014160156,-0.3609776496887207
1684115139893574100,4.43057421875,0.4560084044933319,0.42032289505004883,-0.3012986183166504
1684115139903615000,4.440614990234375,0.38737761974334717,0.5698628425598145,-0.4283108711242676
1684115139913655800,4.45065576171875,0.31154677271842957,0.27540159225463867,-0.3044719696044922
1684115139923696600,4.460696533203125,0.3504163324832916,0.4759793281555176,-0.22253656387329102
1684115139933737500,4.470737548828125,0.196140855550766,0.5942950248718262,-0.5735459327697754
1684115139943778000,4.480778076171875,0.2598493695259094,0.19285202026367188,-0.6801419258117676
1684115139953819000,4.49081884765625,0.25956645607948303,0.3085136413574219,-0.6752777099609375
1684115139963859700,4.500859619140625,0.2143460512161255,0.1710662841796875,-0.5481805801391602
1684115139973900500,4.510900634765625,0.2892339825630188,0.12195777893066406,-0.32049560546875
1684115139983941400,4.52094140625,0.39198440313339233,-0.06812000274658203,-0.10828971862792969
1684115139993982200,4.530982177734375,0.41662293672561646,-0.07232093811035156,0.08962821960449219
1684115140004023000,4.54102294921875,0.519520103931427,-0.12119579315185547,0.357698917388916
1684115140014063600,4.551063720703125,0.5159471035003662,-0.34363269805908203,0.7343935966491699
1684115140024104400,4.5611044921875,0.48939692974090576,-0.6236410140991211,1.073336124420166
1684115140034145300,4.571145263671875,0.5129443407058716,-0.6481647491455078,1.1499614715576172
1684115140044186000,4.58118603515625,0.6638830900192261,-0.6397132873535156,1.0766572952270508
1684115140054227000,4.59122705078125,0.6741139888763428,-0.5058603286743164,0.9403343200683594
1684115140064267800,4.601267822265625,0.633171558380127,-0.49696826934814453,0.825871467590332
1684115140074308600,4.61130859375,0.579877495765686,-0.5133600234985352,0.5779786109924316
1684115140084349200,4.62134912109375,0.5510960817337036,-0.46140384674072266,0.3552422523498535
1684115140094390000,4.63139013671875,0.48902803659439087,-0.5125608444213867,0.12057113647460938
1684115140104430800,4.641430908203125,0.40299463272094727,-0.5206441879272461,-0.0681614875793457
1684115140114471700,4.6514716796875,0.25053712725639343,-0.5213794708251953,-0.27518129348754883
1684115140124512500,4.661512451171875,0.15134437382221222,-0.4951000213623047,-0.4755706787109375
1684115140134553300,4.67155322265625,0.07029440999031067,-0.5676517486572266,-0.6297488212585449
1684115140144594200,4.68159423828125,-0.01135680079460144,-0.5929203033447266,-0.5989599227905273
1684115140154634800,4.691634765625,-0.005565553903579712,-0.5301456451416016,-0.5790133476257324
1684115140164675600,4.701675537109375,-0.03912511467933655,-0.6017656326293945,-0.5272626876831055
1684115140174716400,4.71171630859375,0.01416829228401184,-0.6452503204345703,-0.5088300704956055
1684115140184757200,4.72175732421875,-0.029159456491470337,-0.5381641387939453,-0.4641580581665039
1684115140194798000,4.731798095703125,-0.20296451449394226,-0.5773401260375977,-0.5628843307495117
1684115140204839000,4.7418388671875,-0.3249404728412628,-0.7399063110351562,-0.6043548583984375
1684115140214879700,4.751879638671875,-0.44355177879333496,-0.8050661087036133,-0.7974109649658203
1684115140224920300,4.76192041015625,-0.48310184478759766,-0.7770891189575195,-0.908851146697998
1684115140234961200,4.771961181640625,-0.42050909996032715,-0.7708616256713867,-0.9319150447845459
1684115140245002000,4.782001953125,-0.33589088916778564,-0.8120288848876953,-0.9637284278869629
1684115140255042800,4.792042724609375,-0.31174659729003906,-0.9261608123779297,-1.029191255569458
1684115140265083600,4.802083740234375,-0.1954023241996765,-0.8887186050415039,-1.0490658283233643
1684115140275124500,4.81212451171875,-0.0557941198348999,-0.6839351654052734,-0.9571709632873535
1684115140285165300,4.822165283203125,0.04453176259994507,-0.5398778915405273,-0.9363949298858643
1684115140295206000,4.832205810546875,0.19338148832321167,-0.25536441802978516,-1.0248816013336182
1684115140305246700,4.842246826171875,0.32971739768981934,0.5745344161987305,-1.4145569801330566
1684115140315287600,4.85228759765625,0.19114774465560913,0.01614856719970703,-0.8146932125091553
1684115140325328400,4.862328369140625,0.5848673582077026,1.1292147636413574,-0.25400304794311523
1684115140335369200,4.872369140625,0.4656286835670471,1.118453025817871,0.19564485549926758
1684115140345410000,4.88241015625,0.6361167430877686,1.5545048713684082,0.7720885276794434
1684115140355450600,4.89245068359375,0.602472186088562,1.221482753753662,0.9214296340942383
1684115140365491500,4.902491455078125,0.605426013469696,0.9119396209716797,0.9174933433532715
1684115140375532300,4.9125322265625,0.7152698040008545,0.6891336441040039,1.080986499786377
1684115140385573000,4.922572998046875,0.8832845687866211,0.6190547943115234,1.2067813873291016
1684115140395614000,4.932614013671875,0.9540601968765259,0.39269447326660156,1.2572946548461914
1684115140405654800,4.94265478515625,0.8567488789558411,0.15161895751953125,1.1983771324157715
1684115140415695600,4.952695556640625,0.8449509143829346,-0.057621002197265625,1.1129164695739746
1684115140425736400,4.962736328125,0.8649364113807678,-0.10515594482421875,0.9443759918212891
1684115140435777300,4.97277734375,0.8201243877410889,-0.022309303283691406,0.8014864921569824
1684115140445817900,4.98281787109375,0.7563291788101196,0.1191701889038086,0.5991106033325195
1684115140455858700,4.992858642578125,0.6616097688674927,0.2548961639404297,0.42181921005249023
1684115140465899500,5.0028994140625,0.5163133144378662,0.3349924087524414,0.28464841842651367
1684115140475940400,5.0129404296875,0.4076802730560303,0.38579368591308594,0.21854734420776367
1684115140485981200,5.022981201171875,0.3264508545398712,0.3592243194580078,0.19398164749145508
1684115140496022000,5.03302197265625,0.20087140798568726,0.24312973022460938,0.14327669143676758
1684115140506062800,5.043062744140625,0.17612671852111816,0.2789144515991211,0.03984880447387695
1684115140516103400,5.053103515625,0.11125683784484863,0.2966794967651367,0.0049686431884765625
1684115140526144300,5.063144287109375,0.04380524158477783,0.16208362579345703,0.06755447387695312
1684115140536185000,5.07318505859375,-0.009076476097106934,-0.050827980041503906,0.09007692337036133
1684115140546226000,5.083225830078125,-0.08030080795288086,-0.27979183197021484,0.0721750259399414
1684115140556266800,5.093266845703125,-0.1069260835647583,-0.44611072540283203,-0.010653972625732422
1684115140566307600,5.1033076171875,-0.08372759819030762,-0.5668201446533203,-0.027736663818359375
1684115140576348400,5.113348388671875,-0.09810221195220947,-0.6704416275024414,-0.2441697120666504
1684115140586389200,5.12338916015625,-0.07417881488800049,-0.6537370681762695,-0.4721364974975586
1684115140596429800,5.133429931640625,-0.11486482620239258,-0.5786905288696289,-0.6749789714813232
1684115140606470700,5.143470703125,-0.3026692867279053,-0.5645971298217773,-0.8423957824707031
1684115140616511500,5.153511474609375,-1.3600695133209229,-0.7568597793579102,-1.1039438247680664
1684115140626552300,5.16355224609375,-2.559462308883667,-1.0397930145263672,-1.2816777229309082
1684115140636593200,5.17359326171875,-2.729933261871338,-1.1629972457885742,-1.4472451210021973
1684115140646634000,5.183634033203125,-1.9270637035369873,-1.2006263732910156,-1.4969406127929688
1684115140656674800,5.1936748046875,-1.0827926397323608,-1.2188796997070312,-1.3245751857757568
1684115140666715400,5.20371533203125,-0.5926988124847412,-1.1064186096191406,-1.066004753112793
1684115140676756200,5.213756103515625,-0.42060422897338867,-0.9227743148803711,-0.7394249439239502
1684115140686797000,5.223797119140625,-0.4038276672363281,-0.8105602264404297,-0.5674810409545898
1684115140696838000,5.233837890625,-0.47907698154449463,-0.7698507308959961,-0.43863773345947266
1684115140706878700,5.243878662109375,-0.5346971750259399,-0.7719964981079102,-0.28399181365966797
1684115140716919600,5.25391943359375,-0.5822714567184448,-0.6955423355102539,-0.14066171646118164
1684115140726960400,5.26396044921875,-0.5837844610214233,-0.5893955230712891,0.05502891540527344
1684115140737001200,5.274001220703125,-0.4760943651199341,-0.37057971954345703,0.1869525909423828
1684115140747041800,5.284041748046875,-0.2743966579437256,-0.14165496826171875,0.22626066207885742
1684115140757082600,5.29408251953125,-0.052309274673461914,0.02935791015625,0.19053983688354492
1684115140767123500,5.30412353515625,0.12801051139831543,0.08390140533447266,0.11177635192871094
1684115140777164300,5.314164306640625,0.24514055252075195,0.01998138427734375,0.11908817291259766
1684115140787205000,5.324205078125,0.3021571636199951,0.057349205017089844,0.12356424331665039
1684115140797246000,5.334245849609375,0.316622257232666,0.2412872314453125,-0.03903675079345703
1684115140807286800,5.344286865234375,0.2963097095489502,0.32811737060546875,-0.19806623458862305
1684115140817327400,5.354327392578125,0.2501258850097656,0.1934375762939453,-0.2175607681274414
1684115140827368200,5.3643681640625,0.21753859519958496,0.10966300964355469,-0.2317962646484375
1684115140837409000,5.374408935546875,0.18236517906188965,0.17704486846923828,-0.28577232360839844
1684115140847449900,5.384449951171875,0.10554635524749756,0.14704513549804688,-0.42955970764160156
1684115140857490700,5.39449072265625,0.040456533432006836,0.1350240707397461,-0.46698570251464844
1684115140867531500,5.404531494140625,0.009553194046020508,0.2027444839477539,-0.49022674560546875
1684115140877572400,5.414572265625,-0.03311347961425781,0.23508930206298828,-0.5621542930603027
1684115140887613000,5.424613037109375,-0.04344511032104492,0.2939882278442383,-0.5823049545288086
1684115140897653800,5.43465380859375,-0.08813190460205078,0.3027620315551758,-0.6096649169921875
1684115140907694600,5.444694580078125,-0.22057747840881348,0.24950122833251953,-0.6020841598510742
1684115140917735400,5.4547353515625,-0.3161187171936035,0.16505718231201172,-0.45880746841430664
1684115140927776300,5.4647763671875,-0.3624999523162842,0.0028505325317382812,-0.6017742156982422
1684115140937817000,5.474817138671875,-0.21728944778442383,-0.0035276412963867188,-0.8265786170959473
1684115140947858000,5.48485791015625,0.015588045120239258,-0.047089576721191406,-0.9979114532470703
1684115140957898800,5.494898681640625,0.3388899564743042,-0.04417896270751953,-1.1392560005187988
1684115140967939300,5.504939208984375,0.5748628377914429,0.10672569274902344,-1.2145910263061523
1684115140977980200,5.514980224609375,0.7168546915054321,0.35563182830810547,-1.2117276191711426
1684115140988021000,5.52502099609375,0.653441309928894,0.5841450691223145,-1.2140073776245117
1684115140998061800,5.535061767578125,0.4938027858734131,0.9951448440551758,-1.1283726692199707
1684115141008102700,5.5451025390625,0.166098952293396,0.8094534873962402,-0.6948094367980957
1684115141018143500,5.5551435546875,-0.23839688301086426,0.7258367538452148,-0.28983116149902344
1684115141028184300,5.565184326171875,-0.5351734161376953,0.5861377716064453,-0.08144950866699219
1684115141038225000,5.575224853515625,-0.6271147727966309,0.22675418853759766,0.35665464401245117
1684115141048265700,5.585265625,-0.5024324655532837,-0.19573974609375,0.9418973922729492
1684115141058306600,5.595306640625,-0.25601696968078613,-0.16498184204101562,1.1819534301757812
1684115141068347400,5.605347412109375,-0.009521007537841797,0.23567581176757812,1.092041015625
1684115141078388200,5.61538818359375,0.2536172866821289,0.5264320373535156,0.7194375991821289
1684115141088429000,5.625428955078125,0.48979341983795166,0.6825780868530273,0.5075817108154297
1684115141098470000,5.635469970703125,0.6776739358901978,0.6811351776123047,0.35183286666870117
1684115141108510700,5.6455107421875,0.797015368938446,0.5966792106628418,0.26431989669799805
1684115141118551600,5.655551513671875,0.769368052482605,0.4244499206542969,0.2654900550842285
1684115141128592400,5.66559228515625,0.7002300024032593,0.26943397521972656,0.26457929611206055
1684115141138633000,5.675633056640625,0.5303014516830444,0.08824443817138672,0.306276798248291
1684115141148673800,5.685673828125,0.3232588768005371,-0.00460052490234375,0.24159860610961914
1684115141158714600,5.695714599609375,0.1397322416305542,-0.12161731719970703,0.17278003692626953
1684115141168755500,5.70575537109375,-0.03424835205078125,-0.15999412536621094,0.03475046157836914
1684115141178796300,5.71579638671875,-0.1406317949295044,-0.19367027282714844,-0.16520357131958008
1684115141188837000,5.725837158203125,-0.1948925256729126,-0.22239112854003906,-0.3431711196899414
1684115141198878000,5.7358779296875,-0.22608399391174316,-0.21040725708007812,-0.43492698669433594
1684115141208918500,5.74591845703125,-0.25121641159057617,-0.22224140167236328,-0.4860243797302246
1684115141218959400,5.75595947265625,-0.2474362850189209,-0.20268630981445312,-0.5251317024230957
1684115141229000200,5.766000244140625,-0.1657489538192749,-0.1732339859008789,-0.5452876091003418
1684115141239041000,5.776041015625,-0.028810739517211914,-0.17425060272216797,-0.6107990741729736
1684115141249081900,5.786081787109375,0.055182456970214844,-0.2172222137451172,-0.6278164386749268
1684115141259122700,5.796122802734375,0.10853707790374756,-0.23044395446777344,-0.6463735103607178
1684115141269163500,5.80616357421875,0.0731198787689209,-0.22637367248535156,-0.6142177581787109
1684115141279204400,5.816204345703125,0.024631738662719727,-0.21265602111816406,-0.5604708194732666
1684115141289245000,5.826244873046875,0.001994609832763672,-0.15607452392578125,-0.4901084899902344
1684115141299285800,5.83628564453125,0.00959014892578125,-0.033100128173828125,-0.4705839157104492
1684115141309326600,5.84632666015625,0.07290172576904297,-0.03272533416748047,-0.4497222900390625
1684115141319367400,5.856367431640625,0.07454752922058105,-0.12137126922607422,-0.3968043327331543
1684115141329408300,5.866408203125,0.08667993545532227,-0.30573272705078125,-0.34950971603393555
1684115141339449000,5.876448974609375,0.012499809265136719,-0.2315959930419922,-0.4235086441040039
1684115141349490000,5.886489990234375,-0.024756312370300293,-0.2076263427734375,-0.37691593170166016
1684115141359530800,5.89653076171875,0.013681888580322266,-0.3201141357421875,-0.22032737731933594
1684115141369571300,5.9065712890625,0.11340129375457764,-0.46089649200439453,-0.1443958282470703
1684115141379612200,5.916612060546875,0.2209479808807373,-0.5507984161376953,-0.031528472900390625
1684115141389653000,5.926653076171875,0.32299667596817017,-0.5280036926269531,0.017322540283203125
1684115141399693800,5.93669384765625,0.33954012393951416,-0.40726566314697266,0.035269737243652344
1684115141409734700,5.946734619140625,0.2439219355583191,-0.365966796875,0.002421855926513672
1684115141419775500,5.956775390625,0.11566144227981567,-0.3325309753417969,-0.19133663177490234
1684115141429816300,5.96681640625,0.06506538391113281,-0.35950756072998047,-0.34496212005615234
1684115141439857200,5.976857177734375,-0.09837251901626587,-0.41335296630859375,-0.43699026107788086
1684115141449897700,5.986897705078125,-0.4359208345413208,-0.42934608459472656,-0.4480447769165039
1684115141459938600,5.9969384765625,-0.7337290048599243,-0.4744853973388672,-0.35442495346069336
1684115141469979400,6.0069794921875,-1.104135274887085,-0.8031826019287109,0.24478721618652344
1684115141480020200,6.017020263671875,-1.3755635023117065,-1.0888843536376953,0.9018640518188477
1684115141490061000,6.02706103515625,-0.9356804490089417,-0.7922792434692383,0.8780078887939453
1684115141500102000,6.037101806640625,-0.11288514733314514,-0.29378700256347656,0.38590526580810547
1684115141510142700,6.047142822265625,0.4173451364040375,-0.15885162353515625,0.19488859176635742
1684115141520183600,6.05718359375,0.4289224147796631,-0.2831268310546875,0.03816366195678711
1684115141530224000,6.06722412109375,0.06667795777320862,-0.5124969482421875,-0.20243263244628906
1684115141540265000,6.077264892578125,-0.31338998675346375,-0.6167669296264648,-0.4654989242553711
1684115141550305800,6.087305908203125,-0.5369932055473328,-0.5603561401367188,-0.7029132843017578
1684115141560346600,6.0973466796875,-0.5518690943717957,-0.4939584732055664,-0.8235824108123779
1684115141570387500,6.107387451171875,-0.43342041969299316,-0.3552970886230469,-0.8464875221252441
1684115141580428300,6.11742822265625,-0.26542192697525024,-0.2042398452758789,-0.705040454864502
1684115141590469000,6.12746923828125,-0.048354193568229675,-0.05576801300048828,-0.45826292037963867
1684115141600510000,6.137510009765625,0.15448841452598572,0.08954524993896484,-0.27002525329589844
1684115141610550500,6.147550537109375,0.3125297427177429,0.27446937561035156,-0.16936016082763672
1684115141620591400,6.15759130859375,0.4478086829185486,0.4628734588623047,-0.1374058723449707
1684115141630632200,6.167632080078125,0.5134807229042053,0.6833696365356445,-0.19318008422851562
1684115141640673000,6.177673095703125,0.5038166046142578,0.8208990097045898,-0.15324687957763672
1684115141650713900,6.1877138671875,0.39257851243019104,0.8778858184814453,-0.16139841079711914
1684115141660754700,6.197754638671875,0.31264209747314453,0.8904948234558105,-0.15268611907958984
1684115141670795500,6.20779541015625,0.25842201709747314,0.8376388549804688,-0.14563465118408203
1684115141680836400,6.21783642578125,0.2218027114868164,0.8749699592590332,-0.2233133316040039
1684115141690877000,6.227876953125,0.25350430607795715,0.8592977523803711,-0.30132293701171875
1684115141700917800,6.237917724609375,0.35348039865493774,0.8291678428649902,-0.3172035217285156
1684115141710958600,6.24795849609375,0.5238866209983826,0.770416259765625,-0.2875986099243164
1684115141720999400,6.25799951171875,0.6855301856994629,0.6165037155151367,-0.2384176254272461
1684115141731040300,6.268040283203125,0.8335129022598267,0.33658599853515625,-0.11008882522583008
1684115141741081000,6.2780810546875,0.9293072819709778,0.18655776977539062,-0.07227563858032227
1684115141751122000,6.288121826171875,1.0343291759490967,0.017653465270996094,0.04412221908569336
1684115141761162800,6.298162841796875,1.011157512664795,-0.18433570861816406,0.16509675979614258
1684115141771203300,6.308203369140625,1.006172776222229,-0.29244041442871094,0.2316741943359375
1684115141781244400,6.318244384765625,0.9692522287368774,-0.3399038314819336,0.28562498092651367
1684115141791285000,6.328284912109375,0.8323330879211426,-0.40091514587402344,0.3749399185180664
1684115141801325800,6.338325927734375,0.6234028339385986,-0.3731250762939453,0.3534126281738281
1684115141811366700,6.34836669921875,0.34790435433387756,-0.3379096984863281,0.30039215087890625
1684115141821407500,6.358407470703125,0.0057280659675598145,-0.33324432373046875,0.13523578643798828
1684115141831448300,6.3684482421875,-0.33509722352027893,-0.44953346252441406,-0.09614992141723633
1684115141841489200,6.3784892578125,-0.6039856672286987,-0.5785799026489258,-0.3813295364379883
1684115141851530000,6.388530029296875,-0.7169834971427917,-0.7491559982299805,-0.5609645843505859
1684115141861570800,6.39857080078125,-0.7000049352645874,-0.7344903945922852,-0.8369810581207275
1684115141871611400,6.408611328125,-0.5600385665893555,-0.6424045562744141,-1.0639891624450684
1684115141881652200,6.41865234375,-0.30766385793685913,-0.5732755661010742,-1.2257130146026611
1684115141891693000,6.428693115234375,-0.024230539798736572,-0.5509881973266602,-1.2390494346618652
1684115141901734000,6.43873388671875,0.24741435050964355,-0.5396223068237305,-1.1828999519348145
1684115141911774700,6.448774658203125,0.48850327730178833,-0.4577140808105469,-1.1588587760925293
1684115141921815600,6.458815673828125,0.6889605522155762,-0.3456745147705078,-1.1125843524932861
1684115141931856400,6.4688564453125,0.8301334381103516,-0.3301715850830078,-0.9358649253845215
1684115141941897200,6.478897216796875,0.9434466361999512,-0.2985668182373047,-0.6903486251831055
1684115141951938000,6.48893798828125,1.0383696556091309,-0.30827808380126953,-0.3929023742675781
1684115141961978600,6.498978515625,1.037553071975708,-0.34525299072265625,-0.08752012252807617
1684115141972019500,6.50901953125,1.010305404663086,-0.3424205780029297,0.1111297607421875
1684115141982060300,6.519060302734375,0.9966204166412354,-0.24262619018554688,0.2483539581298828
1684115141992101000,6.52910107421875,1.0135072469711304,-0.03485870361328125,0.3587665557861328
1684115142002142000,6.539141845703125,0.9741528630256653,0.30110931396484375,0.4573230743408203
1684115142012182800,6.549182861328125,0.8825374841690063,0.5851268768310547,0.4926309585571289
1684115142022223600,6.5592236328125,0.7195974588394165,0.7122116088867188,0.5865750312805176
1684115142032264400,6.569264404296875,0.5318444967269897,0.5920820236206055,0.7747526168823242
1684115142042305000,6.579304931640625,0.3351207971572876,0.4281034469604492,1.03690767288208
1684115142052345900,6.589345947265625,0.12839508056640625,0.2985868453979492,1.3161725997924805
1684115142062386700,6.59938671875,-0.09767568111419678,0.10043716430664062,1.623548984527588
1684115142072427500,6.609427490234375,-0.3341040015220642,0.0700836181640625,1.8057937622070312
1684115142082468400,6.61946826171875,-0.6174569129943848,0.16135692596435547,2.08457612991333
1684115142092509200,6.62950927734375,-0.8744363784790039,0.23742198944091797,2.322789192199707
1684115142102550000,6.639550048828125,-1.1422291994094849,0.41532325744628906,2.508910655975342
1684115142112590800,6.6495908203125,-1.5130211114883423,0.6287288665771484,2.5743699073791504
1684115142122631700,6.659631591796875,-2.248551368713379,0.8881235122680664,2.8095483779907227
1684115142132672300,6.66967236328125,-2.7232704162597656,1.2137203216552734,2.9994940757751465
1684115142142713000,6.679713134765625,-2.397491216659546,1.4134330749511719,2.8761563301086426
1684115142152754000,6.68975390625,-1.703686237335205,1.3551158905029297,2.630995988845825
1684115142162794800,6.699794677734375,-1.1871449947357178,1.165557861328125,2.6218252182006836
1684115142172835600,6.709835693359375,-0.8746077418327332,0.950599193572998,2.6758649349212646
1684115142182876400,6.71987646484375,-0.6032025814056396,0.8075218200683594,2.544496536254883
1684115142192917200,6.729917236328125,-0.2930290699005127,0.8231086730957031,2.0207371711730957
1684115142202958000,6.7399580078125,-0.03138995170593262,0.8908395767211914,1.3336539268493652
1684115142212998700,6.74999853515625,0.22791874408721924,0.8853683471679688,0.9004940986633301
1684115142223039500,6.76003955078125,0.35909509658813477,0.7549724578857422,0.6537604331970215
1684115142233080300,6.770080322265625,0.3631032705307007,0.5650091171264648,0.43911314010620117
1684115142243121200,6.78012109375,0.31416022777557373,0.3927183151245117,0.23427152633666992
1684115142253162000,6.790161865234375,0.2814391851425171,0.1739959716796875,0.05222892761230469
1684115142263202800,6.800202880859375,0.24875903129577637,-0.04065704345703125,-0.037287235260009766
1684115142273243600,6.81024365234375,0.2808338403701782,-0.18919086456298828,-0.1256413459777832
1684115142283284500,6.820284423828125,0.30748438835144043,-0.31972312927246094,-0.19459295272827148
1684115142293325300,6.8303251953125,0.36047327518463135,-0.3562784194946289,-0.2767500877380371
1684115142303366000,6.840365966796875,0.39181745052337646,-0.3493680953979492,-0.4044046401977539
1684115142313406700,6.85040673828125,0.3992335796356201,-0.2801637649536133,-0.4905712604522705
1684115142323447600,6.860447509765625,0.39690136909484863,-0.28238964080810547,-0.5720009803771973
1684115142333488400,6.87048828125,0.4126160144805908,-0.25311946868896484,-0.6042742729187012
1684115142343529200,6.880529296875,0.4156661033630371,-0.2707786560058594,-0.6207687854766846
1684115142353570000,6.890570068359375,0.41032421588897705,-0.30588245391845703,-0.5817131996154785
1684115142363611000,6.90061083984375,0.4342978000640869,-0.3107166290283203,-0.4119901657104492
1684115142373651700,6.910651611328125,0.4148644208908081,-0.3407602310180664,-0.24515104293823242
1684115142383692500,6.920692626953125,0.37982475757598877,-0.2862873077392578,-0.1189718246459961
1684115142393733000,6.930733154296875,0.3119126558303833,-0.10492324829101562,0.03996849060058594
1684115142403774000,6.94077392578125,0.271462082862854,0.130859375,0.14679718017578125
1684115142413814800,6.950814697265625,0.23652637004852295,0.2750577926635742,0.2747831344604492
1684115142423855600,6.960855712890625,0.2334280014038086,0.35175418853759766,0.44709348678588867
1684115142433896400,6.970896484375,0.23317909240722656,0.36591053009033203,0.6010608673095703
1684115142443937300,6.980937255859375,0.25573182106018066,0.3560314178466797,0.7320413589477539
1684115142453978000,6.99097802734375,0.2551807165145874,0.3772544860839844,0.8763651847839355
1684115142464019000,7.00101904296875,0.24898821115493774,0.36264610290527344,0.9198136329650879
1684115142474059800,7.011059814453125,0.2538672089576721,0.3836803436279297,0.9486393928527832
1684115142484100600,7.0211005859375,0.24852043390274048,0.3992195129394531,0.9098687171936035
1684115142494141400,7.031141357421875,0.26850295066833496,0.3878307342529297,0.7584381103515625
1684115142504182000,7.04118212890625,0.30824410915374756,0.3380155563354492,0.552337646484375
1684115142514222800,7.051222900390625,0.33190715312957764,0.22152042388916016,0.3921027183532715
1684115142524263700,7.061263671875,0.34568530321121216,0.1485271453857422,0.2442317008972168
1684115142534304500,7.071304443359375,0.34975796937942505,0.0855417251586914,0.13265562057495117
1684115142544345300,7.081345458984375,0.3748213052749634,0.008782386779785156,0.038537025451660156
1684115142554386200,7.09138623046875,0.4154220223426819,-0.083892822265625,-0.01130819320678711
1684115142564427000,7.101427001953125,0.4523163437843323,-0.097015380859375,-0.0386500358581543
1684115142574467800,7.1114677734375,0.5116490721702576,-0.14548778533935547,-0.0723123550415039
1684115142584508400,7.12150830078125,0.5840120911598206,-0.12892723083496094,-0.09082317352294922
1684115142594549200,7.13154931640625,0.6385203003883362,-0.04515552520751953,-0.0871729850769043
1684115142604590000,7.141590087890625,0.6701385974884033,-0.0638437271118164,-0.05406332015991211
1684115142614631000,7.151630859375,0.718842625617981,-0.0153045654296875,-0.05138540267944336
1684115142624671700,7.161671630859375,0.7478033900260925,0.09059810638427734,0.03305387496948242
1684115142634712600,7.171712646484375,0.7809532284736633,0.18198108673095703,0.09376811981201172
1684115142644753400,7.18175341796875,0.7952969074249268,0.18243122100830078,0.20701313018798828
1684115142654794200,7.191794189453125,0.8130017518997192,0.17331218719482422,0.29601001739501953
1684115142664835000,7.2018349609375,0.8241264820098877,0.25720691680908203,0.34151792526245117
1684115142674875600,7.211875732421875,0.8424530029296875,0.22845458984375,0.3675079345703125
1684115142684916500,7.22191650390625,0.820060133934021,0.2320728302001953,0.375856876373291
1684115142694957300,7.231957275390625,0.8023281097412109,0.21434402465820312,0.29215335845947266
1684115142704998100,7.241998046875,0.8034825921058655,0.1920604705810547,0.23787879943847656
1684115142715039000,7.2520390625,0.8022180795669556,0.24298763275146484,0.14659500122070312
1684115142725079800,7.262079833984375,0.8128365278244019,0.2952709197998047,0.09892606735229492
1684115142735120600,7.27212060546875,0.7930929660797119,0.22414684295654297,0.12947988510131836
1684115142745161500,7.282161376953125,0.7880373597145081,0.18929481506347656,0.15905332565307617
1684115142755202300,7.292202392578125,0.7828001976013184,0.20876407623291016,0.16381072998046875
1684115142765243100,7.3022431640625,0.7607594132423401,0.19444656372070312,0.16044902801513672
1684115142775283700,7.31228369140625,0.7385792136192322,0.2057647705078125,0.12322092056274414
1684115142785324500,7.322324462890625,0.7115473747253418,0.19757843017578125,0.10452079772949219
1684115142795365400,7.332365478515625,0.6513909697532654,0.11390399932861328,0.050321102142333984
1684115142805406200,7.34240625,0.5867222547531128,0.1020975112915039,-0.02905559539794922
1684115142815447000,7.352447021484375,0.5123213529586792,0.11136436462402344,-0.14287137985229492
1684115142825488000,7.36248779296875,0.4280998110771179,0.1014862060546875,-0.2642998695373535
1684115142835528700,7.37252880859375,0.3506962060928345,0.11991500854492188,-0.3907604217529297
1684115142845569500,7.382569580078125,0.28472769260406494,0.17542076110839844,-0.5178484916687012
1684115142855610400,7.3926103515625,0.19698819518089294,0.19420433044433594,-0.5965590476989746
1684115142865651000,7.40265087890625,0.14886429905891418,0.17210865020751953,-0.637232780456543
1684115142875691800,7.41269189453125,0.06471505761146545,0.09323978424072266,-0.6219305992126465
1684115142885732600,7.422732666015625,0.03510087728500366,-0.017713546752929688,-0.5206131935119629
1684115142895773400,7.4327734375,0.01973554491996765,-0.0823221206665039,-0.4214475154876709
1684115142905814300,7.442814208984375,-0.06455770134925842,-0.1695575714111328,-0.2982754707336426
1684115142915855000,7.452855224609375,-0.14328530430793762,-0.24590206146240234,-0.2806274890899658
1684115142925896000,7.46289599609375,-0.1557372808456421,-0.2924337387084961,-0.2533731460571289
1684115142935936800,7.472936767578125,-0.12591537833213806,-0.38469791412353516,-0.20694255828857422
1684115142945977600,7.4829775390625,-0.04283037781715393,-0.38077259063720703,-0.20090246200561523
1684115142956018200,7.49301806640625,0.09013542532920837,-0.2638092041015625,-0.21178340911865234
1684115142966059000,7.50305908203125,0.182553231716156,-0.10424232482910156,-0.26548051834106445
1684115142976099800,7.513099853515625,0.22266274690628052,-0.008603096008300781,-0.36540842056274414
1684115142986140700,7.523140625,0.22968614101409912,0.05471229553222656,-0.37887072563171387
1684115142996181500,7.533181396484375,0.21170419454574585,0.1614093780517578,-0.45118093490600586
1684115143006222300,7.543222412109375,0.1328895092010498,0.21666717529296875,-0.5388257503509521
1684115143016263200,7.55326318359375,0.029855430126190186,0.20259380340576172,-0.5543265342712402
1684115143026304000,7.563303955078125,-0.0768561065196991,0.1933612823486328,-0.6543064117431641
1684115143036344800,7.5733447265625,-0.23953014612197876,0.17241477966308594,-0.6985828876495361
1684115143046385700,7.5833857421875,-0.38695400953292847,0.06233501434326172,-0.7445363998413086
1684115143056426500,7.593426513671875,-0.5150336027145386,-0.031792640686035156,-0.6815507411956787
1684115143066467300,7.60346728515625,-0.6503292918205261,-0.16171550750732422,-0.6735043525695801
1684115143076508000,7.6135078125,-0.6958009600639343,-0.2573671340942383,-0.6668658256530762
1684115143086548700,7.623548828125,-0.6639497876167297,-0.2350921630859375,-0.63250732421875
1684115143096589600,7.633589599609375,-0.5610702037811279,-0.2433452606201172,-0.5490555763244629
1684115143106630400,7.64363037109375,-0.3822364807128906,-0.22001171112060547,-0.3760108947753906
1684115143116671200,7.653671142578125,-0.25557515025138855,-0.2080078125,-0.2111189365386963
1684115143126712000,7.663712158203125,-0.09307942539453506,-0.14258766174316406,-0.08246350288391113
1684115143136753000,7.6737529296875,-0.0025066956877708435,-0.13122940063476562,0.003176450729370117
1684115143146793700,7.683793701171875,0.05888601392507553,-0.07153892517089844,0.1595778465270996
1684115143156834600,7.69383447265625,0.11252781748771667,0.021582603454589844,0.2255406379699707
1684115143166875100,7.703875244140625,0.14613623917102814,0.0021228790283203125,0.29622316360473633
1684115143176916000,7.713916015625,0.1525205820798874,0.006305694580078125,0.36878466606140137
1684115143186956800,7.723956787109375,0.12684066593647003,0.007472991943359375,0.41616368293762207
1684115143196997600,7.73399755859375,0.06902597844600677,-0.004242897033691406,0.3779468536376953
1684115143207038500,7.74403857421875,-0.010698556900024414,-0.021836280822753906,0.25868916511535645
1684115143217079300,7.754079345703125,-0.08529162406921387,-0.030982017517089844,0.1302340030670166
1684115143227120000,7.7641201171875,-0.13486137986183167,-0.03162384033203125,0.028682708740234375
1684115143237161000,7.774160888671875,-0.19518297910690308,-0.06663036346435547,-0.11493992805480957
1684115143247201800,7.784201904296875,-0.26126107573509216,-0.08783340454101562,-0.2113785743713379
1684115143257242600,7.79424267578125,-0.2901495099067688,-0.10478782653808594,-0.2773630619049072
1684115143267283200,7.804283203125,-0.36732202768325806,-0.11581134796142578,-0.3131370544433594
1684115143277324000,7.814323974609375,-0.4846956729888916,-0.17140579223632812,-0.3548696041107178
1684115143287364900,7.82436474609375,-0.568524181842804,-0.2612314224243164,-0.3313610553741455
1684115143297405700,7.83440576171875,-0.6782887578010559,-0.2804698944091797,-0.3451864719390869
1684115143307446500,7.844446533203125,-0.7886958718299866,-0.35477733612060547,-0.35390186309814453
1684115143317487400,7.8544873046875,-0.8420945405960083,-0.27938270568847656,-0.2731342315673828
1684115143327528200,7.864528076171875,-0.9794222712516785,-0.33702850341796875,-0.3096897602081299
1684115143337569000,7.874569091796875,-1.0363082885742188,-0.41226673126220703,-0.39296722412109375
1684115143347609900,7.88460986328125,-1.043745994567871,-0.49520301818847656,-0.3692152500152588
1684115143357650700,7.894650634765625,-1.0184080600738525,-0.5496120452880859,-0.4383208751678467
1684115143367691300,7.904691162109375,-1.0195482969284058,-0.5614147186279297,-0.4450197219848633
1684115143377732000,7.914732177734375,-0.9825645685195923,-0.5858306884765625,-0.4757509231567383
1684115143387773000,7.92477294921875,-0.8798013925552368,-0.5988588333129883,-0.4731013774871826
1684115143397813800,7.934813720703125,-0.7775470018386841,-0.6624298095703125,-0.4801487922668457
1684115143407854600,7.9448544921875,-0.6650062799453735,-0.6571149826049805,-0.4688277244567871
1684115143417895400,7.9548955078125,-0.6047302484512329,-0.7121572494506836,-0.4229152202606201
1684115143427936300,7.964936279296875,-0.5654177665710449,-0.7176284790039062,-0.40717411041259766
1684115143437977000,7.97497705078125,-0.5563437938690186,-0.6545982360839844,-0.3284761905670166
1684115143448018000,7.985017822265625,-0.5267106294631958,-0.5782051086425781,-0.21794891357421875
1684115143458058800,7.995058837890625,-0.5244098901748657,-0.4765033721923828,-0.13532543182373047
1684115143468099300,8.005099365234376,-0.49988996982574463,-0.34198665618896484,-0.02261209487915039
1684115143478140200,8.01514013671875,-0.3629833459854126,-0.23868465423583984,0.11862802505493164
1684115143488181000,8.025180908203126,-0.21965861320495605,-0.1468973159790039,0.26523876190185547
1684115143498221800,8.035221923828125,-0.06896519660949707,-0.03483104705810547,0.3392496109008789
1684115143508262700,8.0452626953125,0.03008568286895752,-0.021492958068847656,0.3170657157897949
1684115143518303500,8.055303466796875,0.03378176689147949,-0.020796775817871094,0.3127312660217285
1684115143528344300,8.06534423828125,-0.03991127014160156,0.0025815963745117188,0.22745180130004883
1684115143538385200,8.07538525390625,-0.1029353141784668,0.03379249572753906,0.12087774276733398
1684115143548426000,8.085426025390625,-0.16539955139160156,0.06284904479980469,-0.004656314849853516
1684115143558466800,8.095466796875,-0.1327725648880005,0.16554927825927734,-0.02804422378540039
1684115143568507400,8.10550732421875,-0.1535639762878418,0.17688846588134766,-0.15270566940307617
1684115143578548200,8.11554833984375,-0.2005610466003418,0.0858297348022461,-0.28214597702026367
1684115143588589000,8.125589111328125,-0.2139885425567627,0.014463424682617188,-0.301654577255249
1684115143598630000,8.1356298828125,-0.19339895248413086,0.015071868896484375,-0.3024606704711914
1684115143608670700,8.145670654296875,-0.18094146251678467,0.0085906982421875,-0.334517240524292
1684115143618711600,8.155711669921875,-0.15476274490356445,-0.0024175643920898438,-0.35189175605773926
1684115143628752400,8.16575244140625,-0.14094460010528564,-0.012938499450683594,-0.4113755226135254
1684115143638793200,8.175793212890625,-0.11523735523223877,-0.010828971862792969,-0.43587660789489746
1684115143648834000,8.185833984375,-0.11836349964141846,0.015911102294921875,-0.49221229553222656
1684115143658875000,8.195875,-0.14533460140228271,0.024217605590820312,-0.5229759216308594
1684115143668915700,8.205915771484374,-0.16508543491363525,-0.00032901763916015625,-0.5404751300811768
1684115143678956500,8.21595654296875,-0.17055904865264893,-0.04821205139160156,-0.5020475387573242
1684115143688997000,8.2259970703125,-0.22395384311676025,-0.11944961547851562,-0.49399232864379883
1684115143699038000,8.236037841796875,-0.2615925073623657,-0.19687271118164062,-0.4807300567626953
1684115143709078800,8.246078857421875,-0.2988206148147583,-0.2679862976074219,-0.4836258888244629
1684115143719119600,8.25611962890625,-0.3544362783432007,-0.31647300720214844,-0.48837733268737793
1684115143729160400,8.266160400390625,-0.38108086585998535,-0.32399749755859375,-0.4905104637145996
1684115143739201300,8.276201171875,-0.40012145042419434,-0.32683658599853516,-0.49286890029907227
1684115143749242000,8.2862421875,-0.3289104700088501,-0.202545166015625,-0.48328375816345215
1684115143759283000,8.296282958984374,-0.2701268196105957,-0.11539077758789062,-0.4189424514770508
1684115143769323800,8.30632373046875,-0.17938470840454102,-0.05536174774169922,-0.3316652774810791
1684115143779364600,8.316364501953124,-0.12611520290374756,-0.019628524780273438,-0.2079625129699707
1684115143789405400,8.326405517578126,-0.072013258934021,-0.014862060546875,-0.15204524993896484
1684115143799446000,8.336446044921875,-0.033402204513549805,0.03486824035644531,-0.12958431243896484
1684115143809486800,8.34648681640625,-0.038177490234375,0.058272361755371094,-0.0621037483215332
1684115143819527700,8.356527587890625,-0.03126966953277588,0.05773353576660156,0.008859634399414062
1684115143829568500,8.366568603515624,-0.0434345006942749,0.07594013214111328,0.045421600341796875
1684115143839609300,8.376609375,-0.06499004364013672,0.1291370391845703,0.093017578125
1684115143849650200,8.386650146484374,-0.07705581188201904,0.16495704650878906,0.17733049392700195
1684115143859691000,8.39669091796875,-0.08458375930786133,0.20018482208251953,0.2129826545715332
1684115143869731800,8.40673193359375,-0.1134195327758789,0.19008827209472656,0.28792762756347656
1684115143879772700,8.416772705078126,-0.14184200763702393,0.18952178955078125,0.41326427459716797
1684115143889813500,8.4268134765625,-0.15759754180908203,0.1814594268798828,0.4887113571166992
1684115143899854000,8.43685400390625,-0.20086336135864258,0.21312618255615234,0.49161481857299805
1684115143909895000,8.44689501953125,-0.22165727615356445,0.2155590057373047,0.48438549041748047
1684115143919935700,8.456935791015624,-0.24406909942626953,0.2104196548461914,0.4341239929199219
1684115143929976600,8.4669765625,-0.24703454971313477,0.18841552734375,0.3673734664916992
1684115143940017400,8.477017333984374,-0.23985838890075684,0.16639328002929688,0.28715944290161133
1684115143950058200,8.487058349609375,-0.22967004776000977,0.14678096771240234,0.2527642250061035
1684115143960099000,8.49709912109375,-0.2191307544708252,0.10617351531982422,0.20480871200561523
1684115143970140000,8.507139892578126,-0.213364839553833,0.11794471740722656,0.1575450897216797
1684115143980180700,8.5171806640625,-0.18888092041015625,0.13187408447265625,0.14639043807983398
1684115143990221600,8.5272216796875,-0.17418527603149414,0.09851646423339844,0.14963817596435547
1684115144000262400,8.537262451171875,-0.18543696403503418,0.07976436614990234,0.11748170852661133
1684115144010303000,8.547302978515624,-0.18453145027160645,0.09179496765136719,0.10924053192138672
1684115144020343800,8.55734375,-0.1855618953704834,0.06349372863769531,0.07995843887329102
1684115144030384600,8.567384521484374,-0.21216535568237305,0.08263587951660156,0.09348678588867188
1684115144040425500,8.577425537109375,-0.20040225982666016,0.08481788635253906,0.10190296173095703
1684115144050466300,8.58746630859375,-0.19587182998657227,0.03965282440185547,0.11917495727539062
1684115144060507100,8.597507080078126,-0.2080245018005371,-0.01670551300048828,0.12399530410766602
1684115144070548000,8.6075478515625,-0.1940774917602539,-0.02533721923828125,0.19879865646362305
1684115144080588800,8.6175888671875,-0.1896224021911621,-0.062381744384765625,0.2012190818786621
1684115144090629600,8.627629638671875,-0.19178295135498047,-0.054351806640625,0.2457256317138672
1684115144100670500,8.63767041015625,-0.19558024406433105,-0.1125173568725586,0.2966432571411133
1684115144110711000,8.6477109375,-0.20348811149597168,-0.1297454833984375,0.2857046127319336
1684115144120751900,8.657751953125,-0.253124475479126,-0.16096973419189453,0.3314366340637207
1684115144130792700,8.667792724609376,-0.31346821784973145,-0.1518087387084961,0.2985706329345703
1684115144140833500,8.67783349609375,-0.3406503200531006,-0.0981607437133789,0.24923372268676758
1684115144150874400,8.687874267578126,-0.3689918518066406,-0.10204887390136719,0.20908498764038086
1684115144160915200,8.697915283203125,-0.3935577869415283,-0.09885597229003906,0.1288156509399414
1684115144170956000,8.7079560546875,-0.36744165420532227,-0.07694530487060547,0.051380157470703125
1684115144180996900,8.717996826171875,-0.26639461517333984,-0.053000450134277344,0.014188766479492188
1684115144191037700,8.72803759765625,-0.23537421226501465,-0.02241802215576172,-0.014224052429199219
1684115144201078500,8.73807861328125,-0.26454901695251465,-0.035022735595703125,0.018080711364746094
1684115144211119400,8.748119384765625,-0.3575761318206787,-0.008191108703613281,0.05859231948852539
1684115144221160200,8.75816015625,-0.39952802658081055,0.010304450988769531,0.06283187866210938
1684115144231201000,8.768200927734375,-0.32657575607299805,0.05611133575439453,-0.01120901107788086
1684115144241241900,8.778241943359374,-0.17041563987731934,0.08876228332519531,-0.06881189346313477
1684115144251282400,8.788282470703125,-0.01075124740600586,0.1486215591430664,-0.09149026870727539
1684115144261323300,8.7983232421875,0.15700411796569824,0.18144989013671875,-0.11919116973876953
1684115144271364000,8.808364013671875,0.30146288871765137,0.19290447235107422,-0.12767553329467773
1684115144281405000,8.818405029296875,0.4148447513580322,0.19803810119628906,-0.11911678314208984
1684115144291445800,8.82844580078125,0.4479266405105591,0.2067546844482422,-0.11206960678100586
1684115144301486600,8.838486572265625,0.36733508110046387,0.22859573364257812,-0.08467912673950195
1684115144311527400,8.84852734375,0.29826903343200684,0.2186574935913086,-0.02029561996459961
1684115144321568300,8.858568359375,0.20110130310058594,0.163238525390625,0.04052734375
1684115144331609000,8.868609130859374,0.18047451972961426,0.1453390121459961,0.022502899169921875
1684115144341650000,8.87864990234375,0.16948318481445312,0.1641845703125,-0.026123046875
1684115144351690800,8.888690673828124,0.20990800857543945,0.1908245086669922,-0.07695865631103516
1684115144361731300,8.8987314453125,0.2892322540283203,0.16609668731689453,-0.11139822006225586
1684115144371772200,8.908772216796875,0.2893589735031128,0.10274124145507812,-0.2000136375427246
1684115144381813000,8.91881298828125,0.2233574390411377,0.02072620391845703,-0.30334949493408203
1684115144391853800,8.928853759765625,0.11300432682037354,-0.12876129150390625,-0.4066786766052246
1684115144401894700,8.938894775390626,-0.0318903923034668,-0.31424999237060547,-0.5647463798522949
1684115144411935500,8.948935546875,-0.1544783115386963,-0.4459266662597656,-0.6712098121643066
1684115144421976300,8.958976318359374,-0.29024815559387207,-0.46145057678222656,-0.7297632694244385
1684115144432017200,8.96901708984375,-0.3918426036834717,-0.4809608459472656,-0.6926255226135254
1684115144442058000,8.97905810546875,-0.4743194580078125,-0.5048456192016602,-0.5176718235015869
1684115144452098800,8.989098876953125,-0.48784494400024414,-0.5193271636962891,-0.3300900459289551
1684115144462139600,8.9991396484375,-0.5212154388427734,-0.5483579635620117,-0.18393564224243164
1684115144472180200,9.00918017578125,-0.48974692821502686,-0.5612812042236328,-0.054500579833984375
1684115144482221000,9.019220947265625,-0.4010887145996094,-0.5254745483398438,0.042063236236572266
1684115144492262000,9.029261962890626,-0.3465813398361206,-0.4983844757080078,0.08912467956542969
1684115144502302700,9.039302734375,-0.2805054187774658,-0.4068126678466797,0.13621282577514648
1684115144512343600,9.049343505859374,-0.22593724727630615,-0.3505859375,0.10276317596435547
1684115144522384400,9.05938427734375,-0.09358704090118408,-0.24903297424316406,0.09596920013427734
1684115144532425200,9.06942529296875,0.0027408599853515625,-0.18519115447998047,0.03579378128051758
1684115144542466000,9.079466064453126,0.0641942024230957,-0.10177803039550781,0.04137611389160156
1684115144552507000,9.0895068359375,0.12149548530578613,-0.06946945190429688,0.05311250686645508
1684115144562547700,9.099547607421876,0.13652467727661133,0.004582405090332031,0.0804591178894043
1684115144572588500,9.109588623046875,0.10024285316467285,0.08920764923095703,0.1020970344543457
1684115144582629400,9.11962939453125,0.046135783195495605,0.16320419311523438,0.07595348358154297
1684115144592670000,9.129669921875,0.005247592926025391,0.18920135498046875,0.07140302658081055
1684115144602710800,9.139710693359374,0.008544325828552246,0.1822376251220703,0.07914543151855469
1684115144612751600,9.149751708984375,0.0071517229080200195,0.1992654800415039,0.08519411087036133
1684115144622792400,9.15979248046875,0.03977084159851074,0.23261451721191406,0.14605426788330078
1684115144632833300,9.169833251953126,0.1080322265625,0.2113189697265625,0.1711411476135254
1684115144642874000,9.1798740234375,0.17522847652435303,0.17159461975097656,0.17485380172729492
1684115144652915000,9.1899150390625,0.207330584526062,0.12811660766601562,0.18114995956420898
1684115144662955800,9.199955810546875,0.2092059850692749,0.09043121337890625,0.13112306594848633
1684115144672996600,9.20999658203125,0.19551098346710205,0.08434581756591797,0.1317005157470703
1684115144683037400,9.220037353515625,0.18806171417236328,0.062224388122558594,0.1538991928100586
1684115144693078300,9.230078369140625,0.19894349575042725,0.06180000305175781,0.15711164474487305
1684115144703119000,9.240119140625,0.20393645763397217,0.05670452117919922,0.23079252243041992
1684115144713160000,9.250159912109375,0.16747641563415527,0.07752132415771484,0.2745976448059082
1684115144723200800,9.26020068359375,0.10141527652740479,0.08140850067138672,0.272308349609375
1684115144733241300,9.270241455078125,0.05129706859588623,0.07567977905273438,0.24359989166259766
1684115144743282200,9.2802822265625,0.026986122131347656,0.0441131591796875,0.1822948455810547
1684115144753323000,9.290322998046875,0.002974867820739746,-0.0011882781982421875,0.12432384490966797
1684115144763363800,9.30036376953125,0.017926335334777832,-0.022480010986328125,0.029615402221679688
1684115144773404700,9.31040478515625,0.06929779052734375,-0.06023597717285156,-0.03528308868408203
1684115144783445500,9.320445556640625,0.1069411039352417,-0.11413764953613281,-0.1061558723449707
1684115144793486300,9.330486328125,0.12775492668151855,-0.1388559341430664,-0.19902944564819336
1684115144803527200,9.340527099609375,0.13046681880950928,-0.13236236572265625,-0.22419214248657227
1684115144813568000,9.350568115234376,0.10728323459625244,-0.13491344451904297,-0.27428197860717773
1684115144823608800,9.36060888671875,0.06805825233459473,-0.0687570571899414,-0.2548184394836426
1684115144833649700,9.370649658203124,0.07792425155639648,-0.0056514739990234375,-0.3007621765136719
1684115144843690500,9.3806904296875,0.022485017776489258,0.021518707275390625,-0.28575563430786133
1684115144853731000,9.39073095703125,0.0192641019821167,0.0015592575073242188,-0.26947879791259766
1684115144863772000,9.40077197265625,0.053517937660217285,0.036278724670410156,-0.16993951797485352
1684115144873812700,9.410812744140625,0.09068197011947632,0.044699668884277344,-0.12066268920898438
1684115144883853600,9.420853515625,0.11508673429489136,0.08598136901855469,-0.038999080657958984
1684115144893894400,9.430894287109375,0.09087985754013062,0.14299392700195312,0.020013809204101562
1684115144903935200,9.440935302734376,0.09708821773529053,0.1495046615600586,0.0826716423034668
1684115144913976000,9.45097607421875,0.1345863938331604,0.1718435287475586,0.12479209899902344
1684115144924017000,9.461016845703124,0.15188848972320557,0.11551094055175781,0.13729286193847656
1684115144934057700,9.4710576171875,0.1276584267616272,0.15848350524902344,0.17019128799438477
1684115144944098600,9.4810986328125,0.06387937068939209,0.22370433807373047,0.22751426696777344
1684115144954139400,9.491139404296876,0.0195656418800354,0.24231243133544922,0.336575984954834
1684115144964180200,9.50118017578125,0.046722590923309326,0.22423362731933594,0.4066152572631836
1684115144974221000,9.511220947265626,0.07016050815582275,0.2268505096435547,0.3989906311035156
1684115144984261600,9.52126171875,0.0700075626373291,0.20296669006347656,0.3344449996948242
1684115144994302500,9.531302490234374,0.06551539897918701,0.1645641326904297,0.23932695388793945
1684115145004343300,9.54134326171875,0.048563599586486816,0.1166524887084961,0.1635150909423828
1684115145014384000,9.551384033203124,0.022374629974365234,0.07119560241699219,0.06885576248168945
1684115145024425000,9.561425048828125,-0.030292212963104248,0.04002666473388672,-0.015979290008544922
1684115145034465800,9.5714658203125,-0.10469865798950195,0.06104278564453125,-0.04084587097167969
1684115145044506600,9.581506591796876,-0.1784714162349701,0.018187522888183594,-0.08634805679321289
1684115145054547500,9.59154736328125,-0.20515191555023193,0.032505035400390625,-0.10268306732177734
1684115145064588300,9.60158837890625,-0.1789407730102539,-0.06191062927246094,-0.09519672393798828
1684115145074629000,9.611629150390625,-0.17559441924095154,-0.0819091796875,-0.1324152946472168
1684115145084670000,9.621669921875,-0.09611263871192932,-0.0734262466430664,-0.20652532577514648
1684115145094710800,9.631710693359375,-0.034799784421920776,-0.0885152816772461,-0.30486631393432617
1684115145104751400,9.64175146484375,0.04006102681159973,-0.07481098175048828,-0.3161802291870117
1684115145114792200,9.651792236328125,0.14154542982578278,-0.08915138244628906,-0.3170604705810547
1684115145124833000,9.6618330078125,0.22684240341186523,-0.06506633758544922,-0.31691503524780273
1684115145134873900,9.671873779296876,0.338926762342453,-0.11162185668945312,-0.2594890594482422
1684115145144914700,9.681914794921875,0.39386212825775146,-0.04171562194824219,-0.23302650451660156
1684115145154955500,9.69195556640625,0.4079325199127197,-0.035968780517578125,-0.1848282814025879
1684115145164996400,9.701996337890625,0.3974115252494812,-0.020338058471679688,-0.1764969825744629
1684115145175037200,9.712037109375,0.3339250385761261,-0.011499404907226562,-0.08264589309692383
1684115145185078000,9.722078125,0.31771764159202576,0.06570243835449219,-0.06997442245483398
1684115145195118800,9.732118896484375,0.27666229009628296,0.06389713287353516,-0.03864622116088867
1684115145205159700,9.74215966796875,0.17168234288692474,0.10457706451416016,-0.0004725456237792969
1684115145215200500,9.752200439453125,0.0797620415687561,0.10930824279785156,0.04438018798828125
1684115145225241300,9.762241455078126,0.039154261350631714,0.010193824768066406,0.07890844345092773
1684115145235282200,9.7722822265625,-0.044076159596443176,-0.014315605163574219,-0.009405136108398438
1684115145245323000,9.782322998046874,-0.1200268343091011,0.027719497680664062,-0.07681751251220703
1684115145255363800,9.79236376953125,-0.14414472877979279,0.043463706970214844,-0.18474292755126953
1684115145265404400,9.802404296875,-0.1784759908914566,0.033351898193359375,-0.2501201629638672
1684115145275445200,9.8124453125,-0.16592928767204285,-0.02812671661376953,-0.26906299591064453
1684115145285486000,9.822486083984375,-0.10908594727516174,-0.07882118225097656,-0.2633795738220215
1684115145295527000,9.83252685546875,-0.029874039813876152,-0.1024789810180664,-0.24771356582641602
1684115145305567700,9.842567626953125,0.05146412551403046,-0.08060741424560547,-0.22437047958374023
1684115145315608600,9.852608642578126,0.17375200986862183,-0.023468017578125,-0.11123132705688477
1684115145325649400,9.8626494140625,0.2579849064350128,-0.04949378967285156,-0.030113697052001953
1684115145335690200,9.872690185546874,0.26141557097435,0.031159400939941406,0.033930301666259766
1684115145345731000,9.88273095703125,0.2270563393831253,-0.02112579345703125,0.11406230926513672
1684115145355772000,9.89277197265625,0.1809062659740448,-0.020647048950195312,0.1815338134765625
1684115145365812700,9.902812744140626,0.12602104246616364,0.041228294372558594,0.2132406234741211
1684115145375853600,9.912853515625,0.08259660005569458,0.11380290985107422,0.2398834228515625
1684115145385894400,9.922894287109376,-0.006224483251571655,0.05074501037597656,0.23044395446777344
1684115145395935200,9.932935302734375,0.019332975149154663,0.14633464813232422,0.21622657775878906
1684115145405975800,9.942975830078124,0.027689337730407715,0.20006752014160156,0.23001575469970703
1684115145416016600,9.9530166015625,0.027987182140350342,0.22427082061767578,0.2663612365722656
1684115145426057500,9.963057373046874,0.057915955781936646,0.14622211456298828,0.29378271102905273
1684115145436098300,9.973098388671875,0.07031688094139099,0.17507648468017578,0.20700454711914062
1684115145446139100,9.98313916015625,0.11267748475074768,0.18445396423339844,0.20130062103271484
1684115145456180000,9.993179931640626,0.1273168921470642,0.1934061050415039,0.19510126113891602
1684115145466220800,10.003220703125,0.15125951170921326,0.1924266815185547,0.2424473762512207
1684115145476261600,10.01326171875,0.18911725282669067,0.15349769592285156,0.17072057723999023
1684115145486302500,10.023302490234375,0.20844510197639465,0.1270151138305664,0.16847610473632812
1684115145496343300,10.03334326171875,0.29210108518600464,0.14104461669921875,0.17572975158691406
1684115145506384100,10.043384033203125,0.36364132165908813,0.13391399383544922,0.14331293106079102
1684115145516425000,10.053425048828124,0.38946259021759033,0.07761478424072266,0.14472723007202148
1684115145526465800,10.0634658203125,0.4219059348106384,0.03641319274902344,0.1862630844116211
1684115145536506400,10.07350634765625,0.44427376985549927,0.09943389892578125,0.1941070556640625
1684115145546547200,10.083547119140626,0.48474782705307007,0.10481643676757812,0.227630615234375
1684115145556588000,10.093588134765625,0.48914098739624023,0.12417411804199219,0.22287273406982422
1684115145566628900,10.10362890625,0.48358452320098877,0.15255451202392578,0.2887873649597168
1684115145576669700,10.113669677734375,0.44865506887435913,0.1591806411743164,0.3112602233886719
1684115145586710500,10.12371044921875,0.4010378122329712,0.21281051635742188,0.3054494857788086
1684115145596751400,10.13375146484375,0.3866710066795349,0.21831607818603516,0.31135082244873047
1684115145606792200,10.143792236328125,0.37274783849716187,0.19561100006103516,0.2845115661621094
1684115145616833000,10.1538330078125,0.3525630831718445,0.20876693725585938,0.3008298873901367
1684115145626873900,10.163873779296875,0.3045918345451355,0.23102569580078125,0.3567485809326172
1684115145636914700,10.173914794921876,0.24578559398651123,0.22210979461669922,0.40665340423583984
1684115145646955500,10.18395556640625,0.24070358276367188,0.20615291595458984,0.46477556228637695
1684115145656996400,10.193996337890624,0.275858998298645,0.16432857513427734,0.5728387832641602
1684115145667037200,10.204037109375,0.32524728775024414,0.2380666732788086,0.5786991119384766
1684115145677077800,10.214077880859374,0.37865883111953735,0.3191947937011719,0.5588455200195312
1684115145687118600,10.22411865234375,0.3731265068054199,0.30410099029541016,0.5659966468811035
1684115145697159400,10.234159423828125,0.3265725374221802,0.3450031280517578,0.47753000259399414
1684115145707200300,10.2442001953125,0.27921581268310547,0.23139572143554688,0.5045676231384277
1684115145717241000,10.254240966796875,0.2273426055908203,0.10233211517333984,0.4918632507324219
1684115145727282000,10.264281982421876,0.2147769331932068,-0.15714740753173828,0.5531096458435059
1684115145737322800,10.27432275390625,0.16333669424057007,-0.14406585693359375,0.37749195098876953
1684115145747363600,10.284363525390624,0.16481781005859375,-0.2959423065185547,0.3343629837036133
1684115145757404400,10.294404296875,0.20044922828674316,-0.019155502319335938,0.10155487060546875
1684115145767445200,10.3044453125,0.19670474529266357,-0.07193660736083984,0.07989645004272461
1684115145777486000,10.314486083984375,0.18828195333480835,-0.07915878295898438,0.0020351409912109375
1684115145787527000,10.32452685546875,0.1837226152420044,-0.21792030334472656,0.024446487426757812
1684115145797567700,10.334567626953126,0.1739649772644043,-0.1870565414428711,-0.038283348083496094
1684115145807608600,10.344608642578125,0.21003836393356323,-0.10271549224853516,-0.006287097930908203
1684115145817649400,10.3546494140625,0.2543361186981201,-0.0018377304077148438,0.0776982307434082
1684115145827690200,10.364690185546875,0.2942483425140381,0.1174612045288086,0.05250358581542969
1684115145837731000,10.37473095703125,0.2805550694465637,0.13253307342529297,0.03779935836791992
1684115145847772000,10.38477197265625,0.22669708728790283,0.07375812530517578,-0.07189035415649414
1684115145857812500,10.3948125,0.1375141143798828,-0.26578426361083984,-0.1902937889099121
1684115145867853300,10.404853271484376,0.009944260120391846,-0.9403924942016602,-0.3089723587036133
1684115145877894100,10.41489404296875,-0.11235451698303223,-1.316610336303711,-0.5519692897796631
1684115145887935000,10.42493505859375,-0.08124387264251709,-1.1595516204833984,-0.8342256546020508
1684115145897975800,10.434975830078125,-0.020427048206329346,-0.5724735260009766,-1.0716731548309326
1684115145908016600,10.4450166015625,-0.0006361007690429688,-1.2641544342041016,-0.7791495323181152
1684115145918057500,10.455057373046875,-0.03430110216140747,-0.6829185485839844,-1.087083101272583
1684115145928098300,10.465098388671874,-0.07913124561309814,0.2288827896118164,-1.3862390518188477
1684115145938139100,10.47513916015625,-0.09145134687423706,0.4053974151611328,-1.1733636856079102
1684115145948180000,10.485179931640625,-0.07541024684906006,-0.03881359100341797,-0.7669334411621094
1684115145958220800,10.495220703125,-0.03822827339172363,-0.14585494995117188,-0.509798526763916
1684115145968261600,10.50526171875,-0.03600519895553589,0.12095832824707031,-0.3186790943145752
1684115145978302500,10.515302490234374,0.0002739429473876953,0.5098981857299805,-0.013348102569580078
1684115145988343300,10.52534326171875,0.057178616523742676,0.5022134780883789,0.2608828544616699
1684115145998384000,10.535384033203124,0.050920963287353516,0.272186279296875,0.34648656845092773
1684115146008424700,10.5454248046875,-0.06428146362304688,-0.2674083709716797,0.42352294921875
1684115146018465500,10.555465576171875,0.00998467206954956,-0.20040035247802734,0.5873003005981445
1684115146028506400,10.56550634765625,-0.10273611545562744,0.3242015838623047,0.4313836097717285
1684115146038547200,10.575547119140625,-0.11244004964828491,0.5761213302612305,0.361569881439209
1684115146048588000,10.585588134765626,-0.07525885105133057,0.536768913269043,0.47693300247192383
1684115146058628900,10.59562890625,-0.1547662615776062,0.30476951599121094,0.5724081993103027
1684115146068669700,10.605669677734374,-0.14831674098968506,0.23468971252441406,0.5675568580627441
1684115146078710500,10.61571044921875,-0.14375656843185425,0.2575416564941406,0.5513253211975098
1684115146088751400,10.62575146484375,-0.03216123580932617,0.2517738342285156,0.4603285789489746
1684115146098792200,10.635792236328125,-0.029557108879089355,0.28398895263671875,0.4251828193664551
1684115146108833000,10.6458330078125,-0.023578107357025146,0.3442201614379883,0.3699064254760742
1684115146118873900,10.655873779296876,-0.06497204303741455,0.3778953552246094,0.40753650665283203
1684115146128914700,10.665914794921875,-0.05451047420501709,0.35402774810791016,0.4306459426879883
1684115146138955500,10.67595556640625,-0.08767080307006836,0.22501468658447266,0.4058241844177246
1684115146148996400,10.685996337890625,-0.04686635732650757,0.14408302307128906,0.45752906799316406
1684115146159037200,10.696037109375,0.01732015609741211,0.02928638458251953,0.39083433151245117
1684115146169077800,10.706077880859375,0.06831574440002441,0.04796123504638672,0.2917957305908203
1684115146179118600,10.71611865234375,0.10619497299194336,0.04962921142578125,0.24822521209716797
1684115146189159400,10.726159423828125,0.08161413669586182,0.07449722290039062,0.18133544921875
1684115146199200300,10.7362001953125,0.05249965190887451,0.07508659362792969,0.09375572204589844
1684115146209241000,10.746240966796876,0.0077855587005615234,0.02831554412841797,0.01639842987060547
1684115146219282000,10.756281982421875,-0.0329056978225708,-0.010849952697753906,-0.06038856506347656
1684115146229322800,10.76632275390625,-0.06738090515136719,-0.09177589416503906,-0.14323902130126953
1684115146239363600,10.776363525390625,-0.11452573537826538,-0.18072795867919922,-0.2012948989868164
1684115146249404400,10.786404296875,-0.09439367055892944,-0.2115774154663086,-0.26767611503601074
1684115146259445200,10.7964453125,-0.06968629360198975,-0.2042226791381836,-0.2764472961425781
1684115146269486000,10.806486083984375,-0.06719708442687988,-0.20642852783203125,-0.28024864196777344
1684115146279527000,10.81652685546875,-0.07783263921737671,-0.18974876403808594,-0.23182272911071777
1684115146289567700,10.826567626953125,-0.08731913566589355,-0.1522359848022461,-0.12515830993652344
1684115146299608600,10.836608642578126,-0.13249540328979492,-0.1295633316040039,-0.0721120834350586
1684115146309649400,10.8466494140625,-0.16878855228424072,-0.13563823699951172,0.03132438659667969
1684115146319690200,10.856690185546874,-0.17635977268218994,-0.12050819396972656,0.05695772171020508
1684115146329731000,10.86673095703125,-0.1580258011817932,-0.03270149230957031,0.043827056884765625
1684115146339772000,10.87677197265625,-0.09151715040206909,0.044280052185058594,0.04951667785644531
1684115146349812700,10.886812744140625,-0.020658016204833984,0.06821441650390625,0.0314478874206543
1684115146359853300,10.896853271484375,0.014027237892150879,0.09638786315917969,0.06524372100830078
1684115146369894100,10.90689404296875,0.02678990364074707,0.10996532440185547,0.10086917877197266
1684115146379935000,10.91693505859375,0.014659881591796875,0.08322620391845703,0.1595783233642578
1684115146389975800,10.926975830078124,-0.01318216323852539,0.06166648864746094,0.22957754135131836
1684115146400016600,10.9370166015625,-0.014207005500793457,0.009850502014160156,0.38124990463256836
1684115146410057500,10.947057373046874,-0.025614798069000244,0.041129112243652344,0.4266939163208008
1684115146420098300,10.957098388671875,-0.041710495948791504,0.15886306762695312,0.3887457847595215
1684115146430139100,10.96713916015625,-0.06440132856369019,0.23439693450927734,0.33443450927734375
1684115146440180000,10.977179931640626,-0.058347105979919434,0.22135639190673828,0.23816967010498047
1684115146450220800,10.987220703125,-0.11581158638000488,0.21074485778808594,0.14552021026611328
1684115146460261600,10.99726171875,-0.18358397483825684,0.08503532409667969,0.045047760009765625
1684115146470302500,11.007302490234375,-0.23795819282531738,0.01584625244140625,-0.06739616394042969
1684115146480343300,11.01734326171875,-0.2151092290878296,-0.03065204620361328,-0.10683345794677734
1684115146490384100,11.027384033203125,-0.13308477401733398,-0.06898212432861328,-0.08151102066040039
1684115146500425000,11.037425048828124,-0.05192607641220093,-0.09715461730957031,-0.040033817291259766
1684115146510465800,11.0474658203125,0.0065871477127075195,-0.040030479431152344,-0.01082468032836914
1684115146520506600,11.057506591796875,0.014338254928588867,-0.009928703308105469,-0.020055770874023438
1684115146530547200,11.067547119140626,-0.009045958518981934,0.0029935836791992188,-0.08831930160522461
1684115146540588000,11.077588134765625,-0.015844106674194336,0.00384521484375,-0.1861584186553955
1684115146550628900,11.08762890625,-0.03203010559082031,0.0023317337036132812,-0.28469181060791016
1684115146560669700,11.097669677734375,-0.055516958236694336,0.010304450988769531,-0.43785572052001953
1684115146570710500,11.10771044921875,-0.0631440281867981,-0.04797935485839844,-0.48978757858276367
1684115146580751400,11.11775146484375,-0.055141568183898926,-0.17417049407958984,-0.5042614936828613
1684115146590792200,11.127792236328125,-0.10649526119232178,-0.31073760986328125,-0.5011138916015625
1684115146600833000,11.1378330078125,-0.1781657338142395,-0.4053955078125,-0.585975170135498
1684115146610873900,11.147873779296875,-0.2628863453865051,-0.4399127960205078,-0.6559133529663086
1684115146620914700,11.157914794921876,-0.34649789333343506,-0.4527740478515625,-0.7177920341491699
1684115146630955500,11.16795556640625,-0.40027177333831787,-0.42290306091308594,-0.7619028091430664
1684115146640996400,11.177996337890624,-0.4098926782608032,-0.46600914001464844,-0.7243556976318359
1684115146651037200,11.188037109375,-0.35170310735702515,-0.44384002685546875,-0.6291608810424805
1684115146661078000,11.198078125,-0.2956545352935791,-0.3012847900390625,-0.4495506286621094
1684115146671118800,11.208118896484375,-0.24698364734649658,-0.09715080261230469,-0.32399415969848633
1684115146681159700,11.21815966796875,-0.14175254106521606,0.04246711730957031,-0.21700167655944824
1684115146691200500,11.228200439453126,-0.04407358169555664,0.1277904510498047,-0.09600687026977539
1684115146701241300,11.238241455078125,0.05064886808395386,0.1478252410888672,-0.02974987030029297
1684115146711282200,11.2482822265625,0.13218384981155396,0.10376262664794922,-0.023935556411743164
1684115146721323000,11.258322998046875,0.1645485758781433,0.046016693115234375,0.03074049949645996
1684115146731363800,11.26836376953125,0.18395960330963135,-0.02015209197998047,0.023524999618530273
1684115146741404700,11.27840478515625,0.1910727620124817,-0.042659759521484375,0.07103300094604492
1684115146751445500,11.288445556640625,0.19778597354888916,-0.06216716766357422,0.09253048896789551
1684115146761486000,11.298486083984375,0.14719164371490479,-0.017595291137695312,0.12839484214782715
1684115146771527000,11.30852685546875,0.14625585079193115,0.012274742126464844,0.15006351470947266
1684115146781567700,11.318567626953126,0.11892479658126831,0.027654647827148438,0.1906275749206543
1684115146791608600,11.328608642578125,0.10355055332183838,0.0640096664428711,0.12238526344299316
1684115146801649400,11.3386494140625,0.13085776567459106,0.07398319244384766,0.1379406452178955
1684115146811690200,11.348690185546875,0.13379007577896118,0.06494426727294922,0.14623498916625977
1684115146821731000,11.35873095703125,0.10289138555526733,0.06542205810546875,0.09798169136047363
1684115146831772000,11.36877197265625,0.08389979600906372,0.05631542205810547,0.07851910591125488
1684115146841812700,11.378812744140625,0.08663994073867798,0.07798004150390625,0.06171274185180664
1684115146851853600,11.388853515625,0.04494631290435791,0.07348918914794922,0.04062700271606445
1684115146861894400,11.398894287109375,-0.019622862339019775,0.0738229751586914,-0.003545999526977539
1684115146871935200,11.408935302734376,-0.02452564239501953,0.05550193786621094,-0.03943586349487305
1684115146881976000,11.41897607421875,-0.026894748210906982,0.04482841491699219,-0.08588624000549316
1684115146892017000,11.429016845703124,-0.031124770641326904,-0.017190933227539062,-0.07925987243652344
1684115146902057700,11.4390576171875,-0.034750282764434814,-0.0732879638671875,-0.08187317848205566
1684115146912098600,11.4490986328125,-0.028948605060577393,-0.09299278259277344,-0.07467269897460938
1684115146922139400,11.459139404296875,-0.025868713855743408,-0.0675973892211914,-0.03209972381591797
1684115146932180200,11.46918017578125,-0.01375126838684082,-0.028461456298828125,-0.0018265247344970703
1684115146942221000,11.479220947265626,0.00038248300552368164,0.021742820739746094,0.05376791954040527
1684115146952261600,11.48926171875,-0.004613518714904785,0.04978370666503906,0.13639235496520996
1684115146962302500,11.499302490234374,-0.016467750072479248,0.08664798736572266,0.19849371910095215
1684115146972343300,11.50934326171875,-0.04920518398284912,0.08963203430175781,0.2941408157348633
1684115146982384000,11.519384033203124,-0.08824938535690308,0.10638999938964844,0.3474268913269043
1684115146992425000,11.529425048828125,-0.0958549976348877,0.11790657043457031,0.3803575038909912
1684115147002465800,11.5394658203125,-0.11282998323440552,0.11718082427978516,0.41211462020874023
1684115147012506600,11.549506591796876,-0.11811983585357666,0.12328052520751953,0.39577341079711914
1684115147022547500,11.55954736328125,-0.14950799942016602,0.14311599731445312,0.42384791374206543
1684115147032588300,11.56958837890625,-0.15219396352767944,0.1788501739501953,0.42264366149902344
1684115147042629000,11.579629150390625,-0.16388869285583496,0.16882896423339844,0.45334458351135254
1684115147052670000,11.589669921875,-0.14162319898605347,0.17028427124023438,0.42813611030578613
1684115147062710800,11.599710693359375,-0.14481890201568604,0.15717411041259766,0.4163358211517334
1684115147072751600,11.609751708984374,-0.13572925329208374,0.13681316375732422,0.38723015785217285
1684115147082792400,11.61979248046875,-0.11236840486526489,0.09036827087402344,0.3903205394744873
1684115147092833300,11.629833251953125,-0.11019688844680786,0.09128952026367188,0.31919169425964355
1684115147102874000,11.6398740234375,-0.10510998964309692,0.05884361267089844,0.25531721115112305
1684115147112915000,11.6499150390625,-0.09203457832336426,0.047827720642089844,0.16573238372802734
1684115147122955800,11.659955810546874,-0.07550215721130371,0.013385772705078125,0.11252784729003906
1684115147132996600,11.66999658203125,-0.04189002513885498,-0.022991180419921875,0.05734729766845703
1684115147143037400,11.680037353515624,-0.010891318321228027,-0.0281829833984375,-0.018190860748291016
1684115147153078300,11.690078369140625,0.024194002151489258,-0.0636892318725586,-0.07077836990356445
1684115147163119000,11.700119140625,0.02522873878479004,-0.08197879791259766,-0.13850879669189453
1684115147173160000,11.710159912109376,0.04958450794219971,-0.04313182830810547,-0.21608924865722656
1684115147183200800,11.72020068359375,0.09225231409072876,-0.02101612091064453,-0.23261046409606934
1684115147193241600,11.73024169921875,0.09835898876190186,-0.015406608581542969,-0.22914505004882812
1684115147203282400,11.740282470703125,0.12003684043884277,-0.01661205291748047,-0.191847562789917
1684115147213323000,11.750322998046874,0.16632121801376343,0.0036573410034179688,-0.11671257019042969
1684115147223363800,11.76036376953125,0.16399341821670532,0.014414787292480469,-0.07744598388671875
1684115147233404700,11.77040478515625,0.17982566356658936,0.03452301025390625,-0.017239093780517578
1684115147243445500,11.780445556640625,0.13534098863601685,0.03545856475830078,0.021026134490966797
1684115147253486300,11.790486328125,0.06700962781906128,0.050579071044921875,-0.011577129364013672
1684115147263527200,11.800527099609376,0.039406001567840576,0.05858898162841797,-0.0807638168334961
1684115147273568000,11.810568115234375,-0.03467416763305664,0.021981239318847656,-0.12003874778747559
1684115147283608800,11.82060888671875,-0.06495702266693115,-0.025524139404296875,-0.16047978401184082
1684115147293649700,11.830649658203125,-0.06868982315063477,-0.048401832580566406,-0.1737368106842041
1684115147303690500,11.8406904296875,-0.07680165767669678,-0.03990745544433594,-0.1671457290649414
1684115147313731300,11.8507314453125,-0.07033735513687134,-0.04303932189941406,-0.12243080139160156
1684115147323772200,11.860772216796875,-0.0732148289680481,-0.003513336181640625,-0.07564163208007812
1684115147333813000,11.87081298828125,-0.057097434997558594,-0.021111488342285156,0.005740642547607422
1684115147343853800,11.880853759765625,-0.06702178716659546,-0.0007724761962890625,0.08803987503051758
1684115147353894700,11.890894775390626,-0.03429293632507324,0.0026378631591796875,0.13103723526000977
1684115147363935500,11.900935546875,-0.05148458480834961,0.019959449768066406,0.1494154930114746
1684115147373976300,11.910976318359374,-0.07355821132659912,0.06034278869628906,0.1577444076538086
1684115147384017200,11.92101708984375,-0.07951396703720093,0.008145332336425781,0.13292503356933594
1684115147394058000,11.93105810546875,-0.1067928671836853,-0.0079803466796875,0.13892602920532227
1684115147404098800,11.941098876953125,-0.12121403217315674,0.04202842712402344,0.11632919311523438
1684115147414139600,11.9511396484375,-0.10866153240203857,0.05346870422363281,0.12438726425170898
1684115147424180500,11.961180419921876,-0.10119903087615967,0.11881542205810547,0.08515214920043945
1684115147434221000,11.971220947265625,-0.1355343461036682,0.10298919677734375,0.0609588623046875
1684115147444262000,11.981261962890626,-0.1457977294921875,-0.030332565307617188,0.12937641143798828
1684115147454302700,11.991302734375,-0.14999502897262573,-0.08621692657470703,0.1542668342590332
1684115147464343600,12.001343505859374,-0.11682146787643433,-0.09174823760986328,0.14767742156982422
1684115147474384400,12.01138427734375,-0.10837703943252563,0.02298736572265625,0.048769474029541016
1684115147484425200,12.02142529296875,-0.11286884546279907,0.10762214660644531,-0.027936458587646484
1684115147494466000,12.031466064453125,-0.05175590515136719,0.12260627746582031,-0.028357505798339844
1684115147504507000,12.0415068359375,0.04654979705810547,0.050212860107421875,0.006394863128662109
1684115147514547700,12.051547607421876,0.18305814266204834,0.028377532958984375,0.10634469985961914
1684115147524588500,12.061588623046875,0.2645856738090515,0.03965568542480469,0.17375898361206055
1684115147534629400,12.07162939453125,0.2891620993614197,0.11636161804199219,0.19495534896850586
1684115147544670200,12.081670166015625,0.2878442406654358,0.1444234848022461,0.16142654418945312
1684115147554711000,12.0917109375,0.27267467975616455,0.12233638763427734,0.0906834602355957
1684115147564752000,12.101751953125,0.2163720726966858,0.08652305603027344,-0.04209470748901367
1684115147574792700,12.111792724609375,0.10669708251953125,-0.021514892578125,-0.11813640594482422
1684115147584833500,12.12183349609375,0.036934852600097656,-0.07568359375,-0.2135767936706543
1684115147594874400,12.131874267578125,-0.008048474788665771,-0.1168985366821289,-0.23856472969055176
1684115147604915200,12.141915283203126,-0.036418914794921875,-0.10539054870605469,-0.21538758277893066
1684115147614956000,12.1519560546875,-0.053070783615112305,-0.13393306732177734,-0.1615304946899414
1684115147624996900,12.161996826171874,-0.08283358812332153,-0.07477188110351562,-0.1202230453491211
1684115147635037700,12.17203759765625,-0.05620759725570679,-0.02365398406982422,-0.06346797943115234
1684115147645078500,12.18207861328125,-0.047275006771087646,0.04065418243408203,-0.05053567886352539
1684115147655119400,12.192119384765626,-0.030968546867370605,0.03794574737548828,-0.06857681274414062
1684115147665160200,12.20216015625,0.0011866092681884766,0.011774063110351562,-0.08381271362304688
1684115147675201000,12.212200927734376,0.025585472583770752,-0.00911712646484375,-0.16202259063720703
1684115147685241900,12.222241943359375,0.047241151332855225,-0.04830455780029297,-0.18671751022338867
1684115147695282700,12.23228271484375,0.01845860481262207,-0.0371551513671875,-0.2244586944580078
1684115147705323500,12.242323486328125,-0.030387938022613525,-0.03999614715576172,-0.208723783493042
1684115147715364400,12.2523642578125,-0.054215192794799805,-0.058959007263183594,-0.14984607696533203
1684115147725405200,12.2624052734375,-0.05713546276092529,-0.051364898681640625,-0.11458778381347656
1684115147735446000,12.272446044921875,-0.028960466384887695,0.01995563507080078,-0.06757450103759766
1684115147745486600,12.282486572265626,0.022877216339111328,0.07371997833251953,-0.016506195068359375
1684115147755527400,12.29252734375,0.02887105941772461,0.13379859924316406,-0.024749755859375
1684115147765568300,12.302568359375,0.014538407325744629,0.1460428237915039,-0.048485755920410156
1684115147775609000,12.312609130859375,-0.011234164237976074,0.12535381317138672,-0.04964756965637207
1684115147785650000,12.32264990234375,-0.03140532970428467,0.03701591491699219,-0.04740166664123535
1684115147795690800,12.332690673828125,-0.06593126058578491,0.006888389587402344,-0.013907194137573242
1684115147805731600,12.342731689453124,-0.08773070573806763,0.017469406127929688,-0.055933475494384766
1684115147815772400,12.3527724609375,-0.10148775577545166,0.025696754455566406,-0.08046817779541016
1684115147825813200,12.362813232421875,-0.09099745750427246,0.012712478637695312,-0.15384173393249512
1684115147835854000,12.37285400390625,-0.11833518743515015,-0.023515701293945312,-0.19752001762390137
1684115147845895000,12.38289501953125,-0.12908369302749634,-0.09450054168701172,-0.20514512062072754
1684115147855935700,12.392935791015624,-0.17318224906921387,-0.1476898193359375,-0.19803571701049805
1684115147865976600,12.4029765625,-0.2009032964706421,-0.17414379119873047,-0.18385672569274902
