time,seconds_elapsed,z,y,x
1684114956652565500,0.0495654296875,0,0,0
1684114956662605800,0.059605712890625,-0.1409745216369629,0.09792852401733398,-0.2687842845916748
1684114956672646400,0.069646484375,0.06499433517456055,0.3675253391265869,-0.1946253776550293
1684114956682686700,0.079686767578125,-0.13799476623535156,0.6950366497039795,-0.4920675754547119
1684114956692727000,0.08972705078125,0.1806187629699707,0.6230287551879883,-0.8630878925323486
1684114956702767600,0.099767578125,0.7532525062561035,0.3026108741760254,-0.39408135414123535
1684114956712808000,0.109807861328125,1.0130081176757812,-0.013341665267944336,-0.043511152267456055
1684114956722848300,0.11984814453125,0.8722915649414062,-0.8028285503387451,0.818371057510376
1684114956732888800,0.129888916015625,0.775364875793457,-2.1755292415618896,1.8855910301208496
1684114956742929200,0.13992919921875,0.9138956069946289,-0.31749439239501953,-0.021681785583496094
1684114956752969500,0.149969482421875,0.5108041763305664,0.5450923442840576,0.7413120269775391
1684114956763010000,0.160010009765625,0.06945228576660156,0.729231595993042,1.7534832954406738
1684114956773050400,0.17005029296875,1.5808467864990234,1.2656922340393066,-0.8082709312438965
1684114956783090700,0.180090576171875,1.0822439193725586,0.8570010662078857,-0.06189727783203125
1684114956793131300,0.19013134765625,-1.116189956665039,0.33426642417907715,0.6039853096008301
1684114956803171600,0.200171630859375,-1.545675277709961,0.38496994972229004,0.8398270606994629
1684114956813212000,0.2102119140625,-0.9087185859680176,0.8230019807815552,0.3430209159851074
1684114956823252500,0.22025244140625,-0.6331577301025391,1.0698137283325195,0.29612064361572266
1684114956833292800,0.230292724609375,-0.6309614181518555,1.055890679359436,0.4648857116699219
1684114956843333000,0.2403330078125,-0.8697495460510254,0.3539857864379883,1.4592108726501465
1684114956853373700,0.250373779296875,-0.34233760833740234,0.279834508895874,1.016913890838623
1684114956863414000,0.2604140625,-0.3400893211364746,0.3056800365447998,1.024472713470459
1684114956873454300,0.270454345703125,-0.31036806106567383,0.06115293502807617,0.9869184494018555
1684114956883495000,0.280494873046875,-0.35744237899780273,-0.28754234313964844,0.7022910118103027
1684114956893535200,0.29053515625,-0.37000322341918945,-0.514962911605835,0.40215158462524414
1684114956903575600,0.300575439453125,-0.36586856842041016,-0.388439416885376,0.3516421318054199
1684114956913616100,0.3106162109375,-0.43373918533325195,-0.5319280624389648,-0.022009849548339844
1684114956923656400,0.320656494140625,-0.6003026962280273,-0.719569206237793,0.00044155120849609375
1684114956933696800,0.33069677734375,-0.39652156829833984,-0.7497155666351318,-0.1055898666381836
1684114956943737300,0.3407373046875,-0.3145012855529785,-0.3201785087585449,-0.2935929298400879
1684114956953777700,0.350777587890625,-0.04537153244018555,-0.4430670738220215,-0.5284080505371094
1684114956963818000,0.36081787109375,0.24256229400634766,-0.6647357940673828,-0.16094255447387695
1684114956973858600,0.370858642578125,-0.16824960708618164,-0.48879504203796387,-0.00858449935913086
1684114956983899000,0.38089892578125,3.044363498687744,0.3049800395965576,-2.7260005474090576
1684114956993939200,0.390939208984375,2.0192275047302246,0.6881890296936035,-1.234593391418457
1684114957003979800,0.400979736328125,-0.23483991622924805,1.0903700590133667,0.25839853286743164
1684114957014020000,0.41102001953125,-1.4703216552734375,1.1042152643203735,0.819206714630127
1684114957024060400,0.421060302734375,-1.0286359786987305,1.202064871788025,0.9682345390319824
1684114957034101000,0.43110107421875,-0.34831809997558594,1.2725762128829956,0.6946449279785156
1684114957044141300,0.441141357421875,0.2706012725830078,1.3795536756515503,1.0089421272277832
1684114957054181600,0.451181640625,0.060575008392333984,1.6246225833892822,1.861722469329834
1684114957064222200,0.46122216796875,-0.5502281188964844,1.877779245376587,1.785813808441162
1684114957074262500,0.471262451171875,-0.824213981628418,1.8379263877868652,0.9341659545898438
1684114957084302800,0.481302734375,-0.7356119155883789,1.4937267303466797,0.7613811492919922
1684114957094343400,0.491343505859375,-0.6930999755859375,1.2283649444580078,0.5423564910888672
1684114957104383700,0.5013837890625,-0.6228046417236328,1.1965210437774658,0.10683155059814453
1684114957114424000,0.511424072265625,-0.6593375205993652,0.9050790071487427,-0.35637903213500977
1684114957124464600,0.521464599609375,-0.9148991107940674,0.6710509061813354,-0.9101052284240723
1684114957134505000,0.5315048828125,-0.6694626808166504,0.4663587808609009,-1.2572808265686035
1684114957144545300,0.541545166015625,-0.03653383255004883,0.10440731048583984,-1.4559245109558105
1684114957154585900,0.5515859375,0.16876697540283203,-0.1560676097869873,-1.7202816009521484
1684114957164626200,0.561626220703125,0.3673715591430664,-0.44687771797180176,-1.838937759399414
1684114957174666500,0.57166650390625,0.4770317077636719,-0.5316095352172852,-0.7860269546508789
1684114957184707000,0.58170703125,0.039221763610839844,-0.21393632888793945,-0.24450397491455078
1684114957194747400,0.591747314453125,-0.6147499084472656,-0.0241239070892334,-0.08280467987060547
1684114957204788000,0.6017880859375,-1.312192678451538,0.08459067344665527,-0.2465801239013672
1684114957214828300,0.611828369140625,-1.7701566219329834,0.27135396003723145,-0.5470266342163086
1684114957224868600,0.62186865234375,-1.8503286838531494,0.22144055366516113,-0.911046028137207
1684114957234909000,0.631908935546875,-1.947543740272522,0.03328537940979004,-1.8982057571411133
1684114957244949500,0.641949462890625,-1.7434051036834717,-0.19602751731872559,-2.568021774291992
1684114957254989800,0.65198974609375,-0.27984094619750977,0.0027124881744384766,-1.526449203491211
1684114957265030400,0.662030517578125,0.1332864761352539,0.08707475662231445,-0.011153221130371094
1684114957275070700,0.67207080078125,0.14006638526916504,0.4057438373565674,0.48750782012939453
1684114957285111000,0.682111083984375,-0.2891077995300293,0.5369322299957275,0.9940681457519531
1684114957295151600,0.692151611328125,-0.1469252109527588,0.35793375968933105,1.153524398803711
1684114957305192000,0.70219189453125,0.15428948402404785,-0.4716348648071289,1.8120441436767578
1684114957315232300,0.712232177734375,0.6176984310150146,-0.4600391387939453,2.030573844909668
1684114957325272800,0.72227294921875,0.6046955585479736,-0.40133023262023926,2.287609100341797
1684114957335313200,0.732313232421875,0.18587565422058105,-0.23469090461730957,2.0606155395507812
1684114957345353500,0.742353515625,-0.1019430160522461,-0.39634060859680176,2.106901168823242
1684114957355394000,0.75239404296875,-0.5268125534057617,-0.3372769355773926,1.7994203567504883
1684114957365434400,0.762434326171875,-0.8981904983520508,-0.4409751892089844,1.8379850387573242
1684114957375474700,0.772474609375,-1.061060905456543,-0.6042871475219727,2.333847999572754
1684114957385515300,0.782515380859375,-1.2916767597198486,-0.4771766662597656,2.424489974975586
1684114957395555600,0.7925556640625,-1.1424763202667236,-0.46460676193237305,2.0957698822021484
1684114957405596000,0.802595947265625,-0.9569318294525146,-0.5916452407836914,1.470937728881836
1684114957415636500,0.812636474609375,-0.6575076580047607,-0.6683073043823242,0.6101102828979492
1684114957425676800,0.8226767578125,-0.41417598724365234,-0.34520816802978516,-0.11502790451049805
1684114957435717000,0.832717041015625,-0.2305283546447754,-0.4357638359069824,-0.10098409652709961
1684114957445757700,0.8427578125,-0.4849085807800293,-0.47546863555908203,-0.014742374420166016
1684114957455798000,0.852798095703125,-0.5553865432739258,-0.3144102096557617,-0.3396944999694824
1684114957465838600,0.862838623046875,0.02131032943725586,-0.32112836837768555,-0.620023250579834
1684114957475879000,0.87287890625,1.0173816680908203,-0.3154277801513672,-0.6411328315734863
1684114957485919200,0.882919189453125,1.8947124481201172,-0.4734368324279785,-0.29860591888427734
1684114957495959600,0.89295947265625,2.1843833923339844,-0.48871612548828125,-0.09956502914428711
1684114957506000100,0.903000244140625,1.9669828414916992,-0.4631381034851074,0.019556522369384766
1684114957516040400,0.91304052734375,1.2393012046813965,-0.5069785118103027,0.14586496353149414
1684114957526081000,0.9230810546875,0.4066324234008789,-0.42964744567871094,0.022132396697998047
1684114957536121300,0.933121337890625,0.058890342712402344,-0.488020658493042,-0.01811361312866211
1684114957546161700,0.94316162109375,-0.2692689895629883,-0.5494699478149414,0.017028331756591797
1684114957556202200,0.9532021484375,-0.20078659057617188,-0.6218223571777344,0.2702183723449707
1684114957566242600,0.96324267578125,0.4446134567260742,-0.6880733966827393,0.5543527603149414
1684114957576283000,0.973282958984375,0.9280438423156738,-0.7333884239196777,0.89178466796875
1684114957586323500,0.983323486328125,1.2480459213256836,-0.7449343204498291,1.0567340850830078
1684114957596363800,0.99336376953125,1.1639785766601562,-0.6949248313903809,0.9058523178100586
1684114957606404000,1.003404052734375,0.7664346694946289,-0.7437729835510254,0.7401905059814453
1684114957616444700,1.013444580078125,0.44954729080200195,-0.7344627380371094,0.5520639419555664
1684114957626485000,1.023485107421875,-0.19838285446166992,-0.6145362854003906,0.4956073760986328
1684114957636525600,1.033525634765625,-0.8661551475524902,-0.4519462585449219,0.3654656410217285
1684114957646566000,1.04356591796875,-1.3573946952819824,-0.4607880115509033,0.12293004989624023
1684114957656606200,1.053606201171875,-1.0451278686523438,0.04169130325317383,-0.6556491851806641
1684114957666646500,1.063646484375,-1.4005794525146484,-0.2931947708129883,-0.5276360511779785
1684114957676687000,1.07368701171875,-1.8866491317749023,-0.8542449474334717,-0.1312112808227539
1684114957686727400,1.0837275390625,-1.716942310333252,-0.9915165901184082,0.05534791946411133
1684114957696768000,1.09376806640625,-1.3594374656677246,-0.907801628112793,-0.2226114273071289
1684114957706808300,1.103808349609375,-0.9163126945495605,-0.5951728820800781,-0.6587038040161133
1684114957716848600,1.1138486328125,-0.8213257789611816,-0.801267147064209,-0.7094793319702148
1684114957726889200,1.12388916015625,-0.6357688903808594,-1.0290021896362305,-0.6137881278991699
1684114957736929500,1.133929443359375,-0.39053821563720703,-0.9747881889343262,-0.5064692497253418
1684114957746969900,1.143969970703125,-0.2059783935546875,-0.6747865676879883,-0.3720245361328125
1684114957757010400,1.154010498046875,-0.2221393585205078,-0.3538661003112793,-0.10410356521606445
1684114957767050800,1.16405078125,-0.2750515937805176,-0.10023832321166992,0.1522517204284668
1684114957777091000,1.174091064453125,-0.29647207260131836,-0.2551383972167969,0.11244869232177734
1684114957787131600,1.184131591796875,-0.2804136276245117,-0.3586392402648926,-0.09936809539794922
1684114957797172000,1.194171875,-0.3563351631164551,-0.44164156913757324,-0.2260580062866211
1684114957807212500,1.204212646484375,-0.3182048797607422,-0.4665539264678955,-0.2940211296081543
1684114957817252900,1.2142529296875,-0.4103851318359375,-0.35141849517822266,-0.5238971710205078
1684114957827293200,1.224293212890625,-0.334836483001709,-0.23171782493591309,-0.5899767875671387
1684114957837333800,1.234333740234375,-0.30378007888793945,-0.24392032623291016,-0.6073355674743652
1684114957847374000,1.2443740234375,-0.16439294815063477,-0.36036086082458496,-0.46971559524536133
1684114957857414400,1.254414306640625,0.03428220748901367,-0.37969303131103516,-0.2110428810119629
1684114957867455000,1.264455078125,0.11038589477539062,-0.23101210594177246,0.11597681045532227
1684114957877495300,1.274495361328125,0.17098140716552734,0.062219858169555664,0.24434757232666016
1684114957887535600,1.28453564453125,0.04602384567260742,0.21813392639160156,0.3515586853027344
1684114957897576200,1.294576171875,-0.0448145866394043,0.23348450660705566,0.37178897857666016
1684114957907616500,1.304616455078125,-0.24683094024658203,0.14231538772583008,0.1555337905883789
1684114957917657000,1.314656982421875,-0.48478031158447266,0.048183441162109375,-0.10640192031860352
1684114957927697400,1.324697509765625,-0.5995998382568359,0.0559995174407959,-0.39098262786865234
1684114957937737700,1.33473779296875,-0.6926813125610352,0.05511665344238281,-0.8051023483276367
1684114957947778300,1.3447783203125,-0.7309005260467529,-0.13385844230651855,-1.0720720291137695
1684114957957818600,1.354818603515625,-0.5527253150939941,-0.48001646995544434,-0.8572373390197754
1684114957967859000,1.36485888671875,-0.5438458919525146,-0.562544584274292,-0.7252001762390137
1684114957977899500,1.3748994140625,-0.47931909561157227,-0.46657848358154297,-0.7524251937866211
1684114957987939800,1.38493994140625,-0.6107785701751709,-0.30322790145874023,-0.7693891525268555
1684114957997980200,1.394980224609375,-0.6191205978393555,-0.4170968532562256,-0.938164234161377
1684114958008020700,1.405020751953125,-0.6110179424285889,-0.4597342014312744,-1.2571673393249512
1684114958018061000,1.41506103515625,-0.524627685546875,-0.4336531162261963,-1.2245597839355469
1684114958028101400,1.425101318359375,-0.4311847686767578,-0.09552454948425293,-1.320704460144043
1684114958038142000,1.435141845703125,-0.44969677925109863,-0.14913368225097656,-1.2606501579284668
1684114958048182300,1.445182373046875,-0.6376914978027344,0.10146856307983398,-1.6484956741333008
1684114958058222800,1.455222900390625,-0.31684088706970215,1.0518183708190918,-1.8213310241699219
1684114958068263200,1.46526318359375,-0.17870187759399414,0.5876402854919434,-1.6245875358581543
1684114958078303500,1.475303466796875,0.061487674713134766,-0.5110483169555664,-0.8770408630371094
1684114958088344000,1.485343994140625,0.037372589111328125,-1.7601208686828613,0.030866622924804688
1684114958098384400,1.49538427734375,-0.07038652896881104,-2.4552226066589355,0.1574554443359375
1684114958108424700,1.5054248046875,-0.23532414436340332,-2.1500205993652344,0.12687969207763672
1684114958118465300,1.51546533203125,-0.4463185667991638,-1.3170862197875977,0.09325599670410156
1684114958128505600,1.525505615234375,-0.6219977140426636,-0.5695943832397461,0.15892314910888672
1684114958138546200,1.535546142578125,-0.8771632313728333,-0.4062986373901367,0.47679901123046875
1684114958148586500,1.54558642578125,-0.9606733322143555,-0.4052705764770508,0.6428565979003906
1684114958158626800,1.555626708984375,-0.936229944229126,-0.15303468704223633,0.5470819473266602
1684114958168667400,1.56566748046875,-0.8527229428291321,0.0533289909362793,0.45693397521972656
1684114958178707700,1.575707763671875,-0.5854843854904175,0.029045581817626953,0.3972148895263672
1684114958188748300,1.585748291015625,-0.2548031806945801,-0.07445192337036133,0.07471847534179688
1684114958198788600,1.59578857421875,-0.4735751450061798,-0.27715635299682617,0.10647964477539062
1684114958208829000,1.605828857421875,-0.7680203318595886,-0.3339824676513672,0.2650747299194336
1684114958218869200,1.615869140625,-0.9305453896522522,-0.3751649856567383,0.41748523712158203
1684114958228909800,1.625909912109375,-0.9672467112541199,-0.23957443237304688,0.39829063415527344
1684114958238950100,1.6359501953125,-0.9602680802345276,0.06058216094970703,0.3551492691040039
1684114958248990700,1.64599072265625,-1.0299439430236816,0.13403654098510742,0.2646455764770508
1684114958259031000,1.656031005859375,-1.1424983739852905,-0.11017370223999023,0.42258167266845703
1684114958269071400,1.6660712890625,-0.9981026649475098,0.30739259719848633,0.6528425216674805
1684114958279112000,1.67611181640625,-0.7584000825881958,0.7848787307739258,0.7457590103149414
1684114958289152300,1.68615234375,-0.7569906711578369,0.8751449584960938,0.5524024963378906
1684114958299192600,1.696192626953125,-1.0647467374801636,1.0230083465576172,0.12510108947753906
1684114958309233200,1.706233154296875,-1.2219005823135376,0.9450473785400391,-0.34030818939208984
1684114958319273500,1.7162734375,-0.5613566637039185,0.5825760364532471,-0.07249736785888672
1684114958329314000,1.72631396484375,-0.496296763420105,0.6331028938293457,0.1215353012084961
1684114958339354400,1.736354248046875,-0.6512752771377563,0.7009742259979248,0.156036376953125
1684114958349394700,1.746394775390625,-0.4381295442581177,0.6558437347412109,0.12905406951904297
1684114958359435300,1.756435302734375,-0.15079522132873535,0.7582798004150391,-0.028324127197265625
1684114958369475600,1.7664755859375,-0.2544928789138794,0.8090190887451172,-0.18016338348388672
1684114958379516000,1.776515869140625,-0.4529001712799072,0.7750325202941895,-0.3570098876953125
1684114958389556500,1.786556396484375,-0.39768052101135254,0.9634389877319336,-0.29914283752441406
1684114958399596800,1.7965966796875,-0.2367926836013794,0.5033478736877441,-0.06297683715820312
1684114958409637400,1.806637451171875,-0.06120645999908447,0.5069413185119629,-0.20520591735839844
1684114958419677700,1.816677734375,-0.13958048820495605,0.517486572265625,-0.2328205108642578
1684114958429718000,1.826718017578125,-0.45975184440612793,0.6744058132171631,-0.32967472076416016
1684114958439758600,1.836758544921875,-0.6853947639465332,0.696507453918457,-0.3158740997314453
1684114958449799000,1.846798828125,-0.757047176361084,0.6828098297119141,-0.24856853485107422
1684114958459839500,1.856839599609375,-0.8637356758117676,0.6154134273529053,-0.14014053344726562
1684114958469879800,1.8668798828125,-0.17083382606506348,0.584221363067627,-0.2744626998901367
1684114958479920000,1.876920166015625,-0.7059464454650879,-0.1060791015625,-0.09350109100341797
1684114958489960700,1.886960693359375,-1.1884384155273438,-0.423276424407959,0.25501537322998047
1684114958500001000,1.8970009765625,-1.0180580615997314,-0.09162759780883789,0.24570369720458984
1684114958510041300,1.907041259765625,-0.4768495559692383,0.050730228424072266,0.1372385025024414
1684114958520082000,1.91708203125,-0.2478628158569336,0.0787191390991211,-0.3558378219604492
1684114958530122200,1.927122314453125,-0.4737818241119385,0.07411575317382812,-1.110030174255371
1684114958540162800,1.937162841796875,-1.0545430183410645,-0.11519098281860352,-1.7152366638183594
1684114958550203100,1.947203125,-1.7534816265106201,-0.2270369529724121,-1.8053812980651855
1684114958560243500,1.957243408203125,-2.323807954788208,-0.09902477264404297,-1.3059577941894531
1684114958570284000,1.967283935546875,-2.462852716445923,0.08198308944702148,-0.3272590637207031
1684114958580324400,1.977324462890625,-1.8210699558258057,0.050916194915771484,0.7986249923706055
1684114958590365000,1.987364990234375,-0.5607626438140869,-0.030041217803955078,1.7560052871704102
1684114958600405200,1.9974052734375,0.3150339126586914,-0.41756153106689453,2.7155990600585938
1684114958610445600,2.007445556640625,0.20867919921875,-0.7354974746704102,3.2524614334106445
1684114958620486100,2.017486083984375,-0.23604512214660645,-0.933499813079834,3.430203914642334
1684114958630526500,2.0275263671875,-0.6311724185943604,-0.7920126914978027,2.993922233581543
1684114958640566800,2.03756689453125,-0.09466409683227539,-2.142435073852539,3.052837371826172
1684114958650607400,2.047607421875,-0.28379368782043457,-1.9911856651306152,2.325784206390381
1684114958660647700,2.057647705078125,0.4038534164428711,-1.7588653564453125,1.640294075012207
1684114958670688300,2.067688232421875,1.2923399209976196,-1.0694007873535156,0.4678769111633301
1684114958680728600,2.077728515625,1.4324188232421875,-0.5003743171691895,-0.48755884170532227
1684114958690769000,2.087768798828125,1.0074188709259033,0.15080022811889648,-1.1008505821228027
1684114958700809500,2.0978095703125,0.7061686515808105,0.6136746406555176,-1.427779197692871
1684114958710849800,2.107849853515625,0.6663761138916016,0.5650949478149414,-1.988924503326416
1684114958720890400,2.117890380859375,1.004707932472229,0.27353763580322266,-2.189765453338623
1684114958730930700,2.1279306640625,1.4816265106201172,-0.11228704452514648,-1.9514880180358887
1684114958740971000,2.137970947265625,1.888608694076538,-0.1724872589111328,-1.4993815422058105
1684114958751011600,2.148011474609375,2.0785319805145264,-0.1572427749633789,-1.1119771003723145
1684114958761052000,2.158052001953125,2.2313973903656006,-0.04059410095214844,-0.7363119125366211
1684114958771092500,2.168092529296875,2.1600990295410156,-0.048949241638183594,-0.2875943183898926
1684114958781132800,2.1781328125,2.118513345718384,-0.05492973327636719,0.10227727890014648
1684114958791173000,2.188173095703125,2.168917655944824,-0.3935704231262207,0.3286104202270508
1684114958801213700,2.198213623046875,2.217540979385376,-0.35396766662597656,-0.06899118423461914
1684114958811254000,2.20825390625,1.9486539363861084,-0.39390087127685547,-0.552436351776123
1684114958821294600,2.218294677734375,1.2187018394470215,-1.020963191986084,-0.7041912078857422
1684114958831335000,2.2283349609375,0.6872384548187256,-1.2836284637451172,-0.9586634635925293
1684114958841375200,2.238375244140625,0.744401216506958,-1.2040395736694336,-1.0158977508544922
1684114958851415800,2.248415771484375,1.384671688079834,-1.313645839691162,-0.5415587425231934
1684114958861456100,2.2584560546875,2.0829293727874756,-1.397946834564209,-0.19328737258911133
1684114958871496400,2.268496337890625,2.6937756538391113,-1.1883964538574219,0.19139862060546875
1684114958881537000,2.278537109375,2.963463544845581,-0.7729530334472656,0.5933933258056641
1684114958891577300,2.288577392578125,3.0924038887023926,-0.5043730735778809,0.7096347808837891
1684114958901618000,2.298617919921875,2.8636157512664795,-0.2593522071838379,0.7747688293457031
1684114958911658200,2.308658203125,2.2694878578186035,-0.31659412384033203,0.9260439872741699
1684114958921698600,2.318698486328125,1.7377123832702637,-0.5123000144958496,0.612276554107666
1684114958931739100,2.3287392578125,1.4429138898849487,-0.573333740234375,-0.10403108596801758
1684114958941779500,2.338779541015625,1.3059818744659424,-0.850740909576416,-0.4435391426086426
1684114958951820000,2.348820068359375,1.3939510583877563,-0.9114761352539062,-0.6774320602416992
1684114958961860400,2.3588603515625,1.1517640352249146,-0.8473320007324219,-0.8443284034729004
1684114958971900700,2.368900634765625,1.0228551626205444,-1.0314698219299316,-0.22521591186523438
1684114958981941200,2.378941162109375,1.1920647621154785,-0.16953659057617188,0.04234790802001953
1684114958991981600,2.388981689453125,1.0904934406280518,-0.15714359283447266,1.0284733772277832
1684114959002022100,2.399022216796875,0.8150293827056885,-0.25592660903930664,1.6895337104797363
1684114959012062500,2.4090625,0.4951953887939453,-0.022602081298828125,1.4875307083129883
1684114959022102800,2.419102783203125,0.6797760725021362,0.29320335388183594,0.902155876159668
1684114959032143400,2.429143310546875,0.8872900605201721,0.22885847091674805,0.3233652114868164
1684114959042183700,2.43918359375,1.2029744386672974,0.3519458770751953,0.01744365692138672
1684114959052224300,2.449224365234375,1.285927414894104,0.3616514205932617,0.014939308166503906
1684114959062264600,2.4592646484375,1.3521955013275146,0.24168920516967773,0.01634502410888672
1684114959072305200,2.46930517578125,1.291609764099121,0.14448213577270508,0.19325923919677734
1684114959082345500,2.479345458984375,1.2733814716339111,0.30866050720214844,0.3193178176879883
1684114959092385800,2.4893857421875,0.9820917248725891,0.1808300018310547,0.6313414573669434
1684114959102426400,2.49942626953125,0.5744137763977051,0.2625250816345215,1.069000244140625
1684114959112466700,2.509466796875,0.17053461074829102,0.4172940254211426,1.3083834648132324
1684114959122507000,2.519507080078125,0.11703735589981079,0.6456298828125,1.1268610954284668
1684114959132547600,2.529547607421875,0.23331940174102783,0.5563068389892578,0.9508547782897949
1684114959142588000,2.539587890625,0.44750943779945374,0.6638216972351074,0.7099318504333496
1684114959152628500,2.54962841796875,0.516200602054596,0.6734986305236816,0.4848775863647461
1684114959162668800,2.559668701171875,0.22745075821876526,0.34078216552734375,0.24056053161621094
1684114959172709400,2.56970947265625,0.0038601309061050415,0.04335594177246094,0.03575563430786133
1684114959182749700,2.579749755859375,0.04197033867239952,-0.10995101928710938,-0.22665643692016602
1684114959192790000,2.5897900390625,0.3308015763759613,-0.02773761749267578,-0.24533939361572266
1684114959202830600,2.59983056640625,0.7293984293937683,-0.11525106430053711,-0.10160493850708008
1684114959212871000,2.609870849609375,0.8822963237762451,0.05273866653442383,0.08715629577636719
1684114959222911500,2.619911376953125,0.8652235865592957,0.19883251190185547,0.25664329528808594
1684114959232951800,2.629951904296875,0.8260012269020081,0.27101755142211914,0.48586082458496094
1684114959242992000,2.6399921875,1.3951547145843506,2.3564987182617188,0.4145545959472656
1684114959253032700,2.65003271484375,0.604945182800293,-0.4159812927246094,1.016657829284668
1684114959263073000,2.660072998046875,1.1088154315948486,-1.0670232772827148,0.4232611656188965
1684114959273113600,2.670113525390625,1.4786856174468994,-0.7237982749938965,-0.3092074394226074
1684114959283154000,2.68015380859375,1.415907382965088,-0.7668514251708984,-0.6172661781311035
1684114959293194200,2.6901943359375,1.4632114171981812,-0.7958450317382812,-0.8195013999938965
1684114959303234800,2.70023486328125,1.3323030471801758,-0.6607189178466797,-0.8572497367858887
1684114959313275100,2.710275146484375,1.2543693780899048,-0.45253992080688477,-0.8335146903991699
1684114959323315700,2.720315673828125,1.123568058013916,-0.4319772720336914,-0.7462611198425293
1684114959333356000,2.73035595703125,1.0687255859375,-0.19792509078979492,-0.6765117645263672
1684114959343396400,2.740396240234375,0.2882605195045471,-0.40090417861938477,-0.2007441520690918
1684114959353437000,2.75043701171875,0.015474408864974976,-0.4053163528442383,0.1674966812133789
1684114959363477200,2.760477294921875,1.2217681407928467,0.4018115997314453,-0.2213892936706543
1684114959373517800,2.770517822265625,0.9707359075546265,-0.25176143646240234,0.13666629791259766
1684114959383558100,2.78055810546875,1.3252265453338623,0.14828157424926758,-0.14435625076293945
1684114959393598500,2.790598388671875,1.9528721570968628,2.3504652976989746,-0.7085781097412109
1684114959403639000,2.80063916015625,0.7062444090843201,0.4723219871520996,-0.4467945098876953
1684114959413679400,2.810679443359375,0.8962851762771606,-0.486849308013916,-0.21524333953857422
1684114959423720000,2.820719970703125,0.7201886177062988,-1.2665085792541504,0.09453773498535156
1684114959433760300,2.83076025390625,0.3342890441417694,-1.4637699127197266,-0.2169666290283203
1684114959443800800,2.84080078125,-0.13800999522209167,-1.444925308227539,-0.74884033203125
1684114959453841200,2.850841064453125,-0.4593859016895294,-1.1249842643737793,-1.090224266052246
1684114959463881500,2.860881591796875,-0.25360655784606934,-0.8192386627197266,-0.9594364166259766
1684114959473922000,2.870922119140625,0.2621003985404968,-0.5364580154418945,-0.5360517501831055
1684114959483962400,2.88096240234375,0.8088830709457397,-0.4681086540222168,-0.3488740921020508
1684114959494003000,2.8910029296875,1.0869190692901611,-0.4310431480407715,-0.42483091354370117
1684114959504043300,2.901043212890625,1.0883270502090454,-0.4659905433654785,-0.7991499900817871
1684114959514083800,2.911083740234375,0.9681719541549683,-0.6944179534912109,-0.7932357788085938
1684114959524124200,2.921124267578125,0.8450601100921631,-0.7843265533447266,-0.6925740242004395
1684114959534164500,2.93116455078125,0.9938561320304871,-0.8789453506469727,-0.616361141204834
1684114959544205000,2.941205078125,1.1414682865142822,-1.0142450332641602,-0.5099997520446777
1684114959554245400,2.951245361328125,1.2053496837615967,-0.9594993591308594,-0.6058645248413086
1684114959564286000,2.961285888671875,1.1748988628387451,-0.8346729278564453,-0.5858755111694336
1684114959574326300,2.971326171875,0.9160685539245605,-0.7061810493469238,-0.5643467903137207
1684114959584366600,2.98136669921875,0.74744713306427,-0.5785713195800781,-0.5936822891235352
1684114959594407200,2.9914072265625,0.6679633855819702,-0.4801011085510254,-0.6662158966064453
1684114959604447500,3.001447509765625,0.6687150597572327,-0.5645294189453125,-0.6944270133972168
1684114959614488000,3.011488037109375,0.6771289110183716,-0.5631871223449707,-0.7632627487182617
1684114959624528400,3.0215283203125,0.8035484552383423,-0.3803238868713379,-0.7716207504272461
1684114959634569000,3.03156884765625,0.647956907749176,-0.42406558990478516,-0.9624862670898438
1684114959644609300,3.041609375,0.7141168713569641,-0.15460777282714844,-0.5385608673095703
1684114959654649600,3.051649658203125,0.3597574830055237,-0.14209270477294922,-0.555605411529541
1684114959664690200,3.061690185546875,0.25873494148254395,0.06220579147338867,-0.43060779571533203
1684114959674730500,3.07173046875,0.10462862253189087,0.08928108215332031,-0.2296891212463379
1684114959684771000,3.08177099609375,-0.24120229482650757,-0.025842666625976562,-0.18596410751342773
1684114959694811400,3.091811279296875,-0.31679755449295044,-0.004230499267578125,-0.06567239761352539
1684114959704852000,3.10185205078125,-0.3234287202358246,-0.07107162475585938,0.2518482208251953
1684114959714892300,3.111892333984375,-0.5424180030822754,-0.5056648254394531,0.6365618705749512
1684114959724932600,3.1219326171875,0.0018754005432128906,0.000690460205078125,0.3365950584411621
1684114959734973200,3.13197314453125,0.2750195860862732,0.25920963287353516,0.4115567207336426
1684114959745013500,3.142013427734375,0.3729168772697449,0.19733381271362305,0.7081036567687988
1684114959755054000,3.15205419921875,0.5742194056510925,0.29466724395751953,0.5564980506896973
1684114959765094400,3.162094482421875,0.9508270025253296,0.6493263244628906,0.4316744804382324
1684114959775134700,3.172134765625,0.9035131931304932,0.8663144111633301,0.6220664978027344
1684114959785175300,3.18217529296875,0.8763800263404846,0.8987298011779785,0.33957576751708984
1684114959795215600,3.192215576171875,0.8267600536346436,0.6888775825500488,0.0881648063659668
1684114959805256200,3.202256103515625,0.7773895859718323,0.5367574691772461,-0.2388925552368164
1684114959815296500,3.212296630859375,0.6885671019554138,0.1697087287902832,-0.2981891632080078
1684114959825337000,3.222337158203125,0.6987810730934143,-0.16978931427001953,-0.2758359909057617
1684114959835377400,3.23237744140625,0.5837981700897217,-0.22113561630249023,-0.35521984100341797
1684114959845417700,3.242417724609375,0.4815515875816345,-0.22162437438964844,-0.2545323371887207
1684114959855458300,3.252458251953125,0.33274853229522705,-0.17225265502929688,-0.16140031814575195
1684114959865498600,3.26249853515625,0.1228892132639885,0.2628474235534668,-0.24109554290771484
1684114959875539200,3.272539306640625,-0.06468553841114044,0.5945544242858887,-0.33173370361328125
1684114959885579500,3.28257958984375,-0.06764373183250427,2.2480340003967285,-0.15668773651123047
1684114959895620000,3.2926201171875,-0.4414384365081787,1.9650616645812988,0.4905529022216797
1684114959905660400,3.302660400390625,-0.07969984412193298,0.9108271598815918,0.5535087585449219
1684114959915701000,3.312700927734375,0.05138644576072693,0.30704593658447266,0.48212575912475586
1684114959925741300,3.3227412109375,0.04055783152580261,-0.32156944274902344,0.27286815643310547
1684114959935781600,3.33278173828125,-0.05871051549911499,-0.7899355888366699,-0.34940528869628906
1684114959945822200,3.342822265625,-0.0041959285736083984,-1.0885043144226074,-0.550269603729248
1684114959955862500,3.352862548828125,0.14581888914108276,-1.0526418685913086,-0.4668874740600586
1684114959965903000,3.362903076171875,0.2733829617500305,-0.7786555290222168,-0.052597999572753906
1684114959975943400,3.372943359375,0.45949190855026245,-0.49185848236083984,0.5071649551391602
1684114959985984000,3.38298388671875,0.46056437492370605,0.3357391357421875,0.86163330078125
1684114959996024300,3.3930244140625,0.16327649354934692,0.8487300872802734,0.8217263221740723
1684114960006065000,3.40306494140625,-0.12362527847290039,1.312192440032959,0.61553955078125
1684114960016105200,3.413105224609375,-0.36343300342559814,0.980891227722168,0.26020336151123047
1684114960026145500,3.4231455078125,-0.4352043867111206,0.6169776916503906,0.0428013801574707
1684114960036186000,3.43318603515625,-0.47480642795562744,0.6093540191650391,0.1009063720703125
1684114960046226400,3.443226318359375,-0.34086382389068604,0.43897485733032227,0.30234813690185547
1684114960056267000,3.45326708984375,-0.1393280029296875,0.4657411575317383,0.4905071258544922
1684114960066307300,3.463307373046875,-0.03678560256958008,0.6049923896789551,0.48174047470092773
1684114960076348000,3.473347900390625,-0.14661157131195068,0.6433591842651367,0.4611320495605469
1684114960086388200,3.48338818359375,-0.315340518951416,0.5160641670227051,0.32138872146606445
1684114960096428800,3.4934287109375,-0.437084436416626,0.20076513290405273,0.20224571228027344
1684114960106469000,3.50346923828125,-0.6730855703353882,0.07575702667236328,0.049297332763671875
1684114960116509400,3.513509521484375,-0.7456369400024414,-0.13756132125854492,-0.20133447647094727
1684114960126550000,3.523550048828125,-0.8429758548736572,-0.1388869285583496,-0.33797311782836914
1684114960136590300,3.53359033203125,-1.0447518825531006,-0.45749664306640625,-0.5024070739746094
1684114960146631000,3.543630859375,-0.8114125728607178,-0.9394321441650391,-0.5301218032836914
1684114960156671200,3.553671142578125,-0.48892736434936523,-1.069319725036621,-0.39304304122924805
1684114960166711800,3.5637119140625,-0.16532373428344727,-1.074622631072998,-0.10581445693969727
1684114960176752000,3.573752197265625,-0.1896066665649414,-1.1461691856384277,0.05932044982910156
1684114960186792700,3.583792724609375,-0.18109655380249023,-1.12504243850708,0.2282695770263672
1684114960196833000,3.5938330078125,-0.09731245040893555,-0.9864463806152344,0.49648571014404297
1684114960206873300,3.603873291015625,-0.03187060356140137,-0.40006065368652344,0.7985000610351562
1684114960216914000,3.613913818359375,-0.28522729873657227,-1.1020593643188477,1.303985595703125
1684114960226954200,3.623954345703125,-0.2199852466583252,-0.46681880950927734,1.2651004791259766
1684114960236994800,3.633994873046875,-0.3469200134277344,-0.4909191131591797,1.114119052886963
1684114960247035100,3.64403515625,-0.3460221290588379,-0.36322546005249023,0.8497300148010254
1684114960257075700,3.65407568359375,-0.18912434577941895,-0.16181373596191406,0.5508618354797363
1684114960267116000,3.664115966796875,0.13117170333862305,-0.11444711685180664,0.35819530487060547
1684114960277156600,3.674156494140625,0.5033016204833984,0.05710887908935547,0.3459172248840332
1684114960287197000,3.684197021484375,0.7098673582077026,0.34025001525878906,0.3509368896484375
1684114960297237200,3.6942373046875,0.7076314687728882,0.6785130500793457,0.06623506546020508
1684114960307277800,3.70427783203125,0.6313323974609375,0.5953636169433594,-0.3865838050842285
1684114960317318100,3.714318115234375,0.7746038436889648,0.5385880470275879,-0.8326072692871094
1684114960327358700,3.724358642578125,1.0776821374893188,0.514315128326416,-1.0696663856506348
1684114960337399000,3.73439892578125,1.352614164352417,0.541407585144043,-1.1745576858520508
1684114960347439600,3.744439697265625,1.4185651540756226,0.5363802909851074,-1.1210441589355469
1684114960357480000,3.75447998046875,1.3036463260650635,0.2115788459777832,-1.018639087677002
1684114960367520500,3.7645205078125,1.3907561302185059,0.3340439796447754,-0.9280657768249512
1684114960377560800,3.774560791015625,1.3439747095108032,0.4334731101989746,-0.6405243873596191
1684114960387601400,3.784601318359375,1.0605179071426392,-0.08530473709106445,-0.21210002899169922
1684114960397641700,3.794641845703125,0.7846266031265259,0.1103062629699707,0.2124471664428711
1684114960407682000,3.80468212890625,0.2560234069824219,0.14330291748046875,0.5763378143310547
1684114960417722600,3.81472265625,-0.2180492877960205,-0.16797685623168945,0.7710671424865723
1684114960427763000,3.824762939453125,-0.36882925033569336,-0.16806411743164062,0.697476863861084
1684114960437803500,3.834803466796875,-0.36484479904174805,-0.2675166130065918,0.5272068977355957
1684114960447843800,3.84484375,-0.27034175395965576,-0.4067502021789551,0.2936100959777832
1684114960457884400,3.854884521484375,-0.17123079299926758,-0.3218574523925781,0.16269588470458984
1684114960467924700,3.8649248046875,-0.21654152870178223,-0.17986488342285156,0.1631789207458496
1684114960477965300,3.87496533203125,-0.45069706439971924,0.6580691337585449,0.3943490982055664
1684114960488005600,3.885005615234375,-0.49938058853149414,-0.7092390060424805,-0.32274293899536133
1684114960498046000,3.8950458984375,-0.2432786226272583,0.09124946594238281,-0.3789210319519043
1684114960508086500,3.90508642578125,-0.5966938734054565,-0.15105152130126953,-0.043122291564941406
1684114960518126800,3.915126953125,-0.7430499792098999,-0.4857034683227539,-0.1084136962890625
1684114960528167400,3.92516748046875,-0.5628845691680908,-0.4428977966308594,-0.2401876449584961
1684114960538207700,3.935207763671875,-0.3430672883987427,-0.6634292602539062,-0.4525108337402344
1684114960548248300,3.945248291015625,-0.11503303050994873,-0.7460618019104004,-0.588437557220459
1684114960558288600,3.95528857421875,0.020812034606933594,-0.8127164840698242,-0.5835680961608887
1684114960568329200,3.9653291015625,0.13564908504486084,-0.8076496124267578,-0.5570917129516602
1684114960578369500,3.97536962890625,0.18542051315307617,-0.6331262588500977,-0.4615902900695801
1684114960588410000,3.98541015625,0.15082573890686035,-0.5635161399841309,-0.4973416328430176
1684114960598450400,3.995450439453125,0.1630091667175293,-0.4696383476257324,-0.3871622085571289
1684114960608491000,4.005490966796875,0.14044523239135742,-0.331362247467041,-0.2759108543395996
1684114960618531300,4.01553125,0.10096621513366699,-0.21158552169799805,-0.192657470703125
1684114960628571600,4.025571533203125,0.259708046913147,0.23914384841918945,-0.2197895050048828
1684114960638612200,4.0356123046875,0.11656415462493896,-0.1008305549621582,-0.19503402709960938
1684114960648652500,4.045652587890625,0.23416972160339355,0.2290177345275879,-0.16192388534545898
1684114960658693000,4.055693115234375,0.26828765869140625,0.4030489921569824,-0.07275533676147461
1684114960668733400,4.0657333984375,0.18929541110992432,0.5050673484802246,-0.009244918823242188
1684114960678774000,4.07577392578125,0.12744998931884766,0.5923905372619629,0.10228919982910156
1684114960688814300,4.085814453125,0.1156013011932373,0.691075325012207,0.11096477508544922
1684114960698855000,4.09585498046875,0.14360857009887695,0.6753096580505371,-0.12566518783569336
1684114960708895200,4.105895263671875,0.13175833225250244,0.677365779876709,-0.3980226516723633
1684114960718935800,4.115935791015625,-0.12770581245422363,2.292491912841797,-0.3369021415710449
1684114960728976100,4.12597607421875,-0.021990656852722168,-0.37557125091552734,-1.784721851348877
1684114960739016700,4.1360166015625,0.7372009754180908,0.6478085517883301,-1.6911826133728027
1684114960749057000,4.14605712890625,0.5508607029914856,0.45148515701293945,-1.0101885795593262
1684114960759097600,4.15609765625,0.21967780590057373,-0.21210289001464844,-0.7471532821655273
1684114960769138000,4.166137939453125,0.19629502296447754,-0.15985631942749023,-0.49207496643066406
1684114960779178500,4.176178466796875,0.1303868293762207,0.013723373413085938,-0.44073057174682617
1684114960789218800,4.18621875,0.07426643371582031,-0.13071393966674805,-0.42951488494873047
1684114960799259100,4.196259033203125,0.11462867259979248,-0.18331384658813477,-0.5603656768798828
1684114960809299700,4.2062998046875,0.10456180572509766,-0.22041702270507812,-0.7993893623352051
1684114960819340000,4.216340087890625,0.08551621437072754,-0.36504364013671875,-1.009432315826416
1684114960829380600,4.226380615234375,0.13440096378326416,-0.3850851058959961,-1.0713419914245605
1684114960839421000,4.2364208984375,0.10984683036804199,-0.4220714569091797,-1.0454988479614258
1684114960849461500,4.24646142578125,0.055234551429748535,-0.41135549545288086,-0.984440803527832
1684114960859501800,4.256501708984375,-0.008212924003601074,-0.3368368148803711,-0.8290348052978516
1684114960869542400,4.26654248046875,-0.1476578712463379,-0.27561235427856445,-0.6875014305114746
1684114960879582700,4.276582763671875,-0.29972541332244873,-0.1380600929260254,-0.4722905158996582
1684114960889623300,4.286623291015625,-0.4228627681732178,-0.0835108757019043,-0.23926258087158203
1684114960899663600,4.29666357421875,-0.37933385372161865,0.06685972213745117,-0.11757421493530273
1684114960909704200,4.3067041015625,-0.23352479934692383,0.13842296600341797,0.1241307258605957
1684114960919744500,4.31674462890625,-0.016247272491455078,0.3381805419921875,0.2047119140625
1684114960929785000,4.32678515625,0.021305084228515625,0.14371442794799805,0.2878279685974121
1684114960939825400,4.336825439453125,-0.012562036514282227,0.12201642990112305,0.3807792663574219
1684114960949866000,4.346865966796875,-0.15206634998321533,0.1596379280090332,0.5785889625549316
1684114960959906300,4.35690625,-0.336037278175354,0.250338077545166,0.662513256072998
1684114960969947000,4.36694677734375,-0.3691345453262329,0.2628154754638672,0.7116327285766602
1684114960979987200,4.3769873046875,-0.3997119665145874,0.20731735229492188,0.6686801910400391
1684114960990027500,4.387027587890625,-0.2730950117111206,0.40932226181030273,0.6370110511779785
1684114961000068000,4.397068115234375,-0.19086968898773193,-0.04846477508544922,0.6503267288208008
1684114961010108400,4.4071083984375,0.05959522724151611,0.08370685577392578,0.6935687065124512
1684114961020149000,4.41714892578125,0.008336544036865234,-0.04716348648071289,0.6272740364074707
1684114961030189300,4.427189208984375,-0.15306854248046875,0.07441091537475586,0.5848088264465332
1684114961040230000,4.43722998046875,-0.4277973175048828,0.007892608642578125,0.21839189529418945
1684114961050270200,4.447270263671875,-0.5363595485687256,-0.09830045700073242,0.24264049530029297
1684114961060310800,4.457310791015625,-0.9278984069824219,-0.5171451568603516,0.09984445571899414
1684114961070351000,4.46735107421875,-1.6173256635665894,-0.5573153495788574,0.12605667114257812
1684114961080391700,4.4773916015625,-2.3196072578430176,-0.5168600082397461,0.5327739715576172
1684114961090432000,4.487431884765625,-2.237900733947754,-0.3968925476074219,1.0072789192199707
1684114961100472600,4.49747265625,-1.2812511920928955,-0.3685302734375,1.4252042770385742
1684114961110513000,4.507512939453125,0.037468791007995605,-0.43164682388305664,1.397343635559082
1684114961120553500,4.517553466796875,0.9406037330627441,-0.322908878326416,1.1061286926269531
1684114961130593800,4.52759375,1.080138921737671,-0.33209705352783203,0.8340349197387695
1684114961140634400,4.53763427734375,1.0589792728424072,-0.6369771957397461,0.49716615676879883
1684114961150674700,4.5476748046875,1.2376474142074585,0.13532209396362305,0.576408863067627
1684114961160715300,4.55771533203125,1.0110151767730713,0.1078786849975586,0.5736293792724609
1684114961170755600,4.567755615234375,0.7527897357940674,0.19153070449829102,0.8198151588439941
1684114961180796000,4.5777958984375,0.4835536479949951,0.06278324127197266,0.5652637481689453
1684114961190836500,4.58783642578125,0.5799251198768616,0.25282764434814453,0.31941843032836914
1684114961200876800,4.597876708984375,0.8417498469352722,0.3288426399230957,0.059758663177490234
1684114961210917400,4.60791748046875,1.0611138343811035,0.5122699737548828,0.3689384460449219
1684114961220957700,4.617957763671875,1.0966315269470215,-0.0746755599975586,-0.1898941993713379
1684114961230998300,4.627998291015625,1.2504957914352417,0.1132497787475586,0.06339788436889648
1684114961241038600,4.63803857421875,1.2178683280944824,-0.24336528778076172,-0.29586076736450195
1684114961251079200,4.6480791015625,1.0745220184326172,-0.20993995666503906,-0.07705497741699219
1684114961261119500,4.658119384765625,0.9824340343475342,-0.18060970306396484,-0.22217655181884766
1684114961271160000,4.66816015625,0.8593499064445496,-0.09415054321289062,-0.2657470703125
1684114961281200400,4.678200439453125,0.892296314239502,0.01242828369140625,-0.4404430389404297
1684114961291241000,4.688240966796875,1.110718011856079,0.21675777435302734,-0.3141956329345703
1684114961301281300,4.69828125,1.0245912075042725,0.0637979507446289,-0.16514301300048828
1684114961311321900,4.70832177734375,0.9577540159225464,-0.17283916473388672,-0.3471956253051758
1684114961321362200,4.718362060546875,1.0956096649169922,0.0038738250732421875,-0.24648380279541016
1684114961331402800,4.72840283203125,1.0502028465270996,-0.10754871368408203,-0.34629154205322266
1684114961341443000,4.738443115234375,1.0172102451324463,-0.06456851959228516,-0.6724987030029297
1684114961351483600,4.748483642578125,0.9871332049369812,-0.17540931701660156,-1.0717964172363281
1684114961361524000,4.75852392578125,0.8473584055900574,0.04680442810058594,-1.0771515369415283
1684114961371564500,4.768564453125,0.6631691455841064,-0.09235572814941406,-1.259598970413208
1684114961381604900,4.77860498046875,0.6025848388671875,-0.19039249420166016,-1.2557799816131592
1684114961391645400,4.7886455078125,0.5944734215736389,-0.11916828155517578,-0.852703332901001
1684114961401685800,4.798685791015625,0.38885968923568726,-0.1564340591430664,-0.4734969139099121
1684114961411726300,4.808726318359375,0.20522266626358032,-0.1811199188232422,-0.4447345733642578
1684114961421766700,4.8187666015625,0.1715748906135559,-0.06336116790771484,-0.33123350143432617
1684114961431807200,4.82880712890625,0.11945754289627075,-0.11138916015625,-0.2854142189025879
1684114961441847600,4.83884765625,-0.010834932327270508,-0.09190845489501953,-0.0893402099609375
1684114961451888000,4.84888818359375,0.04942423105239868,-0.09277629852294922,0.021529197692871094
1684114961461928400,4.858928466796875,0.2415405511856079,-0.07644939422607422,0.22504377365112305
1684114961471968800,4.86896875,0.5227022171020508,-0.2216510772705078,0.5145893096923828
1684114961482009300,4.87900927734375,0.804356575012207,-0.5467805862426758,0.6635594367980957
1684114961492049700,4.889049560546875,0.9801977276802063,-0.725616455078125,0.7124176025390625
1684114961502090200,4.89909033203125,1.07649564743042,-0.5780057907104492,0.5108809471130371
1684114961512130600,4.909130615234375,1.2367119789123535,-0.4901924133300781,0.31783580780029297
1684114961522171100,4.919171142578125,1.2764372825622559,-0.5025539398193359,0.1885223388671875
1684114961532211700,4.929211669921875,1.2188376188278198,-0.3268871307373047,0.09449100494384766
1684114961542252000,4.939251953125,1.1768745183944702,-0.3002023696899414,-0.08099555969238281
1684114961552292600,4.949292724609375,1.0945488214492798,-0.3092317581176758,-0.23614788055419922
1684114961562333000,4.9593330078125,0.985526978969574,-0.3466167449951172,-0.3804798126220703
1684114961572373200,4.969373291015625,0.9598857164382935,-0.41895484924316406,-0.48924922943115234
1684114961582413800,4.979413818359375,0.9258904457092285,-0.5285100936889648,-0.4836277961730957
1684114961592454100,4.9894541015625,0.8432518839836121,-0.5655927658081055,-0.4694991111755371
1684114961602494700,4.99949462890625,0.8076090812683105,-0.4899721145629883,-0.4783339500427246
1684114961612535000,5.00953515625,0.8257375955581665,0.8022918701171875,-1.45558762550354
1684114961622575600,5.01957568359375,0.3171786069869995,0.015248298645019531,-0.859196662902832
1684114961632616000,5.029615966796875,0.38782650232315063,-0.9865942001342773,-0.2644791603088379
1684114961642656500,5.039656494140625,0.5645835995674133,-1.208913803100586,-0.21529817581176758
1684114961652696800,5.04969677734375,0.7053515911102295,-1.2622079849243164,-0.22765350341796875
1684114961662737400,5.0597373046875,0.6619455814361572,-0.5928173065185547,-0.6362268924713135
1684114961672777700,5.06977783203125,0.2646183371543884,0.003952980041503906,-0.9830868244171143
1684114961682818300,5.079818359375,0.14223924279212952,0.1745452880859375,-0.8171966075897217
1684114961692858600,5.089858642578125,0.0412198044359684,-0.13875389099121094,-0.31450510025024414
1684114961702899200,5.099899169921875,0.15143311023712158,-0.321563720703125,0.04311084747314453
1684114961712939500,5.109939453125,0.3798794746398926,0.021190643310546875,-0.06374645233154297
1684114961722980000,5.11997998046875,0.6300804615020752,0.2570056915283203,-0.12923431396484375
1684114961733020400,5.1300205078125,0.7651312351226807,0.17196369171142578,-0.07079696655273438
1684114961743061000,5.14006103515625,0.8471189737319946,0.28711795806884766,-0.22145938873291016
1684114961753101300,5.150101318359375,1.0008466243743896,0.30728912353515625,-0.21487092971801758
1684114961763142000,5.160141845703125,1.125342607498169,0.4604463577270508,-0.37688589096069336
1684114961773182200,5.17018212890625,1.0421786308288574,0.4834928512573242,-0.26534032821655273
1684114961783222800,5.180222900390625,0.8693794012069702,0.2543344497680664,-0.08985328674316406
1684114961793263000,5.19026318359375,0.7009969353675842,0.10254955291748047,-0.05714130401611328
1684114961803303700,5.2003037109375,0.7288557291030884,0.21463394165039062,0.10149908065795898
1684114961813344000,5.210343994140625,0.6198797821998596,0.28177452087402344,0.28525447845458984
1684114961823384600,5.220384521484375,0.5141709446907043,0.14878082275390625,0.3529667854309082
1684114961833425000,5.2304248046875,0.3803560733795166,-0.005002021789550781,0.3664970397949219
1684114961843465500,5.240465576171875,0.39968758821487427,-0.03409004211425781,0.32073211669921875
1684114961853505800,5.250505859375,0.3708253502845764,-0.2303314208984375,0.26798057556152344
1684114961863546400,5.26054638671875,0.42489951848983765,-0.13362789154052734,0.08898115158081055
1684114961873586700,5.270586669921875,0.3447837233543396,-0.24310874938964844,0.05074930191040039
1684114961883627300,5.280627197265625,0.513832151889801,0.2152719497680664,-0.14972949028015137
1684114961893667600,5.29066748046875,0.417705237865448,0.14156436920166016,0.03544807434082031
1684114961903708200,5.300708251953125,0.34121447801589966,-0.04274177551269531,0.08681583404541016
1684114961913748500,5.31074853515625,0.24609215557575226,-0.3603649139404297,0.01128697395324707
1684114961923789000,5.3207890625,0.317691832780838,-0.43283557891845703,0.11388635635375977
1684114961933829400,5.330829345703125,0.44239479303359985,-0.27457618713378906,0.12236285209655762
1684114961943870000,5.340869873046875,0.5312802791595459,-0.20246601104736328,0.024620532989501953
1684114961953910300,5.35091015625,0.538190484046936,-0.093963623046875,-0.09649538993835449
1684114961963950800,5.360950927734375,0.5543992519378662,-0.1695394515991211,-0.19697093963623047
1684114961973991200,5.3709912109375,0.4697624444961548,-0.2802143096923828,-0.30365848541259766
1684114961984031700,5.38103173828125,0.3279602527618408,-0.3660888671875,-0.36391234397888184
1684114961994072000,5.391072021484375,0.2209806889295578,-0.32635498046875,-0.3318142890930176
1684114962004112600,5.401112548828125,0.1206279769539833,-0.2058858871459961,-0.3000950813293457
1684114962014153000,5.411153076171875,0.08750496804714203,-0.0350799560546875,-0.30919790267944336
1684114962024193500,5.421193603515625,0.1211385503411293,0.2154407501220703,-0.2728910446166992
1684114962034233900,5.43123388671875,0.14595867693424225,0.3094301223754883,-0.15190672874450684
1684114962044274400,5.4412744140625,0.2455485463142395,0.4982595443725586,-0.02469015121459961
1684114962054314800,5.451314697265625,0.4199666678905487,0.5595846176147461,0.1800518035888672
1684114962064355300,5.461355224609375,0.7510346174240112,0.8705310821533203,0.5580997467041016
1684114962074395600,5.471395751953125,0.899283230304718,0.5615015029907227,0.8230879306793213
1684114962084436200,5.481436279296875,1.0013786554336548,0.32206058502197266,0.992725133895874
1684114962094476500,5.4914765625,1.075866460800171,0.28093719482421875,1.1412079334259033
1684114962104517000,5.50151708984375,1.1046342849731445,0.25128746032714844,1.2565381526947021
1684114962114557400,5.511557373046875,1.0438308715820312,0.22825050354003906,1.317284345626831
1684114962124598000,5.521597900390625,0.9045868515968323,0.28829383850097656,1.2427306175231934
1684114962134638300,5.531638427734375,0.7127962708473206,0.30484962463378906,1.1748626232147217
1684114962144679000,5.541678955078125,0.47214120626449585,0.35677623748779297,1.1445260047912598
1684114962154719200,5.55171923828125,0.28741875290870667,0.3458728790283203,1.026829481124878
1684114962164759800,5.561759765625,0.2041630893945694,0.3889350891113281,0.961768388748169
1684114962174800100,5.571800048828125,0.1992773860692978,0.41436004638671875,0.9339568614959717
1684114962184840700,5.5818408203125,0.1391603797674179,0.17088699340820312,0.8378012180328369
1684114962194881000,5.591881103515625,0.05957050621509552,0.007306098937988281,0.6903274059295654
1684114962204921600,5.601921630859375,-0.03386157751083374,-0.016180992126464844,0.5358097553253174
1684114962214962000,5.6119619140625,-0.04489225149154663,0.051158905029296875,0.3797140121459961
1684114962225002500,5.62200244140625,-0.022838667035102844,0.1442241668701172,0.3069343566894531
1684114962235042800,5.632042724609375,-0.011292770504951477,0.1683826446533203,0.28075289726257324
1684114962245083400,5.64208349609375,0.038618847727775574,0.12963485717773438,0.29607725143432617
1684114962255123700,5.652123779296875,0.16098013520240784,0.09497642517089844,0.3475630283355713
1684114962265164300,5.662164306640625,0.2910711169242859,0.045441627502441406,0.36605191230773926
1684114962275204600,5.67220458984375,0.46866780519485474,0.016082763671875,0.44928812980651855
1684114962285245200,5.6822451171875,0.7048097252845764,0.00104522705078125,0.5677492618560791
1684114962295285500,5.692285400390625,0.850720226764679,-0.07108116149902344,0.563819169998169
1684114962305326000,5.702326171875,0.9739376306533813,-0.041619300842285156,0.5714530944824219
1684114962315366400,5.712366455078125,1.0475094318389893,0.0904388427734375,0.561016321182251
1684114962325407000,5.722406982421875,1.1332168579101562,0.24576187133789062,0.6342432498931885
1684114962335447300,5.732447265625,1.194779634475708,0.3977375030517578,0.6662900447845459
1684114962345488000,5.74248779296875,1.2145047187805176,0.5533056259155273,0.7231040000915527
1684114962355528200,5.752528076171875,1.129004955291748,0.5783185958862305,0.7714393138885498
1684114962365568800,5.76256884765625,1.0117909908294678,0.5692615509033203,0.7670497894287109
1684114962375609000,5.772609130859375,0.8614855408668518,0.4632530212402344,0.6287531852722168
1684114962385649700,5.782649658203125,0.7398475408554077,0.3889913558959961,0.5305047035217285
1684114962395690000,5.79268994140625,0.7235696315765381,0.2843809127807617,0.36231493949890137
1684114962405730600,5.80273046875,0.7521352767944336,0.15003585815429688,0.2693183422088623
1684114962415771000,5.81277099609375,0.8910994529724121,0.20016956329345703,0.28395915031433105
1684114962425811500,5.8228115234375,1.0267821550369263,0.2571392059326172,0.16335558891296387
1684114962435852000,5.83285205078125,1.087018609046936,0.4112253189086914,0.025894641876220703
1684114962445892400,5.842892333984375,1.1129462718963623,0.49449920654296875,0.008673429489135742
1684114962455932700,5.8529326171875,1.0930473804473877,0.5082330703735352,0.09822416305541992
1684114962465973200,5.86297314453125,1.0581105947494507,0.4816255569458008,0.20269036293029785
1684114962476013600,5.873013671875,1.0215044021606445,0.5044641494750977,0.28554368019104004
1684114962486054100,5.88305419921875,0.9094541072845459,0.5381870269775391,0.33524298667907715
1684114962496094700,5.8930947265625,0.7693034410476685,0.5614538192749023,0.3172144889831543
1684114962506135000,5.903135009765625,0.5812341570854187,0.6593399047851562,0.19079351425170898
1684114962516175600,5.913175537109375,0.369900643825531,0.7343654632568359,0.04355454444885254
1684114962526216000,5.9232158203125,0.1455875039100647,0.7329206466674805,-0.07879042625427246
1684114962536256500,5.933256591796875,-0.06715232133865356,0.6868076324462891,-0.19783735275268555
1684114962546296800,5.943296875,-0.527533233165741,0.47418975830078125,-0.29955410957336426
1684114962556337200,5.953337158203125,-1.5194554328918457,0.011119842529296875,-0.6317927837371826
1684114962566377700,5.963377685546875,-2.556408166885376,-0.2965555191040039,-0.985044002532959
1684114962576418300,5.973418212890625,-3.162585735321045,-0.5762138366699219,-1.293830156326294
1684114962586458600,5.983458740234375,-3.70743465423584,-0.921905517578125,-1.522936224937439
1684114962596499200,5.993499267578125,-3.5792932510375977,-1.1661510467529297,-1.5639259815216064
1684114962606539500,6.00353955078125,-2.181678056716919,-1.1332807540893555,-1.1254985332489014
1684114962616580000,6.013580078125,-0.9677420854568481,-1.117203712463379,-0.5666139125823975
1684114962626620400,6.023620361328125,-0.29016727209091187,-1.2227907180786133,-0.21549367904663086
1684114962636661000,6.033660888671875,0.11125846207141876,-1.1844873428344727,-0.14689159393310547
1684114962646701300,6.043701416015625,0.400075763463974,-0.844508171081543,-0.3475067615509033
1684114962656742000,6.053741943359375,0.5210882425308228,-0.6131715774536133,-0.6090831756591797
1684114962666782200,6.0637822265625,0.668447732925415,-0.41989898681640625,-0.40625548362731934
1684114962676822800,6.07382275390625,0.6793644428253174,-0.14616107940673828,-0.14224672317504883
1684114962686863000,6.083863037109375,0.47534143924713135,-0.044020652770996094,-0.04263949394226074
1684114962696903700,6.093903564453125,0.2908415198326111,0.2462291717529297,0.09200191497802734
1684114962706944000,6.103944091796875,0.006686002016067505,0.5127105712890625,0.10723090171813965
1684114962716984600,6.113984619140625,-0.35966166853904724,0.6259651184082031,-0.053385019302368164
1684114962727025000,6.12402490234375,-0.7916761636734009,0.6009674072265625,-0.2476201057434082
1684114962737065500,6.1340654296875,-1.1778419017791748,0.4220390319824219,-0.32001733779907227
1684114962747105800,6.144105712890625,-1.459284782409668,0.07045364379882812,-0.15086603164672852
1684114962757146400,6.154146484375,-1.6179815530776978,-0.2411785125732422,0.019873380661010742
1684114962767186700,6.164186767578125,-1.639570713043213,-0.5321159362792969,0.08956289291381836
1684114962777227300,6.174227294921875,-1.5997569561004639,-0.6923065185546875,0.09724617004394531
1684114962787267600,6.184267578125,-1.4912233352661133,-0.8340530395507812,0.14119338989257812
1684114962797308200,6.19430810546875,-1.4149750471115112,-1.0407676696777344,0.1998300552368164
1684114962807348500,6.204348388671875,-1.3263740539550781,-1.2856674194335938,0.10186362266540527
1684114962817389000,6.21438916015625,-1.279364824295044,-1.6059846878051758,-0.06605172157287598
1684114962827429400,6.224429443359375,-1.1581066846847534,-1.8405351638793945,-0.22426152229309082
1684114962837470000,6.234469970703125,-1.0170845985412598,-1.6644983291625977,-0.295581579208374
1684114962847510500,6.244510498046875,-0.9226295948028564,-1.2467212677001953,-0.40149688720703125
1684114962857550800,6.25455078125,-0.7883335947990417,-0.9180746078491211,-0.5153136253356934
1684114962867591200,6.264591064453125,-0.5960309505462646,-0.554718017578125,-0.6079447269439697
1684114962877631700,6.2746318359375,-0.4593653678894043,-0.32399749755859375,-0.7255978584289551
1684114962887672300,6.28467236328125,-0.3887190818786621,-0.2086315155029297,-0.8703687191009521
1684114962897712600,6.294712646484375,-0.3898954391479492,-0.14582157135009766,-1.034348726272583
1684114962907753200,6.304753173828125,-0.40382134914398193,-0.22112464904785156,-1.1550240516662598
1684114962917793500,6.31479345703125,-0.4501684904098511,-0.2550315856933594,-1.2279539108276367
1684114962927834000,6.324834228515625,-0.4525294303894043,-0.3006467819213867,-1.161666989326477
1684114962937874400,6.33487451171875,-0.5367908477783203,-0.3035116195678711,-0.945842981338501
1684114962947915000,6.3449150390625,-0.6733283996582031,-0.046044349670410156,-0.7991948127746582
1684114962957955300,6.354955322265625,-0.9617868661880493,0.36388301849365234,-0.5152602195739746
1684114962967996000,6.364995849609375,-1.3376139402389526,0.6909685134887695,-0.014970064163208008
1684114962978036200,6.3750361328125,-1.62570321559906,0.8196010589599609,0.5674946308135986
1684114962988076800,6.385076904296875,-1.799310326576233,0.8309707641601562,1.0288009643554688
1684114962998117000,6.3951171875,-1.9635140895843506,0.8997058868408203,1.3274931907653809
1684114963008157700,6.40515771484375,-1.8947653770446777,1.0809259414672852,1.5517187118530273
1684114963018198000,6.415197998046875,-1.4541531801223755,1.344161033630371,1.6130030155181885
1684114963028238600,6.425238525390625,-0.8849886655807495,1.487025260925293,1.5222666263580322
1684114963038279000,6.43527880859375,-0.39896857738494873,1.5220398902893066,1.3054769039154053
1684114963048319500,6.445319580078125,-0.012286543846130371,1.521413803100586,0.8792634010314941
1684114963058359800,6.45535986328125,0.317840576171875,1.3713607788085938,0.34621095657348633
1684114963068400400,6.465400390625,0.5613593459129333,1.099412441253662,-0.34096336364746094
1684114963078440700,6.475440673828125,0.721697211265564,0.7589340209960938,-0.8698322772979736
1684114963088481300,6.485481201171875,0.6588164567947388,0.36653995513916016,-1.3130006790161133
1684114963098521600,6.495521484375,0.40699446201324463,0.031707763671875,-1.738818883895874
1684114963108562200,6.505562255859375,0.1530284881591797,-0.2937021255493164,-2.06436824798584
1684114963118602500,6.5156025390625,-0.09416830539703369,-0.6595859527587891,-2.3109335899353027
1684114963128643000,6.52564306640625,-0.35449326038360596,-0.9698781967163086,-2.4110121726989746
1684114963138683600,6.53568359375,-0.5294348001480103,-1.2174129486083984,-2.372551441192627
1684114963148724000,6.545723876953125,-0.6384093761444092,-1.436232566833496,-2.183908462524414
1684114963158764300,6.555764404296875,-0.6478101015090942,-1.6133832931518555,-1.775928258895874
1684114963168804900,6.565804931640625,-0.6435717344284058,-1.7722196578979492,-1.3281863927841187
1684114963178845400,6.575845458984375,-0.666124701499939,-1.7409076690673828,-1.04512619972229
1684114963188885800,6.5858857421875,-0.7513711452484131,-1.3081302642822266,-0.9446418285369873
1684114963198926300,6.59592626953125,-0.8266855478286743,-0.7109270095825195,-0.5208947658538818
1684114963208966700,6.605966552734375,-0.8293377161026001,-0.2251138687133789,-0.0009675025939941406
1684114963219007200,6.61600732421875,-0.8386127948760986,0.16559982299804688,0.4921112060546875
1684114963229047600,6.626047607421875,-0.8680071830749512,0.44947052001953125,0.8522050380706787
1684114963239088000,6.636088134765625,-0.8929758071899414,0.6530246734619141,1.176372766494751
1684114963249128400,6.64612841796875,-0.8266642093658447,0.7622699737548828,1.3006007671356201
1684114963259169000,6.6561689453125,-0.6572060585021973,0.8733682632446289,1.1538655757904053
1684114963269209300,6.666209228515625,-0.4375786781311035,0.8931541442871094,0.8970482349395752
1684114963279250000,6.67625,-0.2038559913635254,0.8744640350341797,0.47119617462158203
1684114963289290200,6.686290283203125,-0.03439152240753174,0.8228006362915039,-0.0721750259399414
1684114963299330800,6.696330810546875,0.004845261573791504,0.7506189346313477,-0.4661378860473633
1684114963309371100,6.70637109375,0.0323331356048584,0.6482391357421875,-0.6250393390655518
1684114963319411700,6.71641162109375,0.09839558601379395,0.5249452590942383,-0.5622005462646484
1684114963329452000,6.7264521484375,0.06604456901550293,0.3781290054321289,-0.4486815929412842
1684114963339492600,6.73649267578125,-0.056256651878356934,0.15286540985107422,-0.27797698974609375
1684114963349533200,6.746533203125,-0.19579482078552246,-0.1004343032836914,-0.04084515571594238
1684114963359573500,6.756573486328125,-0.3651672601699829,-0.35080623626708984,0.2359483242034912
1684114963369613800,6.76661376953125,-0.6252298355102539,-0.5055932998657227,0.4778170585632324
1684114963379654400,6.776654296875,-0.9957685470581055,-0.5992851257324219,0.7583332061767578
1684114963389695000,6.786695068359375,-1.449651837348938,-0.6834173202514648,0.9858832359313965
1684114963399735300,6.7967353515625,-1.8746027946472168,-0.6707572937011719,1.237257719039917
1684114963409775900,6.80677587890625,-2.1120007038116455,-0.4440488815307617,1.1316065788269043
1684114963419816200,6.816816162109375,-1.9003223180770874,-0.21671581268310547,0.7922999858856201
1684114963429856800,6.826856689453125,-1.2969067096710205,-0.043209075927734375,0.24422788619995117
1684114963439897000,6.83689697265625,-0.6056033372879028,0.0247802734375,-0.5484392642974854
1684114963449937700,6.846937744140625,-0.18534982204437256,0.021599769592285156,-1.3076579570770264
1684114963459978000,6.85697802734375,-0.18270599842071533,-0.09007835388183594,-1.823330044746399
1684114963470018600,6.8670185546875,-0.22041141986846924,-0.20914268493652344,-2.1403069496154785
1684114963480059000,6.877058837890625,-0.21375012397766113,-0.3665752410888672,-2.339026927947998
1684114963490099500,6.887099365234375,-0.11872386932373047,-0.5421304702758789,-2.3903088569641113
1684114963500139800,6.897139892578125,-0.04537856578826904,-0.7411308288574219,-2.102574110031128
1684114963510180400,6.907180419921875,-0.04616200923919678,-0.8410491943359375,-1.6953275203704834
1684114963520220700,6.917220703125,-0.15308988094329834,-0.8480930328369141,-1.418433427810669
1684114963530261200,6.92726123046875,-0.2838723063468933,-0.7053976058959961,-1.167607307434082
1684114963540301800,6.9373017578125,-0.31880277395248413,-0.5590276718139648,-0.8449046611785889
1684114963550342100,6.947342041015625,-0.17781668901443481,-0.4495716094970703,-0.4501059055328369
1684114963560382500,6.957382568359375,0.11571216583251953,-0.3339576721191406,0.007216453552246094
1684114963570423000,6.967423095703125,0.4081259071826935,-0.18339824676513672,0.43639087677001953
1684114963580463400,6.97746337890625,0.5996293425559998,0.03341865539550781,0.8546645641326904
1684114963590504000,6.98750390625,0.7335041165351868,0.23529052734375,1.2356371879577637
1684114963600544500,6.99754443359375,0.7373735308647156,0.3932332992553711,1.4843485355377197
1684114963610584800,7.007584716796875,0.6321538686752319,0.5592775344848633,1.5698509216308594
1684114963620625400,7.01762548828125,0.45760273933410645,0.5990543365478516,1.5455458164215088
1684114963630665700,7.027665771484375,0.23257756233215332,0.6035394668579102,1.3907208442687988
1684114963640706300,7.037706298828125,-0.008477985858917236,0.5899248123168945,1.1484942436218262
1684114963650746600,7.04774658203125,-0.25996893644332886,0.5514678955078125,0.9022369384765625
1684114963660787200,7.057787109375,-0.5001460909843445,0.4358377456665039,0.6552786827087402
1684114963670827500,7.06782763671875,-0.6594988107681274,0.3101968765258789,0.44167160987854004
1684114963680868000,7.0778681640625,-0.7454456090927124,0.2034444808959961,0.17850422859191895
1684114963690908400,7.087908447265625,-0.7064679861068726,0.058460235595703125,-0.0045168399810791016
1684114963700949000,7.097948974609375,-0.5861334800720215,-0.06937885284423828,-0.19040203094482422
1684114963710989300,7.1079892578125,-0.4128257632255554,-0.11499977111816406,-0.394331693649292
1684114963721030000,7.11802978515625,-0.22298231720924377,-0.2071847915649414,-0.46262335777282715
1684114963731070500,7.128070556640625,-0.013037413358688354,-0.21942806243896484,-0.40126633644104004
1684114963741110800,7.13811083984375,0.057283878326416016,-0.20975971221923828,-0.2743525505065918
1684114963751151400,7.1481513671875,0.0021725744009017944,-0.13819026947021484,-0.14818120002746582
1684114963761191700,7.158191650390625,-0.08419109880924225,-0.09837913513183594,0.02400350570678711
1684114963771232300,7.168232177734375,-0.231263667345047,-0.013982772827148438,0.14142727851867676
1684114963781272600,7.1782724609375,-0.36108914017677307,-0.0045623779296875,0.2662477493286133
1684114963791313200,7.188313232421875,-0.4726192355155945,-0.07229137420654297,0.32688117027282715
1684114963801353500,7.198353515625,-0.564895510673523,-0.11413860321044922,0.34063220024108887
1684114963811394000,7.20839404296875,-0.5532407164573669,-0.19210338592529297,0.3271305561065674
1684114963821434400,7.218434326171875,-0.5230033993721008,-0.2295055389404297,0.20806455612182617
1684114963831475000,7.228474853515625,-0.49802324175834656,-0.2477855682373047,0.15842795372009277
1684114963841515300,7.238515380859375,-0.43366414308547974,-0.21587181091308594,0.06834840774536133
1684114963851555800,7.248555908203125,-0.36908984184265137,-0.1791706085205078,-0.0259854793548584
1684114963861596200,7.25859619140625,-0.28362250328063965,-0.1376943588256836,-0.055325984954833984
1684114963871636700,7.26863671875,-0.21615606546401978,-0.06043243408203125,-0.02468085289001465
1684114963881677000,7.278677001953125,-0.17695742845535278,0.016605377197265625,0.03207588195800781
1684114963891717600,7.288717529296875,-0.18065416812896729,0.0717458724975586,0.1310262680053711
1684114963901758000,7.298758056640625,-0.20339292287826538,0.05239582061767578,0.2096402645111084
1684114963911798500,7.308798583984375,-0.23306047916412354,0.099609375,0.2224864959716797
1684114963921839000,7.318839111328125,-0.2116624414920807,0.06282997131347656,0.23676276206970215
1684114963931879400,7.32887939453125,-0.10544336587190628,0.02355670928955078,0.19779729843139648
1684114963941920000,7.338919921875,0.0018524080514907837,-0.008515357971191406,0.11092591285705566
1684114963951960300,7.348960205078125,0.12190887331962585,-0.026083946228027344,0.07706856727600098
1684114963962001000,7.3590009765625,0.2180827260017395,-0.036286354064941406,-0.046961069107055664
1684114963972041200,7.369041259765625,0.28512653708457947,-0.048583984375,-0.15549898147583008
1684114963982081800,7.379081787109375,0.31521713733673096,-0.07959938049316406,-0.23154687881469727
1684114963992122000,7.3891220703125,0.3480340242385864,-0.07921504974365234,-0.229994535446167
1684114964002162700,7.39916259765625,0.29640576243400574,-0.10027599334716797,-0.25196290016174316
1684114964012203000,7.409203125,0.24829603731632233,-0.052021026611328125,-0.28789448738098145
1684114964022243600,7.41924365234375,0.1776510626077652,-0.020540237426757812,-0.3041105270385742
1684114964032284000,7.429283935546875,0.11215949058532715,0.015773773193359375,-0.34585094451904297
1684114964042324500,7.439324462890625,0.0488031804561615,0.02354907989501953,-0.2982931137084961
1684114964052365000,7.449364990234375,0.008010804653167725,0.02670001983642578,-0.24309086799621582
1684114964062405400,7.4594052734375,-0.01695612072944641,0.013298988342285156,-0.14210963249206543
1684114964072445700,7.46944580078125,-0.03338208794593811,-0.04527854919433594,-0.08864808082580566
1684114964082486300,7.479486328125,-0.039482712745666504,-0.08440971374511719,-0.027514219284057617
1684114964092526800,7.48952685546875,-0.05518794059753418,-0.1232919692993164,0.02927398681640625
1684114964102567200,7.499567138671875,-0.0901075005531311,-0.16204261779785156,0.06704592704772949
1684114964112607700,7.509607666015625,-0.13943523168563843,-0.1531047821044922,0.05155587196350098
1684114964122648000,7.51964794921875,-0.20385383069515228,-0.13724422454833984,0.0928654670715332
1684114964132688600,7.529688720703125,-0.25471973419189453,-0.1287994384765625,0.12612247467041016
1684114964142729000,7.53972900390625,-0.3509482145309448,-0.10417556762695312,0.16530990600585938
1684114964152769500,7.54976953125,-0.3783593773841858,-0.030725479125976562,0.2171778678894043
1684114964162809900,7.559809814453125,-0.391622930765152,-0.00109100341796875,0.26253557205200195
1684114964172850400,7.569850341796875,-0.3624315857887268,0.027856826782226562,0.3273913860321045
1684114964182890800,7.579890869140625,-0.2986593246459961,0.07727813720703125,0.4066035747528076
1684114964192931300,7.589931396484375,-0.2461986541748047,0.08319759368896484,0.4103202819824219
1684114964202971600,7.5999716796875,-0.17009183764457703,0.09113883972167969,0.41073107719421387
1684114964213012200,7.61001220703125,-0.07536110281944275,0.07754039764404297,0.35378217697143555
1684114964223052800,7.620052734375,0.014046549797058105,0.042720794677734375,0.3368384838104248
1684114964233093000,7.630093017578125,0.09065786004066467,0.06951141357421875,0.25598669052124023
1684114964243133700,7.6401337890625,0.139744371175766,0.027544021606445312,0.1811215877532959
1684114964253174000,7.650174072265625,0.18686935305595398,0.019273757934570312,0.12427306175231934
1684114964263214600,7.660214599609375,0.1866862177848816,0.041736602783203125,0.0968637466430664
1684114964273255000,7.6702548828125,0.18958443403244019,0.07094764709472656,0.09389424324035645
1684114964283295500,7.68029541015625,0.17748957872390747,0.07618999481201172,0.07718133926391602
1684114964293335800,7.690335693359375,0.14916041493415833,0.03188037872314453,0.0795145034790039
1684114964303376400,7.70037646484375,0.14028778672218323,0.01653575897216797,0.08879542350769043
1684114964313416700,7.710416748046875,0.1382482647895813,0.010904312133789062,0.034566640853881836
1684114964323457300,7.720457275390625,0.14236736297607422,-0.006350517272949219,0.00983428955078125
1684114964333497600,7.73049755859375,0.11206656694412231,-0.042125701904296875,0.007039785385131836
1684114964343538200,7.7405380859375,0.09769749641418457,-0.03258991241455078,-0.014369964599609375
1684114964353578800,7.750578857421875,0.045731544494628906,-0.03732585906982422,-0.03766775131225586
1684114964363619000,7.760619140625,0.011308014392852783,-0.06783771514892578,-0.06986284255981445
1684114964373659400,7.770659423828125,-0.03157305717468262,-0.10718631744384766,-0.1201629638671875
1684114964383700000,7.780699951171875,-0.06400513648986816,-0.07750797271728516,-0.1528637409210205
1684114964393740500,7.790740478515625,-0.09566822648048401,-0.10713386535644531,-0.15663933753967285
1684114964403780900,7.80078076171875,-0.12644195556640625,-0.09386634826660156,-0.16268110275268555
1684114964413821400,7.810821533203125,-0.14428764581680298,-0.08071136474609375,-0.16837096214294434
1684114964423861800,7.82086181640625,-0.18680542707443237,-0.10061931610107422,-0.14316582679748535
1684114964433902300,7.83090234375,-0.1665140986442566,-0.08715438842773438,-0.1418321132659912
1684114964443942700,7.840942626953125,-0.18105879426002502,-0.07155799865722656,-0.0959320068359375
1684114964453983200,7.850983154296875,-0.16630420088768005,-0.10334587097167969,-0.07933306694030762
1684114964464023600,7.8610234375,-0.13215851783752441,-0.10168838500976562,-0.06330704689025879
1684114964474064100,7.871064208984375,-0.11460757255554199,-0.0576171875,-0.08744597434997559
1684114964484104400,7.8811044921875,-0.08987116813659668,-0.080169677734375,-0.0782167911529541
1684114964494145000,7.89114501953125,-0.05588740110397339,-0.05992317199707031,-0.05019855499267578
1684114964504185600,7.901185546875,-0.027090609073638916,-0.07291889190673828,-0.03662109375
1684114964514226000,7.911225830078125,-0.013160645961761475,-0.02921295166015625,-0.023262739181518555
1684114964524266500,7.9212666015625,-0.001990377902984619,-0.00278472900390625,0.0061719417572021484
1684114964534306800,7.931306884765625,0.011153817176818848,-0.024005889892578125,0.030049800872802734
1684114964544347400,7.941347412109375,0.012022137641906738,-0.012024879455566406,0.03911089897155762
1684114964554387700,7.9513876953125,0.015015363693237305,-0.021596908569335938,0.07343864440917969
1684114964564428300,7.96142822265625,0.0015437602996826172,-0.019354820251464844,0.05973362922668457
1684114964574468600,7.971468505859375,0.0025995969772338867,-0.02198314666748047,0.04346942901611328
1684114964584509200,7.98150927734375,0.0014793872833251953,-0.038802146911621094,0.03886556625366211
1684114964594549500,7.991549560546875,-0.004608571529388428,-0.03424263000488281,-0.001190185546875
1684114964604590000,8.001590087890625,-0.024950027465820312,-0.05572700500488281,-0.02898550033569336
1684114964614630400,8.01163037109375,-0.06837135553359985,-0.08397197723388672,-0.03767681121826172
1684114964624671000,8.0216708984375,-0.08969587087631226,-0.055176734924316406,-0.11197113990783691
1684114964634711600,8.031711669921876,-0.112335205078125,-0.052654266357421875,-0.14481353759765625
1684114964644752000,8.041751953125,-0.0675777792930603,-0.045365333557128906,-0.1793808937072754
1684114964654792400,8.05179248046875,-0.05049872398376465,-0.05226898193359375,-0.1593472957611084
1684114964664832800,8.061832763671875,-0.007196962833404541,-0.04720497131347656,-0.1960134506225586
1684114964674873300,8.071873291015624,0.018754661083221436,-0.04920482635498047,-0.17056918144226074
1684114964684913700,8.08191357421875,0.029391467571258545,-0.05579090118408203,-0.17335081100463867
1684114964694954200,8.091954345703124,0.018022596836090088,-0.0857086181640625,-0.1685631275177002
1684114964704994600,8.10199462890625,0.011377453804016113,-0.07499504089355469,-0.17523670196533203
1684114964715035100,8.11203515625,0.02157604694366455,-0.050255775451660156,-0.1368694305419922
1684114964725075500,8.122075439453125,0.0012753605842590332,-0.030661582946777344,-0.08750152587890625
1684114964735116000,8.132115966796874,0.0023912787437438965,-0.04907798767089844,-0.08137059211730957
1684114964745156600,8.142156494140625,-0.0036548376083374023,-0.06249046325683594,-0.04004240036010742
1684114964755197000,8.152197021484374,0.004147469997406006,-0.05448150634765625,-0.013412714004516602
1684114964765237500,8.162237548828125,-0.016610562801361084,-0.051319122314453125,-0.013094663619995117
1684114964775277800,8.17227783203125,-0.018157362937927246,-0.019997596740722656,-0.010559797286987305
1684114964785318400,8.182318359375,-0.043135762214660645,-0.008089065551757812,-0.005914211273193359
1684114964795358700,8.192358642578125,-0.04368656873703003,0.0011911392211914062,-0.011111736297607422
1684114964805399300,8.2023994140625,-0.041185736656188965,0.015007972717285156,-0.007010221481323242
1684114964815439600,8.212439697265625,-0.04511469602584839,-0.0067291259765625,0.01331472396850586
1684114964825480200,8.222480224609376,-0.0319901704788208,-0.013963699340820312,0.026175260543823242
1684114964835520800,8.232520751953125,-0.01628124713897705,-0.016344070434570312,0.010553598403930664
1684114964845561000,8.24256103515625,0.01353520154953003,-0.02573394775390625,0.01872420310974121
1684114964855601700,8.2526015625,0.01709693670272827,0.000377655029296875,0.012703895568847656
1684114964865642000,8.26264208984375,0.04165017604827881,0.00479888916015625,-0.0004673004150390625
1684114964875682600,8.2726826171875,0.058512985706329346,-0.0074310302734375,-0.027802705764770508
1684114964885723000,8.282722900390626,0.04896903038024902,-0.05015087127685547,-0.026664018630981445
1684114964895763500,8.292763427734375,0.013397455215454102,-0.08986186981201172,-0.05156517028808594
1684114964905803800,8.3028037109375,0.008368134498596191,-0.029982566833496094,-0.11811280250549316
1684114964915844400,8.31284423828125,-0.016211390495300293,0.0053882598876953125,-0.10558581352233887
1684114964925884700,8.322884765625,-0.03578305244445801,0.030785560607910156,-0.08371973037719727
1684114964935925200,8.33292529296875,-0.05681735277175903,0.03466510772705078,-0.07852745056152344
1684114964945965600,8.342965576171874,-0.06511527299880981,-0.027403831481933594,-0.038132429122924805
1684114964956006100,8.353006103515625,-0.05403834581375122,-0.06486129760742188,0.003960609436035156
1684114964966046700,8.363046630859374,-0.07826423645019531,-0.08746337890625,0.03858470916748047
1684114964976087000,8.373087158203125,-0.080516517162323,-0.1331501007080078,0.023372888565063477
1684114964986127600,8.383127685546874,-0.0894002914428711,-0.10031318664550781,0.0015041828155517578
1684114964996168000,8.39316796875,-0.06027710437774658,-0.023261070251464844,-0.06467056274414062
1684114965006208500,8.40320849609375,-0.05770164728164673,0.01251220703125,-0.09665918350219727
1684114965016248800,8.413248779296875,-0.050691068172454834,0.0690011978149414,-0.08529329299926758
1684114965026289400,8.423289306640624,-0.044151127338409424,0.028131484985351562,-0.040743112564086914
1684114965036329700,8.433329833984375,-0.051958560943603516,-0.014257431030273438,0.048307180404663086
1684114965046370300,8.443370361328125,-0.0647505521774292,-0.048720359802246094,0.11292648315429688
1684114965056411000,8.453410888671876,-0.07771080732345581,-0.0165252685546875,0.14176630973815918
1684114965066451200,8.463451171875,-0.09278064966201782,-0.04596138000488281,0.19167876243591309
1684114965076491800,8.47349169921875,-0.07416665554046631,0.024089813232421875,0.18218779563903809
1684114965086532000,8.483531982421875,-0.08831596374511719,-0.0032720565795898438,0.15479564666748047
1684114965096572700,8.49357275390625,-0.0669662356376648,0.016994476318359375,0.13051414489746094
1684114965106613000,8.503613037109375,-0.06338244676589966,0.0956573486328125,0.104095458984375
1684114965116653600,8.513653564453126,-0.07491052150726318,0.09520339965820312,0.09441924095153809
1684114965126694000,8.52369384765625,-0.10754865407943726,-0.008835792541503906,0.09431838989257812
1684114965136734500,8.533734375,-0.11546656489372253,-0.0922384262084961,0.06371116638183594
1684114965146774800,8.54377490234375,-0.15081501007080078,-0.2072439193725586,0.023947477340698242
1684114965156815400,8.5538154296875,-0.13572782278060913,-0.2732830047607422,-0.14717721939086914
1684114965166856000,8.56385595703125,-0.1701064109802246,-0.32626914978027344,-0.2748844623565674
1684114965176896300,8.573896240234374,-0.14673557877540588,-0.3450450897216797,-0.41821861267089844
1684114965186936800,8.583936767578125,-0.11306950449943542,-0.3232088088989258,-0.4972805976867676
1684114965196977200,8.59397705078125,-0.033739566802978516,-0.28272342681884766,-0.5393919944763184
1684114965207017700,8.604017822265625,0.0008279681205749512,-0.2028484344482422,-0.5761651992797852
1684114965217058000,8.61405810546875,0.06820058822631836,-0.11742401123046875,-0.539984941482544
1684114965227098600,8.6240986328125,0.08715146780014038,0.04638957977294922,-0.5333428382873535
1684114965237139000,8.634138916015624,0.08378618955612183,0.23085784912109375,-0.48711633682250977
1684114965247179500,8.644179443359375,0.09648674726486206,0.3744029998779297,-0.3220968246459961
1684114965257219800,8.6542197265625,0.09995096921920776,0.47072315216064453,-0.13904213905334473
1684114965267260400,8.664260498046875,0.1488940715789795,0.4123954772949219,0.07369613647460938
1684114965277301000,8.674301025390625,0.1713029146194458,0.3480186462402344,0.2547576427459717
1684114965287341300,8.68434130859375,0.20185887813568115,0.32004737854003906,0.39537858963012695
1684114965297382000,8.6943818359375,0.23497724533081055,0.2689857482910156,0.48448705673217773
1684114965307422200,8.704422119140625,0.25352078676223755,0.2563457489013672,0.5651566982269287
1684114965317462800,8.714462890625,0.24355942010879517,0.22715473175048828,0.6039555072784424
1684114965327503000,8.724503173828126,0.1843503713607788,0.19095897674560547,0.6058197021484375
1684114965337543700,8.734543701171875,0.12179261445999146,0.1100778579711914,0.6132533550262451
1684114965347584000,8.744583984375,0.01908808946609497,0.02060413360595703,0.6025874614715576
1684114965357624600,8.75462451171875,-0.09669095277786255,-0.027830123901367188,0.560084342956543
1684114965367665200,8.7646650390625,-0.18017762899398804,-0.04056549072265625,0.519322395324707
1684114965377705500,8.77470556640625,-0.2691899836063385,-0.044014930725097656,0.4239659309387207
1684114965387746000,8.78474609375,-0.32316842675209045,-0.035887718200683594,0.33397984504699707
1684114965397786400,8.794786376953125,-0.3445824980735779,-0.032784461975097656,0.18585896492004395
1684114965407827000,8.804826904296876,-0.3644586205482483,-0.03454875946044922,0.020801305770874023
1684114965417867300,8.8148671875,-0.3706066906452179,-0.050406455993652344,-0.14888238906860352
1684114965427907800,8.824907958984374,-0.343718558549881,-0.11521339416503906,-0.2636873722076416
1684114965437948200,8.8349482421875,-0.3051770031452179,-0.1431903839111328,-0.36864519119262695
1684114965447988700,8.84498876953125,-0.2225269079208374,-0.17022418975830078,-0.409564733505249
1684114965458029300,8.855029296875,-0.14452460408210754,-0.09511470794677734,-0.4156224727630615
1684114965468069600,8.865069580078124,-0.05793753266334534,-0.04197978973388672,-0.438981294631958
1684114965478110200,8.875110107421875,0.034014880657196045,0.017714500427246094,-0.38060545921325684
1684114965488150500,8.885150634765624,0.07448691129684448,-0.017416954040527344,-0.25608372688293457
1684114965498191000,8.895191162109375,0.09976035356521606,0.01663684844970703,-0.12776827812194824
1684114965508231400,8.9052314453125,0.11942696571350098,-0.03900623321533203,0.03489279747009277
1684114965518272000,8.91527197265625,0.13106602430343628,-0.06750869750976562,0.14421486854553223
1684114965528312300,8.925312255859374,0.18170595169067383,-0.038784027099609375,0.21503281593322754
1684114965538353000,8.935352783203125,0.21373438835144043,-0.012775421142578125,0.3088364601135254
1684114965548393500,8.9453935546875,0.24377036094665527,0.017447471618652344,0.3493540287017822
1684114965558433800,8.955433837890626,0.2361065149307251,0.10100841522216797,0.37207865715026855
1684114965568474400,8.965474365234375,0.18157809972763062,0.16873741149902344,0.2973012924194336
1684114965578514700,8.9755146484375,0.11859601736068726,0.19748306274414062,0.2377316951751709
1684114965588555300,8.98555517578125,0.03348201513290405,0.17844200134277344,0.16941356658935547
1684114965598595600,8.995595703125,-0.08221498131752014,0.14537906646728516,0.10184097290039062
1684114965608636200,9.00563623046875,-0.15879124402999878,0.11504745483398438,0.05379009246826172
1684114965618676500,9.015676513671876,-0.2171320617198944,0.03562736511230469,0.041257381439208984
1684114965628717000,9.025717041015625,-0.25002148747444153,-0.014388084411621094,0.002313852310180664
1684114965638757600,9.035757568359376,-0.28372153639793396,-0.08021926879882812,-0.039095401763916016
1684114965648798000,9.0457978515625,-0.32534700632095337,-0.1308746337890625,-0.06838250160217285
1684114965658838500,9.055838623046874,-0.34872567653656006,-0.14299392700195312,-0.08319592475891113
1684114965668878800,9.06587890625,-0.3820233643054962,-0.1948385238647461,-0.07186627388000488
1684114965678919400,9.07591943359375,-0.35396119952201843,-0.15382862091064453,-0.05820512771606445
1684114965688959700,9.085959716796875,-0.3055030405521393,-0.1181344985961914,0.002147197723388672
1684114965699000300,9.096000244140624,-0.23978930711746216,-0.10662841796875,0.04216814041137695
1684114965709040600,9.10604052734375,-0.17435359954833984,-0.1212606430053711,0.06707096099853516
1684114965719081200,9.116081298828124,-0.11006271839141846,-0.10510921478271484,0.06075620651245117
1684114965729121800,9.126121826171875,-0.09430718421936035,-0.07277202606201172,0.026296377182006836
1684114965739162000,9.136162109375,-0.06220260262489319,-0.052748680114746094,0.00885462760925293
1684114965749202700,9.14620263671875,-0.006239175796508789,-0.011890411376953125,-0.008520841598510742
1684114965759243000,9.156242919921874,0.03999972343444824,0.00942230224609375,-0.044664859771728516
1684114965769283600,9.16628369140625,0.08763742446899414,0.013850212097167969,-0.06384897232055664
1684114965779324000,9.176323974609375,0.10744309425354004,0.0016717910766601562,-0.08502340316772461
1684114965789364500,9.186364501953125,0.10413259267807007,0.008544921875,-0.10077691078186035
1684114965799405000,9.196405029296875,0.09471368789672852,0.01535797119140625,-0.08049821853637695
1684114965809445400,9.2064453125,0.08937889337539673,0.012715339660644531,-0.08840322494506836
1684114965819486000,9.21648583984375,0.06750589609146118,-0.008703231811523438,-0.06080031394958496
1684114965829526300,9.2265263671875,0.05326491594314575,0.0032014846801757812,-0.06426835060119629
1684114965839566800,9.23656689453125,0.03678172826766968,-0.015733718872070312,-0.03481912612915039
1684114965849607200,9.246607177734376,0.005844473838806152,-0.017951011657714844,-0.05778193473815918
1684114965859647700,9.256647705078125,-0.011168956756591797,-0.024921417236328125,-0.047531843185424805
1684114965869688000,9.26668798828125,-0.03281688690185547,-0.03175544738769531,-0.06794619560241699
1684114965879728600,9.276728759765625,-0.04663538932800293,-0.021940231323242188,-0.0949711799621582
1684114965889769200,9.286769287109376,-0.04966026544570923,-0.04045581817626953,-0.12150287628173828
1684114965899809500,9.2968095703125,-0.03693592548370361,-0.051471710205078125,-0.10275864601135254
1684114965909850000,9.30685009765625,-0.014061391353607178,-0.041042327880859375,-0.10310029983520508
1684114965919890400,9.316890380859375,0.02737891674041748,-0.04718208312988281,-0.12672781944274902
1684114965929931000,9.326930908203124,0.0415654182434082,-0.048439979553222656,-0.13075613975524902
1684114965939971300,9.336971435546875,0.04292935132980347,-0.05434608459472656,-0.12264704704284668
1684114965950012000,9.347011962890624,0.05326467752456665,-0.02952098846435547,-0.1262683868408203
1684114965960052200,9.35705224609375,0.014294862747192383,-0.012159347534179688,-0.11807417869567871
1684114965970092800,9.3670927734375,0.011820614337921143,0.018996238708496094,-0.09613394737243652
1684114965980133400,9.37713330078125,0.0031939148902893066,0.014296531677246094,-0.046561479568481445
1684114965990173700,9.387173583984374,0.026088178157806396,-0.0021429061889648438,-0.05227470397949219
1684114966000214300,9.39721435546875,0.03499269485473633,-0.011345863342285156,-0.03950357437133789
1684114966010254600,9.407254638671875,0.06965076923370361,-0.02049541473388672,-0.06965112686157227
1684114966020295200,9.417295166015625,0.0963277816772461,0.0010404586791992188,-0.09475827217102051
1684114966030335500,9.42733544921875,0.10532540082931519,-0.013124465942382812,-0.10526156425476074
1684114966040376000,9.4373759765625,0.09690409898757935,-0.012971878051757812,-0.1438298225402832
1684114966050416600,9.447416748046875,0.07640951871871948,-0.008101463317871094,-0.13218259811401367
1684114966060457000,9.45745703125,0.06317180395126343,-0.019744873046875,-0.09701037406921387
1684114966070497500,9.46749755859375,0.04788029193878174,-0.014692306518554688,-0.09296512603759766
1684114966080537900,9.477537841796876,0.03293442726135254,0.0020351409912109375,-0.08669662475585938
1684114966090578400,9.487578369140625,0.03484773635864258,-0.007457733154296875,-0.09718608856201172
1684114966100618800,9.49761865234375,0.0015649199485778809,-0.026243209838867188,-0.09116411209106445
1684114966110659300,9.507659423828125,-0.0027117133140563965,-0.047059059143066406,-0.08289289474487305
1684114966120700000,9.517699951171876,-0.018429875373840332,-0.06749343872070312,-0.08177018165588379
1684114966130740200,9.527740234375,-0.014783263206481934,-0.049895286560058594,-0.07592058181762695
1684114966140780800,9.53778076171875,-0.015631794929504395,-0.058432579040527344,-0.07004094123840332
1684114966150821000,9.547821044921875,0.00013816356658935547,-0.015049934387207031,-0.017246723175048828
1684114966160861700,9.55786181640625,-0.0005576610565185547,-0.00537872314453125,-0.0008041858673095703
1684114966170902000,9.567902099609375,-0.005730748176574707,0.004062652587890625,0.02215433120727539
1684114966180942600,9.577942626953124,0.003566741943359375,0.003849029541015625,0.004383087158203125
1684114966190983200,9.587983154296875,0.0009765625,0.02945995330810547,0.0007755756378173828
1684114966201023500,9.5980234375,0.010221779346466064,0.01930522918701172,-0.03110647201538086
1684114966211064000,9.60806396484375,0.021643877029418945,-0.004841804504394531,-0.02726435661315918
1684114966221104400,9.6181044921875,0.004427015781402588,-0.009793281555175781,-0.002395153045654297
1684114966231145000,9.62814501953125,0.010926604270935059,-0.00290679931640625,-0.01563119888305664
1684114966241185300,9.638185302734374,-0.027421891689300537,-0.012635231018066406,0.025433063507080078
1684114966251225900,9.648225830078125,-0.025006592273712158,-0.019809722900390625,0.0423736572265625
1684114966261266200,9.65826611328125,-0.0342944860458374,-0.010357856750488281,0.021444320678710938
1684114966271306800,9.668306640625,-0.024362146854400635,-0.010457992553710938,0.007959365844726562
1684114966281347300,9.678347412109375,-0.019055306911468506,0.010661125183105469,-0.021726369857788086
1684114966291387600,9.6883876953125,-0.013838469982147217,0.01726531982421875,-0.01572704315185547
1684114966301428200,9.69842822265625,0.00799107551574707,0.009624481201171875,-0.03108954429626465
1684114966311468500,9.708468505859376,0.017792999744415283,-0.019049644470214844,-0.024936199188232422
1684114966321509000,9.718509033203125,0.027181804180145264,-0.03308868408203125,0.00011229515075683594
1684114966331549700,9.7285498046875,0.014948248863220215,-0.03508281707763672,-0.022160053253173828
1684114966341590000,9.738590087890625,0.02627331018447876,0.005320549011230469,0.012443065643310547
1684114966351630600,9.748630615234376,0.023119866847991943,0.023838043212890625,0.015817642211914062
1684114966361671000,9.7586708984375,0.01516866683959961,0.025567054748535156,-0.011451959609985352
1684114966371711500,9.76871142578125,0.014100193977355957,0.013118743896484375,0.018224000930786133
1684114966381751800,9.778751708984375,0.005623281002044678,0.012612342834472656,0.023807048797607422
1684114966391792400,9.78879248046875,-0.00989466905593872,-0.009064674377441406,-0.0036084651947021484
1684114966401833000,9.7988330078125,-0.04164522886276245,0.0026092529296875,-0.013987541198730469
1684114966411873300,9.808873291015624,-0.07046175003051758,-0.0000286102294921875,-0.021817922592163086
1684114966421913900,9.818913818359375,-0.0774742066860199,-0.03322124481201172,-0.005970478057861328
1684114966431954200,9.8289541015625,-0.07239443063735962,-0.030519485473632812,-0.01387929916381836
1684114966441994800,9.838994873046875,-0.08355462551116943,-0.02782154083251953,-0.01921677589416504
1684114966452035000,9.84903515625,-0.09650760889053345,-0.0039196014404296875,0.02745985984802246
1684114966462075600,9.85907568359375,-0.0804029107093811,0.014923095703125,0.009853363037109375
1684114966472116000,9.869115966796874,-0.04974174499511719,0.02412128448486328,0.02566361427307129
1684114966482156500,9.879156494140625,-0.012176066637039185,0.0026149749755859375,0.015442371368408203
1684114966492197000,9.889197021484375,0.027067095041275024,0.019174575805664062,0.04791760444641113
1684114966502237400,9.899237548828125,0.03936803340911865,0.05430889129638672,0.021120071411132812
1684114966512278000,9.909278076171875,0.05798095464706421,0.04648876190185547,0.039618492126464844
1684114966522318300,9.919318359375,0.04490026831626892,0.02935028076171875,0.0390012264251709
1684114966532359000,9.92935888671875,0.05237796902656555,0.028961181640625,0.03848886489868164
1684114966542399500,9.9393994140625,0.018821924924850464,0.016798973083496094,0.0522308349609375
1684114966552439800,9.949439697265625,-0.021733343601226807,0.030710220336914062,0.053971290588378906
1684114966562480400,9.95948046875,-0.021671772003173828,0.04671287536621094,0.06265521049499512
1684114966572520700,9.969520751953125,-0.03543567657470703,0.02946949005126953,0.04047346115112305
1684114966582561300,9.979561279296876,-0.03928577899932861,0.03375816345214844,0.05882668495178223
1684114966592601600,9.9896015625,-0.04042088985443115,0.026276588439941406,0.03468441963195801
1684114966602642200,9.99964208984375,-0.04135921597480774,0.00016689300537109375,0.022950172424316406
1684114966612682800,10.009682861328125,-0.0492919385433197,-0.020740509033203125,-0.004878044128417969
1684114966622723000,10.01972314453125,-0.06425684690475464,-0.03656578063964844,-0.027431726455688477
1684114966632763600,10.029763671875,-0.06504639983177185,-0.07087993621826172,0.014252185821533203
1684114966642804000,10.039803955078124,-0.07757747173309326,-0.0033502578735351562,0.024776458740234375
1684114966652844500,10.049844482421875,-0.059096693992614746,0.013630867004394531,0.05868124961853027
1684114966662884900,10.059884765625,-0.05229726433753967,0.056227684020996094,0.07077670097351074
1684114966672925400,10.069925537109375,-0.04072079062461853,0.06275463104248047,0.11780166625976562
1684114966682966000,10.079966064453124,-0.025077879428863525,0.0784149169921875,0.1564772129058838
1684114966693006300,10.09000634765625,-0.038799017667770386,0.09121990203857422,0.17737483978271484
1684114966703047000,10.100046875,-0.039060384035110474,0.08710098266601562,0.14314985275268555
1684114966713087200,10.110087158203125,-0.06830397248268127,0.0193328857421875,0.09733462333679199
1684114966723127800,10.1201279296875,-0.08372342586517334,-0.023868560791015625,0.04500985145568848
1684114966733168400,10.13016845703125,-0.11161091923713684,-0.03346538543701172,-0.015947341918945312
1684114966743208700,10.140208740234375,-0.15654590725898743,-0.02402782440185547,-0.05439615249633789
1684114966753249300,10.150249267578126,-0.18945637345314026,-0.04052543640136719,-0.02345132827758789
1684114966763289600,10.16028955078125,-0.24239546060562134,-0.07788467407226562,0.08237338066101074
1684114966773330200,10.170330078125,-0.2904408574104309,-0.14766883850097656,0.12231087684631348
1684114966783370500,10.18037060546875,-0.2906216084957123,-0.17876434326171875,0.11364555358886719
1684114966793411000,10.1904111328125,-0.25971856713294983,-0.1576528549194336,0.028998136520385742
1684114966803451600,10.20045166015625,-0.16056746244430542,-0.09926700592041016,-0.057166099548339844
1684114966813492000,10.210491943359376,-0.0395675003528595,-0.039501190185546875,-0.13282418251037598
1684114966823532500,10.220532470703125,0.12485337257385254,0.01694965362548828,-0.18835091590881348
1684114966833572900,10.23057275390625,0.2386443018913269,0.07506275177001953,-0.20197677612304688
1684114966843613400,10.240613525390625,0.29730501770973206,0.08099651336669922,-0.1614534854888916
1684114966853654000,10.250654052734374,0.3701459467411041,0.05692863464355469,0.03627634048461914
1684114966863694300,10.2606943359375,0.34660962224006653,0.059348106384277344,0.18439936637878418
1684114966873735000,10.27073486328125,0.277649849653244,0.15799617767333984,0.1716470718383789
1684114966883775200,10.280775146484375,0.1922377645969391,0.24041175842285156,0.05887579917907715
1684114966893815800,10.29081591796875,0.10542118549346924,0.19865036010742188,-0.09558653831481934
1684114966903856000,10.300856201171875,0.07744607329368591,0.12932968139648438,-0.17699813842773438
1684114966913896700,10.310896728515624,0.1266564130783081,0.08503913879394531,-0.10786247253417969
1684114966923937300,10.320937255859375,0.25529971718788147,0.10074138641357422,0.08618474006652832
1684114966933977600,10.3309775390625,0.3634801208972931,0.1656808853149414,0.31749677658081055
1684114966944018200,10.34101806640625,0.42401930689811707,0.21513080596923828,0.5115883350372314
1684114966954058500,10.35105859375,0.36654579639434814,0.2562541961669922,0.5980548858642578
1684114966964099000,10.36109912109375,0.268573522567749,0.3056478500366211,0.6586668491363525
1684114966974139400,10.371139404296875,0.12462237477302551,0.24303913116455078,0.6511554718017578
1684114966984180000,10.381179931640625,-0.03755936026573181,0.1574106216430664,0.5718410015106201
1684114966994220500,10.391220458984375,-0.18585902452468872,0.028082847595214844,0.424487829208374
1684114967004260900,10.4012607421875,-0.3054088354110718,-0.09699249267578125,0.27877068519592285
1684114967014301400,10.411301513671875,-0.4284052848815918,-0.20361614227294922,0.054845571517944336
1684114967024341800,10.421341796875,-0.5304057598114014,-0.27770042419433594,-0.186448335647583
1684114967034382300,10.43138232421875,-0.5827065706253052,-0.3430948257446289,-0.31948256492614746
1684114967044423000,10.4414228515625,-0.5879141688346863,-0.34569454193115234,-0.4965090751647949
1684114967054463200,10.451463134765625,-0.5492360591888428,-0.29349327087402344,-0.6269481182098389
1684114967064503800,10.46150390625,-0.4512139558792114,-0.2580547332763672,-0.6668350696563721
1684114967074544000,10.471544189453125,-0.3075650930404663,-0.16850757598876953,-0.6364195346832275
1684114967084584700,10.481584716796876,-0.12007921934127808,-0.087066650390625,-0.5134682655334473
1684114967094625000,10.491625,0.03149038553237915,-0.016165733337402344,-0.39650630950927734
1684114967104665600,10.50166552734375,0.1303769052028656,0.0912618637084961,-0.2035210132598877
1684114967114706200,10.5117060546875,0.2312854826450348,0.1309032440185547,-0.06797361373901367
1684114967124746500,10.52174658203125,0.27974560856819153,0.1438465118408203,0.0509486198425293
1684114967134787000,10.531787109375,0.3236076831817627,0.1446390151977539,0.1346278190612793
1684114967144827400,10.541827392578124,0.34621623158454895,0.13342571258544922,0.17171978950500488
1684114967154868000,10.551867919921875,0.3407484292984009,0.10566329956054688,0.21705937385559082
1684114967164908500,10.561908447265624,0.3124178946018219,0.12049198150634766,0.16460061073303223
1684114967174948900,10.571948974609375,0.2738160789012909,0.11838722229003906,0.1196284294128418
1684114967184989400,10.581989501953124,0.24695825576782227,-0.02275848388671875,0.11262011528015137
1684114967195029800,10.59202978515625,0.18717804551124573,-0.043900489807128906,0.056175947189331055
1684114967205070300,10.6020703125,0.15390342473983765,-0.06470203399658203,0.021895170211791992
1684114967215110700,10.612110595703125,0.1230582594871521,-0.06157493591308594,-0.035124778747558594
1684114967225151200,10.622151123046875,0.08548086881637573,-0.06550121307373047,-0.07683277130126953
1684114967235191800,10.63219189453125,0.03689700365066528,-0.10461235046386719,-0.05408358573913574
1684114967245232000,10.642232177734375,-0.026883244514465332,-0.07938957214355469,-0.09497380256652832
1684114967255272700,10.652272705078126,-0.06317049264907837,-0.0073089599609375,-0.08991336822509766
1684114967265313300,10.662313232421875,-0.10338002443313599,0.02595996856689453,-0.06830167770385742
1684114967275353600,10.672353515625,-0.12178951501846313,0.035144805908203125,-0.009327888488769531
1684114967285394200,10.682394287109375,-0.14213019609451294,0.030080795288085938,0.00872182846069336
1684114967295434500,10.6924345703125,-0.1782730221748352,0.020397186279296875,0.03349041938781738
1684114967305475000,10.70247509765625,-0.1754034161567688,0.015607833862304688,0.03659343719482422
1684114967315515400,10.712515380859376,-0.17183881998062134,0.0038595199584960938,-0.00044035911560058594
1684114967325556000,10.722555908203125,-0.15850096940994263,-0.012319564819335938,0.02689838409423828
1684114967335596500,10.732596435546874,-0.13126149773597717,-0.014102935791015625,0.023178577423095703
1684114967345636900,10.742636962890625,-0.1306992471218109,-0.041778564453125,0.0006604194641113281
1684114967355677400,10.752677490234374,-0.09033441543579102,-0.05258464813232422,0.025413990020751953
1684114967365717800,10.7627177734375,-0.09061098098754883,-0.049175262451171875,0.06828069686889648
1684114967375758300,10.77275830078125,-0.05539044737815857,-0.02240467071533203,0.04643511772155762
1684114967385799000,10.782798828125,-0.025416195392608643,-0.003253936767578125,0.05518364906311035
1684114967395839200,10.792839111328124,-0.010486066341400146,-0.029311180114746094,0.044509172439575195
1684114967405879800,10.8028798828125,0.0009424090385437012,-0.02445697784423828,0.05730724334716797
1684114967415920000,10.812920166015624,0.00205230712890625,-0.026900291442871094,0.03421616554260254
1684114967425960700,10.822960693359375,-0.02752828598022461,-0.06481075286865234,0.0038216114044189453
1684114967436001300,10.833001220703125,-0.06581729650497437,-0.10457324981689453,-0.07125043869018555
1684114967446041600,10.84304150390625,-0.08424487709999084,-0.1272735595703125,-0.1689438819885254
1684114967456082200,10.853082275390625,-0.10899406671524048,-0.08838939666748047,-0.2603912353515625
1684114967466122500,10.86312255859375,-0.12077218294143677,-0.08539676666259766,-0.3690814971923828
1684114967476163000,10.8731630859375,-0.1054762601852417,-0.12462806701660156,-0.4543027877807617
1684114967486203600,10.88320361328125,-0.09902825951576233,-0.1158895492553711,-0.5116047859191895
1684114967496244000,10.893243896484375,-0.06876912713050842,-0.08820915222167969,-0.5412969589233398
1684114967506284500,10.903284423828126,-0.04388713836669922,-0.08431625366210938,-0.4991278648376465
1684114967516324900,10.913324951171875,-0.019623279571533203,-0.08971500396728516,-0.42403125762939453
1684114967526365400,10.923365478515626,0.023422539234161377,-0.11361980438232422,-0.29296255111694336
1684114967536406000,10.933406005859375,0.04491686820983887,-0.1275005340576172,-0.22700858116149902
1684114967546446300,10.9434462890625,0.044766366481781006,-0.10801410675048828,-0.1380009651184082
1684114967556487000,10.95348681640625,0.04652237892150879,-0.06513500213623047,-0.09687972068786621
1684114967566527200,10.96352734375,0.02885371446609497,-0.03218650817871094,-0.05093860626220703
1684114967576567800,10.97356787109375,0.01589411497116089,-0.023102760314941406,-0.02141714096069336
1684114967586608400,10.9836083984375,0.005485117435455322,-0.032822608947753906,0.04826855659484863
1684114967596648700,10.993648681640625,-0.007265329360961914,-0.058745384216308594,0.11486268043518066
1684114967606689300,11.003689208984374,0.0011497735977172852,-0.06067085266113281,0.1663656234741211
1684114967616729600,11.0137294921875,-0.023863136768341064,-0.036637306213378906,0.20306062698364258
1684114967626770200,11.023770263671874,-0.02260833978652954,-0.03890514373779297,0.26033663749694824
1684114967636810800,11.033810791015625,-0.030792593955993652,-0.041113853454589844,0.27671194076538086
1684114967646851000,11.04385107421875,-0.03878903388977051,0.02503204345703125,0.31415748596191406
1684114967656891600,11.0538916015625,-0.03458857536315918,0.026620864868164062,0.37248730659484863
1684114967666932000,11.063931884765625,-0.032687366008758545,0.1057729721069336,0.453033447265625
1684114967676972500,11.07397265625,-0.03592658042907715,0.22316455841064453,0.5001287460327148
1684114967687013000,11.08401318359375,-0.030055642127990723,0.3238391876220703,0.5184483528137207
1684114967697053400,11.094053466796876,-0.054495930671691895,0.426849365234375,0.47751283645629883
1684114967707094000,11.104093994140625,-0.041736900806427,0.3650026321411133,0.48639798164367676
1684114967717134300,11.11413427734375,-0.01276177167892456,0.20242691040039062,0.4034442901611328
1684114967727175000,11.1241748046875,0.064852774143219,0.07291507720947266,0.24767684936523438
1684114967737215500,11.134215576171876,0.13257253170013428,0.02569580078125,0.049951791763305664
1684114967747255800,11.144255859375,0.20816057920455933,-0.020554542541503906,-0.03077411651611328
1684114967757296400,11.15429638671875,0.27175694704055786,-0.011599540710449219,-0.14425206184387207
1684114967767336700,11.164336669921875,0.330416738986969,0.07284355163574219,-0.17449569702148438
1684114967777377300,11.174377197265626,0.34437161684036255,0.08068466186523438,-0.1328880786895752
1684114967787417900,11.18441796875,0.34810954332351685,0.015473365783691406,-0.11521387100219727
1684114967797458200,11.194458251953124,0.31877368688583374,-0.04147911071777344,-0.09745526313781738
1684114967807498800,11.204498779296875,0.29705947637557983,0.030031204223632812,-0.11874961853027344
1684114967817539000,11.2145390625,0.29903578758239746,0.18109893798828125,-0.09020304679870605
1684114967827579600,11.22457958984375,0.3541531562805176,0.2383270263671875,0.11862397193908691
1684114967837620200,11.2346201171875,0.3666105270385742,0.2615165710449219,0.35923290252685547
1684114967847660500,11.24466064453125,0.35059064626693726,0.23662185668945312,0.5260217189788818
1684114967857701000,11.254701171875,0.2641104459762573,0.11015987396240234,0.6056787967681885
1684114967867741400,11.264741455078125,0.14837497472763062,-0.03141975402832031,0.6209068298339844
1684114967877782000,11.274781982421874,0.00663524866104126,-0.11483097076416016,0.4245772361755371
1684114967887822600,11.284822509765625,-0.14091169834136963,-0.1526355743408203,0.14069533348083496
1684114967897863000,11.29486279296875,-0.2740989923477173,-0.19949722290039062,-0.11577749252319336
1684114967907903500,11.304903564453125,-0.42250198125839233,-0.22429943084716797,-0.3467752933502197
1684114967917944000,11.314944091796875,-0.5067635178565979,-0.22706985473632812,-0.5378530025482178
1684114967927984400,11.324984375,-0.5409538149833679,-0.2386150360107422,-0.6046586036682129
1684114967938025000,11.33502490234375,-0.5017222762107849,-0.23290538787841797,-0.6624565124511719
1684114967948065300,11.345065185546876,-0.3859316110610962,-0.15605545043945312,-0.6570494174957275
1684114967958105900,11.35510595703125,-0.217799574136734,-0.10117435455322266,-0.5894203186035156
1684114967968146200,11.365146240234376,-0.07779902219772339,-0.10106086730957031,-0.44434404373168945
1684114967978186800,11.375186767578125,0.038203299045562744,-0.09138107299804688,-0.3034090995788574
1684114967988227300,11.385227294921876,0.08344310522079468,-0.022910118103027344,-0.16905975341796875
1684114967998267600,11.395267578125,0.1510981321334839,0.0067462921142578125,-0.05335235595703125
1684114968008308200,11.40530810546875,0.18179821968078613,0.04987621307373047,0.05765891075134277
1684114968018348800,11.415348876953125,0.23487412929534912,0.06375789642333984,0.13778138160705566
1684114968028389000,11.42538916015625,0.257876455783844,0.04407215118408203,0.18724775314331055
1684114968038429700,11.4354296875,0.2556830048561096,0.038463592529296875,0.2301959991455078
1684114968048470000,11.445469970703124,0.2636341452598572,0.06802082061767578,0.17781639099121094
1684114968058510600,11.455510498046875,0.2413066029548645,0.059195518493652344,0.16600513458251953
1684114968068551200,11.46555126953125,0.2085716724395752,0.036192893981933594,0.12578415870666504
1684114968078591500,11.475591552734375,0.15985918045043945,-0.02414989471435547,0.05310869216918945
1684114968088632000,11.485632080078124,0.08916223049163818,-0.09989261627197266,-0.08889579772949219
1684114968098672400,11.49567236328125,0.01336967945098877,-0.11526775360107422,-0.19727325439453125
1684114968108713000,11.505712890625,-0.02797633409500122,-0.11122894287109375,-0.28162407875061035
1684114968118753500,11.51575341796875,-0.042548179626464844,-0.06455516815185547,-0.2976059913635254
1684114968128793900,11.5257939453125,-0.05162173509597778,-0.018384933471679688,-0.2795686721801758
1684114968138834400,11.53583447265625,-0.06621170043945312,0.015455245971679688,-0.1978762149810791
1684114968148874800,11.545874755859375,-0.06025594472885132,0.02060413360595703,-0.04448843002319336
1684114968158915300,11.555915283203126,-0.015901386737823486,0.028031349182128906,0.0543978214263916
1684114968168956000,11.565955810546875,0.0063588619232177734,0.04464912414550781,0.1489882469177246
1684114968178996200,11.575996337890626,0.03201925754547119,0.04435253143310547,0.17576193809509277
1684114968189036800,11.586036865234375,0.027968764305114746,0.0674142837524414,0.16402053833007812
1684114968199077400,11.596077392578126,0.03286945819854736,0.047550201416015625,0.1732192039489746
1684114968209117700,11.60611767578125,0.030693888664245605,0.05139446258544922,0.16992926597595215
1684114968219158300,11.616158203125,0.012210845947265625,0.0126953125,0.15455198287963867
1684114968229198600,11.626198486328125,0.010479569435119629,0.0028133392333984375,0.14388132095336914
1684114968239239200,11.6362392578125,0.02270638942718506,-0.0022735595703125,0.10962986946105957
1684114968249279700,11.64627978515625,0.004031002521514893,-0.009641647338867188,0.11125063896179199
1684114968259320000,11.656320068359374,-0.01903378963470459,0.0019893646240234375,0.08237552642822266
1684114968269360600,11.666360595703125,-0.03893125057220459,0.02527332305908203,0.08710217475891113
1684114968279401000,11.67640087890625,-0.036715924739837646,0.029419898986816406,0.0777742862701416
1684114968289441500,11.686441650390625,-0.024492919445037842,0.035881996154785156,0.059156179428100586
1684114968299482000,11.696482177734374,0.0045095086097717285,0.032871246337890625,0.04326486587524414
1684114968309522400,11.7065224609375,0.023883521556854248,0.039359092712402344,0.05358624458312988
1684114968319563000,11.71656298828125,0.04968982934951782,0.029311180114746094,0.028660058975219727
1684114968329603600,11.726603515625,0.07685863971710205,0.08767986297607422,0.060699462890625
1684114968339644000,11.736643798828124,0.09369862079620361,0.043791770935058594,0.10389113426208496
1684114968349684500,11.7466845703125,0.09599721431732178,0.06644916534423828,0.12722158432006836
1684114968359724800,11.756724853515625,0.06523633003234863,0.04865455627441406,0.11939764022827148
1684114968369765400,11.766765380859376,0.06306177377700806,0.06879138946533203,0.13282442092895508
1684114968379806000,11.776805908203125,0.07003277540206909,0.07440948486328125,0.11765623092651367
1684114968389846300,11.78684619140625,0.07920283079147339,0.06342506408691406,0.10264420509338379
1684114968399886800,11.796886962890625,0.08119815587997437,0.03141021728515625,0.07366776466369629
1684114968409927200,11.80692724609375,0.0827796459197998,0.04226112365722656,0.03098893165588379
1684114968419967700,11.8169677734375,0.07208019495010376,-0.0035619735717773438,-0.020263195037841797
1684114968430008300,11.82700830078125,0.06595420837402344,-0.025008201599121094,-0.07506704330444336
1684114968440048600,11.837048583984375,0.05018812417984009,-0.015416145324707031,-0.08861947059631348
1684114968450089200,11.847089111328126,0.027427852153778076,0.02233123779296875,-0.07343840599060059
1684114968460129800,11.8571298828125,0.01219850778579712,0.00537109375,-0.07243537902832031
1684114968470170000,11.867170166015624,-0.028408944606781006,-0.008923530578613281,-0.10201239585876465
1684114968480210700,11.877210693359375,-0.049105703830718994,-0.011134147644042969,-0.039121389389038086
1684114968490251000,11.8872509765625,-0.02421700954437256,0.0055789947509765625,-0.07139015197753906
1684114968500291600,11.89729150390625,-0.022759854793548584,-0.010913848876953125,-0.05367898941040039
1684114968510332200,11.907332275390624,-0.02338796854019165,-0.001251220703125,-0.03167438507080078
1684114968520372500,11.91737255859375,-0.01915222406387329,-0.008220672607421875,-0.040640830993652344
1684114968530413000,11.9274130859375,-0.017469584941864014,-0.0033550262451171875,-0.009583711624145508
1684114968540453600,11.93745361328125,-0.0016826987266540527,0.010838508605957031,0.04447197914123535
1684114968550494000,11.947493896484374,0.0139390230178833,0.017711639404296875,0.04809856414794922
1684114968560534500,11.957534423828125,0.019861042499542236,0.017335891723632812,0.07732653617858887
1684114968570574800,11.967574951171875,0.030308663845062256,0.01224517822265625,0.09192442893981934
1684114968580615400,11.977615478515625,0.030980229377746582,0.011925697326660156,0.06622457504272461
1684114968590656000,11.987656005859375,0.04572880268096924,0.009226799011230469,0.08323168754577637
1684114968600696300,11.9976962890625,0.04330635070800781,0.023014068603515625,0.0834505558013916
1684114968610737000,12.00773681640625,0.04053997993469238,0.013019561767578125,0.05781197547912598
1684114968620777200,12.017777099609376,0.04678332805633545,0.00551605224609375,0.03730893135070801
1684114968630817800,12.02781787109375,0.007840335369110107,0.019306182861328125,0.045412540435791016
1684114968640858400,12.0378583984375,-0.012019574642181396,0.011630058288574219,0.053304433822631836
1684114968650898700,12.047898681640625,-0.04351013898849487,0.020490646362304688,0.023211002349853516
1684114968660939300,12.057939208984376,-0.05792570114135742,-0.008519172668457031,-0.011282920837402344
1684114968670979800,12.067979736328125,-0.10695621371269226,-0.008831024169921875,0.013437509536743164
1684114968681020200,12.078020263671876,-0.08852016925811768,-0.030298233032226562,-0.021177053451538086
1684114968691060700,12.088060791015625,-0.10025584697723389,-0.03954887390136719,-0.057435035705566406
1684114968701101000,12.09810107421875,-0.09489428997039795,-0.039089202880859375,-0.09507560729980469
1684114968711141600,12.1081416015625,-0.08484435081481934,-0.06439590454101562,-0.09633708000183105
1684114968721182200,12.11818212890625,-0.06781238317489624,-0.06322765350341797,-0.10179352760314941
1684114968731222500,12.128222412109375,-0.06968039274215698,-0.036072731018066406,-0.050339460372924805
1684114968741263000,12.13826318359375,-0.028719663619995117,-0.00930023193359375,-0.016080856323242188
1684114968751303700,12.1483037109375,-0.01436460018157959,0.014698028564453125,-0.01290130615234375
1684114968761344000,12.158343994140624,-0.0004158616065979004,-0.0040149688720703125,0.05168318748474121
1684114968771384600,12.168384521484375,0.048210084438323975,0.02699756622314453,0.0963590145111084
1684114968781425200,12.178425048828124,0.03447026014328003,0.05272960662841797,0.13782310485839844
1684114968791465500,12.188465576171875,0.05330336093902588,0.06375980377197266,0.16881465911865234
1684114968801506000,12.198506103515625,0.026510000228881836,0.04853343963623047,0.14940118789672852
1684114968811546400,12.20854638671875,0.01843249797821045,0.03812885284423828,0.1299598217010498
1684114968821587000,12.2185869140625,-0.011175394058227539,0.01833343505859375,0.07985830307006836
1684114968831627500,12.22862744140625,-0.04054558277130127,-0.0012331008911132812,0.04443955421447754
1684114968841667800,12.238667724609375,-0.07405990362167358,-0.0064697265625,0.004492044448852539
1684114968851708400,12.24870849609375,-0.06448286771774292,-0.03755474090576172,-0.03729963302612305
1684114968861748700,12.258748779296875,-0.08999046683311462,-0.023407936096191406,-0.07146668434143066
1684114968871789300,12.268789306640626,-0.09089022874832153,-0.051833152770996094,-0.10270214080810547
1684114968881830000,12.278829833984375,-0.09099042415618896,-0.05851459503173828,-0.14508461952209473
1684114968891870200,12.2888701171875,-0.0646439790725708,-0.07906723022460938,-0.15815520286560059
1684114968901910800,12.298910888671875,-0.05481123924255371,-0.06619644165039062,-0.16833710670471191
1684114968911951400,12.308951416015624,-0.0355299711227417,-0.055755615234375,-0.16616320610046387
1684114968921991700,12.31899169921875,-0.009633898735046387,-0.06891632080078125,-0.1518549919128418
1684114968932032300,12.3290322265625,-0.000931084156036377,-0.053508758544921875,-0.11857867240905762
1684114968942072600,12.339072509765625,0.0003694891929626465,-0.02418804168701172,-0.09273386001586914
1684114968952113200,12.349113037109374,0.004103422164916992,0.02109813690185547,-0.03681516647338867
1684114968962153700,12.35915380859375,0.014859676361083984,0.020850181579589844,-0.017304658889770508
1684114968972194000,12.369194091796874,0.029922962188720703,0.022881507873535156,0.015789270401000977
1684114968982234600,12.379234619140625,0.020822882652282715,0.015410423278808594,0.010567903518676758
1684114968992275200,12.389275146484374,0.009271383285522461,0.024491310119628906,-0.00645756721496582
