time,seconds_elapsed,z,y,x
1684179339580952000,0.030352294921875,4.511580036590886e-11,4.7146494729633056e-11,2.9839231718397456e-11
1684179339590992000,0.040392333984375,-0.07789516437592864,0.2292916773709477,-0.2361246348739096
1684179339601032400,0.050432861328125,-0.02215003973516515,-0.1369519234026908,-0.2192620039383074
1684179339611072400,0.060472900390625,-0.11777877820751224,-0.49980401977685973,0.10729181773495486
1684179339621112600,0.070512939453125,-0.46467781051641155,-0.38920450211610724,0.06363892565808198
1684179339631152800,0.08055322265625,-0.856602191851741,-0.45480155930323746,-0.13384890560588592
1684179339641192900,0.09059326171875,-1.0559287070826733,-0.8343033790751682,-0.024965882184770843
1684179339651232900,0.10063330078125,-0.8680872917682779,-0.3030261993410386,-0.32150685779576865
1684179339661273300,0.110673583984375,-0.23516368853209674,0.4515535831300192,-0.7384246588020993
1684179339671313300,0.120713623046875,0.4268817902765478,0.22250294685911412,-0.5029703377476257
1684179339681353400,0.13075390625,1.0354366303486364,0.14976310725180078,-0.2553803919692139
1684179339691393600,0.140794189453125,1.7540616988307478,1.1897494793987142,-0.11213159546625467
1684179339701433800,0.150834228515625,1.7900028228658902,0.6388139724747179,0.8647452592775059
1684179339711474100,0.16087451171875,1.6158494949619135,0.16500568387072034,1.4480097293862768
1684179339721514200,0.17091455078125,0.7651815414455991,-0.06063222897937957,1.3505520819504435
1684179339731554200,0.18095458984375,-0.639820098896561,-0.38615536686009416,0.4116263387811037
1684179339741594600,0.190994873046875,-1.4887132644839332,-0.8908147812513971,-0.04512310025887102
1684179339751634600,0.201034912109375,-1.5903367994888111,-1.0724024773362915,-0.033308982726428286
1684179339761674900,0.211075439453125,-1.065833568519613,-0.40260386466447645,-0.42984223373945324
1684179339771715000,0.221115478515625,-0.1683597563518513,0.3835871218708317,-0.7140693664529562
1684179339781755100,0.231155517578125,0.3524494170946459,0.46097302434320186,-0.4937040804755077
1684179339791795400,0.24119580078125,0.9455442429381582,0.13261723507710993,-0.265122651974388
1684179339801835400,0.25123583984375,1.3821964263989237,0.07727909097664247,-0.9096879960620771
1684179339811875600,0.26127587890625,0.9536848068934959,-0.05268502247311122,-1.1841646433341921
1684179339821915800,0.271316162109375,-0.14064025889515133,0.01261568064627416,-0.6637883186203911
1684179339831955900,0.281356201171875,-0.9211196898883577,0.07827258110861564,-0.35514879235721236
1684179339841996000,0.291396240234375,-1.2160668373632344,0.034852743210662264,0.11066770561528337
1684179339852036300,0.301436767578125,-1.2916245460533164,-0.2507789135232819,0.25543951984602825
1684179339862076300,0.311476806640625,-0.6203126905927451,-0.49998140338861774,0.37477588637036524
1684179339872116600,0.32151708984375,0.49774456025301883,-0.5915811061893107,0.02332687384203957
1684179339882156600,0.33155712890625,1.5832242966927126,-0.428979158410186,-0.4950320719624562
1684179339892196800,0.34159716796875,2.4210290907321275,-0.30460977551603263,-0.5188107490297136
1684179339902237100,0.351637451171875,2.7252635957158438,0.03458833694858765,-0.4937958717278255
1684179339912277200,0.361677490234375,3.1129503251011865,0.42887926108023994,-0.5931639670460577
1684179339922317200,0.371717529296875,2.843489646896412,0.4147377014258638,-0.7819027901407838
1684179339932357600,0.381758056640625,1.751218795897463,-0.5581572056418533,-0.5210905075845952
1684179339942397600,0.391798095703125,-6.881163597062493,-1.459385156489736,1.124477386618577
1684179339952437600,0.401838134765625,-24.760604858347563,-0.12356400485954533,2.662728786474364
1684179339962478000,0.41187841796875,5.6451826095622755,5.735208511261915,-0.25672435755523537
1684179339972518100,0.42191845703125,-1.388232707944547,-0.05001568786836582,5.580743312836289
1684179339982558100,0.43195849609375,-0.39155101763744876,-0.4373149872342438,1.8464474678461338
1684179339992598400,0.441998779296875,4.33236646650422,-0.506909847195038,0.8465447425994156
1684179340002638600,0.452038818359375,-0.7443866731661545,-2.5681128502260337,1.4219388961131347
1684179340012678800,0.462079345703125,0.31013345721870544,-0.11499834068943274,-0.2669501304933959
1684179340022718900,0.472119384765625,1.099129199826083,0.6035823821690127,-0.7943849562634303
1684179340032759000,0.482159423828125,1.0740699768924744,-0.22481727616741054,-1.5071101188191
1684179340042799300,0.49219970703125,1.1882157324358036,1.1556500196579302,-1.8917808533134406
1684179340052839300,0.50223974609375,2.200376510575042,0.39806866647606887,-2.703839302078084
1684179340062879600,0.512280029296875,1.3054137228975944,-0.3412978650255708,-2.204085826936661
1684179340072919700,0.522320068359375,6.596731662669699,-0.5462071894705155,0.23587703708576807
1684179340082959800,0.532360107421875,7.871994972221669,-0.14120864864628083,1.1615085603237918
1684179340093000100,0.542400390625,3.806819438969395,0.0717403890634709,-0.7125177382707237
1684179340103040200,0.552440673828125,-0.4302771092002937,-0.26071810714667226,-1.6106710432407707
1684179340113080200,0.562480712890625,-3.864505529532979,-0.394243955725799,-1.8835210801486113
1684179340123120600,0.57252099609375,-6.6622285842610225,0.8145670890145144,-2.232221603365528
1684179340133160600,0.58256103515625,-6.1320047379429585,1.5889743566135268,-1.4537434579731465
1684179340143200600,0.59260107421875,-5.564525604402632,1.3347096442970707,-0.053902626193010346
1684179340153241000,0.602641357421875,-4.907495498596867,0.2181544303163231,-0.20411872875711806
1684179340163281100,0.612681396484375,-3.601212978417704,0.6740224361337913,-1.2641258239837683
1684179340173321400,0.6227216796875,-2.2826750277094923,0.6417248248841059,-1.9965314863227532
1684179340183361500,0.632761962890625,-1.6596457958206865,-0.275122404047162,-2.4939603804299213
1684179340193401600,0.642802001953125,-0.6318457125686032,-0.6789519787746294,-2.464968204623588
1684179340203441800,0.65284228515625,-0.15956649194292297,-0.6659064293450953,-1.7042493819242193
1684179340213481900,0.66288232421875,-0.7885099649212101,-0.8582420347909445,-1.5095634461953786
1684179340223522200,0.672922607421875,-1.1852924822545474,-0.6231203078950028,-0.7644619942238241
1684179340233562300,0.682962646484375,-1.1933628320644456,-0.15311169618331744,-0.009409904450668553
1684179340243602400,0.693002685546875,-1.090694904301245,0.11657571787057794,0.020522117652257827
1684179340253642600,0.70304296875,-0.26744747174268263,0.013855457400113317,-0.928405761847886
1684179340263682700,0.713083251953125,0.2904827594662019,-0.9266133307537805,-1.490080833408597
1684179340273722800,0.723123291015625,1.0690875053953226,-1.3069672584039702,-1.2559475899382135
1684179340283763100,0.73316357421875,0.8962945938394825,-3.196328163146559,0.9585266113853393
1684179340293803200,0.74320361328125,1.7356867788941543,-3.2967162132123056,3.331307411232363
1684179340303843200,0.75324365234375,2.8122675418381924,-2.2898936270781385,3.810307502753673
1684179340313883600,0.763283935546875,2.833970546679238,-2.040442943517856,4.508534431361463
1684179340323923600,0.773323974609375,2.4800639154454416,-1.6161427498732175,3.5530147552336055
1684179340333963600,0.783364013671875,1.9057240486114781,-1.5014152526455111,2.2182598113495824
1684179340344004000,0.793404296875,0.5407015085253684,-1.419354438687926,0.6635217666784412
1684179340354044100,0.803444580078125,-0.6784323453806844,-1.1594667435542436,-1.036003112699849
1684179340364084400,0.81348486328125,-1.5173920391993239,-1.068835735259148,-0.6448035241110737
1684179340374124500,0.82352490234375,-1.4675456286355617,-0.9724035263028887,-1.6936454773217244
1684179340384164600,0.83356494140625,-1.6836313010197168,-1.3341531754511897,-1.4274888037400288
1684179340394204800,0.843605224609375,-1.6364158393090933,-1.3245978355752615,-0.05942535413267857
1684179340404244900,0.853645263671875,-0.9431542158576847,-0.7803645134690109,0.6969833373344323
1684179340414285200,0.863685546875,-0.09757232658454912,-1.1289625168509683,2.140248298712029
1684179340424325300,0.8737255859375,0.7447049618648185,-0.9801411629576948,2.1553850174164944
1684179340434365400,0.883765869140625,1.2739500999792388,-0.3798122405561644,0.696773529093894
1684179340444405600,0.89380615234375,0.7809770107244081,-0.039318561607988786,-0.005393982000917997
1684179340454445700,0.90384619140625,0.08999252312293263,0.12129783627684841,-0.6789302824785707
1684179340464485800,0.91388623046875,-0.39397060863106337,0.06578588475978475,-1.0513081550823815
1684179340474526100,0.923926513671875,-0.4746683836141179,-0.03450584412304407,-1.0709900857077752
1684179340484566200,0.933966552734375,-0.16118884104916434,0.059502124762721716,-0.8423805236917584
1684179340494606300,0.944006591796875,0.0017162561671512386,0.16690540321721006,-0.3582758904272007
1684179340504646600,0.954046875,0.07142853723359226,0.026298522919865102,-0.6972155570602491
1684179340514686600,0.964087158203125,-0.007524609433111097,0.410620689551358,-1.3939156531552939
1684179340524727000,0.97412744140625,-0.005398452213488819,0.1881976128127343,-0.007048130003005004
1684179340534767000,0.98416748046875,0.3798951208542428,0.6806035042719089,0.5081448555922451
1684179340544807100,0.99420751953125,0.6696990132053445,1.266933441036181,0.84661006922452
1684179340554847400,1.004247802734375,0.6352169513664306,1.3605651856500902,1.2006711960110448
1684179340564887600,1.014287841796875,0.6317447424985393,0.8897590638241125,0.9216709136831196
1684179340574927800,1.024328125,0.7357785104840189,-0.10450410838881821,0.3784599303986338
1684179340584967900,1.0343681640625,1.4554076193485812,-1.0366191863414613,-0.10310316076492738
1684179340595007900,1.044408203125,2.8873507974949106,-0.776122570019213,0.48616743073118024
1684179340605048200,1.05444873046875,3.5776143073006943,-0.05363988873375163,0.44126558299520635
1684179340615088300,1.06448876953125,2.5944766997788626,0.25647354125486743,-0.2403063772548774
1684179340625128400,1.07452880859375,0.9736112355934227,0.5719890594841807,-1.0103316307605232
1684179340635168600,1.084569091796875,-0.25845086570221076,0.8478651046637246,-1.9411616324968946
1684179340645208800,1.094609130859375,-1.0759562254581891,1.3073964117703345,-2.3025922775923324
1684179340655248800,1.104649169921875,-1.0408523083522903,1.382147789063021,-1.595793247130413
1684179340665289100,1.114689453125,-0.3769730029747921,1.3410167695283053,-0.6697769165442027
1684179340675329200,1.1247294921875,0.16165125364328325,1.2238202094840398,-0.2348999977103007
1684179340685369600,1.13477001953125,0.9560240506154997,0.7425503730253873,0.37123394007712895
1684179340695409600,1.14481005859375,1.415048837500364,0.5921244620413968,0.3889303206680295
1684179340705449600,1.15485009765625,1.0743837355690586,0.523319244393046,0.2176432610465065
1684179340715490000,1.164890380859375,0.9340088962203014,-0.46710968029194644,0.884263992382006
1684179340725530000,1.174930419921875,1.2076058388144424,-1.2429537773554853,2.075793266356431
1684179340735570400,1.184970703125,1.1172752381649724,-1.1485667229696397,2.518138408520265
1684179340745610400,1.1950107421875,1.0335558652961552,-1.105298995962756,3.05205583576053
1684179340755650600,1.20505078125,0.006606995944131509,-0.9032149315450388,2.623679161036457
1684179340765690800,1.21509130859375,-1.7483204604172058,-0.7850761413431806,1.39244461058614
1684179340775730900,1.22513134765625,-0.4839693009283506,-3.2458310128092536,3.0397295952384344
1684179340785770900,1.23517138671875,-1.2684407234815491,-1.5854144095015539,0.8375835416749663
1684179340795811200,1.245211669921875,-1.5391883851063044,0.1950397489992447,-0.6348028182726297
1684179340805851300,1.255251708984375,-1.103457927715712,0.5688085555745478,-0.7579083443612281
1684179340815891600,1.2652919921875,-1.0529561042447493,0.1268243788569064,-0.5230107306190456
1684179340825931600,1.27533203125,-0.4856341184592826,-0.580964565299145,-0.5394401550157188
1684179340835971800,1.2853720703125,0.13103967907026778,-0.7432589530565518,-0.3734040258728356
1684179340846012100,1.29541259765625,0.09462463847345284,-0.28652524942335417,-0.27564382544776744
1684179340856052100,1.30545263671875,-0.0003539325037051394,-0.29255437846297266,0.1851549150043137
1684179340866092200,1.31549267578125,-0.8724023103992335,-0.6995739936064453,0.18438863749770332
1684179340876132600,1.325532958984375,-1.693853736051932,-1.2347602844580323,-0.5560173987376397
1684179340886172600,1.335572998046875,-1.638113141012785,-0.8971233367271163,-1.2569255827802936
1684179340896212600,1.345613037109375,-1.2692090273761014,-0.5851941107602567,-1.2470216751507572
1684179340906253000,1.3556533203125,-0.9272157550256077,-0.7422041893645613,-0.9084444045134902
1684179340916293000,1.365693359375,-0.6023700238565121,-0.7838163374726912,-0.4537515640540167
1684179340926333400,1.375733642578125,-0.037069201400600146,-0.20631742462501196,0.16439342501970783
1684179340936373400,1.38577392578125,0.32213115688078586,0.22762727740364028,0.45141553863445666
1684179340946413600,1.39581396484375,0.8071699143359551,-0.8167119025387207,0.4237809181342025
1684179340956453800,1.405854248046875,1.6541901827933363,-1.0094590188475778,0.4523134231536516
1684179340966493900,1.415894287109375,1.9846835138157073,-0.3998527527579395,0.696079731012548
1684179340976534200,1.4259345703125,1.2809156180424,0.42447805397595917,0.22380542755167643
1684179340986574300,1.435974609375,0.26248919957928923,0.9790062904935357,-0.3744411469137498
1684179340996614300,1.4460146484375,-0.5423156021651643,1.2818536758318324,-0.38034248354352
1684179341006654600,1.456054931640625,-1.532046794830033,1.3359637260386719,-0.16922283171690256
1684179341016694600,1.46609521484375,-2.0500988961036306,1.4241585732843338,-0.07108068456508891
1684179341026735000,1.476135498046875,-1.7131806611954024,1.496481895493356,-0.21358013137820228
1684179341036775100,1.486175537109375,-0.9159083962500588,1.8268446922013362,-0.1095228196353524
1684179341046815200,1.496215576171875,-0.32744163284593025,1.3651413917173676,-0.37615728368670337
1684179341056855600,1.506255859375,-0.2465165704174909,0.6419248580997272,-0.9121966361778483
1684179341066895600,1.5162958984375,0.14433982971993203,0.2315034866556869,-0.5881791115449023
1684179341076935600,1.5263359375,1.4931814670567036,1.0293750763952516,-0.91725301734281
1684179341086975900,1.536376220703125,1.5822955369903493,0.9342417716423411,-1.0194292069032915
1684179341097016000,1.54641650390625,1.3405653237728568,0.49982738479573197,-0.6032214164310088
1684179341107056000,1.55645654296875,1.3731108902856448,1.0736174583428744,-0.34906053539962395
1684179341117096400,1.566496826171875,0.8671423197603013,1.2302041053960722,0.14317178742257455
1684179341127136400,1.576536865234375,0.16677390029814457,0.6029253007894386,0.7316131591077529
1684179341137176800,1.5865771484375,-1.1621789932007909,0.8360090254359147,0.8137965202023055
1684179341147216800,1.5966171875,-2.203796386802331,0.93245553982238,0.7293496132279812
1684179341157256900,1.6066572265625,-2.529052257452278,0.5797548293481072,0.4499940872866092
1684179341167297200,1.616697509765625,-2.154658794317972,0.049897194002625204,0.3543047904953761
1684179341177337300,1.626737548828125,-1.4652144909486013,0.5070571899209779,0.12329435339246936
1684179341187377600,1.636778076171875,-0.5634528992820459,0.4582915305568799,0.9116444587795625
1684179341197417600,1.646818115234375,0.1352238358319632,0.2119846345039875,0.41593170173928107
1684179341207457600,1.656858154296875,0.6807421444963893,-0.06442594522307055,0.0007443428066535728
1684179341217498000,1.6668984375,0.9673548340811221,-0.5307769775936902,0.002552986017887622
1684179341227538100,1.6769384765625,1.0143032073415574,-1.341746330081508,0.0478506089747248
1684179341237578400,1.686978759765625,1.0888160469025523,-1.404265403664406,0.41868829713449046
1684179341247618600,1.697018798828125,0.7179884313809872,-1.3528184891541273,0.896501541281299
1684179341257658600,1.707058837890625,-0.35428673022683554,-1.0018453598883124,1.7499060632074839
1684179341267698900,1.717099365234375,-1.1401848792045506,-0.5224943161467805,3.115145206596609
1684179341277738900,1.727139404296875,-1.0378859043070388,0.42191696165655157,3.549157619483106
1684179341287779000,1.737179443359375,-0.635483264960357,0.6029005051398574,3.7487783431770474
1684179341297819300,1.7472197265625,-0.06832736739927509,0.6789379121194428,3.5720138548663476
1684179341307859400,1.757259765625,0.36903089282713936,0.529046058794869,3.321495533016057
1684179341317899400,1.7672998046875,0.8666880130296497,0.4928417205362425,3.1506881713776074
1684179341327939800,1.777340087890625,1.4296984673465114,0.7774267197147597,2.990563869379686
1684179341337979800,1.787380126953125,1.7392687797174486,0.9631261826078419,2.306972503769935
1684179341348020100,1.797420654296875,1.761101007523683,2.1930141449821443,1.166777610897491
1684179341358060200,1.807460693359375,1.4773483274917694,2.759889602772685,0.6790084838794241
1684179341368100300,1.817500732421875,0.7243605851002434,1.313761710973714,-0.5364665985144019
1684179341378140600,1.827541015625,0.008638527112805534,1.0706081390704945,-0.9674768448079362
1684179341388180600,1.8375810546875,-0.14268879597283712,1.3387570380861147,-1.0420296192236151
1684179341398221000,1.847621337890625,-0.6355994941750547,1.3880939482662722,-1.062824964457728
1684179341408261000,1.857661376953125,-1.8152192829885672,0.5815410614513483,-1.36188936233657
1684179341418301100,1.867701416015625,-2.7253987789213925,-0.5546464919791478,-1.3740952014497612
1684179341428341400,1.877741943359375,-2.9479267597305996,-1.8483285903256415,-1.1269476412031452
1684179341438381600,1.887781982421875,-2.650802850713019,-1.923266410994626,-1.0316257477007604
1684179341448421800,1.897822265625,-2.134238004713054,-1.3096857072303285,-1.3742704391148197
1684179341458461900,1.9078623046875,-1.293106436603349,-1.024652481027383,-1.9718267918456756
1684179341468501900,1.91790234375,-2.230911016450662,-4.291373252990256,-2.1157259940084745
1684179341478542300,1.927942626953125,-1.7340230941215584,-5.27721881877334,-1.7777795792104854
1684179341488582300,1.937982666015625,0.0013912916145166119,-3.6417427062798806,-1.2573876380376665
1684179341498622400,1.948022705078125,0.2922545373776875,-0.83081722270824,-1.325788021118278
1684179341508662600,1.95806298828125,-0.4939739703674559,1.0309281348827082,-1.668652296089879
1684179341518702800,1.968103271484375,-1.3673727512837854,1.2799811363009168,-2.11647367494004
1684179341528743100,1.9781435546875,-1.459815144644937,1.220905303955711,-2.378551959981725
1684179341538783200,1.98818359375,-1.0615081788719292,1.3919653892984136,-2.4575941563102135
1684179341548823200,1.9982236328125,-0.471323251731797,1.2923030853695203,-2.3669044972387754
1684179341558863600,2.008263916015625,-0.0804452897017486,0.6904578209072069,-2.0799977777984235
1684179341568903600,2.018303955078125,0.09303414830928369,0.2730131148996635,-1.854968547800663
1684179341578943600,2.028343994140625,0.06544339663626991,0.06112766267424264,-1.7530257700979792
1684179341588984000,2.03838427734375,0.04114019881727793,-0.1211509705383862,-1.5974895954098718
1684179341599024000,2.048424560546875,0.004116416124317116,-0.43967342371839807,-1.3377549649605636
1684179341609064400,2.05846484375,0.1660225392148723,-1.11940002450612,-1.006201982566911
1684179341619104400,2.0685048828125,0.36327230923496373,-1.7735986708252676,-0.3464527130467955
1684179341629144600,2.078544921875,0.8190255164136877,-1.5424184798435443,0.414225816790011
1684179341639184800,2.088585205078125,1.1229139566381663,-1.0718765259530434,1.3710923194325042
1684179341649224900,2.098625244140625,1.1791805028068578,-0.7033910751725555,1.6329910755625578
1684179341659264900,2.108665283203125,0.8407977819103825,-0.38876152035904527,1.2784004213343492
1684179341669305300,2.11870556640625,0.44350075724282084,-0.30054378517369323,0.7687270642316065
1684179341679345300,2.128745849609375,0.32120227813186314,-0.06280422224041307,0.21556043631750973
1684179341689385600,2.1387861328125,0.30869054784140837,0.2476434708791683,-0.3610382080063495
1684179341699425600,2.148826171875,0.369855642154295,0.30508041391130875,-1.0573369264684191
1684179341709466000,2.158866455078125,0.4333733319744751,0.1803503037411891,-1.4630357027864413
1684179341719506100,2.168906494140625,0.4485262631928935,-0.15931129442257494,-1.678824186342423
1684179341729546200,2.178946533203125,0.5424145460617628,-0.4564714430881421,-1.4271347524071745
1684179341739586600,2.18898681640625,0.7021582126206126,-0.6783199309336987,-1.0099140406912137
1684179341749626600,2.19902685546875,0.6582522390564564,-0.7538080216466229,-0.6671942473934485
1684179341759666900,2.2090673828125,0.3514537811933583,-0.7937774657776475,-0.4625475405376751
1684179341769706900,2.219107421875,-0.2721848486973598,-0.7500171660515598,-0.40895092476861217
1684179341779747000,2.2291474609375,-0.8913242816598622,-0.7374515531886335,-0.19040036198155513
1684179341789787300,2.239187744140625,-1.3214890956898946,-1.3070173264927387,0.19185721873185302
1684179341799827400,2.249227783203125,-1.2535786628653878,-1.8710365296024556,0.28417277322819207
1684179341809867600,2.25926806640625,-0.8720097542576674,-0.9575510025016104,-0.21550118928006406
1684179341819907800,2.26930810546875,-0.5637068748244428,0.07263851166911083,-0.5065628292015275
1684179341829947800,2.27934814453125,-0.5193693638918485,0.478938102846866,-0.4187623262569981
1684179341839988100,2.289388427734375,-0.6483664511507614,0.29225540163009167,-0.3386299608661823
1684179341850028200,2.2994287109375,-0.7830295563397085,-0.2487545013165566,-0.36135590090212616
1684179341860068300,2.30946875,-0.6493144036352507,-0.21884918211738047,-0.5102941988686018
1684179341870108600,2.319509033203125,-0.5193455219020314,-0.024556159910928636,-0.4983127118138281
1684179341880148600,2.329549072265625,-0.41993618008135647,-0.1303853988149357,-0.5042928455943995
1684179341890189000,2.33958935546875,-0.3279001714098498,-0.2390260695290889,-0.10599040973726624
1684179341900229000,2.34962939453125,-0.292245864712324,0.2539920807464554,0.05736351000170711
1684179341910269100,2.35966943359375,-0.5831747054901923,0.10049533846655759,0.22643876077820027
1684179341920309400,2.369709716796875,-0.8103439807405663,-0.07944583900536152,0.2700982093820534
1684179341930349600,2.37975,-0.9571959971589534,-0.11368274688134944,0.42180991169380716
1684179341940389600,2.3897900390625,-1.1938633918882593,-0.01640033716505138,0.8176031111851139
1684179341950429900,2.399830322265625,-1.3020596504132733,0.2378234864614052,1.1926972865085879
1684179341960469900,2.409870361328125,-1.4876720904549332,0.522330284131146,1.2535517215016994
1684179341970510300,2.41991064453125,-1.4975600243448346,0.669075965726841,1.255791425646664
1684179341980550300,2.42995068359375,-1.4217860698748845,0.3192548751387971,1.0252492427496296
1684179341990590400,2.43999072265625,-1.1081011295178262,0.11415481576524401,0.6996185778214618
1684179342000630600,2.450031005859375,-0.7231602668659785,0.13717460636119486,0.4861128329444895
1684179342010670800,2.4600712890625,-0.42473793029444395,0.2691259383274987,0.45326471327638035
1684179342020711100,2.470111572265625,-0.2598323821634888,0.2611742019415966,0.4674513339916796
1684179342030751200,2.480151611328125,-0.01398849477745932,0.2996921539460136,0.39123582837371135
1684179342040791200,2.490191650390625,0.161551237188238,0.27743816380722097,0.21582388861096521
1684179342050831600,2.50023193359375,0.33992648125064706,0.3087034225372923,0.11095118533075063
1684179342060871600,2.51027197265625,0.5074996948672682,0.34133911118034344,-0.11241698267185993
1684179342070911600,2.52031201171875,0.5914916992013294,0.40996074681156675,-0.27539277063759576
1684179342080952000,2.530352294921875,0.6164960860941608,0.46269226082900555,-0.40228676790305
1684179342090992000,2.540392333984375,0.6587390899213134,0.5141601562795612,-0.5501959324641568
1684179342101032400,2.550432861328125,0.7786996364476999,0.8330612182150996,-0.679158210809973
1684179342111072400,2.560472900390625,0.8037991523755244,1.348490238154043,-0.7808057070714336
1684179342121112600,2.570512939453125,0.9311745166692447,1.3546838759252806,-0.6644607782005955
1684179342131152800,2.58055322265625,1.1495857239079659,1.3524031637787555,-0.6466175319036876
1684179342141192900,2.59059326171875,1.2818626165689333,1.4350743293191732,-0.717532992308629
1684179342151233200,2.600633544921875,1.2694635391952416,1.4837336540999342,-0.7709918022888806
1684179342161273300,2.610673583984375,1.1548143625993739,1.4242081642664925,-0.7480270862371877
1684179342171313600,2.6207138671875,0.9189352987954269,1.2265920638345031,-0.7816873789512708
1684179342181353600,2.630754150390625,0.531472683016938,0.8215885162813101,-0.8575423956232445
1684179342191393600,2.640794189453125,-0.1350314616473039,0.2565584182488069,-1.0557839870532137
1684179342201434000,2.65083447265625,-0.8547205925042587,-0.31905078879034354,-1.282956361813446
1684179342211474100,2.66087451171875,-1.267511606176488,-0.6783170700762423,-1.5797421932213973
1684179342221514400,2.670914794921875,-1.192051887380711,-0.7419900894958517,-1.8507761955813389
1684179342231554600,2.680954833984375,-1.0612564087121028,-0.8664608001050284,-1.820342898431234
1684179342241594600,2.690994873046875,-1.0682930947442286,-1.0586528779266917,-1.482734441696491
1684179342251634900,2.70103515625,-1.3202366830558965,-1.340958595409767,-1.017522215926714
1684179342261674900,2.711075439453125,-1.5992803574158008,-1.8695421217321289,-0.4215743540674777
1684179342271715200,2.72111572265625,-2.017257213623443,-2.700835227921343,0.269497156245993
1684179342281755300,2.73115576171875,-2.2187483310931246,-3.3122692108422758,1.205938577632331
1684179342291795400,2.74119580078125,-1.8052787780062123,-3.2534112930066685,1.9826925991417481
1684179342301835600,2.751236083984375,-1.009000420594027,-2.7311973571266246,2.304286480060765
1684179342311875800,2.761276123046875,-0.6539576054880295,-2.014003753790591,2.106006145469477
1684179342321916100,2.77131640625,-1.3326371907563723,-1.2485570906574541,1.975521922229988
1684179342331956100,2.7813564453125,-2.405608892471012,-0.380081176749633,2.016803741482274
1684179342341996200,2.791396728515625,-2.0707807540927017,0.37098121648510873,1.461040258446838
1684179342352036600,2.80143701171875,-0.5703163146643656,0.6678791046382881,0.2368240356385318
1684179342362076600,2.81147705078125,0.6598280071076389,0.8314352036631676,-0.6909865736771774
1684179342372116600,2.82151708984375,1.4823646546226998,1.531197548043543,-1.000430345647264
1684179342382157000,2.831557373046875,1.6521371603603145,1.9109983444260266,-1.0964112281271743
1684179342392197000,2.841597412109375,1.5041004418489785,2.1618514060815825,-0.8914772270790494
1684179342402237400,2.8516376953125,1.4163578749124208,2.1384205818769177,-0.5924846530215689
1684179342412277400,2.861677734375,1.1205027103409206,1.7574038506978789,-0.19062125675459932
1684179342422317600,2.8717177734375,0.8625624181299374,1.3244981766764925,0.0064342023209038
1684179342432357800,2.88175830078125,0.6749657393006142,0.8657817840487023,0.2937766910428761
1684179342442397900,2.89179833984375,0.48349082451558395,0.409710884104783,0.558038234636136
1684179342452438200,2.901838623046875,0.2594940661635642,0.00827312476950488,0.6809443236722318
1684179342462478300,2.911878662109375,0.20651316641002554,-0.25542545322871407,0.7973590492854117
1684179342472518300,2.921918701171875,0.37786227465253075,-0.3910121917224686,0.8146547675138573
1684179342482558600,2.931958984375,0.6437218190906696,-0.40307521829561116,0.5954424740358286
1684179342492598600,2.9419990234375,0.9260048270062051,-0.29129695887785445,0.45797377823970664
1684179342502639000,2.952039306640625,1.0785744189606412,-0.2083311079762797,0.4960574508355175
1684179342512679100,2.96207958984375,1.1307233572750683,-0.26621246332763937,0.7317385673977025
1684179342522719200,2.97211962890625,1.160498499779462,-0.36905574795320445,0.9299088715407775
1684179342532759600,2.982159912109375,1.0972594022226814,-0.6362972259427523,1.0717561244793596
1684179342542799600,2.992199951171875,0.9629300832595459,-0.707559585545891,1.1725120544730099
1684179342552839900,3.002240234375,0.8772286177105879,-0.6077156067911073,1.0565941332612367
1684179342562879900,3.0122802734375,0.8797198532926824,-0.25393676768253587,0.7752506136161239
1684179342572920000,3.0223203125,1.015427112576094,0.3078079224949403,0.3976776600310426
1684179342582960300,3.032360595703125,1.2061111928665924,0.6978158950139112,0.05951344966747203
1684179342593000400,3.04240087890625,1.3988147974490026,0.9003105163480787,-0.07595419892048651
1684179342603040600,3.052441162109375,1.549596309501096,1.0211935043782554,-0.018263101562826727
1684179342613080800,3.062481201171875,1.6105927229180201,1.0775985717959395,0.10327374935262428
1684179342623120800,3.072521240234375,1.5352616310083218,0.8286333083971493,0.16530370714152362
1684179342633161100,3.0825615234375,1.436598181560203,0.6640596389029514,0.2372451125703088
1684179342643201200,3.0926015625,1.327192306419927,0.5309791565883015,0.3006530104756231
1684179342653241600,3.102641845703125,1.2783606051962448,0.5342321395977575,0.318758994273606
1684179342663281600,3.112681884765625,1.2835323811088528,0.5205793379229845,0.3978502751552521
1684179342673321600,3.12272216796875,1.2960194349175718,0.5352973936995395,0.4415649771220095
1684179342683362000,3.132762451171875,1.280307888992795,0.4539613723982849,0.46591189504994257
1684179342693402000,3.142802490234375,1.260485529817334,0.3886270524168585,0.46137043825862095
1684179342703442400,3.1528427734375,1.1439827680835368,0.2695865630292845,0.49350211019552015
1684179342713482400,3.1628828125,1.0512936114143756,0.10620212544838932,0.5334808228858225
1684179342723522600,3.1729228515625,0.9753230808971031,-0.13256931301851482,0.5603082776417675
1684179342733562800,3.182963134765625,0.8500884177101912,-0.308023452850299,0.5910419225216166
1684179342743602900,3.193003173828125,0.7980933189453244,-0.3057222365922858,0.623077511844182
1684179342753643200,3.203043701171875,0.7515567540923441,-0.2503328323228947,0.660677433094855
1684179342763683200,3.213083740234375,0.688940405880597,-0.16590976722515505,0.6010653374602692
1684179342773723300,3.223123779296875,0.6007634400752847,-0.07642841342990163,0.6612293722137793
1684179342783763600,3.2331640625,0.5147632360242712,0.008682251063278442,0.7296622394009384
1684179342793803600,3.2432041015625,0.4324333667944478,0.06110763558150743,0.7048046589519084
1684179342803844000,3.253244384765625,0.35671693085259254,-0.009294509990236075,0.6573712230273399
1684179342813884100,3.263284423828125,0.3011996150671033,-0.12757778171573322,0.555575251510405
1684179342823924100,3.273324462890625,0.25025814773087685,-0.25957870483918133,0.4514611959165147
1684179342833964500,3.28336474609375,0.22502577299289228,-0.4193115234440013,0.33418452732582643
1684179342844004600,3.293405029296875,0.23577660320647056,-0.4469051359797779,0.14181458960590865
1684179342854044800,3.3034453125,0.2973498104474367,-0.4737672805925546,0.010293960496651298
1684179342864084900,3.3134853515625,0.36999869355731463,-0.4373540877778813,-0.07246446607246018
1684179342874125000,3.323525390625,0.4230934381759149,-0.38752460486206214,-0.17079246041258306
1684179342884165300,3.333565673828125,0.47325140244607317,-0.2667112350437393,-0.300511360244329
1684179342894205400,3.343605712890625,0.49115359781320606,-0.12995719904263037,-0.5168900488319537
1684179342904245600,3.35364599609375,0.45271283385143507,-0.04170703889342635,-0.7698588371163262
1684179342914285700,3.36368603515625,0.4247665405140808,0.03161239627329236,-1.0475468635753518
1684179342924325800,3.373726318359375,0.420668602110765,0.04736137386511617,-1.1742591858309475
1684179342934366100,3.3837666015625,0.4553469421354777,0.0442647933424486,-1.256520271290098
1684179342944406200,3.393806640625,0.43982768056870136,0.13704586044420142,-1.315716504906275
1684179342954446600,3.403846923828125,0.47618681190506995,0.35798835756600644,-1.2880749703278938
1684179342964486600,3.413886962890625,0.5338125229182973,0.6399583815779313,-1.423687696388132
1684179342974526900,3.42392724609375,0.5776355265788587,0.6548032762128855,-1.2639610767291771
1684179342984567000,3.43396728515625,0.6462669968051612,0.5517244338307081,-0.9832999707409006
1684179342994607000,3.44400732421875,0.6966373920773258,0.46747207641193944,-0.7148730755779198
1684179343004647300,3.4540478515625,0.7210283875657337,0.3232746123000391,-0.5569641589104605
1684179343014687400,3.464087890625,0.7092530727254883,0.14551067343722596,-0.4137418269933311
1684179343024727700,3.474128173828125,0.6223713159350247,-0.015601158053900287,-0.21143555633818584
1684179343034767800,3.484168212890625,0.5125207306314701,-0.10265159608940745,-0.022784233052850142
1684179343044807900,3.494208251953125,0.40107357505118413,-0.10121059414474366,0.19132268431238517
1684179343054848200,3.50424853515625,0.26943212752771345,-0.07336139690740524,0.34396624562712236
1684179343064888200,3.51428857421875,0.1449121236483854,-0.10273456557766772,0.39505362500903163
1684179343074928600,3.524328857421875,0.06188398600607633,-0.10333633440612573,0.3719780445749722
1684179343084968600,3.534369140625,-0.00806909798416392,-0.08970832812289505,0.32342445851812573
1684179343095008600,3.5444091796875,-0.023993074862011975,-0.07877635954947217,0.290963769032404
1684179343105049000,3.554449462890625,0.01438158732951261,-0.010931968692634127,0.25595092768015637
1684179343115089100,3.564489501953125,0.10504919299408204,0.025416374168066573,0.28027689459558836
1684179343125129400,3.57452978515625,0.18146693696868824,-0.0006351470753673844,0.2825434207578094
1684179343135169500,3.58456982421875,0.2368136644037233,-0.03869342797870224,0.28400778752238737
1684179343145209600,3.59460986328125,0.2877733111919405,-0.16492748253417072,0.324313044461589
1684179343155249800,3.604650146484375,0.35773926984514043,-0.23322677612151493,0.3782870770181549
1684179343165289900,3.614690185546875,0.436409294536765,-0.24586009979909001,0.4372568130048975
1684179343175330200,3.624730712890625,0.5585478544226792,-0.20528411861576515,0.44561743748268606
1684179343185370300,3.634770751953125,0.6516554951795187,-0.13793468479387644,0.4105795620034916
1684179343195410400,3.644810791015625,0.7029617427802637,-0.0773868560069896,0.32277750963131335
1684179343205450600,3.65485107421875,0.721652448041294,-0.08806705477521665,0.2418701648889
1684179343215490700,3.66489111328125,0.6714410782183187,-0.10776329041014297,0.1392724513133166
1684179343225531100,3.674931396484375,0.5974146127465534,-0.09596443177136467,0.005805492416654393
1684179343235571100,3.684971435546875,0.4874422550994795,-0.04079341898462686,-0.08699750898499635
1684179343245611400,3.69501171875,0.3873656987964272,0.024127960295006058,-0.20091128350277632
1684179343255651600,3.705052001953125,0.28401577472131034,0.04388332351576378,-0.32133650786172635
1684179343265691600,3.715092041015625,0.20000046481554992,0.07347774499912797,-0.4048385619228947
1684179343275731900,3.72513232421875,0.13135129201764612,0.06985855106299675,-0.5537660121365122
1684179343285772000,3.73517236328125,0.057115018349935924,0.04745197300836499,-0.7105245590532833
1684179343295812300,3.745212646484375,-0.008278370026669807,0.0849790572257009,-0.8626112939704247
1684179343305852300,3.755252685546875,-0.03651547436963836,0.11758232103894688,-1.0520858763028165
1684179343315892400,3.765292724609375,0.00527763378556346,0.23333168025484388,-1.3063049315819837
1684179343325932600,3.7753330078125,0.009562849881624466,0.2908763885732966,-1.5163984299157047
1684179343335972800,3.785373291015625,0.012335538738479533,0.3189201355412266,-1.5983674526801739
1684179343346013100,3.79541357421875,-0.017872750912282968,0.396249771161856,-1.5832886694111188
1684179343356053200,3.80545361328125,-0.021899402055833867,0.4484796524495892,-1.4418411255353567
1684179343366093200,3.81549365234375,-0.004623174502448371,0.4782590865964203,-0.9651401043569613
1684179343376133600,3.825533935546875,0.05121994010641672,0.46469688421146077,-0.47636175150127635
1684179343386173600,3.835573974609375,0.1483429671964437,0.41311740883256526,-0.06102013589257468
1684179343396213900,3.8456142578125,0.21751266721190826,0.23259353646661246,0.03650903701754224
1684179343406254000,3.855654296875,0.2531235815746966,0.018458366451069175,0.0316858290582559
1684179343416294100,3.865694580078125,0.3351111411751009,-0.10248184201857662,0.21495580668889708
1684179343426334400,3.87573486328125,0.33221048112841023,-0.1825609207812606,0.3665761947620867
1684179343436374400,3.88577490234375,0.3266459704773797,-0.26951122281921264,0.40506803981764017
1684179343446414800,3.895815185546875,0.30167549865298254,-0.306094169506929,0.43378555770693394
1684179343456454800,3.905855224609375,0.2575590610353574,-0.254038810710008,0.5976082087546561
1684179343466494900,3.915895263671875,0.20926004637748444,-0.24473381047768666,0.7522704600096314
1684179343476535200,3.925935546875,0.18763861044287924,-0.2184085845149766,0.8167389631090807
1684179343486575300,3.9359755859375,0.17110475887340595,-0.18946075443620394,0.8701763152912347
1684179343496615600,3.94601611328125,0.17601141340723012,-0.15072059634077337,0.953065753007503
1684179343506655600,3.95605615234375,0.1569570303930992,-0.10219669341175645,0.9387055635849588
1684179343516696000,3.966096435546875,0.1385014355838614,-0.14421558382155067,0.8872041702900652
1684179343526736000,3.976136474609375,0.13514760140554552,-0.16908836356216206,0.7174886466300708
1684179343536776100,3.986176513671875,0.15414679050977154,-0.13153171550499773,0.5041055679396883
1684179343546816400,3.996216796875,0.17851129178933656,-0.1369171142805656,0.2739973068657673
1684179343556856600,4.0062568359375,0.21296718726641567,-0.10404682161615042,0.10408353811004492
1684179343566896800,4.016297119140625,0.2288505137191662,-0.08323574060096665,-0.08428955081196889
1684179343576936900,4.026337158203125,0.2312586008650572,-0.04346561431542414,-0.22151589378400974
1684179343586977200,4.036377685546875,0.20845302943092653,0.02946090688467891,-0.29777026176207244
1684179343597017300,4.046417724609375,0.244201302576052,0.12113952636360985,-0.34666895878032233
1684179343607057300,4.056457763671875,0.21436992288856216,0.11450386056750134,-0.363478183767446
1684179343617097600,4.066498046875,0.2146701514439191,0.1411714552913465,-0.3412466048949539
1684179343627137600,4.0765380859375,0.21381613627857265,0.09600734723491314,-0.3113114833116635
1684179343637178000,4.086578369140625,0.24018618472470687,0.036470413134695935,-0.2282156944428639
1684179343647218100,4.096618408203125,0.24817311771069214,-0.011109351966933839,-0.14719414696946437
1684179343657258200,4.106658447265625,0.2714051903278461,-0.006166458134748519,-0.11838054667120454
1684179343667298600,4.116698974609375,0.28129065035894324,-0.003707885771703253,-0.08456873896348746
1684179343677338600,4.126739013671875,0.3401049375922987,0.0010852815174460268,-0.0865628718881255
1684179343687378900,4.136779296875,0.406984806074771,0.024905204862666574,-0.062137603744173875
1684179343697418900,4.1468193359375,0.4812567234912473,0.029489517067826827,-0.06874608989721391
1684179343707459200,4.156859619140625,0.5482779740334711,0.03160667417772683,-0.0753202438337452
1684179343717499300,4.166899658203125,0.6028908492079734,0.02646827687219044,-0.07940101633184399
1684179343727539400,4.176939697265625,0.6377454995454519,0.0021495819177799968,-0.04755902290559098
1684179343737579600,4.18697998046875,0.6362923383561244,-0.03411865231283158,-0.03487086306972239
1684179343747619800,4.197020263671875,0.6133369802729127,-0.03931522371952042,0.011253595282668649
1684179343757660100,4.207060546875,0.5743055939095948,-0.19027709952772198,0.08135604862994467
1684179343767700100,4.2171005859375,0.5203725694611154,-0.2574605941039807,0.18050444121796752
1684179343777740200,4.227140625,0.4705843033045458,-0.1955747603802788,0.28169918047532877
1684179343787780600,4.237180908203125,0.515967369153539,-0.12194347363063998,0.31065356731588917
1684179343797820600,4.247220947265625,0.5164169670353547,-0.18443202969971653,0.25203120716266963
1684179343807860900,4.25726123046875,0.5312926172846375,-0.17019939411151433,0.2416222095659899
1684179343817901000,4.26730126953125,0.5184777974935726,-0.009634971633386958,0.15269219865964345
1684179343827941000,4.277341552734375,0.5289593934568078,0.20483398431179234,-0.13560462001316276
1684179343837981400,4.2873818359375,0.4815464616531079,0.31679534917625957,-0.1056766510220767
1684179343848021400,4.297421875,0.36808183775470266,0.2692279816240336,-0.11634683613712266
1684179343858061700,4.307462158203125,0.27709263570088416,0.12348937993319704,-0.298215389267092
1684179343868101800,4.317502197265625,0.21368640674573602,0.015351295455406944,-0.2553515433663898
1684179343878142100,4.32754248046875,0.12841223163062604,-0.02044868474023176,-0.16869664195774509
1684179343888182200,4.33758251953125,0.15255205333061986,-0.11960697187254572,-0.17448639873650823
1684179343898222300,4.34762255859375,0.21826100346391406,-0.12811946870602225,-0.05208301550062392
1684179343908262600,4.3576630859375,0.3194468319830475,-0.09212207791169127,0.10167431831763103
1684179343918302600,4.367703125,0.44749280808711245,0.018301963668957793,0.22487270833519185
1684179343928343000,4.377743408203125,0.5604333283242156,0.004260063170975925,0.2895214557095774
1684179343938383000,4.387783447265625,0.6756551266429051,0.09875202175683677,0.31483745573520705
1684179343948423300,4.39782373046875,0.7915109991160431,0.19875621799402354,0.18650746350038744
1684179343958463400,4.40786376953125,0.8949086666293147,0.23123836532905656,0.11454248422545178
1684179343968503600,4.417904052734375,0.9853810071786178,0.18320751188273304,-0.024101257335311977
1684179343978543800,4.427944091796875,1.0163242817269795,0.16431522375795718,-0.11529588698756325
1684179343988583900,4.437984375,1.0539348124387788,0.17441177370736868,-0.07930660237247812
1684179343998624200,4.448024658203125,0.9865832924733314,0.13992309566722655,-0.30653786667637783
1684179344008664200,4.458064697265625,0.9152206780254096,0.1480064392188312,-0.42703771593151796
1684179344018704600,4.46810498046875,0.8867454528967018,-0.09890842432482737,-0.3880293369046353
1684179344028744600,4.47814501953125,0.8869428634520599,-0.17968750014037987,-0.3210673332874738
1684179344038784600,4.48818505859375,0.9837214947732461,-0.2194728850360332,-0.3329365252585763
1684179344048825000,4.498225341796875,1.0467636584419902,-0.1618175506061513,-0.16109299656351653
1684179344058865100,4.508265380859375,1.0335990190901312,-0.08101463331034801,-0.09237265601182626
1684179344068905400,4.518305908203125,1.0672841073269472,-0.06032371509231208,-0.14167928694911006
1684179344078945500,4.528345947265625,1.0940940380444009,0.009378433282692892,-0.04230546956352702
1684179344088985600,4.538385986328125,1.1191302538728498,0.1062030792417431,0.02691316588250718
1684179344099025800,4.54842626953125,1.1127564906859135,0.2651166916625696,0.12311172473934859
1684179344109065900,4.55846630859375,1.0673089026174862,0.42860317226451566,0.1332708597765858
1684179344119106200,4.568506591796875,0.9637936948868931,0.5636768340720497,0.03550958640101007
1684179344129146300,4.578546630859375,0.7818998695288599,0.6518945693982764,-0.09956407547681186
1684179344139186600,4.5885869140625,0.4531374573785352,0.6609106064539225,-0.25904941561419553
1684179344149226600,4.598626953125,0.000995993480882514,0.5941982268829088,-0.4401350019443942
1684179344159267000,4.60866748046875,-0.5165334343636856,0.4995889662840283,-0.6207635402751834
1684179344169307100,4.61870751953125,-1.008361339587772,0.4873533249648546,-0.7714593410483436
1684179344179347100,4.62874755859375,-1.2525725365836933,0.3350706100770478,-0.6765589713420486
1684179344189387400,4.638787841796875,-1.242571949998835,0.2254657744077313,-0.5082273482915117
1684179344199427600,4.648827880859375,-1.000902652688447,0.1685247421081038,-0.33039927470775365
1684179344209467800,4.6588681640625,-0.6643717289270054,0.16211128236549163,-0.09497261052545224
1684179344219507900,4.668908203125,-0.4030771256284128,0.19152832031754397,-0.006049156125657702
1684179344229548200,4.678948486328125,-0.35168623920446057,0.20372867583144186,-0.02085065844217945
1684179344239588300,4.68898876953125,-0.43945384022098083,0.2658128737293322,-0.059764146735526484
1684179344249628300,4.69902880859375,-0.583953976758623,0.2658052443691371,-0.062443256267069105
1684179344259668600,4.709069091796875,-0.6234519482088918,0.3161430358531608,-0.11820411675894871
1684179344269708600,4.719109130859375,-0.48078262802848243,0.2853126525939944,-0.11016201980521712
1684179344279749000,4.7291494140625,-0.2354282141259412,0.2477331162933846,-0.04135680202247186
1684179344289789100,4.739189453125,-0.010498046980623066,0.18930625931809128,0.08084702477570653
1684179344299829200,4.7492294921875,0.06943225857674612,0.04569149028155612,0.16327023498811766
1684179344309869600,4.759269775390625,-0.039855480231512024,-0.09455490100549756,0.21516895313092005
1684179344319909600,4.76931005859375,-0.3237262964167443,-0.2770118712823654,0.19778728488018862
1684179344329949900,4.779350341796875,-0.7521960735455068,-0.5018520353881404,0.13412380208413366
1684179344339989900,4.789390380859375,-1.1978513002461806,-0.6258068084182462,0.0037639142741577544
1684179344350030300,4.7994306640625,-1.6255540846932652,-0.7255945204929011,-0.21321392071774298
1684179344360070300,4.809470703125,-2.044481277459392,-0.8826436996358407,-0.48759078978378373
1684179344370110400,4.8195107421875,-2.272362947494068,-0.9294548034504313,-0.6112694740179381
1684179344380150600,4.829551025390625,-2.2462005616381084,-0.906153678803318,-0.4445295332329753
1684179344390190800,4.839591064453125,-2.1004836560504856,-0.8269262314403011,-0.06640362731896512
1684179344400231100,4.849631591796875,-1.9544146059705396,-0.6112985610696737,0.2763315438617541
1684179344410271200,4.859671630859375,-1.7867537734978018,-0.4416379927249544,0.5915740729550643
1684179344420311600,4.8697119140625,-1.517169237239973,-0.3825922012911913,0.7838143109044249
1684179344430351600,4.879751953125,-1.1578873395954195,-0.3503026962795475,0.8891501425998116
1684179344440391900,4.889792236328125,-0.7772303818206133,-0.272983550894035,0.8964592217998406
1684179344450431900,4.899832275390625,-0.4964488744208127,-0.15754127499378792,0.8106486796441557
1684179344460472000,4.909872314453125,-0.31000602242561237,-0.02511692059823935,0.696122169470128
1684179344470512300,4.91991259765625,-0.24000155928817146,0.09587955477737249,0.5190684794824336
1684179344480552400,4.929952880859375,-0.2509927750292795,0.20088767993228404,0.4036643503821294
1684179344490592600,4.9399931640625,-0.29521298408454844,0.2776975631267592,0.2654004097939768
1684179344500632800,4.950033203125,-0.39836025255013857,0.39498329158691986,0.19282698630993106
1684179344510672800,4.9600732421875,-0.559065580458707,0.3572864532907081,0.318802356689417
1684179344520713100,4.970113525390625,-0.6823509932751955,0.3133859634656595,0.4010267258504849
1684179344530753200,4.980153564453125,-0.7529927492553388,0.24878120414976204,0.4299590587735494
1684179344540793600,4.99019384765625,-0.8369848728346313,0.20129013060347595,0.46886515622264896
1684179344550833600,5.00023388671875,-0.8599091768622543,0.08709716810362235,0.5230004787180166
1684179344560873900,5.0102744140625,-0.7914565802783862,-0.055471420413874074,0.476034879797631
1684179344570914000,5.020314453125,-0.7262036799338721,-0.1833229065116538,0.3984326123437038
1684179344580954300,5.030354736328125,-0.7128726244441732,-0.2891864776558097,0.3382767439441783
1684179344590994400,5.040394775390625,-0.6486866473640248,-0.34193515783089634,0.17315113544916244
1684179344601034400,5.050434814453125,-0.5588507652731651,-0.3201532365004825,0.04994451999031249
1684179344611074700,5.06047509765625,-0.37702071672833204,-0.23843288423920345,-0.1308871507832635
1684179344621114800,5.07051513671875,-0.23257124431058143,-0.030711174026218153,-0.2799028159358436
1684179344631155100,5.080555419921875,-0.053297758052158355,0.13264465325706243,-0.41199314592777286
1684179344641195200,5.090595703125,0.14560079569795878,0.24915981302545792,-0.6114040611968856
1684179344651235600,5.100635986328125,0.19276690487185683,0.24500179303835987,-0.5852041243305138
1684179344661275600,5.110676025390625,0.21721434604436143,0.21626281745925252,-0.6046637296381091
1684179344671315600,5.120716064453125,0.10360038284673899,0.1732616423634218,-0.39518904700479346
1684179344681356000,5.13075634765625,-0.2905740738723597,0.10260295853904111,-0.14371204385583725
1684179344691396000,5.14079638671875,-0.7541439534232259,0.04776477821479519,0.08509397502029824
1684179344701436300,5.150836669921875,-1.1171777248350612,0.018178939796151088,0.21723592284866255
1684179344711476400,5.160876708984375,-1.410756349637482,-0.08938980101325694,0.3145447970775599
1684179344721516600,5.170917236328125,-1.4437557457942025,-0.09411048892477936,0.1420204640035798
1684179344731556800,5.180957275390625,-1.1465445756048556,0.04624176025899532,-0.06193149076664008
1684179344741597100,5.19099755859375,-0.6895601748255431,0.14032077803216822,-0.29997777932974456
1684179344751637200,5.20103759765625,-0.2505935431355502,0.2172946931497427,-0.4229121206800796
1684179344761677200,5.21107763671875,0.1239745617410828,0.21805477139318158,-0.44456458092749745
1684179344771717600,5.221117919921875,0.41281974307244257,0.20332813278385994,-0.3809885979401503
1684179344781757600,5.231157958984375,0.42568504816406305,0.12418460831540862,0.1120853424675164
1684179344791797900,5.2411982421875,0.2211672067654155,-0.04456996909173962,0.7886476515536253
1684179344801838000,5.25123828125,-0.12648713589796806,-0.22875213630014213,1.4466115236667518
1684179344811878300,5.26127880859375,-0.5025488137467155,-0.26283264159529596,1.8233797549301383
1684179344821918400,5.27131884765625,-0.8596808910617081,-0.09726524347659905,1.8688796759142514
1684179344831958400,5.28135888671875,-0.8850859402596543,0.4370222091756297,0.9435057044871785
1684179344841998800,5.291399169921875,-0.7250567674086535,0.9647989273991235,-0.6312799454369364
1684179344852038800,5.301439208984375,-0.15287518502283107,1.142847061180343,-1.2618749142191283
1684179344862079200,5.3114794921875,0.5212934018280332,1.1557664871113262,-1.3816004992374395
1684179344872119200,5.32151953125,1.0251116752753782,1.0655632018066528,-1.3554414510795938
1684179344882159600,5.331559814453125,1.2134473323829604,0.9216108321945631,-1.2582191228203883
1684179344892199600,5.34160009765625,1.1518142224547412,0.7487936021482096,-1.048105359199311
1684179344902239900,5.351640380859375,1.0284457206819213,0.580665588261968,-0.7617440224270624
1684179344912280000,5.361680419921875,0.9299056530693873,0.4882926939473041,-0.4116622210328097
1684179344922320000,5.371720458984375,0.8473668098510813,0.3971519471054795,-0.137963294992135
1684179344932360400,5.3817607421875,0.7068336010958891,0.30232238781123316,0.12240427730193623
1684179344942400400,5.39180078125,0.49506759649439885,0.24177074449768274,0.2550210953403245
1684179344952440800,5.401841064453125,0.21207332605931611,0.21971130369642575,0.2794275879836223
1684179344962480800,5.411881103515625,-0.1368149519976318,0.20446491238361705,0.2054660916275546
1684179344972521100,5.421921630859375,-0.6200193167531406,0.17876720426383252,0.12402009970645927
1684179344982561200,5.431961669921875,-1.0460731982357963,0.17563247687553477,-0.033757328985900656
1684179344992601300,5.442001708984375,-1.375775456510076,0.18041515355218227,-0.09711384771086155
1684179345002641600,5.4520419921875,-1.6167778970012312,0.2264719010869574,-0.20354223255224865
1684179345012681600,5.46208203125,-1.7505271435954204,0.25391960142697084,-0.3277585506272486
1684179345022722000,5.472122314453125,-1.831961512555926,0.2576189041576573,-0.4346131087937953
1684179345032762000,5.482162353515625,-1.7171058655482494,0.2901382447814446,-0.48262751115609775
1684179345042802400,5.49220263671875,-1.265044093201353,0.3209934234939486,-0.555074214986067
1684179345052842400,5.502242919921875,-0.848605632867095,0.3699436188953294,-0.618054747587088
1684179345062882700,5.512283203125,-0.5842717886108657,0.4566011427108838,-0.6687995195295499
1684179345072922800,5.5223232421875,-0.42420136913127393,0.6193771362214674,-0.7260839939968909
1684179345082962900,5.53236328125,-0.30371940141029413,0.851023673961784,-0.852690458158967
1684179345093003200,5.542403564453125,-0.25864577288895924,1.1130657195894584,-0.9401190281526784
1684179345103043200,5.552443603515625,-0.33718907842003853,1.2979068755707592,-0.9395129681358138
1684179345113083600,5.56248388671875,-0.4917980434107927,1.3245096207121736,-0.8908731938932187
1684179345123123600,5.57252392578125,-0.747824788208434,1.178679466146477,-0.8677747249196499
1684179345133164000,5.582564453125,-0.9335696696489159,0.9559469223734407,-0.8629363776482948
1684179345143204000,5.5926044921875,-1.0213407278151994,0.6777162552077391,-0.7789804934619521
1684179345153244100,5.60264453125,-1.0261974334939754,0.38732242589415355,-0.7078409193990576
1684179345163284400,5.612684814453125,-0.9819263220425551,0.17378139497472955,-0.5476148127507143
1684179345173324500,5.622724853515625,-0.8776127099985854,0.05428886406163771,-0.336757540816896
1684179345183364800,5.63276513671875,-0.7067196368495686,-0.07827663419843918,-0.0394896269502798
1684179345193404800,5.64280517578125,-0.5705995559646705,-0.0970554350729107,0.1787891388428769
1684179345203445200,5.652845458984375,-0.48939287655754565,-0.08366394044243355,0.4155081510934566
1684179345213485200,5.6628857421875,-0.35727071749635003,-0.024309158334957174,0.6793276071475296
1684179345223525600,5.672926025390625,-0.24992620943095728,-0.10571098325419269,0.877953886961447
1684179345233565600,5.682966064453125,-0.16757667050090988,-0.4135656357570469,1.0674648285565873
1684179345243605600,5.693006103515625,-0.05740380280557757,-0.4621887207786134,1.3539744616947391
1684179345253646000,5.70304638671875,0.024761795956724605,-0.3016929626579247,1.5418758391423162
1684179345263686100,5.71308642578125,0.11043381698580247,-0.14663219441427294,1.753735184763513
1684179345273726400,5.723126708984375,0.11814832684943091,-0.05129241959315119,1.7672177553704966
1684179345283766400,5.733166748046875,0.026656270059234828,-0.3283109664553135,1.3959271908826822
1684179345293806800,5.743207275390625,-0.030097246308050767,-0.9102230072114366,0.8614211083892457
1684179345303846800,5.753247314453125,-0.13070821770248442,-1.4573516845158103,0.5483064651079644
1684179345313887200,5.76328759765625,-0.40228247645639637,-1.5117416381786446,0.27642595751737115
1684179345323927200,5.77332763671875,-0.8357177972046164,-1.2807435988818459,0.058868646648624276
1684179345333967600,5.783367919921875,-1.2864753007566752,-1.2909784317247188,-0.16027116773404976
1684179345344007600,5.793407958984375,-1.7440327406234806,-1.7523279188601901,-0.44444012639816294
1684179345354047600,5.803447998046875,-2.789944410368876,-2.3083801269516555,-0.6270871161831686
1684179345364088000,5.81348828125,-4.513724327109098,-2.7141056061927498,-0.4152772426330477
1684179345374128000,5.823528564453125,-5.188809394893743,-2.3738880158180997,0.28315520285457335
1684179345384168400,5.83356884765625,-3.8368601799946567,-1.442391395454703,1.1010893583856145
1684179345394208400,5.84360888671875,-1.6652461290515999,-0.5747766495243339,1.6312797068768883
1684179345404248800,5.853649169921875,0.24253177641504048,0.007918357875860189,1.990298152109811
1684179345414288800,5.863689208984375,1.4587740898499761,0.3405342103044844,1.910973787162565
1684179345424329100,5.8737294921875,2.0075373648832078,0.6575202942838191,1.3350932597920155
1684179345434369200,5.88376953125,1.9484238624173538,0.7461690902497481,0.3002206086801732
1684179345444409600,5.893809814453125,1.7135658264833191,0.7194089888996371,-0.6332402228970334
1684179345454449600,5.90385009765625,1.3585865497529914,0.7311382293152358,-1.2920308115021844
1684179345464489600,5.91389013671875,0.9180235861365597,0.8686027527693301,-1.5278935432722252
1684179345474530000,5.923930419921875,0.47043216211795447,0.8531637191082596,-1.5281500816034304
1684179345484570000,5.933970458984375,0.1300328969538839,0.8254489899038755,-1.5297236442216706
1684179345494610400,5.9440107421875,-0.033107638288028374,0.8379297257389103,-1.596844673142422
1684179345504650400,5.95405078125,0.058240056131581966,0.7843265534452372,-1.3729386330011264
1684179345514690700,5.964091064453125,0.4025593399917594,0.681798935004802,-1.008534908363101
1684179345524730800,5.974131103515625,0.9584267140560274,0.5401391983111018,-0.7167558669534382
1684179345534770900,5.984171142578125,1.4408429860262915,0.488615036128735,-0.48371171945459246
1684179345544811200,5.994211669921875,1.8660460709455846,0.3293695448345196,-0.449802398791817
1684179345554851200,6.004251708984375,2.131402015660865,0.18688964845853606,-0.5657832621616918
1684179345564891600,6.0142919921875,2.2287671567006013,0.04220294951226102,-0.6729245186612277
1684179345574931600,6.02433203125,2.135249614628298,-0.03742885593977358,-0.6543986797094048
1684179345584972000,6.034372314453125,1.9921245575641267,0.07392024992741372,-0.6839034558438191
1684179345595012000,6.044412353515625,1.7849822044683705,0.09505462660842266,-0.43220829963103385
1684179345605052100,6.054452392578125,1.4696736336399074,0.1851129530776059,-0.32063245783712524
1684179345615092400,6.064492919921875,0.9913821220650791,0.22676372521825736,-0.5043237208009415
1684179345625132600,6.074533203125,0.33036571743595544,0.2334766388742795,-0.7638607024975692
1684179345635172800,6.0845732421875,-0.409928530532701,0.3642721175380368,-1.1170301438068366
1684179345645212800,6.09461328125,-1.1171948910937903,0.49879550928188043,-1.3325181006031488
1684179345655253200,6.104653564453125,-1.6644673347261045,0.5388584136529245,-1.5301415920306611
1684179345665293200,6.114693603515625,-1.8206735849841733,0.5634555816954686,-1.6022531986215816
1684179345675333600,6.12473388671875,-1.5123294592605832,0.5941867827599137,-1.4972395897973838
1684179345685373600,6.13477392578125,-0.847587883376521,0.5570707319345232,-1.3654615877595038
1684179345695413900,6.144814453125,-0.08180530358983865,0.3926630020711964,-1.207262515908743
1684179345705454000,6.1548544921875,0.5807529092724214,0.17786025994429988,-1.008896827606943
1684179345715494300,6.164894775390625,1.1062272787661616,-0.0057992936604528405,-0.7090137003021724
1684179345725534400,6.174934814453125,1.4531700609759126,-0.15088176728706143,-0.3735599518542465
1684179345735574600,6.18497509765625,1.6803605557329422,-0.20701217653089243,-0.10894536975565366
1684179345745614800,6.19501513671875,1.8176382779659974,-0.18141841874145306,0.0533409119570767
1684179345755655100,6.205055419921875,1.9320507050935787,-0.17935562140195985,0.09913778313006588
1684179345765695200,6.215095458984375,2.012862205380585,-0.231908798188159,0.11755037317231574
1684179345775735200,6.225135498046875,2.091373205185162,-0.23382186891377224,0.17540216442990833
1684179345785775600,6.235176025390625,2.094192266455235,-0.254369735727019,0.22914171208781006
1684179345795815600,6.245216064453125,2.003746509703812,-0.3316335678791722,0.18749999996576552
1684179345805855900,6.25525634765625,1.7654045820405282,-0.37708759307360007,0.18874120713164044
1684179345815896000,6.26529638671875,1.4779343605906852,-0.29294967655984877,0.15843415253123488
1684179345825936300,6.275336669921875,1.0620324610162142,-0.1727323531487345,0.022333622093544583
1684179345835976400,6.285376708984375,0.6151132584829806,-0.050165176396414865,-0.19724774353573762
1684179345846016600,6.2954169921875,0.17610062666742135,0.0648565291842828,-0.45790338512641326
1684179345856056800,6.30545703125,-0.1876843571863722,0.17462348931871488,-0.6484491824900329
1684179345866097100,6.31549755859375,-0.47969800217907943,0.20996475216633434,-0.8590874672257413
1684179345876137100,6.32553759765625,-0.6388887762904721,0.23065567025383962,-1.0551176071896222
1684179345886177200,6.33557763671875,-0.6546492576390727,0.29148483287427557,-1.1806492805900335
1684179345896217600,6.345617919921875,-0.5252888201991434,0.28248214710650427,-1.169126272255453
1684179345906257600,6.355657958984375,-0.2879469395522944,0.2705955505160783,-1.0830411910176376
1684179345916297900,6.3656982421875,-0.05976015335750429,0.23898887617328496,-0.8889729975494857
1684179345926338000,6.37573828125,0.18702796101200564,0.19265079509958696,-0.6405520437882203
1684179345936378300,6.38577880859375,0.3750163614278753,0.15795421609551794,-0.4553689957491118
1684179345946418400,6.39581884765625,0.5651657580205774,0.1516551971620306,-0.3003015516936679
1684179345956458600,6.405859130859375,0.7390030622363594,0.1378850936866904,-0.2042596340673941
1684179345966498700,6.415899169921875,0.8331214190125663,0.14298820511819674,-0.09586119648722057
1684179345976538800,6.425939208984375,0.9230709076401684,0.12397861480847408,-0.030373334798093538
1684179345986579100,6.4359794921875,0.9536455869085861,0.08808803574016619,0.03045964235159619
1684179345996619200,6.44601953125,0.9516658782687302,0.06409263602072887,-0.0043914317990649465
1684179346006659600,6.456059814453125,0.8866999148486672,0.03523921976557345,-0.015217542712906458
1684179346016699600,6.466099853515625,0.7930179833849345,0.05638408667969736,-0.03513622284106761
1684179346026739900,6.476140380859375,0.709483742748618,0.017518997187398116,-0.04486966134411313
1684179346036780000,6.486180419921875,0.5891254545541775,-0.023776054402661055,-0.011370182079447243
1684179346046820300,6.496220703125,0.4805841744840179,-0.06979751586659783,0.024410009321292503
1684179346056860300,6.5062607421875,0.3729379176097806,-0.14200496681663946,0.041069269040172635
1684179346066900600,6.516301025390625,0.26474380485727345,-0.19244289400210443,0.05505704866325339
1684179346076940600,6.526341064453125,0.19988512990521498,-0.2592935562842504,0.11401724828692361
1684179346086980800,6.536381103515625,0.15708404772021828,-0.29467201223293377,0.14836478226099398
1684179346097021100,6.54642138671875,0.1408322452350213,-0.2819709776855288,0.17499852177868674
1684179346107061400,6.5564619140625,0.12417814144297101,-0.23572731021720858,0.19179868701328107
1684179346117101600,6.566501953125,0.12833973761596398,-0.191870689389504,0.21078228967026544
1684179346127141800,6.576542236328125,0.10508593911200799,-0.18400001529227672,0.2372982502627986
1684179346137181900,6.586582275390625,0.11693352451694544,-0.19056797035478992,0.30257654192908146
1684179346147221900,6.596622314453125,0.13560974608747758,-0.14940834046632262,0.4136130808148463
1684179346157262300,6.60666259765625,0.2062469125530743,-0.09167003631045234,0.50092434884762
1684179346167302300,6.61670263671875,0.25402599577609913,-0.05804538734991984,0.581369161617945
1684179346177342600,6.626742919921875,0.3212245403584525,-0.05571651450675573,0.6598634719194217
1684179346187382600,6.636783203125,0.3786473275829135,-0.04883766175184323,0.7102622985107976
1684179346197423000,6.646823486328125,0.4379031955185374,-0.056540489296036,0.727848887405815
1684179346207463100,6.656863525390625,0.5016494989335499,-0.07409286512271084,0.7249703407565287
1684179346217503400,6.66690380859375,0.5318245887464502,-0.10389041910105927,0.627783417658967
1684179346227543600,6.67694384765625,0.5783705711387263,-0.1625852585430453,0.5676693916409091
1684179346237583800,6.686984130859375,0.5950642824914647,-0.22381877897883987,0.4249291418673498
1684179346247623900,6.697024169921875,0.6082202196517358,-0.24957656864038025,0.2219557763342736
1684179346257663900,6.707064208984375,0.5780011415910005,-0.23736763011686332,0.1589105129750797
1684179346267704200,6.717104736328125,0.58360421661594,-0.15127277379775222,0.007925987233530211
1684179346277744300,6.727144775390625,0.5655751227153961,-0.03218173986113206,-0.029767513446129143
1684179346287784600,6.73718505859375,0.5476555227413968,0.01014614114791887,-0.003221511856832187
1684179346297824600,6.74722509765625,0.5287137030218164,0.011864662357717728,-0.09521222107596075
1684179346307865000,6.757265380859375,0.5154321193491244,-0.005362510732672327,-0.13834786415607614
1684179346317905100,6.767305419921875,0.5163462162382302,-0.08143901821859295,-0.1894025803699062
1684179346327945400,6.777345703125,0.4878079295330193,-0.13779735552132677,-0.2527861594061092
1684179346337985500,6.7873857421875,0.4578830300339553,-0.08773136150187305,-0.22698044794296338
1684179346348025800,6.79742626953125,0.38725888730175173,-0.0272178650965826,-0.23804712287814583
1684179346358065800,6.80746630859375,0.30164554729185783,0.08833885194475813,-0.18408679951611698
1684179346368106200,6.817506591796875,0.2186487018297141,0.1474294662897336,-0.12275004392455144
1684179346378146200,6.827546630859375,0.1724038719954553,0.03071880343559131,-0.008600473524842554
1684179346388186600,6.8375869140625,0.1802841425236618,-0.22589015958892042,0.1905798911850476
1684179346398226600,6.847626953125,0.2355438470724683,-0.3536434172592757,0.4746162891682269
1684179346408266600,6.8576669921875,0.33752772215907406,-0.3895540237761948,0.7465350628175629
1684179346418307000,6.867707275390625,0.47781538967425,-0.4101953506565241,0.9490482805593963
1684179346428347100,6.87774755859375,0.5885162354291443,-0.38278198252946827,1.0381510259061884
1684179346438387400,6.887787841796875,0.7366150618647863,-0.39775943765963434,1.0655077695919317
1684179346448427400,6.897827880859375,0.8491297960145745,-0.45926189423516905,0.9899995326952257
1684179346458467800,6.9078681640625,0.9625657796070058,-0.46066284163550064,0.9923479555930493
1684179346468507800,6.917908203125,0.9863221645184637,-0.5135755540442078,0.9298450946414234
1684179346478548100,6.927948486328125,0.9594910145545769,-0.3985271453648461,0.7928187848004328
1684179346488588200,6.937988525390625,0.8783582449311446,-0.23865795138369134,0.6846158504358192
1684179346498628600,6.94802880859375,0.7345325351070199,-0.20120525363699945,0.6168851852448205
1684179346508668600,6.958069091796875,0.554350197316906,-0.17074871050333026,0.4912486075089679
1684179346518708900,6.968109375,0.4142090679561927,-0.2014446257095088,0.2997059821285932
1684179346528749000,6.9781494140625,0.2986630200619922,-0.3183507919036562,0.06998634339760691
1684179346538789300,6.988189697265625,0.13852086666038751,-0.28197097784858405,0.07986855493265575
1684179346548829400,6.998229736328125,0.07258558270302881,-0.26649475096420666,-0.054156065001650204
1684179346558869400,7.008269775390625,-0.03907668604482645,-0.20090770721749693,-0.20497417459677425
1684179346568909700,7.01831005859375,-0.17210116995400457,-0.10468482962319094,-0.33286952983619394
1684179346578949800,7.02835009765625,-0.36087214933798095,-0.053853988608188456,-0.48711609856261867
1684179346588990100,7.038390625,-0.5001165868278483,-0.004192352270112734,-0.717719554827051
1684179346599030200,7.0484306640625,-0.6743754745009496,-0.03712272631125376,-0.8039875030617442
1684179346609070600,7.058470947265625,-0.7747888565189608,-0.17578601830906262,-0.7301957607702515
1684179346619110600,7.068510986328125,-0.8203837275904698,-0.27136611933582605,-0.6822674275476767
1684179346629150900,7.07855126953125,-0.8149067759953023,-0.3239364624077297,-0.6868093014942871
1684179346639191000,7.08859130859375,-0.821888148768534,-0.3885459898951434,-0.7534694671629092
1684179346649231300,7.098631591796875,-0.674166202641462,-0.4297895431577332,-0.694740295529879
1684179346659271300,7.108671630859375,-0.4407270847396996,-0.4810218811237004,-0.6262042522644908
1684179346669311600,7.118712158203125,-0.19007048019217446,-0.5542631149045926,-0.6671955583894557
1684179346679351600,7.128752197265625,0.02913762627874113,-0.6423759461555156,-0.8339109420763521
1684179346689392000,7.13879248046875,0.19184914231725178,-0.5560274124467426,-0.9054353236028759
1684179346699432100,7.14883251953125,0.22233381865284876,-0.5076236725963142,-1.1745531558920204
1684179346709472400,7.158872802734375,0.1382607816811295,-0.3658027647266809,-1.3991537093187905
1684179346719512600,7.168912841796875,-0.0563278494787544,-0.15767860404333933,-1.7495622635178532
1684179346729552600,7.178952880859375,-0.26312756518881925,0.05406761186624484,-2.016412258240649
1684179346739592900,7.1889931640625,-0.4513146878649865,0.34840965267091323,-1.9972758294526773
1684179346749633200,7.19903369140625,-0.6548174024509865,0.4550180435457787,-2.117060899739179
1684179346759673300,7.20907373046875,-0.8948032260890375,0.7843198775608341,-2.172630548437106
1684179346769713600,7.219114013671875,-1.1781880855321774,1.0035200119476846,-1.9512822627382223
1684179346779753600,7.229154052734375,-1.5030484199192673,1.0052070617533708,-1.8886392117655777
1684179346789793600,7.239194091796875,-1.6819384097540513,0.8604726791491072,-1.801360607205799
1684179346799834000,7.249234375,-1.6151351929232918,0.8076877593006869,-1.58630299572423
1684179346809874100,7.2592744140625,-1.3599486350118883,0.7211866378116814,-1.0447664260063352
1684179346819914400,7.269314697265625,-1.1244659425028376,0.5796413423357306,-0.8164033890446204
1684179346829954600,7.27935498046875,-0.8456046582347904,0.44060039525243305,-0.4261403082234861
1684179346839994800,7.289395263671875,-0.44932842257032357,0.28114223472680794,0.009012460809859043
1684179346850034900,7.299435302734375,0.002803921763167956,0.06860446936230712,0.10897755624828989
1684179346860075200,7.3094755859375,0.3712061048728896,0.1640014647903757,0.34396386140140034
1684179346870115200,7.319515625,0.5731357335551502,0.6826143264312173,0.8746473788704635
1684179346880155600,7.329555908203125,0.8237876891077436,0.19161796574784637,0.9615252017468384
1684179346890195600,7.339595947265625,0.9940729736453433,-0.2538394929440707,0.8035852908930083
1684179346900236000,7.34963623046875,0.9389165043930667,-0.5511445998944207,0.6645421981707763
1684179346910276000,7.359676513671875,0.7561734914398467,-0.8698978424923999,0.5171115397220006
1684179346920316300,7.369716796875,0.42497229590378427,-0.6633348464822204,0.42775297152516173
1684179346930356400,7.3797568359375,0.08511233341602752,-0.04532432549277187,0.4602484703979258
1684179346940396500,7.389796875,-0.206325173330037,0.48606872551970376,0.7108881473510369
1684179346950436800,7.399837158203125,-0.2672770023978954,0.8400754927593397,1.2378251551147534
1684179346960477100,7.40987744140625,-0.1296417714541723,1.0003652574355726,1.6846344471659846
1684179346970517200,7.41991748046875,0.0027866363045542103,1.238428592641043,2.2317290307399387
1684179346980557600,7.4299580078125,0.13133168222267258,1.4546518324683737,2.6351404189771594
1684179346990597600,7.439998046875,0.24314069757854492,1.416028022872332,2.9164953231051958
1684179347000637600,7.4500380859375,0.24309229859747633,1.1693277358794496,2.9993507861878084
1684179347010677900,7.460078369140625,0.17822670944467783,0.8300652504135898,2.9080576896114154
1684179347020718000,7.470118408203125,0.1028950213021478,0.29283714299820757,2.525444030743135
1684179347030758300,7.48015869140625,-0.06404185288402793,-0.048776626598128425,2.043115854387471
1684179347040798400,7.49019873046875,-0.22902870178898632,-0.23688888549110448,1.5758633614134159
1684179347050838600,7.500239013671875,-0.4056274890973167,-0.2490520477691462,1.1184926031845077
1684179347060878800,7.510279052734375,-0.5894093514714399,-0.21310424801688066,0.7600779532806118
1684179347070919100,7.520319580078125,-0.7228341102707072,0.03268146525666054,0.5406463145296059
1684179347080959200,7.530359619140625,-0.7472081185683469,0.3487443924007227,0.28822684293465667
1684179347090999500,7.54039990234375,-0.6757733822480709,0.5849285126394318,0.08133673663174691
1684179347101039600,7.55043994140625,-0.5659880639236448,0.713868141111608,0.03346562378937136
1684179347111079900,7.560480224609375,-0.5164551734059318,0.8330936430733729,0.10147190088275221
1684179347121119900,7.570520263671875,-0.6216409206311458,0.9176263810645037,0.15158247945792339
1684179347131160200,7.580560546875,-0.908474683711407,0.9190335274201671,0.1367881297841047
1684179347141200300,7.5906005859375,-1.3155078887269434,0.7486839293538301,-0.0864875317680178
1684179347151240600,7.60064111328125,-1.6682205201587406,0.6413230894793969,-0.11443090438308558
1684179347161280600,7.61068115234375,-1.916692495293065,0.5460548400984876,0.041460990818977944
1684179347171321000,7.620721435546875,-2.155615091316341,0.49634456646631875,0.25430893898188156
1684179347181361100,7.630761474609375,-2.3860719204472134,0.4902105331400862,0.5529613496552738
1684179347191401400,7.6408017578125,-2.5361046789364265,0.10213470455861358,0.5294058323603607
1684179347201441500,7.650841796875,-2.3216435908341215,-0.6130075455457106,0.28951263433419533
1684179347211481800,7.660882080078125,-1.662503480802784,-0.9712648391070953,0.2218914033365656
1684179347221521800,7.670922119140625,-0.7344701290016271,-0.9557056427137143,0.04489779476202294
1684179347231562200,7.680962646484375,0.073166131874267,-0.6735200883238519,-0.12917327879201443
1684179347241602200,7.691002685546875,0.5815930367628899,-0.3721122741867714,-0.21198654167040307
1684179347251642300,7.701042724609375,0.6321451664770675,-0.1822338104109695,-0.3633885383545503
1684179347261682600,7.7110830078125,0.3922114372871927,0.08002471919649534,-0.3758289814900855
1684179347271722600,7.721123046875,-0.1979296208806259,0.43296241756996345,-0.239708900464549
1684179347281763000,7.731163330078125,-0.8825063704097634,0.6718158721567223,-0.14764642726212
1684179347291803100,7.741203369140625,-1.1302955149891558,0.8941693305162325,-0.4495213032003006
1684179347301843400,7.751243896484375,-0.9152379034958582,1.1083364485490257,-0.8394236565809087
1684179347311883400,7.761283935546875,-0.47593355174438134,1.1137323380723916,-1.1407580375532373
1684179347321923800,7.77132421875,-0.11272573477806201,0.9928660392918496,-1.3053917883721318
1684179347331963800,7.7813642578125,0.23620224006014065,0.7610435485198456,-1.316072463934721
1684179347342004100,7.791404541015625,0.5382987261785198,0.44816684705815074,-1.2243216036064781
1684179347352044200,7.801444580078125,0.6620743275680393,0.12498283386441197,-1.0738663671873847
1684179347362084600,7.81148486328125,0.6343101261934511,0.05608749384482849,-0.6761288643156917
1684179347372124600,7.82152490234375,0.6203547717474613,0.1409111023082995,-0.2543964384948399
1684179347382164900,7.8315654296875,0.5647760628734709,0.31290721904062685,0.11329174037132958
1684179347392205000,7.84160546875,0.5650376080405001,0.5244894028401911,0.2515864372269067
1684179347402245300,7.851645751953125,0.5313161611558841,0.6159744263829083,0.28933620436561824
1684179347412285400,7.861685791015625,0.378421187216112,0.5260229110432917,0.30315756804812927
1684179347422325600,7.87172607421875,0.10281777396947435,0.31980037699010155,0.25814771649648033
1684179347432365700,7.88176611328125,-0.23574948324205358,0.08341503148383131,0.1484143734532078
1684179347442406100,7.891806396484375,-0.5588860510932456,-0.07111453996791457,0.01897382731306532
1684179347452446100,7.901846435546875,-0.77959656726932,-0.16808700558041795,-0.10638737676427752
1684179347462486400,7.911886962890625,-0.9093382357201348,-0.2268581390526382,-0.28995108601419795
1684179347472526600,7.921927001953125,-0.9383032322924612,-0.18083095552374176,-0.48596453671874057
1684179347482566800,7.93196728515625,-0.8217575548816348,-0.07804965971976152,-0.6844470500964566
1684179347492606900,7.94200732421875,-0.6754839421110945,0.08359432213183389,-0.9177563190165903
1684179347502647200,7.952047607421875,-0.5194272994509369,0.22735786432802735,-1.1392536162462115
1684179347512687300,7.962087646484375,-0.5626757145114121,0.028897285486625814,-1.4679982663199922
1684179347522727600,7.9721279296875,-0.6867778301208523,-0.15257263164620963,-1.7806470392454776
1684179347532767600,7.98216796875,-0.6054186821183095,0.2457971571945651,-1.893750905988952
1684179347542808000,7.99220849609375,-0.4716324805231495,0.7498741150760029,-1.5901567937222916
1684179347552848000,8.00224853515625,-0.35240721688277277,1.0208721160231615,-1.3106162548098683
1684179347562888400,8.012288818359375,-0.34344387055837117,0.8609495161999079,-1.2662656307933422
1684179347572928400,8.022328857421876,-0.30689930914536523,0.6265573500773484,-1.197532177078902
1684179347582968800,8.032369140625,-0.1758164166544324,0.37725639341730804,-1.0693538190130176
1684179347593008800,8.0424091796875,-0.0048074723045685094,0.2537984848005919,-0.9031062126050464
1684179347603049100,8.052449462890625,0.3637275695761883,0.15401554105041154,-0.6283974647134093
1684179347613089200,8.062489501953126,0.46440124522342296,0.008170127718436015,0.03249573700677172
1684179347623129600,8.072530029296875,0.11102509499679773,-0.037059783916130275,0.7798280715218194
1684179347633169600,8.082570068359376,-0.4087219238464306,-0.20106029509227233,1.581297516774214
1684179347643209900,8.0926103515625,-0.9453815220582817,-0.7019243240470135,2.318089008211791
1684179347653250000,8.102650390625,-1.761744379836085,-1.342658996701949,2.9193162918351327
1684179347663290300,8.112690673828125,-2.1773233412518525,-2.0333347319619626,3.0402617456308656
1684179347673330400,8.122730712890625,-1.910857319862136,-2.2250833509969516,2.2042818070017707
1684179347683370600,8.13277099609375,-1.7301393747156888,-1.7865238190351027,1.3007438184206401
1684179347693410700,8.14281103515625,-1.7030416725692352,-0.8350162507078543,0.18176412574272294
1684179347703451100,8.1528515625,-1.7003833055480506,0.15706348400792244,-0.8963997363116982
1684179347713491100,8.1628916015625,-1.7348544597373987,0.9784555435933403,-1.7214972973310159
1684179347723531400,8.172931884765624,-1.277471661588921,1.7776403426860476,-2.705106735330166
1684179347733571600,8.182971923828125,-0.27170908440866687,2.213349342419096,-3.040686369024312
1684179347743611800,8.19301220703125,0.6159392594373343,2.2198452948541187,-2.750718116763566
1684179347753651900,8.20305224609375,0.969210743985244,1.608455181019398,-1.8318326473993245
1684179347763692200,8.213092529296874,0.8694187998665371,0.6377849580318884,-0.6562387943142763
1684179347773732300,8.223132568359375,0.5284907818819159,-0.02837944035639721,0.3614258766616346
1684179347783772600,8.233173095703124,0.16258561608147315,-0.19525718675697123,1.0335586070839546
1684179347793812600,8.243213134765625,-0.24675476552693223,-0.13214683536984118,1.2619055510548114
1684179347803853000,8.25325341796875,-0.5953729152389762,-0.12364864348428851,1.2161967754940863
1684179347813893000,8.26329345703125,-0.9248921871349475,-0.2471065522428249,0.985898613924032
1684179347823933400,8.273333740234374,-1.0449725390234736,0.10154724108515441,0.6346728803118058
1684179347833973400,8.283373779296875,-0.8854646682999698,0.3872146607289248,0.4136765003010595
1684179347844013700,8.2934140625,-0.5852416753105381,0.4323310851690934,0.01972842216177559
1684179347854053800,8.3034541015625,-0.29204010957713167,0.43102073687238174,-0.5077147483762415
1684179347864094100,8.31349462890625,-0.07278287410565026,0.4906377791474375,-0.8976562023465953
1684179347874134200,8.32353466796875,0.0634448529485206,0.4604291915534328,-1.157375574142935
1684179347884174600,8.333574951171874,0.13326323024964326,0.38629436484234914,-1.2236449717587785
1684179347894214600,8.343614990234375,0.18336892138755004,0.3953886031739214,-1.2482461930133792
1684179347904254900,8.3536552734375,0.1578674315999454,0.3326454162902563,-1.176957845692724
1684179347914295000,8.3636953125,0.08671092991846686,0.37731266032019434,-1.139645099675902
1684179347924335300,8.373735595703126,-0.010629534699083629,0.4976205826399144,-1.13180947292775
1684179347934375300,8.383775634765625,-0.10087299351367726,0.6690044404238784,-1.0745110511290832
1684179347944415600,8.393816162109376,-0.10248923307754,0.8100137711289132,-0.9081144331804626
1684179347954455700,8.403856201171875,-0.1293112039314238,0.6590270995151019,-0.6828894615040318
1684179347964496000,8.413896484375,-0.10687386979445442,0.45428752887646723,-0.5489864350864871
1684179347974536100,8.4239365234375,-0.0798006058447603,0.12750434873937974,-0.3905298708429141
1684179347984576400,8.433976806640626,-0.01772749412576468,0.33227634423780866,-0.5072338581385832
1684179347994616600,8.444016845703125,0.05385649205585061,0.3072175979404942,-0.29052114484145913
1684179348004656800,8.45405712890625,0.1645916699890856,0.4950408934617009,-0.07717299466175179
1684179348014696900,8.46409716796875,0.2742934226568754,0.4327602385123205,0.18273568165153645
1684179348024737200,8.4741376953125,0.36685800555678527,0.12635612488273298,0.2364654540759862
1684179348034777300,8.484177734375,0.36649167536425664,-0.3264732360125541,0.0603086949482769
1684179348044817600,8.494218017578126,0.22429633132710575,-0.7399148940731847,0.012383937854223552
1684179348054857600,8.504258056640625,-0.02771389488305502,-0.8712959289963631,-0.08724927910360407
1684179348064898000,8.51429833984375,-0.2848653793679914,-0.7479400634297826,-0.06282353397105843
1684179348074938000,8.52433837890625,-0.5031603575277704,-0.6067037582466921,-0.1007142068378
1684179348084978400,8.534378662109376,-0.8073151110190865,-0.4381570816428514,-0.2887237071590604
1684179348095018400,8.544418701171875,-1.0507906675224108,-0.12095451368622452,-0.513700962144473
1684179348105058700,8.554459228515626,-1.199309110652407,0.22915554051751674,-0.8220825193570985
1684179348115098800,8.564499267578125,-1.261393546944135,0.5374641418125593,-0.9933574199840669
1684179348125139100,8.57453955078125,-1.1502649783316525,0.7321319580061966,-1.0685586929299968
1684179348135179200,8.58457958984375,-0.9569184779309652,0.8586540222020285,-1.0359878539006775
1684179348145219600,8.594619873046875,-0.6795446874187822,0.7960634231024912,-0.8522338868131402
1684179348155259600,8.604659912109375,-0.39839959157802224,0.5628509521116833,-0.6588180064207008
1684179348165299900,8.6147001953125,-0.21665501590292466,-0.04738807695047544,-0.5437076090802148
1684179348175340000,8.624740234375,-0.12980222710432024,-0.7705087662615717,-0.40007710454032946
1684179348185380300,8.63478076171875,-0.03239965441278545,-1.2021255493823966,-0.0367448328777873
1684179348195420300,8.64482080078125,0.18387794503928637,-1.1893892288231431,0.45086860647496035
1684179348205460600,8.654861083984375,0.41421830638574547,-0.9399251938628153,0.978626966513159
1684179348215500600,8.664901123046874,0.4323662520726524,-0.6209745405785853,1.3649244309471453
1684179348225541000,8.67494140625,0.3074358702696565,-0.3354959487539548,1.6023223400061546
1684179348235581100,8.6849814453125,0.11589431779179828,-0.19798755637382676,1.809425115595924
1684179348245621400,8.695021728515625,-0.028277397227502717,-0.10261535640774273,1.9632275104854437
1684179348255661600,8.705061767578124,-0.15426039702095498,-0.0616426467454721,1.9563248158100037
1684179348265701800,8.715102294921875,-0.23789024347918175,-0.12089920052916157,1.8427531719323205
1684179348275741900,8.725142333984374,-0.21428203585200215,-0.18955516804444586,1.7529952526280128
1684179348285782200,8.7351826171875,-0.39930021759578516,-0.13654136650032872,1.5778272150936006
1684179348295822300,8.74522265625,-0.5754572154864945,-0.07004833211957073,1.4485940933718435
1684179348305862600,8.755262939453125,-0.7330070734157439,0.0404272079893588,1.393614053705545
1684179348315902600,8.765302978515624,-0.8838633298361599,-0.025186538571843723,1.5100581647052767
1684179348325943000,8.77534326171875,-1.0505899189895012,0.08247852308576159,1.5624217985982884
1684179348335983000,8.785383544921874,-1.0680446624644182,0.11955261234392865,1.557689905123412
1684179348346023300,8.795423828125,-0.8929533957356621,0.06518650066385386,1.6128642558858501
1684179348356063400,8.8054638671875,-0.7339757680009433,0.027648925832591733,1.4364166260895879
1684179348366103700,8.815504150390625,-0.6904532909032385,-0.1774044036816296,1.2356560231360307
1684179348376144000,8.82554443359375,-0.8298370837948523,-0.2495193480447262,1.07620167738033
1684179348386184100,8.83558447265625,-1.0068432092598554,-0.36146450043190503,1.0362222195304738
1684179348396224200,8.84562451171875,-1.2826479673738707,-0.3727283477449142,0.8955795764791125
1684179348406264600,8.855664794921875,-1.5863766670066375,-0.26692581178472613,0.709213733729406
1684179348416304800,8.865705322265624,-1.6765246390815645,-0.14248752604013568,0.6242823600684908
1684179348426344900,8.875745361328125,-1.5130345821832694,-0.1714401245557425,0.5420975685210639
1684179348436385200,8.88578564453125,-1.219690680567258,-0.3052167891787576,0.5705797673456309
1684179348446425300,8.89582568359375,-0.9328144789787332,-0.5368041992040687,0.648146390917852
1684179348456465600,8.905865966796876,-0.6948734521372841,-0.7682962417870213,0.7669904231914669
1684179348466505600,8.915906005859375,-0.581289768212883,-0.6794948578524438,0.8991894721647664
1684179348476546000,8.9259462890625,-0.43975758554514716,-0.7748508454183365,1.0269758702314309
1684179348486586000,8.935986328125,-0.1994205712943648,-0.7105150224148622,1.1249516011964047
1684179348496626400,8.94602685546875,0.044992089451298775,-0.6581592559647804,1.0447952747877398
1684179348506666400,8.95606689453125,0.10056090369123372,-0.4296722413190958,0.7751832009212899
1684179348516706700,8.966107177734376,-0.23804438107144907,-0.17687797540757355,0.4667565821576768
1684179348526746800,8.976147216796875,-0.7116400001587084,0.08684539784585005,-0.08596992492901627
1684179348536787100,8.9861875,-0.9456560612493392,0.22948646544194792,-0.5399117469057984
1684179348546827200,8.9962275390625,-0.6503196954826218,0.4852714538388649,-0.9989860056660809
1684179348556867600,9.006267822265626,-0.058075547283281286,0.6174383162936515,-1.4426217078405943
1684179348566907600,9.016307861328125,0.6468451022616026,0.7150201797858053,-1.6372792722235578
1684179348576947900,9.026348388671876,1.0441327094248054,0.8862371444527337,-1.7726037502397995
1684179348586988000,9.036388427734376,0.997564733037993,0.9204759599438537,-1.7743077278790627
1684179348597028300,9.0464287109375,0.6092236042431765,1.439591407842959,-2.2760994434682584
1684179348607068300,9.05646875,0.5095505714218099,1.7579798698036888,-2.3883419035955713
1684179348617108600,9.066509033203126,0.49092978221768985,2.0961594579955074,-2.486844062777657
1684179348627148600,9.076549072265625,0.4014957547000778,2.3700637816744523,-2.647711753787737
1684179348637189000,9.08658935546875,0.2621186376047748,2.6196417808590216,-2.819079399115586
1684179348647229100,9.09662939453125,-0.015488922637557391,2.689678668865074,-2.5979917049382726
1684179348657269400,9.106669921875,-0.2724743485062647,2.4434866904551376,-1.871656417878576
1684179348667309600,9.1167099609375,-0.23784250019711423,1.4556427002771937,-0.8159043788541879
1684179348677349800,9.126750244140624,-0.07310640820218617,0.27583980541169456,-0.07798433293837277
1684179348687390100,9.13679052734375,0.15241336818943116,-0.7981433869462772,0.3086812497083105
1684179348697430200,9.14683056640625,0.31692218788971604,-1.5919504165729639,0.6332805157627702
1684179348707470600,9.156870849609374,0.4612240492333452,-1.8864994049017443,0.8317072392464026
1684179348717510600,9.166910888671875,0.7661930322646888,-1.748794555778195,0.5882594585378522
1684179348727550900,9.176951416015624,1.148229956618247,-1.2917308806250374,0.31361103055896267
1684179348737591000,9.186991455078124,1.451229214649052,-0.7065515516913247,0.055606126683423004
1684179348747631300,9.19703173828125,1.5693254469700084,-0.3120269774750548,-0.019543886181640057
1684179348757671300,9.20707177734375,1.669971942874147,0.06347846971942318,-0.023334741673987573
1684179348767711600,9.217112060546874,1.6241321564139035,0.07327270511630377,-0.07014322265796788
1684179348777751700,9.227152099609375,1.3955277205595893,0.09519863137262372,-0.05193018915394624
1684179348787792000,9.2371923828125,0.9310840368432048,0.01768684373314269,0.11965131755593504
1684179348797832100,9.247232421875,0.31155970700577706,0.13508224498517094,0.3043961524244653
1684179348807872400,9.25727294921875,-0.5146260858357653,0.14638900751419737,0.42204236985679067
1684179348817912600,9.26731298828125,-1.2328478097435023,0.21660804746064685,0.3150415419182621
1684179348827952800,9.277353271484374,-1.6700938939846937,0.13068771366192045,0.12723922739647592
1684179348837992900,9.287393310546875,-1.6694164274719219,-0.13981914513426805,-0.23350739481703223
1684179348848033200,9.29743359375,-1.4104735850100414,-0.3458871841414538,-0.4587886332391673
1684179348858073300,9.3074736328125,-1.04722130307277,-0.6063451765915969,-0.641249179960129
1684179348868113600,9.317513916015624,-0.6981209518200451,-0.7196435927854384,-0.6180925368340657
1684179348878153600,9.327553955078123,-0.47078341249237204,-0.7675762177466458,-0.604000329827256
1684179348888194000,9.337594482421874,-0.3458591998215201,-0.8440532682754907,-0.4897928238825534
1684179348898234300,9.347634765625,-0.29299601916097895,-1.1066141128213784,-0.3521282673001931
1684179348908274400,9.3576748046875,-0.2908964453361203,-1.373107910007562,-0.2607948779260889
1684179348918314600,9.367715087890623,-0.3681856096014002,-1.3376626969481586,-0.08004498469437238
1684179348928354700,9.377755126953126,-0.4744315445887698,-1.385543823256151,-0.036903142922560736
1684179348938395100,9.38779541015625,-0.611988544511608,-1.5523891447549951,-0.04259157178333981
1684179348948435100,9.39783544921875,-0.7726584077466562,-1.4769535064854113,0.13851094256736818
1684179348958475400,9.407875732421877,-0.8904299140333842,-1.467843055712572,0.17859697350767523
1684179348968515600,9.417916015625,-0.9546904564626266,-1.5825757979332509,0.16502404207749397
1684179348978555800,9.427956298828123,-1.0243970155885835,-1.5462465285019034,0.231732606943827
1684179348988595900,9.437996337890626,-0.9514285923498408,-1.6314830780532852,0.21367073056451613
1684179348998636200,9.44803662109375,-0.8222768901734734,-1.7710428238067326,0.19191098211781538
1684179349008676300,9.45807666015625,-0.5094506741638499,-1.9220113753077401,0.08331036569346027
1684179349018716600,9.468116943359377,0.029973238649154462,-1.9180660247999044,-0.11186480529107914
1684179349028756600,9.478156982421876,0.4575375616263801,-1.574087142877274,-0.15460920331661154
1684179349038797000,9.488197265625,0.7713961003708857,-1.375653266893244,-0.20288181315030596
1684179349048837000,9.498237548828126,0.9425960182758298,-0.9568223953062653,-0.11378383632093257
1684179349058877400,9.50827783203125,1.0481158495287126,-0.3686017990347974,-0.11582612998185356
1684179349068917600,9.518318115234376,0.95359271767003,0.1737613678311351,0.039354324238766246
1684179349078957700,9.528358154296876,0.7239679099662464,0.8184318542472094,0.22959589947691866
1684179349088998100,9.5383984375,0.43196323523466806,1.1927423476911392,0.5736856460231735
1684179349099038100,9.5484384765625,0.3319761751770547,1.4624371528689093,0.8457338809503135
1684179349109078400,9.558478759765626,0.12355631583198633,1.8834338189389015,1.1790945530276968
1684179349119118600,9.568518798828125,-0.14977963272943493,1.886916637374154,1.323087215431621
1684179349129158800,9.578559326171876,-0.40422686931780955,2.087535858122511,1.5438729524595611
1684179349139198900,9.588599365234376,-0.3934217988269608,2.3489322661030436,1.8453410863914497
1684179349149239200,9.5986396484375,-0.3424580694750024,2.624198913629955,2.152584552645927
1684179349159279300,9.6086796875,-0.2567977903458903,2.8666362763850683,2.3620100020954102
1684179349169319600,9.618719970703124,-0.24630331989465307,2.9696211815144324,2.407197475476159
1684179349179359600,9.628760009765625,-0.2412915230568428,2.3797178268409898,1.9631327390609792
1684179349189400000,9.63880029296875,-0.02758470192037068,1.3623514175746654,0.8535859585786348
1684179349199440300,9.6488408203125,0.17910709974517164,1.1756420135129857,0.2761256694485227
1684179349209480400,9.658880859375,0.17062334714418526,1.3276090623328614,0.06322669986869657
1684179349219520400,9.6689208984375,0.07256960850167767,1.6407966613821277,0.08709812160033113
1684179349229560800,9.678961181640624,-0.013981998036866993,2.210535526224439,0.2653450965131996
1684179349239601100,9.68900146484375,0.031428903353384496,2.7901601791707447,0.5285220147433438
1684179349249641100,9.69904150390625,0.07899710519974992,3.0687370299074477,0.6724789143810199
1684179349259681500,9.709081787109374,0.16239799572141045,3.037175655323566,0.7126913070778029
1684179349269721600,9.719121826171875,0.2182544320324694,2.8733520507653725,0.8320903778488986
1684179349279761800,9.729162353515624,0.2536830603379065,2.3946661948479893,0.7982628345838712
1684179349289801900,9.739202392578123,0.17220357075632672,2.8632888794444553,1.0185644626092745
1684179349299842200,9.74924267578125,0.09936505558600242,2.515535831471298,0.803905963885134
1684179349309882300,9.75928271484375,0.14218887675190886,1.8534893988702132,0.37443614007524306
1684179349319922600,9.769322998046874,0.2344286738834478,0.7831382752083741,-0.14798164358452276
1684179349329962600,9.779363037109375,0.12666830433635648,0.9896860122511313,0.25502038000210087
1684179349340003000,9.7894033203125,0.1832913159559063,-0.03208160399272694,-0.7280938625986259
1684179349350043300,9.799443603515623,0.26027414217301176,-0.38703632343977973,-1.5586962698730158
1684179349360083400,9.80948388671875,0.5641950368464094,-0.8496017455488462,-1.8469192981317486
1684179349370123400,9.81952392578125,0.7361776828285144,-1.3611526489698433,-1.9585173129825064
1684179349380163800,9.829564208984374,0.7379065750708836,-2.4504356384412707,-2.4123690128273916
1684179349390204100,9.8396044921875,0.7514955995980844,-3.979589462398967,-2.9841747284171762
1684179349400244100,9.84964453125,0.7135317324821259,-5.030587196356762,-3.1040704251847093
1684179349410284500,9.859684814453123,0.5002856254274447,-5.5825815202204065,-2.58602285374204
1684179349420324600,9.869724853515624,-0.07476419209619413,-5.392727851995569,-1.6691930295633377
1684179349430364800,9.87976513671875,-0.8185734747752054,-4.427641868553964,-0.48211336144024897
1684179349440404900,9.889805419921874,-1.410354137396102,-2.9553527830954165,0.038155078768827205
1684179349450445200,9.899845703125,-1.6085522175671012,-1.2150363922551353,0.17030835148109955
1684179349460485300,9.9098857421875,-1.537066936455608,-0.1213102339770468,0.726922750453098
1684179349470525600,9.919926025390623,-1.286726593866301,0.3298664092759105,1.3735740184713061
1684179349480565600,9.929966064453126,-0.822177767775032,0.4011468888231301,1.7744901180919996
1684179349490606000,9.94000634765625,-0.25111910697878237,0.393444061131069,1.5557346344080332
1684179349500646300,9.950046630859376,0.3003506660279469,0.24479007718693707,1.2244579792094936
1684179349510686400,9.960086669921877,0.6982916593243615,-0.008657455347890527,1.1578123568174628
1684179349520726600,9.970127197265626,0.9130744934303789,-0.2053136825179376,1.1087052823412324
1684179349530766800,9.980167236328125,1.0153361557884641,-0.3810024263192914,0.91702723504509
1684179349540807100,9.99020751953125,1.0233104227549328,-0.44993591302366226,0.7316756248362248
1684179349550847200,10.00024755859375,0.9592472315238058,-0.28640651720007,0.6351912020483496
1684179349560887500,10.010287841796876,0.7904353141633437,-0.19438838945444195,0.6156501769905015
1684179349570927600,10.020327880859377,0.5499189495705471,-0.21920204171527244,0.5825216771294621
1684179349580967900,10.0303681640625,0.26664686191134795,-0.28949546804739856,0.4466555117151965
1684179349591007900,10.040408203125,-0.028080403805414565,-0.31443023681258636,0.34001636512605676
1684179349601048200,10.05044873046875,-0.3100641965195002,-0.23660945895568228,0.24577164645330077
1684179349611088600,10.060489013671877,-0.4667679668126788,0.055857658318165165,0.11677312839986244
1684179349621128600,10.070529052734376,-0.513599574503349,0.1373128890958947,-0.05366516111978313
1684179349631168900,10.0805693359375,-0.40581196543689896,0.04155731200326099,-0.26509332657209334
1684179349641209000,10.090609375,-0.2249507903927737,0.033676147475166465,-0.38300967224470933
1684179349651249300,10.100649658203125,-0.033407866952145426,0.060736656204786306,-0.42671585089169417
1684179349661289400,10.110689697265624,0.15770256528270435,0.06526374812626548,-0.33913779254168175
1684179349671329600,10.120730224609376,0.3022657633434335,0.11694717404956957,-0.16932344446752332
1684179349681369800,10.130770263671875,0.3992111085484437,0.0797204972744869,-0.032677888915459176
1684179349691410100,10.140810546875,0.41133660085707796,0.06628131862859953,0.09879612921732966
1684179349701450200,10.1508505859375,0.326575994516135,0.0026330948274375728,0.16992163655790757
1684179349711490600,10.160890869140625,0.1728678345243303,-0.058450698844929365,0.1879541874999593
1684179349721530800,10.17093115234375,0.03833752863617591,-0.05966663363447241,0.22018885604908486
1684179349731570900,10.18097119140625,-0.06656336797360772,0.01320457459666988,0.28812479970140564
1684179349741611200,10.191011474609375,-0.11042794584604794,-0.05965328217482788,0.26022243511136073
1684179349751651200,10.2010517578125,-0.1412216127819287,-0.03913879390284984,0.2682292461185479
1684179349761691600,10.211092041015624,-0.12789401394918254,-0.08786869053061631,0.23085308078380115
1684179349771731600,10.221132080078124,-0.11114421488279594,-0.12470817564127058,0.16546535504764642
1684179349781772000,10.23117236328125,-0.0671275853506176,-0.1784114837545317,0.1964793205385211
1684179349791812000,10.24121240234375,-0.00594973574453207,-0.19402408609480631,0.2018160821384586
1684179349801852300,10.251252685546875,0.007177174190583255,-0.1837072371890573,0.2509884834772426
1684179349811892400,10.261292724609374,0.019868850641064296,-0.18313980093299964,0.3457481860770895
1684179349821932600,10.2713330078125,0.03210198882207082,-0.16352272021112185,0.36869168274137387
1684179349831973000,10.28137353515625,0.029564261427556433,-0.2132177354070131,0.381978750143407
1684179349842013100,10.29141357421875,0.0217112899912651,-0.19116878517369215,0.399982452265658
1684179349852053400,10.301453857421874,0.027496993609419377,-0.1688842773874629,0.4267101288660914
1684179349862093600,10.311493896484375,0.02518826709750235,-0.18001461028852556,0.3360421657633896
1684179349872133800,10.3215341796875,-0.020970463694443702,-0.1623649596551462,0.3407680989227727
1684179349882173900,10.33157421875,-0.10967385782806346,-0.13493061060733832,0.3210051057874657
1684179349892214200,10.341614501953124,-0.14003163595727,-0.12636566145146122,0.2744274140252626
1684179349902254600,10.351655029296875,-0.16059532760236153,-0.08395576489807413,0.29861593239951534
1684179349912294600,10.361695068359374,-0.1479284167911625,-0.12980842584488908,0.20281338678572533
1684179349922334900,10.3717353515625,-0.12880095842053726,-0.12045478810331667,0.1449637412606109
1684179349932375000,10.381775390625,-0.13459199665001687,-0.1038389204085693,0.10352230062302181
1684179349942415300,10.391815673828123,-0.1961760222486747,-0.04233646392334961,0.03682112698417048
1684179349952455300,10.401855712890624,-0.2701137661611488,0.07208919528740423,0.03149008766213414
1684179349962495600,10.41189599609375,-0.32641744600702777,0.11606311799896538,0.008417606425252326
1684179349972535600,10.42193603515625,-0.349946796845142,0.20834159853629533,-0.09280657751769987
1684179349982576000,10.4319765625,-0.2713529765775476,0.281826019231893,-0.1170933246443725
1684179349992616100,10.4420166015625,-0.14167684334454136,0.12031555172701641,-0.27813839926036243
1684179350002656400,10.452056884765623,-0.03223389382159297,0.19405174245698978,-0.25428748129346956
1684179350012696800,10.46209716796875,-0.006962418541076808,0.24036788944851492,-0.2870013714549493
1684179350022736800,10.47213720703125,-0.02611339091120956,0.32052898403670443,-0.2542431355895222
1684179350032777100,10.482177490234376,-0.0414610505714487,0.2833490371890904,-0.13597679139629842
1684179350042817200,10.492217529296877,-0.05577385426777186,0.22083759297331207,0.008439302620184552
1684179350052857600,10.5022578125,-0.06998860835736473,0.07210063948255138,0.016234159505294585
1684179350062897600,10.512298095703123,-0.10757687683435088,-0.1121063233281892,0.02651309959529834
1684179350072937900,10.52233837890625,-0.19398391240837515,-0.14019107811826395,0.19425344457126986
1684179350082978000,10.53237841796875,-0.26530632379409563,-0.14858818046940475,0.2761788369398239
1684179350093018300,10.542418701171876,-0.26839718214761005,-0.1963663101368234,0.28041815756095556
1684179350103058600,10.552458984375,-0.27887359258515265,-0.20753955848704503,0.2786834238525283
1684179350113098600,10.5624990234375,-0.2964001000051247,-0.26040267932978195,0.23107886313027018
1684179350123139000,10.572539306640625,-0.31203135835922036,-0.2645759582073965,0.1593067646640604
1684179350133179100,10.582579345703126,-0.30443635597241736,-0.2210912705003949,0.11373901360707775
1684179350143219400,10.592619873046877,-0.2725649773599128,-0.1919622421866995,0.07735133171294213
1684179350153259400,10.602659912109376,-0.28767547017598905,-0.07348251355295086,0.04550981523218532
1684179350163299800,10.6127001953125,-0.3005733490827381,0.026522636405027198,0.005119562281337074
1684179350173340100,10.622740478515626,-0.2738883793991394,-0.006843566796292023,0.19605994233245913
1684179350183380100,10.632780517578125,-0.1728077828077026,-0.18772220595426725,0.19013094915832543
1684179350193420500,10.64282080078125,-0.1428281666173682,-0.14168548585829488,0.23534870149859224
1684179350203460600,10.65286083984375,-0.1340776384951057,-0.05388450618867975,0.19947218903957195
1684179350213500800,10.6629013671875,-0.06880483024245775,-0.007542610165922246,0.15238332746857758
1684179350223540900,10.67294140625,-0.026805520001711478,0.02617168419085205,0.11319160455671483
1684179350233581200,10.682981689453126,-0.01925516127620709,0.023737907583383264,0.09165406221810281
1684179350243621600,10.69302197265625,-0.040920257587103895,0.02812862392076425,0.0921857356823607
1684179350253661600,10.70306201171875,-0.06587710975357433,0.1310968398704358,0.10952949514175875
1684179350263701900,10.713102294921876,-0.1100538372814611,0.020196914671941592,0.04235291482770062
1684179350273742000,10.723142333984375,-0.13673228024374673,-0.09144687638819084,0.028676986565168996
1684179350283782300,10.7331826171875,-0.10391265150682626,-0.062305450512960873,0.07640504849027302
1684179350293822400,10.743222900390624,-0.09616529951149931,-0.07371425620928256,0.024420499795026324
1684179350303862600,10.75326318359375,-0.12234973898274261,-0.05667972579875838,0.01083993925278889
1684179350313902800,10.76330322265625,-0.1525716482300551,-0.03742122643146084,0.015995979162137866
1684179350323943100,10.773343505859376,-0.18628257513400334,-0.044162750236470455,0.006540775258229955
1684179350333983400,10.7833837890625,-0.1881652773467227,-0.05057907115372295,-0.01728129381705667
1684179350344023600,10.793423828125,-0.17754590521052505,-0.051912307889609266,-0.02239084252405374
1684179350354063800,10.803464111328124,-0.18535420296050736,-0.010486602914716406,-0.03287506096306411
1684179350364103900,10.813504150390624,-0.17354583722839764,-0.004752158963544302,-0.07677626617561539
1684179350374144200,10.823544677734375,-0.13765370841937974,0.012897491376916264,-0.12039804451981675
1684179350384184200,10.833584716796874,-0.13004988428560355,0.0845174788858466,-0.13288092612118116
1684179350394224600,10.843625,-0.09639561191201018,0.08901786797999332,-0.14744853967598062
1684179350404264900,10.853665283203124,-0.06531363740907786,0.07455825795617381,-0.1333601474276349
1684179350414304900,10.863705322265623,-0.0414305030715159,0.057955741804508576,-0.10055208222158739
1684179350424345300,10.87374560546875,0.012745678382487491,-0.0007581711241923322,-0.061187982610242476
1684179350434385300,10.88378564453125,0.05366623415897002,0.03797531119711884,-0.03656530391910479
1684179350444425600,10.893825927734374,0.07443535313432845,-0.0017032623816986775,-0.028737068331291856
1684179350454465600,10.9038662109375,0.07531934988758467,0.05808925629078783,-0.0068590641145702255
1684179350464506000,10.913906494140624,0.07769185303182602,0.07675266268276983,-0.053475141664717514
1684179350474546100,10.923946533203123,0.0629505514389486,0.09259891516786069,-0.05667519572252832
1684179350484586400,10.93398681640625,0.02946043014735807,0.12211227414889099,-0.07822704315398353
1684179350494626700,10.944027099609375,-0.005832135720364982,0.08034038530184301,-0.059010982524969564
1684179350504666800,10.954067138671874,-0.02420401586730362,0.048476219211895974,-0.0490789414280976
1684179350514707100,10.964107421875,-0.030684828714670577,0.0075721738799318025,-0.008377790538868243
1684179350524747200,10.974147705078124,0.002808272803428077,-0.0115299225906632,0.03177928911886973
1684179350534787600,10.98418798828125,0.01969683165365998,0.023895263669228502,0.07824659344351316
1684179350544827600,10.99422802734375,0.055222272882182004,0.054040908832188574,0.08859395988680167
1684179350554867900,11.004268310546877,0.04728424542317425,0.013102531421280289,0.05386233340060292
1684179350564908200,11.01430859375,0.04837614292992473,0.015219688449052533,0.05730533593045505
1684179350574948300,11.0243486328125,-0.00037586677416569307,-0.018032073967661568,0.011238574970041404
1684179350584988600,11.034388916015626,-0.04352253683504961,-0.06725025190598116,0.053151845899449685
1684179350595028600,11.044428955078123,-0.06406825767175156,-0.07323265071313538,0.0496454239377132
1684179350605069000,11.054469482421876,-0.06260597706729067,-0.06494140624478868,0.06498479839632103
1684179350615109000,11.064509521484377,-0.034925758996701174,-0.02840042111918846,0.07273888587717772
1684179350625149400,11.0745498046875,-0.016638338668552806,0.03119659425334951,0.04483485233827305
1684179350635189400,11.08458984375,-0.009847998554294643,0.031069755498330014,0.03838205333441103
1684179350645229700,11.094630126953126,0.04187464708347071,-0.004281044022705164,0.0036306382052348346
1684179350655270100,11.10467041015625,0.10638749601722475,-0.04377746574993188,-0.04703330994459296
1684179350665310100,11.11471044921875,0.1339855789776412,-0.03787803654092623,0.006634950461622603
1684179350675350400,11.124750732421877,0.11670130494425508,-0.00849819181930744,0.009928464742127491
1684179350685390800,11.134791259765626,0.14042818534489554,0.02750301364847135,0.04141449916181242
1684179350695430800,11.144831298828125,0.17320561421707145,0.018206596366167775,0.060524701987628514
1684179350705471200,11.15487158203125,0.19801718007626953,-0.009737014908003045,0.025047779085206834
1684179350715511200,11.16491162109375,0.21041107173356602,-0.023161888094304937,0.011479616343379547
1684179350725551600,11.174951904296876,0.23876714702338078,-0.0057992936015142426,0.02643084522610179
1684179350735591600,11.184991943359377,0.2522068023268954,0.00890064233764346,0.024649858339060783
1684179350745631900,11.1950322265625,0.2204356791061066,-0.0025892257003569683,0.05592656124085867
1684179350755672000,11.205072265625,0.22909653183151668,-0.025685310301621005,0.0278644561084215
1684179350765712300,11.21511279296875,0.2023816109942528,-0.04605960843833788,0.0120940209644254
1684179350775752600,11.225153076171877,0.1765263675967411,-0.08259010323426658,0.05554103850003161
1684179350785792600,11.235193115234376,0.12864673140289257,-0.024357795681687472,0.09847545621263594
1684179350795833000,11.2452333984375,0.11349725723806481,-0.03533077244957402,0.18555688849861665
1684179350805873100,11.2552734375,0.13034003980974693,-0.06013202667051078,0.21695947648155184
1684179350815913400,11.265313720703125,0.16401565075780372,-0.10558986669100205,0.2217686176508553
1684179350825953600,11.27535400390625,0.18570214510086364,-0.1172208785218115,0.2239389419325563
1684179350835993800,11.285394287109376,0.19545537235432908,-0.12153530122847812,0.23067069043127017
1684179350846034100,11.2954345703125,0.1915453076373213,-0.13516712188685745,0.2279052734227284
1684179350856074200,11.305474609375,0.1982038615945492,-0.15083980575098957,0.2628250122449656
1684179350866114600,11.315514892578124,0.22940129032805073,-0.14722919464259532,0.2403926848595971
1684179350876154600,11.325554931640625,0.22159719461169577,-0.11771202074649888,0.20664596554047532
1684179350886194900,11.33559521484375,0.24109011889725174,-0.08877086651891487,0.2256445885018336
1684179350896235200,11.345635498046876,0.2533605099920993,-0.07913875591458035,0.2796311377654174
1684179350906275200,11.355675537109375,0.25121921297412886,-0.10487556464755468,0.28300499912193916
1684179350916315600,11.365716064453125,0.24466627838757501,-0.10179042819635717,0.2812983991606963
1684179350926355600,11.375756103515624,0.2976543904515526,-0.14096641538038368,0.29106545461659367
1684179350936396000,11.38579638671875,0.3145845531135056,-0.1768941878058468,0.2741959093630307
1684179350946436300,11.395836669921875,0.3708105088132826,-0.1930112839169633,0.25424671169380547
1684179350956476300,11.405876708984374,0.4317840933991126,-0.17292308791680885,0.16696858419255162
1684179350966516600,11.4159169921875,0.4318807720997343,-0.1103878021201132,0.06585478781228896
1684179350976556600,11.42595703125,0.42836952195728023,-0.010862350555876768,-0.03901886941432736
1684179350986597000,11.43599755859375,0.4330472945250106,0.10618782034444581,-0.13071632389958832
1684179350996637100,11.44603759765625,0.46096694461786836,0.10840606691153304,-0.24170923224574978
1684179351006677400,11.456077880859375,0.5253794193740616,0.03527164470376907,-0.3715310096224182
1684179351016717700,11.4661181640625,0.6029064656036124,-0.07902240757645668,-0.47771072388973057
1684179351026757800,11.476158203125,0.6610673070070364,-0.1326589583648456,-0.603030681584827
1684179351036798100,11.486198486328124,0.6923761964266166,-0.18780612952398737,-0.707383871081938
1684179351046838200,11.496238525390623,0.7254797817557633,-0.13138580321584634,-0.7441668510720673
1684179351056878600,11.50627880859375,0.7179658412688213,0.006490707549695,-0.8227806091668657
1684179351066918800,11.5163193359375,0.7308970091805165,0.21256732953751592,-0.8246169091797063
1684179351076958900,11.526359375,0.7355184554695533,0.400799751252276,-0.8497467041953859
1684179351086999200,11.536399658203123,0.6978563071070807,0.5430383681274972,-0.8459157943684397
1684179351097039300,11.546439697265624,0.59091138839473,0.5857791899594018,-0.8088159560404187
1684179351107079600,11.55647998046875,0.42479369040671944,0.5728740691956009,-0.771290540680288
1684179351117119600,11.56652001953125,0.17861080170023427,0.5004482269921063,-0.6549525260352618
1684179351127160000,11.576560302734377,-0.07926878330976557,0.3720483779812109,-0.47291588796267814
1684179351137200300,11.5866005859375,-0.323404908144849,0.25011157993375505,-0.2432341575660035
1684179351147240400,11.596640869140623,-0.5622840524618823,0.11835289008136178,0.0021317005664939696
1684179351157280600,11.60668115234375,-0.7274861931508776,0.01957130439399222,0.1660969257090197
1684179351167320800,11.61672119140625,-0.7522410154878234,-0.10066890712803654,0.2660646438924427
1684179351177361100,11.626761474609374,-0.6576402187725355,-0.13133335121932438,0.27463316932935244
1684179351187401400,11.6368017578125,-0.47906076900932126,-0.12582111365655096,0.21429991717751423
1684179351197441500,11.646841796875,-0.24548029905451318,-0.11314201361801014,0.140231609265233
1684179351207481800,11.656882080078123,-0.051193386363701535,-0.11248588551863352,0.048179864953505736
1684179351217521800,11.666922119140626,0.003177911011414226,-0.11218547828127567,0.02381801603515019
1684179351227562200,11.676962646484377,-0.05810531972242037,-0.06060028077301715,0.05006909373722481
1684179351237602600,11.6870029296875,-0.2362028956235605,-0.04555892929915241,0.14493608471765282
1684179351247642600,11.69704296875,-0.27997142073664827,-0.03577327723245294,0.22259521490786638
1684179351257682900,11.707083251953126,-0.22761371737504704,-0.014634132395539418,0.3161914349086918
1684179351267722900,11.717123291015625,-0.035298980859751375,-0.01986789695181677,0.3613717556982469
1684179351277763200,11.72716357421875,0.15291385339592456,-0.05817508700634322,0.3047962189528389
1684179351287803300,11.73720361328125,0.34175512197411007,-0.1407661438156988,0.23518466954870854
1684179351297843600,11.747244140625,0.5127932428060088,-0.20334053050834217,0.16925096506880458
1684179351307884000,11.757284423828125,0.6063148975245555,-0.26502132419086916,0.15869092938926113
1684179351317924000,11.767324462890626,0.6070719958273658,-0.30462646469817833,0.11082625398700331
1684179351327964300,11.77736474609375,0.5467019080738902,-0.32018184663324206,0.19351601595575593
1684179351338004400,11.78740478515625,0.4224505423844705,-0.37305831902927067,0.1850976942186723
1684179351348044600,11.797445068359377,0.33704385154401567,-0.32375621810818744,0.20011401180630917
1684179351358085000,11.8074853515625,0.35841137179663884,-0.2727079392104386,0.23067975044182684
1684179351368125100,11.817525390625,0.4048200845187067,-0.23175144197559108,0.20359659210313552
1684179351378165400,11.82756591796875,0.44282734394266304,-0.27342796324051744,0.26986837373899863
1684179351388205600,11.83760595703125,0.45508003241837763,-0.31099700928830537,0.308791875933133
1684179351398245800,11.847646240234376,0.41893255695154274,-0.3134727477434714,0.29620122916164665
1684179351408286100,11.8576865234375,0.37391623852322164,-0.2624855041605291,0.291455984126752
1684179351418326200,11.8677265625,0.2594446241151384,-0.18707752232719052,0.28233194365785297
1684179351428366600,11.877766845703125,0.14748132223571747,-0.06403732319338784,0.17915487273658795
1684179351438406600,11.887806884765626,0.038023874227564806,0.11739158622477405,-0.051386356314151414
1684179351448446900,11.897847412109376,-0.05639743802581412,0.23679733279424472,-0.3977758884994312
1684179351458487200,11.9078876953125,-0.14054849746886147,0.4497671126878103,-0.917391061855703
1684179351468527300,11.917927734375,-0.3402698636053935,0.7504730224740723,-1.4929416179508692
1684179351478567600,11.927968017578126,-0.6388186215648111,1.1141719818698466,-1.9553639888391678
1684179351488607600,11.938008056640625,-1.0153534410571592,1.4925689695600024,-2.2349729538117518
1684179351498648000,11.94804833984375,-1.2717614174884988,1.7657055853616772,-2.474854707752375
1684179351508688300,11.958088623046876,-1.3472660779859615,1.885868549448148,-2.587045669591373
1684179351518728400,11.968128662109375,-1.171773195313038,1.8153843878074647,-2.577667713123672
1684179351528768600,11.978169189453125,-0.8318737745478358,1.6000585556881084,-2.473096609227514
1684179351538808800,11.988209228515624,-0.4816892146913355,1.220861435066263,-2.23609113682258
1684179351548849100,11.99824951171875,-0.2950298784945601,0.8406476973186917,-1.7273755074335113
1684179351558889400,12.008289794921875,-0.26655125602123286,0.4959487915008212,-1.0705285073225856
1684179351568929500,12.018329833984374,-0.27788585427132706,0.23714733125333143,-0.5030558109263599
1684179351578969800,12.0283701171875,-0.27207916981014246,0.042653083745435715,0.04400134088384915
1684179351589009800,12.03841015625,-0.19764941927109805,-0.15436267835740744,0.546124219957262
1684179351599050200,12.048450439453124,-0.023444235382926913,-0.25583744033970673,0.9672453403769917
1684179351609090600,12.058490966796874,0.14689719673475404,-0.4434356690505548,1.2169094085661547
1684179351619130600,12.068531005859375,0.35757428422703597,-0.5901155473031434,1.3311336040257238
1684179351629170900,12.0785712890625,0.48451018321375294,-0.7624750137228503,1.3577802181270484
1684179351639210900,12.088611328125,0.5163284538681722,-0.8955402373612865,1.3157718182270535
1684179351649251200,12.098651611328124,0.3810784816862453,-0.9888057709119572,1.2589080333621365
1684179351659291300,12.108691650390623,0.10436397806923595,-0.9674463271424464,1.198943376482987
1684179351669331600,12.11873193359375,-0.2658575178195427,-0.7262258529147991,1.0314292907968767
1684179351679372000,12.1287724609375,-0.6276033519816804,-0.43283748639597674,0.7226934432691902
1684179351689412000,12.1388125,-1.0427746772834274,-0.10228443134379467,0.14062237746497597
1684179351699452300,12.148852783203123,-1.568504333489384,0.12326526637318272,-0.45388197904035316
1684179351709492400,12.158892822265624,-2.017930030791664,0.2879037858837247,-0.8432495593445244
1684179351719532600,12.16893310546875,-2.2568459510620054,0.23541164386230218,-1.083722352919457
1684179351729573000,12.178973388671874,-2.1723806858719086,0.17318916327949635,-1.133623600045463
1684179351739613100,12.189013427734375,-1.8153597117631872,-0.016332626388313936,-1.0398252010413669
1684179351749653400,12.1990537109375,-1.3234708309066006,-0.16334724429894665,-0.8472132682819554
1684179351759693600,12.209093994140623,-0.849706530531078,-0.22236347203625115,-0.6271879673335304
1684179351769733800,12.21913427734375,-0.5288650989209487,-0.12871360770710782,-0.3967549799401441
1684179351779774100,12.229174560546875,-0.353183031076181,0.07963657375121304,-0.19044876106808772
1684179351789814200,12.239214599609374,-0.35430324081547426,0.2812623978792144,-0.045473813931624946
1684179351799854600,12.2492548828125,-0.5094487665878282,0.4598989485580037,0.013055324696628134
1684179351809894800,12.259295166015624,-0.6923134325859609,0.5873584746083067,0.08642387378379883
1684179351819934900,12.269335205078123,-0.9752938747440443,0.6900558471328058,0.07131671892505263
1684179351829975200,12.279375732421874,-1.26890063281464,0.7845230102284835,0.06131291387365866
1684179351840015300,12.289415771484377,-1.4825519324651395,0.7417221069449242,0.02554702749274267
1684179351850055600,12.2994560546875,-1.6077252625411176,0.6886634827669637,0.002242088288601851
1684179351860095900,12.309496337890623,-1.6755360365976824,0.5465345381637161,0.058152675606353135
1684179351870136000,12.319536376953126,-1.5974295137702006,0.34426593790508586,0.10917210581135837
1684179351880176300,12.32957666015625,-1.4164547921678414,0.06996250146587922,0.20548200596120364
1684179351890216400,12.33961669921875,-1.0375897884046983,-0.2118825911250743,0.42284488677077997
1684179351900256600,12.349656982421877,-0.4463496207139533,-0.3579435349357074,0.7451829910218576
1684179351910297000,12.359697509765626,0.29821121701272474,-0.18223857872176719,1.018512487481225
1684179351920337100,12.369737548828123,1.0434494017992209,0.020761489828805456,1.2622954844347134
1684179351930377400,12.37977783203125,1.6486022473131385,0.005701065135196746,1.37894487385889
1684179351940417500,12.38981787109375,2.071447610991468,-0.01068305961003022,1.3476178646131252
1684179351950457800,12.399858154296876,2.157015562087564,-0.04597663874017758,1.2241621018521875
1684179351960498100,12.4098984375,1.9413124322515796,-0.06945896153856021,1.0972197054331256
1684179351970538200,12.4199384765625,1.3008534908706035,-0.026820182711082313,0.8572726249890037
1684179351980578600,12.429978759765625,0.12630438797288362,0.16230583191912967,0.4099073409637831
1684179351990618800,12.440019287109376,-1.4041272402478409,0.34764766694597254,-0.1838932036382592
1684179352000658900,12.450059326171877,-2.6859269143811684,0.5408134460316966,-0.7200155257653371
1684179352010699200,12.460099609375,-3.1288223266623283,0.8196330072342903,-1.1060285568824755
1684179352020739200,12.4701396484375,-2.7187688349588286,1.0017018317084396,-1.3305196762119045
