time,seconds_elapsed,z,y,x
1684002478312857800,0.040258056640625,0.18917465200509345,0.1874570846224199,-0.1420698166953129
1684002478322899900,0.05030029296875,0.4179239272844065,0.2608289718349421,-0.37808370595150875
1684002478332942000,0.06034228515625,0.8575658799315492,0.093757629484886,-0.5266475676790444
1684002478342983900,0.07038427734375,-4.930158615299022,-0.3941881655290424,1.969697952236522
1684002478353026000,0.08042626953125,-3.0196073054680905,0.9510190487121022,0.5003652572135588
1684002478363068100,0.090468505859375,0.25141334543176125,1.1600517034564184,1.2527065278587068
1684002478373109900,0.10051025390625,0.16009044658045035,1.6167047023755348,0.7482256888511207
1684002478383152000,0.110552490234375,3.884065627948809,0.208847999415194,0.630527973095158
1684002478393194200,0.120594482421875,4.059234619226313,-0.23558974276707068,0.7422585486553726
1684002478403236000,0.130636474609375,1.1842536924431306,-1.044012546403641,1.5466947555661053
1684002478413278100,0.140678466796875,-0.09298515316907363,0.455270528904096,2.9248366357210624
1684002478423320200,0.150720703125,0.03231239315330585,2.6837379932555,2.4351401330438436
1684002478433362100,0.160762451171875,0.3614549638327932,2.797199725994802,1.3628921508220109
1684002478443404200,0.1708046875,-0.6247706414077883,1.152046441979766,1.2682113647449647
1684002478453446300,0.1808466796875,-1.3706274031306622,-0.5273622273448565,0.20008373265053406
1684002478463488400,0.190888916015625,-2.088402986459132,-1.455230951361278,-0.7086658478899356
1684002478473530300,0.2009306640625,-3.090274333968551,-1.1219780444944174,-1.3792314530083032
1684002478483572400,0.210972900390625,-3.323109149962529,-0.47947871669979536,-1.0783934592701394
1684002478493614600,0.221014892578125,-2.4606571196817684,0.09774279602602574,-0.3408041000070786
1684002478503656400,0.231056884765625,-1.6022417545671799,1.13256168364497,0.20446395875792814
1684002478513698600,0.241098876953125,-2.191984176655214,1.0439326764150618,0.8120498657819745
1684002478523740600,0.25114111328125,-3.5066411495677223,0.7833580970955799,0.7155132292857626
1684002478533782400,0.261182861328125,-3.1345269679497068,0.7943459749362776,-0.08253765105294743
1684002478543824600,0.271224853515625,-1.3550640343631377,0.6512970924322371,-0.6875715255067906
1684002478553866600,0.28126708984375,0.4064497947073122,0.050119996022478935,-0.9371252060570451
1684002478563908800,0.29130908203125,2.0550332069408395,-0.6561939715633285,-0.7221641540564413
1684002478573950600,0.30135107421875,2.492729186882759,-0.9069938660519029,-0.9259185790663521
1684002478583992800,0.31139306640625,1.5863745211035851,-1.1291677951655348,-1.766470908946969
1684002478594034900,0.321435302734375,0.588079213908376,-0.7865233422061976,-2.7286472322042883
1684002478604076600,0.33147705078125,0.2801418304510476,-0.7262651920847558,-3.085751533576396
1684002478614118800,0.341519287109375,0.22859132282858002,-0.8769414424715921,-2.991486072509167
1684002478624160900,0.351561279296875,0.3332183359920403,-0.9161963463545468,-2.5585999488676254
1684002478634202800,0.361603271484375,-0.043293356898269846,-0.7116301060294634,-2.7177519799121295
1684002478644244900,0.371645263671875,-0.3970071078153282,-0.9269161225517777,-2.4596014022344663
1684002478654287000,0.3816875,-0.4825146792961596,-0.929733514929273,-2.1621875762661387
1684002478664328900,0.391729248046875,-0.6243570447322998,-0.9557785988135692,-0.9667091369042881
1684002478674371000,0.401771484375,-0.9008498786994235,-1.1031839848302096,-0.010463714618675572
1684002478684413100,0.4118134765625,-0.20202104753249941,-0.6106679440006929,1.1015605926961731
1684002478694455200,0.421855712890625,1.7189393042944396,-0.30527377123138216,2.093909263582183
1684002478704497100,0.4318974609375,2.476748228135948,-0.9324953556773237,2.1693639755817022
1684002478714539200,0.441939697265625,2.3493015767722785,-1.2969596384965874,2.928798675499252
1684002478724581300,0.451981689453125,1.930262327234754,-0.6998391153063819,3.0929374696308263
1684002478734623200,0.4620234375,1.1175875663730694,-0.3615362643164903,2.1995878220603573
1684002478744665300,0.472065673828125,-0.40632176383448676,-0.26739406594237664,1.042477607765775
1684002478754707400,0.482107666015625,-2.05303430559678,-0.5690391064329566,0.44251155847916723
1684002478764749200,0.492149658203125,-3.0767745970503673,-0.7906515598210111,0.1991472245539301
1684002478774791300,0.502191650390625,-3.7084410191917203,-0.7898755074858022,-0.1080770493850356
1684002478784833500,0.51223388671875,-3.7097618579002747,-0.18659091001338532,-0.349132537723994
1684002478794875300,0.522275634765625,-2.721840381781254,0.5931909084825664,-0.2647123336866886
1684002478804917400,0.53231787109375,-1.3308168648290062,0.4203562735818585,0.18865299227627957
1684002478814959600,0.54235986328125,-0.14424729351882024,-0.009686470039884588,0.7872161865374682
1684002478825001600,0.552402099609375,0.91440695535456,-0.6391601562419623,1.4501285553157215
1684002478835043600,0.56244384765625,1.6810401677396893,-0.8678832054873881,1.176400184772592
1684002478845085600,0.572486083984375,1.840362906437783,-0.9343724250632699,0.6047277449563351
1684002478855127700,0.582528076171875,1.5158208609103945,-0.7381224631748765,-0.06969642635864216
1684002478865169600,0.592570068359375,0.7747271656786832,-0.29860401167704587,-1.0526041985754075
1684002478875211600,0.602612060546875,0.1721347421954395,-0.018657207432084637,-1.1879482270985517
1684002478885253800,0.612654296875,-0.07326024771565896,0.3668966291987176,-1.3731889724692625
1684002478895295600,0.622696044921875,-0.04058676950740928,0.5501751898691755,-1.1059308052600523
1684002478905337800,0.63273828125,0.2364334763190485,0.419833660220186,-0.6447134017187673
1684002478915379900,0.6427802734375,0.7343188523309641,0.1508107187234727,-0.1441431044437915
1684002478925421700,0.652822265625,1.5064065456030398,0.27349615097899993,-0.02183246614356645
1684002478935463900,0.6628642578125,1.4168945550460597,-0.2003312112293142,0.4104437829173889
1684002478945506000,0.67290625,0.5612223148802475,-0.46431398384817346,1.5410094261943006
1684002478955547800,0.6829482421875,0.026704698848139356,-0.04308128366617522,1.9351630210574522
1684002478965589900,0.692990234375,-0.5461285115109544,0.6754684448955355,1.5403604508885576
1684002478975632000,0.703032470703125,-0.9859208465225451,0.7548880577015618,0.8577680586188879
1684002478985674200,0.713074462890625,-1.299724698046575,0.4672946930774927,1.3081636428964476
1684002478995716000,0.723116455078125,-1.4487144945764345,0.2753472328418948,1.0401144028347316
1684002479005758100,0.733158447265625,-1.3533477784215255,0.27170276641608665,0.6485795974824272
1684002479015800200,0.74320068359375,-0.9964553117646744,0.12521219248911203,0.3816571236058005
1684002479025842100,0.753242431640625,-0.3420269489684582,-0.15096187600960254,0.6113862991129008
1684002479035884200,0.76328466796875,0.7489340901212809,-1.187203883997621,1.9095349313000871
1684002479045926300,0.77332666015625,1.6739175318611144,-0.6602678298317721,1.8383612632767923
1684002479055968200,0.78336865234375,1.7107138633679577,-0.0484004021416808,1.1527166366979091
1684002479066010300,0.79341064453125,1.1703414915856252,-0.815573215530305,1.29881095872794
1684002479076052400,0.803452880859375,0.9037425516253191,-1.0369806288005463,1.0547966958640071
1684002479086094600,0.813494873046875,0.7571434974798256,-0.6568751335505026,0.47257423397249115
1684002479096136400,0.823536865234375,0.5372636914722938,-0.6062674522447113,-0.014337062933564222
1684002479106178600,0.833578857421875,-0.08891552678979474,-0.3622312546009271,-0.816538333969885
1684002479116220600,0.84362109375,-0.15176272385336761,-0.7393507958405308,-0.49486303328235964
1684002479126262400,0.853662841796875,0.005932927105709965,-0.8239240647018499,-0.2128643989126617
1684002479136304600,0.863705078125,0.19623720649663676,-0.33209514618413616,-0.23544836044440082
1684002479146346600,0.8737470703125,0.1410135625436879,-0.22042083736045073,0.11488580712745827
1684002479156388600,0.883788818359375,-0.5040639639598712,2.1839866637285104,-1.8469705582691867
1684002479166430600,0.8938310546875,-2.119213342677481,-1.0491256714855326,0.8926472664786969
1684002479176472800,0.903873046875,-1.8325589895574421,-1.300345897783834,1.8424110411737107
1684002479186514600,0.9139150390625,-0.85236358629614,-0.0007271767811106873,0.4917263984809964
1684002479196556600,0.92395703125,-1.3547986745269143,-0.08263015743543278,0.29788875577733764
1684002479206598800,0.933999267578125,-1.8534852265835926,-0.0016651153424992393,0.19168472289236327
1684002479216640600,0.944041015625,-1.4192214011139617,-0.8583660126304764,-0.09971189484839993
1684002479226682800,0.954083251953125,-0.16887342939660557,-1.2696876526576593,-0.652628421874753
1684002479236724900,0.964125244140625,0.08393383037506418,-0.7429766655414538,-1.3733086586427816
1684002479246766800,0.974167236328125,-0.46808946122712786,-0.46837663650518035,-1.3590564728171486
1684002479256808900,0.984209228515625,-0.618675828072493,1.1626725195755743,-0.5229954718176462
1684002479266851000,0.99425146484375,-1.448973536571206,-0.2071828843032974,-0.7301764488452253
1684002479276893100,1.00429345703125,-0.6380373238490091,0.01051664345267651,-1.4004235267315677
1684002479286935000,1.01433544921875,-0.29671382905048466,0.016558170313290987,-1.5887413024466346
1684002479296977100,1.02437744140625,-0.39700627331907995,-0.29729080200667574,-1.513650894138091
1684002479307019200,1.034419677734375,-0.2617411614361413,-0.24383831021160998,-1.3321175576748405
1684002479317061000,1.04446142578125,-0.16147828085475335,-0.10508394239908125,-1.0802178383332068
1684002479327103200,1.054503662109375,-0.11569356917298548,-0.5663452147727336,-0.9009003638103745
1684002479337145300,1.064545654296875,0.08185982717134627,-1.4117126464270773,-0.24329566951171225
1684002479347187100,1.07458740234375,0.1086025238291673,-1.2970628738548107,0.6969957351355958
1684002479357229200,1.084629638671875,0.1234560013180173,-0.8109669685067797,1.0047106743597163
1684002479367271300,1.094671630859375,0.15940785411847347,-0.547225952211274,0.6070165632841271
1684002479377313200,1.104713623046875,0.10735058783384553,-0.430449008933661,0.31895160681322826
1684002479387355300,1.114755615234375,0.039410829568993874,-0.4609026908908646,0.13481283185936263
1684002479397397400,1.1247978515625,0.08841681478348179,-0.3742642402203828,-0.24414920817123356
1684002479407439300,1.134839599609375,0.16333174716745813,0.03561019895327427,-0.3725967406706925
1684002479417481400,1.1448818359375,0.06678080554247036,-0.8205137252738094,-0.5122194290826115
1684002479427523600,1.154923828125,0.24639964108949286,-1.1752772331553918,-0.9567532538159469
1684002479437565400,1.1649658203125,0.658470392321374,-1.3560662271332975,-0.9336066246952951
1684002479447607500,1.1750078125,1.0324087143687783,-1.0323624611628606,-0.5853772163545327
1684002479457649600,1.185050048828125,-0.48071265212799097,-1.1812086105571316,-1.5786519049741128
1684002479467691600,1.195092041015625,-2.0820360184489908,-0.5434885025079084,-2.684905528950873
1684002479477733600,1.205134033203125,0.4584403036812333,-9.393683364560485e-05,-1.0318856238303806
1684002479487775600,1.215176025390625,1.537302494058957,0.24919366825081263,-0.46034812932867025
1684002479497817800,1.22521826171875,0.02318739890778442,0.13217496864062475,-0.45021009439055143
1684002479507859600,1.235260009765625,0.11276233204238775,0.47192668911969116,-0.5019793511027911
1684002479517901700,1.24530224609375,0.5991325378411586,0.7099709511597128,-0.9163851738803018
1684002479527943900,1.25534423828125,0.36978626251686286,-0.11166667936258012,-1.1646490096879183
1684002479537985600,1.26538623046875,-0.03079485881548539,-1.0916781425144169,-1.24282789227746
1684002479548027800,1.27542822265625,-0.23346126077550622,-1.5164799688754942,-1.184097290061703
1684002479558069900,1.28547021484375,-0.3324756621562713,-1.010462760955855,-0.779304981092971
1684002479568111800,1.29551220703125,-0.4305776358223342,-0.164395809133835,-0.14897584922443285
1684002479578153900,1.30555419921875,-1.3051806690096799,0.49486684796296077,-0.5123939514435862
1684002479588196000,1.315596435546875,-1.900640725989231,0.17042207726543554,-2.0647406578706526
1684002479598237900,1.32563818359375,-1.5044581889561477,0.11733722700935237,-1.6986045836666306
1684002479608280000,1.335680419921875,-1.312535285927059,0.38560914976162514,-0.5030503272623406
1684002479618322100,1.345722412109375,-0.7812690734094376,0.44717359527516176,0.8644480705483188
1684002479628364200,1.3557646484375,-0.6704415084549552,0.25403642645345437,1.1193342210223185
1684002479638406100,1.365806396484375,-0.5502489806021087,-0.04723167417249233,0.8752961159730052
1684002479648448200,1.3758486328125,-0.42194485659875947,-0.3412461281598552,-0.47338724143790406
1684002479658490300,1.385890625,-1.4602327347184647,-0.5290813444559527,-0.6305041314541082
1684002479668532100,1.3959326171875,-1.1233777998759742,-0.3772330284132276,-1.8341307638572641
1684002479678574300,1.405974609375,-0.43543890123715295,-0.8198142052187162,-2.0187273025196824
1684002479688616400,1.416016845703125,-0.07867492733887645,-0.8284397124657723,-2.28668975815853
1684002479698658200,1.42605859375,-0.2173421383041829,-0.9335918425002758,-1.965866565886314
1684002479708700300,1.436100830078125,-0.1780859381402724,-0.7990136146320433,-1.6002340318170953
1684002479718742400,1.446142822265625,0.07177315641970557,-0.791975021338928,-1.76495027536343
1684002479728784600,1.45618505859375,0.26915997282755755,-0.5249462127829089,0.13484048859538594
1684002479738826400,1.466226806640625,0.5755058525828307,-0.2626132964446928,-0.05861616143347234
1684002479748868600,1.47626904296875,-0.20517110820437262,-0.2216691970671986,-1.2797155379837413
1684002479758910600,1.48631103515625,0.14350092400449635,0.34955120081569857,-0.3270730973455323
1684002479768952600,1.496352783203125,0.05366611488637058,0.5240564345349132,-0.8045930863776776
1684002479778994600,1.50639501953125,-0.44982108490059713,0.13082885729895183,-0.6327300072745794
1684002479789036600,1.51643701171875,-0.1761650442496251,-0.01684141163865711,-0.013084888433830552
1684002479799078600,1.52647900390625,0.05190360544230185,-0.13704109209261148,0.5680909156706293
1684002479809120600,1.53652099609375,-1.5942898989616616,-0.17321825019637554,0.9118342399154653
1684002479819162800,1.546563232421875,-0.6444318294350989,0.388568401297031,1.2878346443756536
1684002479829204600,1.55660498046875,-0.9473066926980044,0.8705520629662286,0.8192224503417336
1684002479839246800,1.566647216796875,-2.6550450324093955,1.3168115616048797,1.3239636421337733
1684002479849288900,1.576689208984375,-2.3925325870187937,1.5330500601060593,0.7055501937835593
1684002479859330700,1.586731201171875,-2.7825870513804767,1.2695436478089865,0.577288150804314
1684002479869372800,1.596773193359375,-0.5323654414922997,0.9087390900654722,0.32991933826904074
1684002479879415000,1.6068154296875,-0.34747982030569624,0.11321735366455757,0.234153747569663
1684002479889457100,1.616857421875,1.0528702736239832,-0.24621725078425372,0.14804315558198128
1684002479899498900,1.6268994140625,0.11643075958811577,-0.36011695860711407,-0.22397851951729947
1684002479909541000,1.63694140625,-0.24500763428337885,0.09237384792307833,-0.09185934079054253
1684002479919583200,1.646983642578125,-0.7517566680847148,0.27736663814742146,0.26812314975899626
1684002479929625000,1.657025390625,0.11152219768769304,0.08064413061004914,0.30488347999707077
1684002479939667100,1.667067626953125,-0.2976757287129459,-0.07425355905219196,0.3408579826682211
1684002479949709200,1.677109619140625,-0.2177960871363764,0.14330720898652216,0.016167640531634758
1684002479959751100,1.6871513671875,-0.658731937336892,0.1032991409061327,-0.02013349529499015
1684002479969793200,1.697193603515625,-0.6407926083265609,-0.10340309155680862,0.10002136217759067
1684002479979835300,1.707235595703125,-1.0161393881397907,-0.40389204021989217,0.6169438361389498
1684002479989877200,1.717277587890625,0.933717727672257,-0.914147853858989,0.6691975593025992
1684002479999919300,1.727319580078125,-0.012252807774628638,-1.7142591476286457,0.5094165802166405
1684002480009961400,1.73736181640625,0.7485530376470717,-1.642385482807941,0.6220641135261243
1684002480020003200,1.747403564453125,0.7971739769207161,-1.712644577097222,0.6687207223347946
1684002480030045400,1.75744580078125,0.215490341033212,-1.3916411400993478,0.4456696509800537
1684002480040087600,1.76748779296875,-0.18159198756992792,-0.4682374000409204,0.15023756021901674
1684002480050129300,1.77752978515625,0.40492057805124243,-0.2114095688481713,0.1356086730576471
1684002480060171400,1.78757177734375,0.09865093231830442,0.2671732902313421,-0.15074872979990442
1684002480070213600,1.797614013671875,0.5124676227497318,0.9254784583582358,-0.217487335196753
1684002480080255600,1.807656005859375,0.6751618386012813,0.9322433472168935,-0.30571842202377364
1684002480090297600,1.817697998046875,0.8605628012747306,0.9040689469167812,-0.3451323508904894
1684002480100339600,1.827739990234375,0.9405517579011949,0.8827672005091629,-0.49573707589410226
1684002480110381700,1.8377822265625,0.829294204731815,0.680887699316904,-0.36573266982973474
1684002480120423600,1.847823974609375,0.8734381198581603,0.7219839095729034,-0.3331050873304665
1684002480130465600,1.8578662109375,0.7855231762886707,0.6310882568552872,-0.5280237196415363
1684002480140507800,1.867908203125,0.5224552155781867,0.35972690582702105,-0.8943119049184466
1684002480150549600,1.8779501953125,0.7255165576356334,0.4947795868796321,-0.9999423027330276
1684002480160591800,1.8879921875,1.0546989441575876,0.5017232894326913,-1.0484323501557986
1684002480170633900,1.898034423828125,1.1651411055487755,0.5560178758052967,-1.139774322503257
1684002480180675800,1.908076171875,1.2011303902122505,0.8004369735210385,-1.2352447508776487
1684002480190717900,1.9181181640625,1.094810485932163,0.7776012420146974,-1.3760213851613943
1684002480200760000,1.928160400390625,0.9753143785634265,0.4922375678893693,-1.2407727241654918
1684002480210801800,1.9382021484375,1.0517618656940915,0.4070177077885414,-1.012884616877523
1684002480220844000,1.948244384765625,1.547571182350846,0.6009850501179431,-0.9363288878449244
1684002480230886100,1.958286376953125,1.098826885222826,0.27385568629961543,-0.8328366281284661
1684002480240927900,1.968328369140625,0.6188228130080587,-0.2204957007753232,-0.8585705757823292
1684002480250970000,1.978370361328125,-0.039603948691945216,-0.47067260744619016,-1.0117945671818276
1684002480261012100,1.98841259765625,-0.15543103219105853,-0.7273607253598836,-1.370291709949045
1684002480271054300,1.99845458984375,0.16461718081487528,-1.0790014267926868,-1.7138924598356498
1684002480281096100,2.00849658203125,0.37815999970966013,-1.7574167251107422,-1.3828058243362151
1684002480291138200,2.01853857421875,0.553437948363085,-2.2703619004969484,-1.2545199393117739
1684002480301180300,2.028580810546875,1.0533759594200964,-2.236176967616289,-0.7110667228896795
1684002480311222200,2.03862255859375,1.0862262250546522,-1.7124700546375755,-0.8343915939060865
1684002480321264300,2.048664794921875,0.5007116198086291,-1.0781016350536772,-1.04769802098911
1684002480331306400,2.058706787109375,-0.04134792077300923,-0.20407342913154744,-1.2179770469405165
1684002480341348600,2.0687490234375,-0.24980729811919727,0.5161261559311479,-1.3164706231050347
1684002480351390400,2.078790771484375,-0.09963563067427504,0.734143734092784,-1.2308626175235766
1684002480361432600,2.0888330078125,0.1273488401498971,0.5300846100041171,-0.7565445900086951
1684002480371474600,2.098875,0.22579412170023763,0.23629999158620046,-0.388046741346201
1684002480381516500,2.108916748046875,0.49454653255983844,0.11898326858629066,-0.5276789664350999
1684002480391558600,2.118958984375,0.8819839953801846,-0.14200210570975302,-0.6735577583837933
1684002480401600600,2.1290009765625,1.2564206123963775,-0.7865543364811789,-0.26364469520915956
1684002480411642600,2.13904296875,1.4031969308570422,-1.2251467705529493,-0.02807140350138197
1684002480421684600,2.1490849609375,1.500977635456815,-0.8338103294762435,-0.35332155227288464
1684002480431726600,2.159126953125,1.3510031700274971,-0.014218807170013236,-0.5526895523898442
1684002480441768600,2.1691689453125,0.9200358986688998,0.6071615218853436,-0.3721947669908081
1684002480451810700,2.179211181640625,0.3592621981347192,1.0395312307598787,-0.0015029907286406925
1684002480461852800,2.189253173828125,-0.399420440371932,0.2549991607219577,0.5219593047737962
1684002480471894600,2.199295166015625,-0.27767944320986837,-0.49724578856969603,1.147482872039315
1684002480481936800,2.209337158203125,0.7898507118555493,-0.5867829323428431,1.3086290358710884
1684002480491978900,2.21937939453125,1.596347808814758,-0.5315737725340501,1.4901647568645822
1684002480502020800,2.229421142578125,2.2413036823081613,-1.1057672499377666,1.9230422973545789
1684002480512062900,2.23946337890625,2.0817003250881383,-0.6305999755986519,2.2255005837245103
1684002480522105000,2.24950537109375,1.1227093936424328,0.3544759750844521,1.5224213601163483
1684002480532146900,2.25954736328125,0.09342624986635904,0.7099909782447017,0.7358708380308591
1684002480542189000,2.26958935546875,-0.5675091743963823,1.334228515656193,-0.18911933894365424
1684002480552231100,2.279631591796875,-1.0203950404407192,3.3543906211109946,-1.4581027029978946
1684002480562272900,2.28967333984375,-0.9158957601120633,3.2829566001979638,-1.9588751793245296
1684002480572315100,2.299715576171875,-0.30096894510665156,2.493408679810663,-1.3696470260575757
1684002480582357200,2.309757568359375,0.5738779306593568,0.7908897400303737,-0.1613988877076322
1684002480592399000,2.31979931640625,1.6181116104490834,-0.6715068817803994,1.1327047348880663
1684002480602441100,2.329841552734375,1.99294102183101,-1.4609794617156526,1.9663248061940755
1684002480612483200,2.339883544921875,1.9285073280682816,-1.2210144998018657,1.8231654166196056
1684002480622525100,2.349925537109375,1.2763274908066853,-0.7081804276349961,1.3629574776610982
1684002480632567200,2.359967529296875,0.5204306244838124,0.17673349383671164,0.7535543440824194
1684002480642609300,2.370009765625,-0.19450439514831025,0.9578490258901513,0.2158460618010511
1684002480652651400,2.3800517578125,-0.6300801038390323,0.9743580817873457,-0.04975175853278837
1684002480662693300,2.39009375,-0.69032847871321,0.41011667252715855,-0.15419626234908776
1684002480672735400,2.4001357421875,-0.4876931607325541,-0.2372627257744859,0.10691165915753574
1684002480682777600,2.410177978515625,0.11295828219330768,-0.31689357752943015,0.5052685736088949
1684002480692819400,2.4202197265625,0.27571707979263177,-0.06287479391855848,0.5032267571863253
1684002480702861600,2.430261962890625,0.6021904349632705,0.5806851385886499,0.17820119857048353
1684002480712903600,2.440303955078125,0.5798352955975092,0.7398509981180047,-0.2134604453575284
1684002480722945500,2.450345947265625,0.4861846863891654,0.6978764534158421,-0.634523868516514
1684002480732987600,2.460387939453125,0.22434797883408347,0.4062747955050038,-0.7327866554352565
1684002480743029600,2.47043017578125,0.25106278071970334,0.32007694252925495,-0.6319127084718401
1684002480753071600,2.480471923828125,0.33970218887515846,0.26186037069045925,-0.5299825667957728
1684002480763113600,2.49051416015625,0.2863226236723263,0.28544950486555126,-0.3349156379687252
1684002480773155800,2.50055615234375,0.24867004160312617,0.1834807394600934,-0.0329828262207412
1684002480783197600,2.510597900390625,0.047546178073413575,0.16688823706568257,0.22991800306834154
1684002480793239700,2.52064013671875,-0.03358861812123011,0.2860789298723142,0.37063932422684887
1684002480803281800,2.53068212890625,-0.06674079582224426,0.3333005905352213,0.24232149113891663
1684002480813323600,2.54072412109375,0.03510028118419837,0.2694244383464738,0.19341707225753937
1684002480823365800,2.55076611328125,0.1604336054031,0.2812571523953749,0.13610124584262492
1684002480833407900,2.560808349609375,0.19110140203050685,0.010753631688786859,0.161192893924892
1684002480843450000,2.570850341796875,0.1953659951633498,-0.04121875749373924,0.05594015121868408
1684002480853491900,2.580892333984375,0.3430647551083844,-0.5404882430915313,0.11629486083850946
1684002480863534000,2.590934326171875,0.5251784920819819,0.015656471219150377,0.6628684997267191
1684002480873576100,2.6009765625,0.23120872686891264,0.06250095375095145,0.920658111515783
1684002480883618000,2.611018310546875,-0.07997464394571521,-0.009603500462691907,1.221642017402578
1684002480893660100,2.621060546875,-0.31372761713650477,-0.5193653106215433,1.4302878379384916
1684002480903702200,2.6311025390625,-0.5091211199084661,-0.3814468385176976,1.8383555412318142
1684002480913744000,2.64114453125,-0.6290066241968414,-0.13919544226546926,1.8570847509719126
1684002480923786200,2.6511865234375,-0.2961218355377291,3.6705121992992074,1.7109737397988594
1684002480933828300,2.661228759765625,-1.0627216101315453,-1.1246271132837422,0.13797140130013857
1684002480943870100,2.6712705078125,-1.148102760309934,-1.5426225662881645,0.739211082375068
1684002480953912200,2.681312744140625,-0.9091051816255225,-0.6610879897831115,0.941066742037567
1684002480963954400,2.691354736328125,-0.45193341369280204,2.530037879972778,1.3095135689445887
1684002480973996200,2.701396728515625,-0.6930636168627445,-0.66924285886098,-0.2688679694434698
1684002480984038300,2.711438720703125,-0.870197355914549,-2.6268463135641507,0.5816292763790215
1684002480994080400,2.721480712890625,-0.6784392000575357,-1.5248088835648486,1.5671453474863657
1684002481004122300,2.731522705078125,-0.4211664199547344,-0.05585288988883472,1.502143382974914
1684002481014164400,2.741564697265625,-0.2617149353300748,0.4343290328927959,1.3578867911112265
1684002481024206600,2.75160693359375,0.3449485899558691,0.6652650833028823,0.42924499516967357
1684002481034248600,2.76164892578125,-0.1479179858164434,-3.1673412323616232,0.3787088394424275
1684002481044290600,2.77169091796875,-0.21274518950322957,-2.836946487392913,0.9321985245647022
1684002481054332600,2.78173291015625,-0.11691594122208042,-1.9972314834217444,0.9296045303584827
1684002481064374600,2.791775146484375,-0.18341648593295393,-1.148488044565188,1.1487197876351496
1684002481074416600,2.80181689453125,0.6668335199598805,3.2225837706582996,1.9471940992922523
1684002481084458600,2.811859130859375,0.46858775601880465,-2.8695983885317515,0.9978928567355315
1684002481094500800,2.821901123046875,-0.5091216563273341,-3.8663072585476788,0.9376583099074585
1684002481104542600,2.831943115234375,-0.6602754594374494,-2.576044082495938,1.6963090895857658
1684002481114584800,2.841985107421875,-0.33989453318978574,-0.33665466309460035,1.8121728895530578
1684002481124626900,2.85202734375,0.04487061513222538,0.9756407736975515,1.6834800242611747
1684002481134668600,2.862069091796875,0.2847881317661629,0.2575254440167489,1.715542554700331
1684002481144710800,2.872111328125,0.6765500307388544,-0.241132736194811,1.3072247505989472
1684002481154752900,2.8821533203125,1.2043786047891494,-0.00035762776512057867,0.9140524863946532
1684002481164794800,2.8921953125,1.485836625039808,0.3363971708875813,0.4714200496317981
1684002481174836900,2.9022373046875,1.72666704649648,0.5507535934718623,-0.1433405877896543
1684002481184879000,2.912279541015625,1.8505449296209633,0.7436280250896897,-0.71903514869525
1684002481194920900,2.9223212890625,1.857012510405735,2.6796979903553506,0.09842395784484968
1684002481204963000,2.93236328125,1.9625930786876127,-0.10012054460095184,-1.5833384989982227
1684002481215005100,2.942405517578125,2.8244800568000517,0.4011716841731792,-1.731145381822306
1684002481225047200,2.952447509765625,2.2866287230168756,0.5137634277962777,-1.4268620013755084
1684002481235089100,2.962489501953125,0.6952873468130774,0.27697086331101217,-1.2417449950398503
1684002481245131200,2.972531494140625,-0.28769779205077656,-0.835377693199172,-1.3489799500156103
1684002481255173300,2.98257373046875,-0.25064885618615346,-0.7904672623280479,-0.327900409728777
1684002481265215200,2.992615478515625,-1.8186479806222504,0.25834274288584014,0.20703506469750033
1684002481275257300,3.00265771484375,-6.939664840699314,1.1207404136864,0.8488459586162072
1684002481285299400,3.01269970703125,-4.903491973741297,1.3860692978396232,1.7370352745393614
1684002481295341200,3.02274169921875,-2.172964096000339,-0.08045291888848376,0.8692197800434049
1684002481305383300,3.03278369140625,-0.266718149288424,-1.5246391296447939,0.21053647997456804
1684002481315425500,3.042825927734375,1.1391760109814908,-2.195782661401786,-0.09826850881449442
1684002481325467300,3.05286767578125,2.2504563331758276,-2.668830871586765,-0.10980129256907711
1684002481335509400,3.062909912109375,2.903770923554319,-2.259894371080663,-0.5742039680703608
1684002481345551600,3.072951904296875,2.9613122939878926,-0.6658544540265166,-1.0987539290344788
1684002481355593400,3.082993896484375,2.327349424382008,0.6394605637469069,-1.1945843697406238
1684002481365635600,3.093035888671875,1.2397649287597936,1.123361587674765,-1.3281743526573286
1684002481375677600,3.103078125,0.4424965383031566,1.249810218635051,-1.4066309929194236
1684002481385719500,3.113119873046875,0.16973614693527897,1.6309900283615897,-1.6061182022956955
1684002481395761600,3.123161865234375,0.3427672386960359,2.062030315360861,-1.8187193870702305
1684002481405803600,3.1332041015625,0.4532957077283944,1.9164810180200218,-2.008044242702007
1684002481415845600,3.143245849609375,0.7129113673447893,1.6184425353342777,-2.0393900872462845
1684002481425887600,3.1532880859375,1.072882056195225,1.6284303666171416,-2.1477990150770165
1684002481435929800,3.163330078125,1.2011771201280625,1.0890927313951577,-1.9642000199085738
1684002481445971600,3.1733720703125,1.2309522629796386,0.10685729976020798,-1.9902250768355636
1684002481456013700,3.1834140625,1.0588330031312516,-0.6311826705331982,-2.156392335816187
1684002481466055900,3.193456298828125,0.850145697519027,-1.1648788451186736,-2.2294166087881164
1684002481476097600,3.203498046875,0.5358471870460075,-1.7070264816525595,-2.385119914984581
1684002481486139800,3.213540283203125,0.2506160735679881,-1.2901964189057553,-2.479694366629837
1684002481496181900,3.223582275390625,0.078566074322637,-0.3826971054152396,-2.3905253411486695
1684002481506224000,3.23362451171875,-0.10301113131179986,0.42837858199769574,-2.1598956585744844
1684002481516265900,3.243666259765625,-0.3446536064877063,0.5354690551953022,-1.4633705615767574
1684002481526308000,3.25370849609375,-0.7627062798622299,0.20856666566574536,-0.2726016045443587
1684002481536350100,3.26375048828125,-0.8510272503069753,-0.6500978469917086,0.3158497810951038
1684002481546392000,3.27379248046875,-0.8233382703420906,-0.552280425987381,1.2882647515070846
1684002481556434100,3.28383447265625,-0.7086184024212637,-0.16605186447044348,2.1210131644780224
1684002481566476200,3.293876708984375,-0.5826885699690515,-0.2603855132373764,2.5634748936375322
1684002481576518100,3.30391845703125,-0.33871531488811524,-0.30976390839676016,2.3507826328037105
1684002481586560200,3.313960693359375,-0.18900346758712408,-0.47747707369111575,1.403763770896301
1684002481596602300,3.324002685546875,-0.19936585409046004,-0.8261022566090044,0.1861920355691551
1684002481606644100,3.33404443359375,-0.21162605294985923,-1.0765323638505342,-0.9185342788458837
1684002481616686300,3.344086669921875,-0.29432153686305546,-0.9690322875934824,-1.5408046245283686
1684002481626728400,3.354128662109375,-0.2926080227488156,-0.37011337269657857,-1.5246524811479156
1684002481636770200,3.364170654296875,-0.41493821142864923,-0.7955675124810287,-1.5710721015783813
1684002481646812300,3.374212646484375,-0.5301032065978705,-0.5235271452835665,-1.1595160960794866
1684002481656854400,3.3842548828125,-0.6967611313228586,0.0903177260420045,-0.5821261406807802
1684002481666896300,3.394296630859375,-0.8213462828517247,0.389025688041987,-0.14952325829949342
1684002481676938400,3.4043388671875,-0.8034675122451866,0.3558740614585073,8.559229062376697e-05
1684002481686980600,3.414380859375,-0.6374280452138618,0.4353876112622304,0.1038420199062786
1684002481697022400,3.4244228515625,-0.3450794219185682,0.5554285049472998,0.19185852996714897
1684002481707064600,3.43446484375,-0.09547233582662157,0.7449455261234823,0.29134058961142995
1684002481717106600,3.444507080078125,-0.03033518798731531,0.7586717606151063,0.2883098125250994
1684002481727148500,3.454548828125,-0.12949585927919458,0.6878910066334741,0.47335648539413705
1684002481737190600,3.464591064453125,-0.4156465530203554,0.6427869797093108,0.7813880444500105
1684002481747232600,3.474633056640625,-0.7801320553083428,0.809372901998244,1.1421701907087387
1684002481757274600,3.484675048828125,-1.2905166149763119,0.1326789855722575,1.04411053662825
1684002481767316600,3.494717041015625,-1.5268864632993109,-0.2993240356168788,1.020359516056159
1684002481777358800,3.50475927734375,-1.3685481549348846,0.11758708965396306,1.1611337661083792
1684002481787400600,3.514801025390625,-0.8181483747349293,-0.23444461819136758,0.8262605668318495
1684002481797442700,3.524843017578125,-0.06428527827012348,-0.19836330422954587,0.682130813569771
1684002481807484800,3.53488525390625,0.6797888279006756,0.01662158970438023,0.13638806355172853
1684002481817527000,3.54492724609375,1.2269781827828017,0.04250812519118277,-0.29782557488989403
1684002481827568800,3.55496923828125,1.452822089084508,-0.1789646148377371,-0.5940403938772777
1684002481837610900,3.56501123046875,1.1990848779278869,-0.3988361358331877,-0.9617488383276976
1684002481847653000,3.575053466796875,0.37681126597942716,-0.3198709487307706,-1.9743083713662197
1684002481857694900,3.58509521484375,-0.4070320128608662,-0.25749778739659435,-2.4759972095547047
1684002481867737000,3.595137451171875,-1.156535625551526,0.6225452422721064,-1.8792538642797192
1684002481877779100,3.605179443359375,-1.947319030674689,-0.5883207321048239,-1.9702274798608852
1684002481887821000,3.615221435546875,-2.74887585638887,-0.5796661375858709,-1.6949707270239909
1684002481897863100,3.625263427734375,-3.1073381900971206,-0.8553028107894474,-1.1942056417635798
1684002481907905200,3.6353056640625,-2.7468795775927544,-1.0743312835876073,-0.6097595690239406
1684002481917947100,3.645347412109375,-1.8973436354667292,-1.5508861541512207,0.038338661242965685
1684002481927989200,3.6553896484375,-0.8469026089825533,-2.0131034849276657,0.5669469834524269
1684002481938031300,3.665431640625,0.206037759719143,-2.241884231553077,1.119735479494841
1684002481948073100,3.6754736328125,1.3502236605554367,-2.4839630127429313,1.4834423063991067
1684002481958115200,3.685515625,2.464040279421233,-2.440767288157232,1.3384513855118896
1684002481968157400,3.695557861328125,3.2186875343348236,-2.1005830765214832,0.8163444995226826
1684002481978199200,3.705599609375,3.785059690596791,-1.645333290073777,0.05447483060203885
1684002481988241300,3.715641845703125,4.075585842159331,-0.6140651703345696,-0.31374931331472194
1684002481998283400,3.725683837890625,3.8058605195295834,-0.04291820518462915,-0.5517716407756402
1684002482008325600,3.735725830078125,3.241529464854063,0.08825397498813636,-1.0244754553007314
1684002482018367400,3.745767822265625,2.7051284314058237,0.09030914320295287,-1.4395802021712907
1684002482028409600,3.755809814453125,2.3594486714160037,0.15548038466553324,-1.82418560969432
1684002482038451600,3.76585205078125,2.0436482430774183,0.3229293824103214,-2.0238487721036216
1684002482048493600,3.775893798828125,1.7419220210136905,0.5169095991949977,-1.983497500394249
1684002482058535600,3.78593603515625,1.4780427216752863,0.744605064368851,-1.5871955156198485
1684002482068577600,3.79597802734375,1.2980486154082576,0.3965463639168126,-1.1186765433434913
1684002482078619600,3.80602001953125,1.2069166897597385,-0.06604957596383859,-0.7071071862484108
1684002482088661600,3.81606201171875,1.1916862724954524,-0.27971553822332607,-0.19696140290620923
1684002482098703800,3.826104248046875,1.3097668886311962,-0.17249393467680643,0.12285017979094229
1684002482108745600,3.83614599609375,1.4922432899066032,0.03329753877666492,0.22385287285234196
1684002482118787800,3.846188232421875,1.4387791155728922,0.04364109035061606,0.30502390868236356
1684002482128829900,3.856230224609375,1.195437669666177,-0.014131545993056112,0.5127964019951683
1684002482138871600,3.866272216796875,0.9585515261009425,-0.1662960052859164,0.6258950232864119
1684002482148913800,3.876314208984375,0.7691966296849884,-0.43701076500016384,0.7807312011689803
1684002482158956000,3.8863564453125,0.6950432061987795,-0.40586280823518583,0.8313255310405998
1684002482168997800,3.896398193359375,0.5174144506291535,-0.45860290520091107,0.869653463234987
1684002482179039900,3.9064404296875,0.4738987685710907,-0.28674125665474404,0.8401603697502007
1684002482189082000,3.916482421875,0.6445240975957007,-0.06169891363043586,0.8333206176045024
1684002482199123900,3.926524169921875,0.677549242977986,0.08354282373965591,0.8437829016155739
1684002482209166000,3.93656640625,0.6611731053024309,0.13047122950323597,0.8157522678798416
1684002482219208100,3.9466083984375,0.4427464008367604,0.08083057413803837,0.6276545525669954
1684002482229250000,3.956650390625,0.2129609585219584,0.05290031451118707,0.3120815755031087
1684002482239292100,3.9666923828125,0.20522844774591661,-0.017795562908599467,-0.10310220719355691
1684002482249334200,3.976734619140625,0.38998627661319984,-0.05179309840843579,-0.35544478897190673
1684002482259376000,3.9867763671875,0.7086209057982138,0.018262863123831234,-0.4961453676216156
1684002482269418200,3.996818603515625,1.0348367690949882,-0.08198738104212752,-0.4816347361516564
1684002482279460300,4.006860595703125,1.4120589493587206,0.17646408092041213,-0.4863090514203213
1684002482289502400,4.01690283203125,1.6223366260796266,-0.10697460173659178,-0.4642223120193518
1684002482299544200,4.026944580078125,1.899872899217155,0.2554063797879054,-0.577474117240261
1684002482309586400,4.03698681640625,1.9335235356631686,0.3199768067398748,-0.44160938270095834
1684002482319628500,4.04702880859375,1.827145218863117,0.1719112396230068,-0.08040404324215354
1684002482329670300,4.05707080078125,1.6798510550525936,-0.010938644500985405,0.19165158259585632
1684002482339712400,4.06711279296875,1.5091717243965181,-0.2297315596452024,0.30154848092359854
1684002482349754600,4.077155029296875,1.3382995128382307,-0.4901533125781516,0.3934140205722722
1684002482359796400,4.08719677734375,1.2371159792581792,-0.6086673736572508,0.48451209064152523
1684002482369838600,4.097239013671875,1.2162191867480237,-0.5724163055379664,0.47063446046314217
1684002482379880600,4.107281005859375,1.2173622845371075,-0.29915618895298546,0.5366642475016498
1684002482389922600,4.117322998046875,1.0832631586355816,-0.28785419462292866,0.4937410354625763
1684002482399964600,4.127364990234375,0.9626628159264184,-0.22066307059122484,0.5642068386129343
1684002482410006600,4.137406982421875,0.8869903088371969,-0.07985496532565035,0.6663591862229299
1684002482420048600,4.147448974609375,0.81411242478551,0.16213512422475304,0.6973311900686127
1684002482430090600,4.157490966796875,0.8355123997306098,0.2447776794887558,0.6706306934437579
1684002482440132800,4.167533203125,0.8846004009452278,0.5584859848587996,0.760885715530249
1684002482450174600,4.177574951171875,0.8152408598302038,0.5917034148418729,0.8227958677893382
1684002482460216800,4.1876171875,0.5990225076497634,0.4129152299206811,0.7856011390224223
1684002482470258900,4.1976591796875,0.3243414164370243,0.35188484182299756,0.4696063995391883
1684002482480300600,4.207701171875,0.07863044739370079,0.3997287749125539,0.20333290117361746
1684002482490342800,4.2177431640625,-0.09771019226137762,0.4663190841835074,0.05775403977370652
1684002482500384900,4.227785400390625,-0.23543250575190822,0.39919471742171087,-0.027276992849848077
1684002482510426800,4.2378271484375,-0.2670242190063025,0.24188995360400753,-0.09103178974552988
1684002482520468900,4.247869384765625,-0.10656869403193754,0.04740428920128035,-0.17563843712681942
1684002482530511000,4.257911376953125,0.17936778058825195,-0.1862668990013053,-0.17109274855455514
1684002482540552900,4.267953369140625,0.498566657168635,-0.5401496887788582,-0.15781116483880722
1684002482550595000,4.277995361328125,0.8355112671348075,-0.6365289688405155,-0.17784786225149707
1684002482560637100,4.28803759765625,1.1508071421532526,-0.4041576385354338,-0.2870808838652826
1684002482570679000,4.298079345703125,1.4410482645909926,0.1516580581489258,-0.3563721179897032
1684002482580721100,4.30812158203125,1.5185308456645419,0.32339286809385065,-0.37273013589281107
1684002482590763200,4.31816357421875,1.5366188288274742,0.30325889602751244,-0.3866659403274134
1684002482600805300,4.328205810546875,1.510360598452189,0.18737602245166035,-0.37536287293597
1684002482610847200,4.33824755859375,1.5330915450718572,-0.13401603698607706,-0.3220295906423029
1684002482620889300,4.34828955078125,1.417235374357127,-0.44844722757856326,-0.16614794732828012
1684002482630931400,4.358331787109375,1.1354007720421004,-0.7284603120540007,-0.0232187508600809
1684002482640973200,4.36837353515625,0.9608147144806638,-0.8798160554405651,0.17440986624102403
1684002482651015300,4.378415771484375,0.9975482225165768,-0.7553634642381772,0.36537015440379156
1684002482661057500,4.388457763671875,1.001208543822644,-0.48481845861123085,0.30159509184101885
1684002482671099300,4.398499755859375,0.9128623009172339,-0.4840879439276666,0.181395530640728
1684002482681141400,4.408541748046875,0.9054626821390958,-0.4252309798563453,0.10440778732855573
1684002482691183600,4.418583984375,0.7998508215543128,-0.3751373290798835,-0.15856266019059623
1684002482701225400,4.428625732421875,0.6996072531128216,-0.30504226678119933,-0.2748098373220701
1684002482711267600,4.43866796875,0.6262108086764172,-0.24605464933655888,-0.32168138023462933
1684002482721309600,4.4487099609375,0.5750952958783647,-0.2912778854334837,-0.3592257500234293
1684002482731351600,4.458751953125,0.5757862925396318,-0.19404888151576616,-0.3950356245023924
1684002482741393600,4.4687939453125,0.6530843377822964,0.07474803925660564,-0.39678049081376243
1684002482751435600,4.478836181640625,0.6877739429002112,0.08300590503795076,-0.3329659699292588
1684002482761477600,4.4888779296875,0.636477589661179,-0.14703178406460132,-0.2689864635800049
1684002482771519600,4.498920166015625,0.5401929616544942,-0.24951839457526687,-0.25695812707523336
1684002482781561800,4.508962158203125,0.45603260389335715,-0.2775506971661406,-0.23520398141271068
1684002482791603600,4.519004150390625,0.5149402619066812,-0.10974502560374669,-0.21741437914585834
1684002482801645700,4.529046142578125,0.6854943633153355,0.14812946309963665,-0.10597932339204304
1684002482811687900,4.539088134765625,0.8407320975653504,0.37397384643845377,-0.07273602485290806
1684002482821729600,4.549130126953125,0.9693403245267002,0.5369195937481068,-0.07248473170217488
1684002482831771800,4.559172119140625,1.136869311362248,0.5751352309005596,0.04292953021550786
1684002482841813900,4.56921435546875,1.2017827034460686,0.632188797029668,0.1916253568130694
1684002482851855800,4.579256103515625,1.2747006416045135,0.5575284957662542,0.21840643886582206
1684002482861897900,4.58929833984375,1.2362011671401465,0.45411682129337816,0.31093740456289914
1684002482871940000,4.59934033203125,1.2311699390993889,0.34333324427084283,0.35973894586107774
1684002482881981900,4.60938232421875,1.1758813857131698,-0.05172252660662055,0.2602484225257133
1684002482892024000,4.61942431640625,1.1300306321176783,-0.4482440949055684,0.24255692950385946
1684002482902066100,4.629466552734375,1.0140305757453119,-0.7626295089754052,0.3093045949817224
1684002482912108200,4.639508544921875,0.9128056169993954,-0.8711585998247788,0.31300520884258065
1684002482922150100,4.649550537109375,0.9170910118893448,-0.6264696120480582,0.30168163778988616
1684002482932192200,4.659592529296875,0.9759873152630341,-0.1845674512954759,0.18580925469236123
1684002482942234300,4.669634765625,0.9900778532349845,0.03628921502447384,0.15155971034088397
1684002482952276100,4.679676513671875,0.9361779093129653,0.17515754704616057,0.06659197807598427
1684002482962318300,4.68971875,0.8734991551852024,0.1416130066143156,-0.049258470358175946
1684002482972360400,4.6997607421875,0.7997058630232313,0.038931846707443964,-0.08491933339347824
1684002482982402200,4.709802734375,0.7805254459008674,0.04158782969148288,-0.18687713145510346
1684002482992444300,4.7198447265625,0.6207216976387355,0.0877132416746251,-0.6005093454768635
1684002483002486400,4.729886962890625,0.3421658278639292,-0.0744190216551217,-0.5810891986655139
1684002483012528300,4.7399287109375,0.09639137992641338,0.030877113434837598,-0.5215060113985222
1684002483022570400,4.749970703125,-0.1270084379413857,-0.10242366805419675,-0.45448482050859484
1684002483032612600,4.760012939453125,-0.27736920122362857,-0.1411075591735892,-0.1858556271451598
1684002483042654400,4.7700546875,-0.3905950784890096,0.01170158385760591,0.07475209227797926
1684002483052696600,4.780096923828125,-0.46355873332508846,0.37107181549453633,-0.044751405665793755
1684002483062738600,4.790138916015625,-0.46235170963014816,-0.024812698419318727,-0.053550720167864864
1684002483072780500,4.800180908203125,-0.26316857347315714,-0.4142637253375252,0.21198999884148573
1684002483082822600,4.810222900390625,-0.03172221764612408,-0.2089242936046775,0.4068130255125005
1684002483092864600,4.82026513671875,0.05498221512847761,0.053806305096302055,0.21914172177820726
1684002483102906600,4.830306884765625,0.14115709055550052,0.24103641505517814,0.14395082003054213
1684002483112948600,4.84034912109375,0.42564901719240666,0.09517669680659471,0.34332525718994994
1684002483122990800,4.85039111328125,0.5990699529390983,-0.027148246912080877,0.4855279921401358
1684002483133032600,4.86043310546875,0.6702486871645994,-0.03453826897418961,0.5351088047552901
1684002483143074700,4.87047509765625,0.720172882085652,0.07105350489779826,0.5789514779652002
1684002483153116800,4.880517333984375,0.801387131205999,0.16770648948815894,0.5854665041773064
1684002483163158600,4.89055908203125,0.8730653523608208,0.24851512906698595,0.6466181277438585
1684002483173200800,4.900601318359375,0.8780971169167652,0.2597045897831233,0.5708404779053693
1684002483183242900,4.910643310546875,0.8467339276687269,0.37222003938028303,0.46964657311866675
1684002483193285000,4.920685546875,0.6924262046600377,0.3890733718286125,0.3509911299962039
1684002483203326900,4.930727294921875,0.5412858724895989,0.3847122193139938,0.2762951851719483
1684002483213369000,4.940769287109375,0.4096506833503757,0.3451480864599822,0.232770681290565
1684002483223411100,4.9508115234375,0.3020291328207003,0.2564601898322458,0.289199471398813
1684002483233453000,4.960853271484375,0.16787797215752373,0.19924068443637857,0.14164435868167985
1684002483243495100,4.9708955078125,0.015699803949776114,-0.057867050015985806,-0.06535494338908546
1684002483253537200,4.9809375,-0.08038592338203782,-0.17726898186026688,-0.06656908969619754
1684002483263579100,4.9909794921875,-0.19148558367813504,-0.26012802142292946,-0.02238452438924204
1684002483273621200,5.001021484375,-0.2769124507930884,-0.34961414336655783,0.12299716459246839
1684002483283663300,5.011063720703125,-0.36151003829191136,-0.26032447813090404,0.20769274224297027
1684002483293705100,5.02110546875,-0.45145034790651645,-0.1980037688729366,0.3677202462393364
1684002483303747200,5.031147705078125,-0.6065665482109525,-0.20808410652102927,0.5781106949544428
1684002483313789400,5.041189697265625,-0.8257156610858684,-0.16883945467743694,0.8140910863481359
1684002483323831200,5.051231689453125,-1.045063614919095,-0.07592010498605797,1.029796242744099
1684002483333873300,5.061273681640625,-1.2580384014282093,0.06059741975326771,1.200919508997393
1684002483343915400,5.07131591796875,-1.4320659637960595,0.18771648393397997,1.2487440109157146
1684002483353957300,5.081357666015625,-1.5303155185400317,0.24305915828499974,1.3219048976771786
1684002483363999400,5.09139990234375,-1.5100426674857788,0.20277404789477804,1.3349038361284709
1684002483374041600,5.10144189453125,-1.487697958940964,0.09103965753191966,1.414856314630501
1684002483384083400,5.11148388671875,-1.4468744993015803,-0.036700248622136514,1.3950159550139887
1684002483394125600,5.12152587890625,-1.4625672102911047,-0.2754297256821373,1.395261407020888
1684002483404167600,5.131568115234375,-1.4803380966498536,-0.6077394485071905,1.402763247348265
1684002483414209500,5.14160986328125,-1.3771178723109538,-0.7776784896411226,1.3597469329452374
1684002483424251600,5.15165185546875,-1.1210629940684398,-0.8382863998118812,1.2405707837411886
1684002483434293600,5.161694091796875,-0.6727519034423998,-0.9165649413945997,1.1347686051016523
1684002483444335600,5.17173583984375,-0.07015514373739862,-0.8546056749387221,0.9563091993463044
1684002483454377600,5.181778076171875,0.6301279066851296,-0.7905931472848436,0.8027602435295115
1684002483464419800,5.191820068359375,1.3264198301479888,-0.6733789442394525,0.6216410398239998
1684002483474461600,5.201862060546875,1.853706240702126,-0.4230279923595372,0.44046699990799537
1684002483484503700,5.211904052734375,2.1536562442796026,-0.2682762146566444,0.295214533739472
1684002483494545800,5.2219462890625,2.284803867320419,-0.1918573379103497,0.11205267914929543
1684002483504588000,5.23198828125,2.4802310466821558,-0.13348770143823002,0.021571874589076973
1684002483514629800,5.2420302734375,2.619194030823071,-0.06391048438502551,-0.0020611285586619042
1684002483524671900,5.252072265625,2.610882043835708,0.05060291287441235,-0.11772203441086011
1684002483534714000,5.262114501953125,2.4559395314509467,-0.017427444521236662,-0.24964058396576502
1684002483544755900,5.27215625,2.266935825380579,-0.12310504913283403,-0.26561677455107047
1684002483554798000,5.282198486328125,2.209362030120709,-0.4253683090053753,-0.27287054058541665
1684002483564840100,5.292240478515625,2.209226608305198,-0.6955413817441647,-0.2704151868506329
1684002483574882000,5.302282470703125,2.058747291631695,-0.562222480776255,-0.23153746127991504
1684002483584924100,5.312324462890625,1.7931122779134845,-0.2799615859586719,-0.6220134496450757
1684002483594966200,5.32236669921875,1.5107743741913369,-0.548338889968876,-0.8956608771976677
1684002483605008000,5.332408447265625,1.2723138331384702,-0.6314163207870138,-1.0236736536181341
1684002483615050200,5.342450439453125,0.9365490674804002,-0.7337808609185525,-1.0958364010559125
1684002483625092300,5.35249267578125,0.6221816540862433,-0.5059146882763736,-1.3046323061007365
1684002483635134100,5.362534423828125,0.39807844159869743,0.40118408204999106,-1.118960261249453
1684002483645176200,5.37257666015625,-0.3564436434098809,0.8804225921646845,-0.288616657307433
1684002483655218400,5.38261865234375,-1.4062697888997093,1.1447048187134894,0.5144333839777608
1684002483665260200,5.39266064453125,-2.062561511874333,1.0263576507192027,0.6669633388587163
1684002483675302300,5.40270263671875,-1.9266139268450628,1.0376300811939796,0.40690135946935757
1684002483685344400,5.412744873046875,-1.1939488650953425,0.8818187714758443,-0.1631495952259676
1684002483695386300,5.42278662109375,-0.5578407047545926,0.4369935990037896,-0.36707448971981804
1684002483705428400,5.432828857421875,-0.15974044793555733,-0.03728580461022401,-0.6161557435162868
1684002483715470600,5.442870849609375,0.048552632165408324,-0.2969703675420373,-0.9971740245528968
1684002483725512400,5.452912841796875,0.22133755686476225,-0.327665328955161,-1.4672771693617983
1684002483735554600,5.462954833984375,0.333459973412885,-0.33239650715760655,-1.9776328801855523
1684002483745596600,5.4729970703125,0.4082560538263724,-0.3297491072920061,-2.381033182185065
1684002483755638400,5.483038818359375,0.4371964931570269,-0.2855892181708289,-2.6740095614620127
1684002483765680600,5.4930810546875,0.3621095418041281,-0.32370567339359674,-2.767540931586121
1684002483775722600,5.503123046875,0.2483378648258298,-0.2621765136103391,-2.7780005931582106
1684002483785764600,5.5131650390625,0.013831973066657099,-0.14153575898146326,-2.72029733658383
1684002483795806600,5.52320703125,-0.19129514684757948,-0.08583927144715701,-2.6474964618421533
1684002483805848800,5.533249267578125,-0.36232948295592154,-0.011003494336885604,-2.4735217094194257
1684002483815890900,5.543291259765625,-0.43944811826928687,0.20927143098871204,-2.138136863751354
1684002483825932600,5.5533330078125,-0.4734327793019532,0.40900230399003673,-1.679091215151932
1684002483835974800,5.563375244140625,-0.44870018960460145,0.44189929956696317,-1.3105682133622967
1684002483846016900,5.573417236328125,-0.32414555541686085,0.4368667603499008,-0.9045488833816111
1684002483856058800,5.583459228515625,-0.21312749394741515,0.4655132295407856,-0.5706121921870863
1684002483866100900,5.593501220703125,-0.18327271941301637,0.4390907289259605,-0.11291289322960751
1684002483876142800,5.603543212890625,-0.22184634213155505,0.3929481506061447,0.36155724509144643
1684002483886184900,5.613585205078125,-0.242945790265445,0.3550376892863292,0.8073289395098343
1684002483896227000,5.62362744140625,-0.19155275832780108,0.45177364345232573,1.045039653729569
1684002483906269100,5.63366943359375,-0.11042070379194056,0.5471706390413209,1.1341512201789348
1684002483916311000,5.64371142578125,-0.006925106036435133,0.5322628020864607,1.0966570377882348
1684002483926353100,5.65375341796875,0.13533925998259178,0.511081695583105,0.9167163371003066
1684002483936395200,5.663795654296875,0.4275296926547153,0.39376544967169586,0.7543075085151556
1684002483946437000,5.67383740234375,0.7761655450115319,0.10483360274034453,0.5337543487371381
1684002483956479200,5.683879638671875,1.0610554219132162,-0.34514045721687575,0.3054819108344753
1684002483966521300,5.693921630859375,1.3036220074461595,-0.6640348435611199,0.15043663980898445
1684002483976563100,5.703963623046875,1.437030792301606,-0.5988483428208513,0.06535315526833005
1684002483986605200,5.714005615234375,1.4332396982630846,-0.23452091226553146,0.13864731797468374
1684002483996647300,5.7240478515625,1.3583121299557195,0.2215099334137533,0.34877133365035984
1684002484006689200,5.734089599609375,1.1098805667146063,0.545755386272211,0.36481690391161264
1684002484016731300,5.744131591796875,0.8218838573880302,0.5521402357867148,0.1284673213480163
1684002484026773400,5.754173828125,0.5402173995774908,0.2631940840378221,-0.06340670596574681
1684002484036815300,5.764215576171875,0.1761045456598168,-0.16032791141242256,-0.23823380476042438
1684002484046857400,5.7742578125,-0.26259243485151756,-0.6084470750355339,-0.393904685888997
1684002484056899600,5.7842998046875,-0.72049307824485,-0.9860143660306286,-0.4122116564286583
1684002484066941400,5.794341796875,-1.1516101359699022,-1.2841682433177157,-0.4118607044581507
1684002484076983500,5.8043837890625,-1.5360497237006538,-1.303002357509306,-0.41800022116540864
1684002484087025600,5.814426025390625,-1.7685307263909764,-0.6091909406746502,-0.32997941967502364
1684002484097067600,5.824468017578125,-1.8492094278014997,0.3606367111488399,-0.22289037706423365
1684002484107109600,5.834510009765625,-1.7495713233278303,0.997931480461497,-0.3054661750095407
1684002484117151600,5.844552001953125,-1.4829808472786294,0.5480880737644402,-0.47042560576902076
1684002484127193800,5.85459423828125,-1.2526465654067582,-0.36474609366398864,-0.593518018577019
1684002484137235600,5.864635986328125,-0.8827779292846374,0.23464393598766828,-0.2571313382380573
1684002484147277700,5.87467822265625,-0.5444854498150724,0.35211658477235624,-0.12033700945629384
1684002484157319600,5.884719970703125,-0.3066540956968662,-0.13035774231929678,-0.263014554862968
1684002484167361600,5.89476220703125,-0.024534702264119714,-0.4159288406358668,-0.3847715853902605
1684002484177403800,5.90480419921875,0.15703105930934375,-0.808617591808969,-0.37136960031387256
1684002484187445600,5.91484619140625,0.08882439135588743,-1.2346677779697723,-0.2845320701118539
1684002484197487800,5.92488818359375,-0.5982133149536105,-1.966504097067501,-0.23524570458915403
1684002484207529900,5.934930419921875,-2.1559081077078917,-2.6678295135457852,0.12830853473934087
1684002484217572000,5.944972412109375,-3.9284100533163784,-3.301403999443984,0.7232894898600555
1684002484227613900,5.95501416015625,-3.8494324683527448,-3.2746143341333243,1.5629608630070717
1684002484237656000,5.965056396484375,-2.1179113387744293,-2.523031234639298,2.0153026580409272
1684002484247698100,5.975098388671875,-0.25588428975584426,-0.9950189590192763,2.1943573952883786
1684002484257740000,5.985140380859375,1.1623926162565268,0.6696720123398789,2.0005517005503033
1684002484267782100,5.995182373046875,1.9743050336719945,1.6441283227632173,1.2429580687875696
1684002484277824200,6.005224609375,2.3938951491975287,1.8872804640248049,0.07058572768488529
1684002484287866000,6.015266357421875,2.324620485380248,1.893495082809243,-0.7020952701466225
1684002484297908100,6.02530859375,2.047155857041741,1.7384672165014203,-1.2675043344623207
1684002484307950300,6.0353505859375,1.8317816258060344,1.3949203491107736,-1.4756367208229753
1684002484317992100,6.045392578125,1.6012198924940626,1.0949020384396195,-1.518122673132316
1684002484328034200,6.0554345703125,1.3110349177934777,0.7752542495761682,-1.471542954550618
1684002484338076300,6.065476806640625,1.0890656711609636,0.4018421172370947,-1.32861959948625
1684002484348118200,6.0755185546875,0.9337021111541917,0.12276458741718586,-1.1676900388526859
1684002484358160300,6.085560791015625,0.9396041631248716,-0.1456289292784383,-0.8900339604633726
1684002484368202400,6.095602783203125,1.063478946733504,-0.3583745955418948,-0.5179096460481463
1684002484378244300,6.105644775390625,1.2073677777660659,-0.4466791152509537,-0.2918839454095114
1684002484388286400,6.115686767578125,1.3576722144782654,-0.5255813598962905,-0.18917775159730002
1684002484398328600,6.12572900390625,1.4782040118585047,-0.4923963545069949,-0.1273851395305169
1684002484408370400,6.135770751953125,1.5682895184074779,-0.39265251158819625,-0.15531563758746442
1684002484418412500,6.145812744140625,1.5513608457374681,-0.23601722715716963,-0.21427810181825482
1684002484428454600,6.15585498046875,1.471425294946382,-0.05130195618810053,-0.2812917233338044
1684002484438496400,6.165896728515625,1.3144114016948318,0.1492271424192271,-0.33853936195319406
1684002484448538600,6.17593896484375,1.175048112842896,0.1622285843237787,-0.4228216409166849
1684002484458580600,6.18598095703125,1.1091221569110348,0.13614273063567223,-0.4767432214310071
1684002484468622600,6.19602294921875,1.0993613003751785,0.15729713434771558,-0.5323978661319088
1684002484478664600,6.20606494140625,1.013973832194906,0.12083816525863646,-0.6139835120263097
1684002484488706700,6.216107177734375,0.8847026825890304,0.08672904968379862,-0.6318490504985482
1684002484498748600,6.22614892578125,0.7439096569513153,0.01898384086400911,-0.6030378340829096
1684002484508790600,6.236191162109375,0.5637506246677124,-0.015419006251870477,-0.5867166519201833
1684002484518832800,6.246233154296875,0.351871878099773,-0.03076362621708946,-0.5460109710322806
1684002484528874900,6.256275390625,0.16154381626018832,-0.0006828307995067829,-0.49174869057439624
1684002484538916800,6.266317138671875,-0.03388762459635133,0.03905582428037902,-0.4653301240654627
1684002484548958900,6.276359375,-0.17571160204092479,0.04541015616465796,-0.3729470968018059
1684002484559001000,6.2864013671875,-0.2234401702824306,-0.0009336472422500692,-0.2253662347668084
1684002484569042900,6.296443359375,-0.05574154840007975,-0.11193847657637619,-0.049628973103344576
1684002484579085000,6.3064853515625,0.26098740112607133,-0.21331310278277985,0.06854164600433212
1684002484589126800,6.31652734375,0.6031770706283583,-0.12103366860992691,0.19148647787613488
1684002484599168900,6.3265693359375,0.8909252880576208,-0.024385452279604796,0.29326581963788473
1684002484609211100,6.336611572265625,1.0767151115939497,0.03100013720629392,0.33550226681324374
1684002484619252900,6.3466533203125,1.181898593992494,-0.014680862565961786,0.35442042355414005
1684002484629295000,6.3566953125,1.2217463255485341,-0.07266521458331963,0.2573268414549569
1684002484639337100,6.366737548828125,1.2356863021775242,-0.07802104951338838,0.13525593268499222
1684002484649379200,6.376779541015625,1.2270395756603534,-0.05447006228995769,0.056636214314512455
1684002484659421100,6.386821533203125,1.1690696477154912,0.09817695608415782,0.06401216984739957
1684002484669463200,6.396863525390625,1.069744825438528,0.12383842448965224,0.03163897981600648
1684002484679505300,6.40690576171875,0.9279667139365819,0.16836547865860746,-0.05765783795477572
1684002484689547200,6.416947509765625,0.8268066643966211,0.10980892174263288,-0.15378773197275922
1684002484699589300,6.42698974609375,0.7365134953358161,0.048701286331631906,-0.23506259911040925
1684002484709631400,6.43703173828125,0.7026050091678493,-0.01004409797106621,-0.3339676857495778
1684002484719673300,6.44707373046875,0.6506839395752059,-0.023290634059923078,-0.4206591844902421
1684002484729715400,6.45711572265625,0.6138709186871733,-0.024463653540630084,-0.4847437739860142
1684002484739757600,6.467157958984375,0.556395411447153,-0.023057937661244327,-0.5255118607578698
1684002484749799300,6.47719970703125,0.47657507659207105,-0.0357322691587202,-0.5662397147800039
1684002484759841500,6.487241943359375,0.36853462454252367,-0.05288982399237832,-0.5206873416584881
1684002484769883600,6.497283935546875,0.27394327525270884,-0.13894557955167083,-0.4482502341706289
1684002484779925400,6.507325927734375,0.20743635297588714,-0.09775924688983792,-0.3240175247300999
1684002484789967600,6.517367919921875,0.14313083888281417,-0.10154247277939213,-0.15239119521312341
1684002484800009600,6.52741015625,0.12760008856609223,-0.025792121891751126,0.12564170352318177
1684002484810051600,6.537451904296875,0.1300667225889758,0.046500206073344506,0.40826213358483143
1684002484820093600,6.547493896484375,0.22162894893432464,0.10582542414448291,0.6563655136762622
1684002484830135600,6.5575361328125,0.29938292492657725,0.11936664579671885,0.791999578427324
1684002484840177600,6.567577880859375,0.40658175931297463,0.12315845478509144,0.9225518703351134
1684002484850219600,6.5776201171875,0.4839116930599663,0.13380432130242648,0.9888815879636712
1684002484860261800,6.587662109375,0.5250866414163452,0.12045574195786664,1.0074604750753142
1684002484870303600,6.5977041015625,0.5112338066360552,0.15642738343012855,1.0421566964183429
1684002484880345800,6.60774609375,0.4748475552501313,0.15374088287345983,0.9909285305891976
1684002484890387900,6.617788330078125,0.38722890615405003,0.17662715908987564,0.9235463141426685
1684002484900429700,6.627830078125,0.3259941340305427,0.18709945674112194,0.7938779591842432
1684002484910471900,6.637872314453125,0.28433912988324667,0.16896438602368488,0.6340721845548946
1684002484920514000,6.647914306640625,0.2947176695223723,0.1109485626076916,0.4800912141340256
1684002484930556100,6.65795654296875,0.3110042513219564,0.0985307693550093,0.2924185991759084
1684002484940597900,6.667998291015625,0.3252528309355457,0.041569709671785346,0.0888611076727528
1684002484950640000,6.67804052734375,0.33921205989431286,0.011498451287660241,-0.04485762105951549
1684002484960682200,6.68808251953125,0.36408784986014636,-0.029740333448595734,-0.16104948528452784
1684002484970724000,6.69812451171875,0.37121748918139946,-0.01601600652447238,-0.24548292174478428
1684002484980766100,6.70816650390625,0.36062091595045787,-5.531300090557615e-05,-0.2869225739237049
1684002484990808200,6.718208740234375,0.3844455183248839,0.08409118649994074,-0.3088644743574545
1684002485000850100,6.72825048828125,0.3783510327323892,0.0964012145804095,-0.33245325096490275
1684002485010892200,6.738292724609375,0.3710530995575674,0.08042335509934098,-0.249342322411792
1684002485020934300,6.748334716796875,0.34407868989847645,0.12840747840617298,-0.20982843651166086
1684002485030976200,6.75837646484375,0.32654327151976553,0.16159343711822216,-0.11427688593577622
1684002485041018300,6.768418701171875,0.3126050235386921,0.22027301787207063,-0.003687202868331145
1684002485051060400,6.778460693359375,0.2919037044956857,0.20277595535548035,0.1328746676495697
1684002485061102300,6.788502685546875,0.2960740624811293,0.2257385254741235,0.23119068145558713
1684002485071144400,6.798544677734375,0.31546100969619256,0.19902229296185506,0.35768669838171574
1684002485081186600,6.8085869140625,0.3283196687447416,0.18462371815056208,0.4903508424201729
1684002485091228300,6.818628662109375,0.3343570828325925,0.21287059784306428,0.6378107667779066
1684002485101270400,6.8286708984375,0.3688234688326898,0.21947574613974558,0.7737630604542596
1684002485111312600,6.838712890625,0.4152311980362422,0.17419147487391604,0.9404281377307885
1684002485121354400,6.8487548828125,0.47827100765716357,0.06843566911036135,1.1248368025364879
1684002485131396600,6.858796875,0.5547776221859323,-0.0026550294105984096,1.2698035239036736
1684002485141438600,6.868839111328125,0.6503082514410488,-0.044447898791560914,1.370498299675336
1684002485151480600,6.878880859375,0.7135516405596906,-0.008068084623933092,1.502386093127096
1684002485161522600,6.888923095703125,0.7222486734181472,0.0038595199270382336,1.6168415545768453
1684002485171564600,6.898965087890625,0.689749956193504,0.0787563323578978,1.7344853876911663
1684002485181606600,6.909007080078125,0.5725649595759686,0.2131299972917329,1.6991157532221113
1684002485191648600,6.919049072265625,0.42567545163274323,0.262321472292764,1.6632977723365578
1684002485201690800,6.92909130859375,0.25371640936482387,0.19008159650447448,1.6074953079011531
1684002485211732600,6.939133056640625,0.08891162275889465,0.043253898730818495,1.5673041343386263
1684002485221774800,6.949175048828125,-0.008602917143685886,-0.15084743504190667,1.5551323890950919
1684002485231816900,6.95921728515625,-0.03945419205120829,-0.30421829233513253,1.5382280348232342
1684002485241859000,6.96925927734375,-0.063763767504763,-0.45980453491258055,1.4801001549962265
1684002485251900800,6.97930126953125,-0.06181901692185741,-0.6128816606103299,1.4947422743003043
1684002485261943000,6.98934326171875,-0.008357316210375524,-0.7518424988332307,1.4866682291147053
1684002485271985100,6.999385498046875,0.09325246519449613,-1.0449333191205268,1.5061650276085368
1684002485282026900,7.00942724609375,0.12560985977973063,-1.3831272125882104,1.4532265662363346
1684002485292069000,7.019469482421875,0.167008921459072,-1.7401542663321328,1.3736975193187704
1684002485302111200,7.029511474609375,0.20971271397439106,-1.9465236664441246,1.2339134215363758
1684002485312153000,7.039553466796875,0.14623919115668188,-1.9930458067837773,0.9436553715798921
1684002485322195100,7.049595458984375,-0.03854895364148932,-1.9086074828795314,0.5118207932639596
1684002485332237000,7.059637451171875,-0.2565761505610313,-1.7172727584843854,0.09250736251423529
1684002485342279100,7.069679443359375,-0.3939664958598221,-1.3953075408293616,-0.3090372681333676
1684002485352321200,7.0797216796875,-0.5374450684145324,-0.9644184111745094,-0.768874585463862
1684002485362363300,7.089763671875,-0.6758014561061191,-0.48677158346300736,-1.1996080875353188
1684002485372405200,7.0998056640625,-0.7980921267840815,-0.10097026815747753,-1.4363628624983564
1684002485382447300,7.10984765625,-0.885752677985687,0.12600994125666481,-1.5057058333454452
1684002485392489400,7.119889892578125,-0.9619082212661125,0.3732185363889093,-1.606580734238347
1684002485402531200,7.129931640625,-1.0315326452708264,0.3988904952918699,-1.655559539823232
1684002485412573400,7.139973876953125,-1.1338698865149632,0.30084419265228646,-1.5195952654300406
1684002485422615600,7.150015869140625,-1.3278403282207316,0.21278285971498498,-1.340265154763833
1684002485432657300,7.1600576171875,-1.6018822193150755,0.13708305357712758,-1.069487333284417
1684002485442699400,7.170099853515625,-1.8733973504031072,0.06411838530003264,-0.8355383872459862
1684002485452741600,7.180141845703125,-1.9321660995919065,0.021977424552936078,-0.6177783012462653
1684002485462783400,7.190183837890625,-1.6933680773249116,-0.05004501347936644,-0.4831966160433564
1684002485472825600,7.200225830078125,-1.1278367042924653,-0.16915035242455206,-0.49790561182215487
1684002485482867600,7.21026806640625,-0.3899202346813171,-0.3445978163366225,-0.5885899067283641
1684002485492909600,7.220309814453125,0.2839275003011229,-0.49893569946716165,-0.7583727838014288
1684002485502951600,7.23035205078125,0.8692574500621247,-0.6644039153690987,-0.9154237509126264
1684002485512993600,7.24039404296875,1.2654025555325812,-0.7201099395520099,-1.146946907171089
1684002485523035600,7.25043603515625,1.5695041418436262,-0.7460403442800997,-1.3871175052083184
1684002485533077600,7.26047802734375,1.7502869366728917,-0.7936286927579363,-1.5239289999310595
1684002485543119800,7.270520263671875,1.7613047359779321,-0.8742637635856022,-1.6385096310914529
1684002485553161900,7.280562255859375,1.7245038749179549,-0.9520111084813333,-1.712050676398554
1684002485563203800,7.290604248046875,1.7152222395601857,-1.0749435424159777,-1.7562723159381664
1684002485573245900,7.300646240234375,1.7409324646037736,-1.1500358581902297,-1.9262318611689266
1684002485583287600,7.310688232421875,1.7404153347193452,-1.1965637207374116,-1.9928927421690006
1684002485593329800,7.320730224609375,1.7432357072143116,-1.2580986024279484,-1.9227957727020772
1684002485603372000,7.3307724609375,1.7090142965841288,-1.0793142318809148,-1.9732371568883105
1684002485613413800,7.340814208984375,1.6750891208363392,-0.7631626129268309,-2.0367131234253875
1684002485623455900,7.350856201171875,1.5935238598655423,-0.4459161757315427,-1.9958740473654466
1684002485633498000,7.3608984375,1.4604837895117677,-0.14923763264629894,-1.8386416436002808
1684002485643540100,7.3709404296875,1.2593966721342524,0.19866275793803567,-1.7005839347901064
1684002485653582000,7.380982421875,1.1243363620309879,0.5213756561332784,-1.592295765894529
1684002485663624100,7.3910244140625,0.9716717003703276,0.6971759796962242,-1.3597748280374908
1684002485673666200,7.401066650390625,0.853611230800048,0.7050485610992838,-1.2414823769625016
1684002485683708100,7.4111083984375,0.9184206723268423,0.49969387049181313,-0.8894944191398251
1684002485693750200,7.421150634765625,1.1186929941280495,0.2908725739066926,-0.79515480996075
1684002485703792300,7.431192626953125,1.2148666382449027,0.13207054125218473,-0.5210289956511761
1684002485713834200,7.441234619140625,1.0015823839818108,0.007644653444923596,-0.5522437095468635
1684002485723876300,7.451276611328125,0.5328224896713666,0.02969169618095441,-0.692332744614803
1684002485733918400,7.46131884765625,0.01876747604492983,0.043287277386760165,-0.9494802950812862
1684002485743960200,7.471360595703125,-0.37638187408550594,0.14957141869421955,-1.1630741357145806
1684002485754002400,7.48140283203125,-0.6337884664608933,0.32027816779689805,-1.3424102068283301
1684002485764044500,7.49144482421875,-0.5316828488055906,0.37377548221282886,-1.6331725121694696
1684002485774086300,7.50148681640625,-0.5007478000110592,0.36993503566348146,-2.123659610631733
1684002485784128400,7.51152880859375,-0.5263497830902188,0.3043832779009128,-2.4782128335295757
1684002485794170600,7.521571044921875,-0.7364709378172429,0.21317386633434518,-2.727727890008545
1684002485804212400,7.53161279296875,-0.8428794145768367,0.04654598236138145,-2.790050506542833
1684002485814254600,7.541655029296875,-0.7878679037517623,-0.017993927082311446,-2.7978610992431596
1684002485824296600,7.551697021484375,-0.8214596509704921,0.0028886795154394154,-2.6310389041116724
1684002485834338700,7.5617392578125,-1.0099526644775334,-0.030399322485423062,-2.2099390030848594
1684002485844380600,7.571781005859375,-1.1424810887689645,-0.16965675346523043,-1.6028175353729275
1684002485854422600,7.581822998046875,-1.1012791395145347,-0.29367351534024283,-1.0957407950218374
1684002485864464800,7.591865234375,-0.9127871990803832,-0.40437507629297603,-0.6819806099456278
1684002485874506600,7.601906982421875,-0.737005114437798,-0.5725440980032961,-0.3741967678183276
1684002485884548800,7.61194921875,-0.6604884864634755,-0.6492204664968564,-0.22521042807812114
1684002485894590900,7.6219912109375,-0.5360780952867341,-0.5550794599849758,-0.18063831321325627
1684002485904632800,7.632033203125,-0.3903726338969364,-0.3404703140591285,-0.27314257627077704
1684002485914674900,7.6420751953125,-0.3070466518021038,-0.16402339928343543,-0.2784860133193477
1684002485924717000,7.652117431640625,-0.23371529567807942,-0.04100608821420967,-0.15550732612710919
1684002485934758800,7.6621591796875,-0.15645933145504204,-0.11797809594188025,0.11381793034361096
1684002485944800900,7.672201416015625,0.008637428164332044,-0.2851982116462883,0.5093817710504924
1684002485954843100,7.682243408203125,0.3829784394224478,-0.5162925719213832,0.8832159042846759
1684002485964884900,7.692285400390625,0.8101569415849574,-0.6484012603628694,1.2223227023687442
1684002485974927000,7.702327392578125,0.9959751367525541,-0.7678680420325662,1.4387085437905573
1684002485984969100,7.71236962890625,1.1299765109729327,-0.8991146088168018,1.4942207336326896
1684002485995011000,7.722411376953125,1.4195196630016684,-0.843933105585463,1.413120269605901
1684002486005053100,7.73245361328125,1.7039124966488937,-0.6289367676107623,1.3198423385423828
1684002486015095200,7.74249560546875,1.6837890147191577,-0.35970020289616467,1.133647441803002
1684002486025137100,7.752537353515625,1.245255947115799,0.0069341659320977835,0.6998693942722447
1684002486035179200,7.76257958984375,0.6023325918328043,0.3647842407555341,0.09375190753664304
1684002486045221300,7.77262158203125,0.1614708900876806,0.7354278564689364,-0.6843655108333343
1684002486055263200,7.78266357421875,-0.12260794642081331,1.0786433219649356,-1.5030298234081945
1684002486065305300,7.79270556640625,-0.48929309832049167,1.261680603014766,-2.0629649162166506
1684002486075347400,7.802747802734375,-0.7009625435136178,1.300354480826039,-2.319855689913577
1684002486085389200,7.81278955078125,-0.49011588112470195,1.2052655220731767,-2.3453006745348612
1684002486095431300,7.822831787109375,0.08055853836237074,1.0312585831509635,-2.2076392172807484
1684002486105473500,7.832873779296875,0.7181997300217811,0.8648967743783867,-1.9117552042427501
1684002486115515300,7.842915771484375,1.204810619331948,0.7378540039802942,-1.603034734800632
1684002486125557400,7.852957763671875,1.4531977176938569,0.6554689406724495,-1.2932584286062039
1684002486135599600,7.863,1.551799297275252,0.5790824891066383,-1.0051057338450384
1684002486145641600,7.8730419921875,1.473349094314067,0.51016235356705,-0.7745001317099064
1684002486155683600,7.883083984375,1.1698745487911126,0.45510292047956585,-0.7295742034698544
1684002486165725600,7.8931259765625,0.8056424856113968,0.3416976926956611,-0.7256360053847096
1684002486175767700,7.903168212890625,0.46908795839979384,0.21257209780711822,-0.7027218342470405
1684002486185809600,7.9132099609375,0.20916378486833978,0.12723159785153626,-0.7275822164137162
1684002486195851600,7.923252197265625,0.04103517520852256,0.10225105283271345,-0.9094040392465702
1684002486205893800,7.933294189453125,-0.041768074024420225,0.07791519162052041,-1.0820982456587807
1684002486215935600,7.943336181640625,-0.042170763043640945,0.04013729101888621,-1.2809751031905037
1684002486225977800,7.953378173828125,0.012021064848981314,-0.022617340087247924,-1.4292323589481417
1684002486236019900,7.963420166015625,0.0850082635464305,-0.0813674926168146,-1.486840009629688
1684002486246061700,7.973462158203125,0.23854207979935022,-0.14078426370542133,-1.4455636739038926
1684002486256103900,7.983504150390625,0.34332430372481937,-0.19858741752083428,-1.414762139278884
1684002486266146000,7.99354638671875,0.3828980922619403,-0.3096418381051896,-1.3118476869062372
1684002486276187800,8.003588134765625,0.3607894182116855,-0.34953689583610487,-1.2376942634627481
1684002486286229900,8.01363037109375,0.20785236359129391,-0.30422306065548843,-1.1086692809019643
1684002486296272000,8.02367236328125,0.0215053558247434,-0.2602119446579915,-0.977096557485937
1684002486306313900,8.03371435546875,-0.2813031674991522,-0.2299222946189707,-0.7898142336879963
1684002486316356000,8.04375634765625,-0.5000712873276763,-0.3476409912265189,-0.5888621808373623
1684002486326398100,8.053798583984374,-0.6430665254373935,-0.5061168672028203,-0.3856315611750464
1684002486336440000,8.06384033203125,-0.6793400049635638,-0.5833282470488508,-0.1940324305344792
1684002486346482100,8.073882568359375,-0.644051671048949,-0.5935411452056586,0.09585905077265115
1684002486356524200,8.083924560546874,-0.5740134717018316,-0.5992012023925296,0.3514540194897109
1684002486366566100,8.093966552734376,-0.487529516216338,-0.660780906765117,0.561257362476051
1684002486376608200,8.104008544921875,-0.3647085428533858,-0.8551988600133312,0.7043685914575732
1684002486386650300,8.11405078125,-0.13634681700395077,-1.1633253098397138,0.8106162549884335
1684002486396692100,8.124092529296876,-0.023857712749656097,-1.2957668303192682,0.8340284823577692
1684002486406734300,8.134134765625,-0.11829364310521326,-1.2022161483610518,0.6292967796512284
1684002486416776400,8.1441767578125,-0.39690554149262547,-0.8633995057231465,0.3811547755454483
1684002486426818200,8.154218505859374,-0.6982451677953408,-0.2964391709080241,0.32615256326035796
1684002486436860300,8.1642607421875,-0.795308589812291,0.02972888935846035,0.4331214427935576
1684002486446902400,8.174302734375,-0.7135139703077983,-0.20476150529626796,0.6183090209426095
1684002486456944600,8.184344970703124,-0.5820996761155478,-0.8700571060833339,0.7923059463312975
1684002486466986400,8.19438671875,-0.5746328830632832,-1.6665611266225886,0.835928678550353
1684002486477028600,8.204428955078125,-0.6551254986750993,-2.4623031617447753,0.7623059749576775
1684002486487070600,8.214470947265625,-0.9245218038634765,-3.0182228090185625,0.6151173115394974
1684002486497112600,8.224512939453126,-1.2806252242134053,-3.1033954618846553,0.47572422026280875
1684002486507154600,8.234554931640625,-1.5957478283233262,-2.3136672972625134,0.25181746478376055
1684002486517196600,8.24459716796875,-1.7471625803971755,-0.893087387004633,-0.07957911497040951
1684002486527238600,8.254638916015624,-1.394515276041361,0.22539138781040358,-0.3768936395586289
1684002486537280600,8.26468115234375,-0.6741685868076501,0.9764890670940636,-0.69213426120111
1684002486547322800,8.27472314453125,0.16710245619692454,1.3908720015511995,-0.8983732461489273
1684002486557364600,8.28476513671875,0.8465168476274083,1.563294410798216,-1.066709041588937
1684002486567406800,8.29480712890625,1.2435679435776792,1.552086830174781,-1.1639480592270306
1684002486577448900,8.304849365234375,1.4047118425368132,1.4032344818810014,-1.2861623764228443
1684002486587490700,8.31489111328125,1.4231920241308067,1.1480350496014309,-1.3671004773706539
1684002486597532800,8.324933349609376,1.375692129136233,0.8464298248420623,-1.4165308476795897
1684002486607575000,8.334975341796875,1.3219840527202729,0.536819458143169,-1.360043764003118
1684002486617617100,8.345017578125,1.3023871185093114,0.22656822204213292,-1.34500479700586
1684002486627658900,8.355059326171874,1.3048124314107956,-0.00772094729929517,-1.3342570066927264
1684002486637701000,8.365101318359375,1.2719309328848614,-0.19735431670747255,-1.2990107537820206
1684002486647743200,8.3751435546875,1.2070994377468875,-0.2832021714186546,-1.1499843597172454
1684002486657785000,8.385185302734374,1.1743792295226076,-0.25415802016280814,-0.956004738845252
1684002486667827100,8.3952275390625,1.1190205813367997,-0.2063817978769365,-0.8154473900706247
1684002486677869200,8.40526953125,1.0907611847858945,-0.18070888514623665,-0.6782088278209912
1684002486687911100,8.4153115234375,1.0783177613262789,-0.0530929564676779,-0.5642309189711574
1684002486697953200,8.425353515625,1.032961368538235,0.04944610593164037,-0.5267441273308427
1684002486707995300,8.435395751953125,0.9312673805349848,0.026624679573292398,-0.512594222911293
1684002486718037200,8.4454375,0.8937371970544332,0.01746273042003761,-0.48248660562991436
1684002486728079300,8.455479736328124,0.8923514485255164,-0.042347907973565024,-0.49355340009084014
1684002486738121400,8.465521728515625,0.9243562222360484,-0.05451202401618362,-0.46173489095215864
1684002486748163200,8.475563720703125,0.9764919280973027,-0.00971221923006808,-0.4767086506641768
1684002486758205400,8.485605712890624,0.9788200258526478,0.0989837646898437,-0.5910008549917843
1684002486768247500,8.49564794921875,1.0002623798248784,0.16636657698170412,-0.7010813951516616
1684002486778289300,8.505689697265625,1.0715317726676543,0.15447044376906316,-0.7752956748457098
1684002486788331400,8.51573193359375,1.1758534908642728,0.039756774890305234,-0.8231623172266582
1684002486798373600,8.52577392578125,1.2578972576904228,-0.1727285384419449,-0.8192312716519634
1684002486808415400,8.53581591796875,1.3156545162201942,-0.3323526380557742,-0.8434516190681254
1684002486818457600,8.54585791015625,1.3413797615630516,-0.29598426822302903,-0.953398644878965
1684002486828499600,8.555900146484374,1.3326857089440365,-0.22409439075309556,-1.0340147020180743
1684002486838541600,8.56594189453125,1.311461090998707,-0.15488147729889934,-1.117994785197549
1684002486848583600,8.57598388671875,1.2636758088973221,-0.15752601635664393,-1.1426055431975266
1684002486858625600,8.586026123046874,1.2252271174012597,-0.20798301704689334,-1.1533446311078703
1684002486868667600,8.59606787109375,1.1830680369936366,-0.2440519334536026,-1.1551235914670688
1684002486878709600,8.606110107421875,1.1023434400699859,-0.21313953389921014,-1.1425968408198426
1684002486888751800,8.616152099609375,0.9592123032625105,-0.15356540686606251,-1.086363792318196
1684002486898793600,8.626194091796876,0.7410190106213899,-0.1011838911998724,-0.9951800704401459
1684002486908835800,8.636236083984375,0.527444839363754,-0.0583572388274092,-0.8063820600407285
1684002486918877900,8.6462783203125,0.31410399079898416,-0.05132961272383317,-0.6417747736820214
1684002486928920000,8.6563203125,0.1361208706826715,-0.039430618334020034,-0.39408493041415343
1684002486938961800,8.6663623046875,0.05623831229199525,0.044170379609577336,-0.21918511398061535
1684002486949004000,8.676404296875,0.01714733238909282,0.04403305043451182,-0.017119646081410575
1684002486959046100,8.686446533203124,0.07837691919184027,0.060621261559925206,0.15170598045447692
1684002486969087900,8.69648828125,0.1463045179800175,0.06279373165509966,0.31063818937627025
1684002486979130000,8.706530517578125,0.23749633126830672,0.09115028380280697,0.40192806722530316
1684002486989172100,8.716572509765625,0.33016455174359577,0.11455249793816492,0.46596503250896
1684002486999214000,8.726614501953126,0.41165924062834613,0.08761310576052231,0.5168750285462117
1684002487009256100,8.736656494140625,0.4737394452292858,0.12029647833151923,0.5474171638759965
1684002487019298200,8.74669873046875,0.5511553287478415,0.09064579011146977,0.509798765117301
1684002487029340100,8.756740478515624,0.6047945023642405,0.08958435072021687,0.4808357953713371
1684002487039382200,8.766782470703125,0.6529268027421357,0.07649803160624596,0.40132260332609765
1684002487049424300,8.77682470703125,0.6926778554697071,0.041897773681785655,0.40783238417092504
1684002487059466200,8.786866455078124,0.7495601176689285,0.0001440049018290627,0.3974204063329361
1684002487069508300,8.79690869140625,0.7478898763633104,-0.008098602402655222,0.3785343168719071
1684002487079550400,8.80695068359375,0.7601923347371401,-0.03521633153777152,0.37332212939310694
1684002487089592200,8.81699267578125,0.7159907221323307,-0.07148170456267405,0.3603507279913755
1684002487099634400,8.82703466796875,0.6443979739614479,-0.10746955870923022,0.31985020635044736
1684002487109676500,8.837076904296875,0.5459412336389168,-0.11031627666581824,0.1598172188997481
1684002487119718600,8.847118896484375,0.40503737331365264,-0.05458259599821722,-0.011044025491776526
1684002487129760400,8.857160888671874,0.3056152165949496,-0.05645656587659614,-0.22919428345328302
1684002487139802600,8.867202880859375,0.1629112957607858,-0.03954505917292775,-0.3849267362883344
1684002487149844600,8.8772451171875,0.06814777863944335,0.005363464353463369,-0.5281659961660968
1684002487159886600,8.887286865234374,0.014712929553872257,-0.028039932189125823,-0.6093968154344058
1684002487169928600,8.8973291015625,-0.004473984146117929,-0.06773853286551837,-0.6975651978987291
1684002487179970700,8.90737109375,-0.03027156002840031,-0.05003261559092525,-0.72631931304914
1684002487190012600,8.9174130859375,-0.02087923869239294,-0.0771150589085822,-0.7129240036247146
1684002487200054600,8.927455078125,-0.028952032162309665,-0.08232688892722148,-0.6815353036324172
1684002487210096800,8.937497314453125,0.00029045339001587634,-0.021279334840513565,-0.6582129598076291
1684002487220138600,8.9475390625,-0.0014763176416911457,0.04142093670318962,-0.5812968610241447
1684002487230180800,8.957581298828124,0.04240143298079639,0.0563421249910462,-0.49399989842519115
1684002487240222900,8.967623291015625,0.11467957504007621,0.05016708370741306,-0.35651445390803566
1684002487250264800,8.9776650390625,0.20718449358169597,0.027843475350445675,-0.2457085846407882
1684002487260306900,8.987707275390624,0.3211907148591898,-0.012766837999814786,-0.18712419276357384
1684002487270349000,8.997749267578126,0.3918898701984915,-0.012537956314046715,-0.1514235734221841
1684002487280390800,9.007791259765623,0.47805058955235513,-0.002823829559922183,-0.08425408602829348
1684002487290432900,9.017833251953125,0.49655383834560984,0.032616615250796156,-0.01965773112464197
1684002487300475100,9.02787548828125,0.5496850014570976,0.05096817008289292,0.03293353319787922
1684002487310517200,9.03791748046875,0.5757316946213704,0.12546157823000947,0.10859650390409765
1684002487320559000,9.04795947265625,0.6146042943104036,0.17976188649211713,0.16880077111225064
1684002487330601100,9.05800146484375,0.625576019271799,0.23298168194909796,0.19687312836039525
1684002487340643200,9.068043701171876,0.6134345531206034,0.2097377777895542,0.25386130800456896
1684002487350685100,9.07808544921875,0.5525484679600327,0.18896389003611896,0.27522999029387946
1684002487360727200,9.088127685546874,0.4929726123551795,0.18945503217340118,0.2523252366884181
1684002487370769300,9.098169677734376,0.402230739705942,0.18972969046989138,0.22162663941468203
1684002487380811200,9.108211669921875,0.34292566788069717,0.12867736801467508,0.17681366221384842
1684002487390853300,9.118253662109376,0.2685554623679451,0.06394863117108733,0.12381327144253466
1684002487400895400,9.1282958984375,0.22463572033466597,0.0003652572109964007,0.15024513010164728
1684002487410937300,9.138337646484375,0.20135974902367293,0.00619316100571656,0.16781806947050398
1684002487420979400,9.1483798828125,0.17951476573152889,0.06849765778939992,0.2614164352729357
1684002487431021600,9.158421875,0.15010517833360554,0.08277320858282677,0.36610805986728295
1684002487441063300,9.168463623046875,0.12805050611161475,0.12993621828573884,0.4634352326003125
1684002487451105500,9.178505859375,0.11372178788572873,0.14357280737064715,0.5964499712848443
1684002487461147600,9.1885478515625,0.1356363295449886,0.1736955642267679,0.7551343441242163
1684002487471189400,9.19858984375,0.19816994685582373,0.09994316100666793,0.9855285883042455
1684002487481231600,9.2086318359375,0.24939906604129022,-0.03594875334952309,1.1935395003204101
1684002487491273600,9.218674072265625,0.3479247092962703,-0.21653652202923537,1.4563102722714893
1684002487501315800,9.228716064453126,0.44198900466502794,-0.32818698894257875,1.6615449190254987
1684002487511357600,9.238758056640624,0.49850749969498587,-0.3580684661671446,1.8312538863499537
1684002487521399600,9.248800048828125,0.5530302523156053,-0.2558736799807684,1.952211141649089
1684002487531441800,9.25884228515625,0.5284692645403647,-0.14631652830375014,2.02250862120899
1684002487541483600,9.268884033203124,0.4288253186840949,-0.09074020396160834,2.089123964216954
1684002487551525800,9.27892626953125,0.32053452728828674,0.015398979238391555,2.014829397309666
1684002487561567900,9.28896826171875,0.20217680930844995,-0.01956653604601575,1.9186414479104457
1684002487571609800,9.29901025390625,0.1174916029962177,0.021940231346932612,1.8147933482641962
1684002487581651900,9.30905224609375,0.10717320433670854,-0.02247810362992653,1.6681905984773424
1684002487591694000,9.319094482421876,0.17919701321347814,-0.08565235146086496,1.4989597796609968
1684002487601735900,9.32913623046875,0.2734732627505413,-0.2798299790135963,1.43092298500322
1684002487611778000,9.339178466796875,0.40831103919822065,-0.6716747284368043,1.4602097271914007
1684002487621820100,9.349220458984377,0.6082454920482656,-1.0411472320837565,1.5186024904687343
1684002487631861900,9.359262451171874,0.8059055806969696,-1.362215042092857,1.4764087199176614
1684002487641904000,9.369304443359376,0.9832440613615829,-1.518185615708898,1.4047510624671293
1684002487651946200,9.3793466796875,1.0679696798399398,-1.3687171935211069,1.1455781459940715
1684002487661988000,9.389388427734374,1.0256915092500491,-1.0721464157634417,0.8085011838736942
1684002487672030100,9.399430419921876,0.943644940776912,-0.7528896331541826,0.4647540449880445
1684002487682072200,9.40947265625,0.7881191968795456,-0.44428825394594484,0.16837996251741152
1684002487692114400,9.4195146484375,0.6049464344556845,-0.2202186583115513,-0.1398974656731954
1684002487702156200,9.429556640625,0.3897359074160974,0.06533241277152838,-0.40467202657349177
1684002487712198300,9.4395986328125,0.18546223630055558,0.30724239338282455,-0.6950060130217759
1684002487722240400,9.449640869140625,0.0007010997492402063,0.5654773711767269,-1.026022553458634
1684002487732282300,9.4596826171875,-0.16367483146819098,0.735119819590209,-1.3546123504076004
1684002487742324400,9.469724853515626,-0.2770086525531317,0.859523773129075,-1.6880975960487425
1684002487752366600,9.479766845703123,-0.47183537493213307,0.9363679885744609,-1.9596606493019295
1684002487762408400,9.489808837890624,-0.6529854537485903,0.8173818588508479,-1.8607218264475296
1684002487772450600,9.499850830078126,-0.7531889676989929,0.5861501692571617,-1.565811753199429
1684002487782492600,9.50989306640625,-0.6112210155040774,0.42428779594877397,-1.1991617679213997
1684002487792534400,9.519934814453125,-0.4818235634941478,0.2937774658097044,-0.9580692053113398
1684002487802576600,9.52997705078125,-0.38913267844699595,0.1326227188748837,-0.5019494891472729
1684002487812618600,9.54001904296875,-0.3278274535853156,-0.042754173137899414,0.0075820087256331225
1684002487822660600,9.55006103515625,-0.4269709885347908,-0.23518848417102495,0.3503451345874923
1684002487832702600,9.56010302734375,-0.6063243150869594,-0.39714431762733937,0.3833696244784518
1684002487842744800,9.570145263671876,-0.8292050361012769,-0.5023956297700428,0.17345130444279142
1684002487852786600,9.58018701171875,-1.0517649650226646,-0.6274185180583111,-0.058770418254014085
1684002487862828600,9.59022900390625,-1.1882836818762181,-0.7054176330810735,-0.26394933450679203
1684002487872870800,9.600271240234376,-1.149020314181316,-0.65806961049863,-0.42765396837863756
1684002487882912900,9.610313232421875,-0.9165576697319577,-0.5817241667872256,-0.5531092882456081
1684002487892954800,9.620355224609376,-0.5743222831989664,-0.47206687938295305,-0.714542269613628
1684002487902996900,9.630397216796876,-0.20690238475700037,-0.3770732880474934,-0.8487550021589857
1684002487913039000,9.640439453125,0.11941039562753832,-0.258421897707831,-1.0027216671664314
1684002487923080900,9.650481201171877,0.38580852764337825,-0.10629940035093464,-1.0778425931208284
1684002487933123000,9.6605234375,0.6071147916971489,-0.04456424720980626,-1.0819277763666557
1684002487943165100,9.6705654296875,0.8060423136152955,0.056358337295533474,-1.069170832621926
1684002487953207000,9.680607421875,0.9755465386990833,0.06782531755172196,-1.011893033991197
1684002487963249100,9.6906494140625,1.1293227672925186,0.03339576726803504,-0.9915155172493789
1684002487973291200,9.700691650390626,1.2177982330513697,-0.05850124345106194,-1.0145399569645002
1684002487983333300,9.710733642578123,1.1649956703888955,-0.31512260433150097,-0.9549422859442918
1684002487993375200,9.720775634765625,1.0646810531204456,-0.5734539031868554,-0.967537045422077
1684002488003417300,9.730817626953124,0.9339837431911872,-0.8069038391560636,-0.9863337277155911
1684002488013459400,9.74085986328125,0.9764342307159704,-1.0174751281918715,-0.8992845415903079
1684002488023501200,9.750901611328125,1.1518752576000202,-1.1855640411439656,-0.8446034192509266
1684002488033543300,9.76094384765625,1.4037568569923222,-1.294014930736346,-0.7978243828245631
1684002488043585500,9.77098583984375,1.5560209750401612,-1.268444061149189,-0.8068102598852062
1684002488053627300,9.78102783203125,1.6948769092183666,-1.0659008024835077,-0.7300553320379128
1684002488063669400,9.79106982421875,1.63130271435588,-0.6032457350893767,-0.6382099390892344
1684002488073711600,9.80111181640625,1.4875829219528014,-0.08944892880279041,-0.5177685023093821
1684002488083753400,9.81115380859375,1.2887640000564689,0.4029188155047391,-0.46025252348703577
1684002488093795600,9.82119580078125,1.110685825281554,0.8111610412197918,-0.5769667625278679
1684002488103837600,9.831238037109374,1.0409066677166345,1.0035409926254917,-0.6872488261248363
1684002488113879700,9.841280029296875,1.1096100805493687,1.0639810562497656,-0.9957665204733931
1684002488123921600,9.851322021484377,1.2287801503333333,1.0598306656004404,-1.1688145400049326
1684002488133963600,9.861364013671874,1.342658877396619,0.9701309203981914,-1.3729215859724102
1684002488144005800,9.87140625,1.4711637497761128,0.822057724142327,-1.436922669413339
1684002488154047600,9.881447998046877,1.5068476200049628,0.6091976166119454,-1.4991142751411708
1684002488164089800,9.891490234375,1.4064003228835908,0.3886833190180922,-1.1956663131669747
1684002488174131900,9.9015322265625,1.0894695519888897,0.2580223083150722,-0.7073572873903836
1684002488184173700,9.91157421875,0.6480323076029775,0.1445112228592513,-0.19243907919121028
1684002488194215900,9.9216162109375,0.22746896731324323,-0.01983737948204323,0.15723323825239202
1684002488204258000,9.931658447265624,-0.13028180591354774,-0.14749240880541392,0.378965139377139
1684002488214299800,9.9417001953125,-0.3734165430325963,-0.3349103926447633,0.5199363231205126
1684002488224341900,9.951742431640625,-0.49133336551875606,-0.5011453627649696,0.4110059737137559
1684002488234384000,9.961784423828124,-0.5371820927537602,-0.6868991851021751,0.20363998415989587
1684002488244425900,9.971826416015626,-0.5362857580907663,-0.8344955444052833,-0.07588100433467533
1684002488254468000,9.981868408203123,-0.47028970721243274,-0.907576561064777,-0.3357846737166008
1684002488264510100,9.99191064453125,-0.3358504771641516,-0.9293146134066281,-0.6813813447352515
1684002488274552000,10.001952392578126,-0.14721775045098606,-0.8988733291696993,-1.0202329158903938
1684002488284594100,10.011994384765623,0.12510931496843378,-0.7986593246803587,-1.2958570718204458
1684002488294636200,10.02203662109375,0.36623501775272094,-0.6327686309331321,-1.6406447886808926
1684002488304678300,10.03207861328125,0.6370266676586578,-0.4269056321409983,-1.976415037975216
1684002488314720200,10.04212060546875,0.8664982320081506,-0.1926918029716899,-2.208073139210843
1684002488324762300,10.05216259765625,1.0494276286388908,0.10088634492067614,-2.312789678461939
1684002488334804400,10.062204833984374,1.1030118465712806,0.33680629725844174,-2.457843065357322
1684002488344846300,10.07224658203125,1.0330411195446703,0.48688316338039905,-2.6283342837177206
1684002488354888400,10.082288818359377,0.9789412022429606,0.5299119948814044,-2.6473581790293226
1684002488364930600,10.092330810546876,0.8909256459224132,0.6328678130484897,-2.509362697673243
1684002488374972600,10.102373046875,0.7779011726957513,0.7498149871682477,-2.3383977412603048
1684002488385014400,10.112414794921875,0.6795414686179677,0.8759517669468047,-2.1303858757157728
1684002488395056600,10.12245703125,0.6450604202028382,0.8966369628183596,-1.7975387573128758
1684002488405098600,10.1324990234375,0.6109789610385419,0.7332019805145356,-1.3055640459287834
1684002488415140600,10.142541015625,0.512680888247946,0.4738321305627342,-0.7120081187225045
1684002488425182600,10.1525830078125,0.2756314278195923,0.27998924239697637,-0.04136919962592584
1684002488435224800,10.162625244140624,-0.029358625396279973,0.07370090485037907,0.6298766137409318
1684002488445266600,10.1726669921875,-0.24100208285016503,-0.11279773715356599,1.3499701023633741
1684002488455308600,10.182709228515623,-0.1980063915628067,-0.2874164581624022,1.949950933485994
1684002488465350800,10.192751220703125,0.03400373470946293,-0.380774497996779,2.2915716170964395
1684002488475392600,10.20279296875,0.167113661952159,-0.40006256095132753,2.425462722831881
1684002488485434800,10.212835205078123,-0.002919435603053639,-0.49641609191988745,2.396296024338218
1684002488495476900,10.222877197265625,-0.30345988260877704,-0.577118873542008,2.130179882057073
1684002488505518800,10.232919189453124,-0.4205684662744502,-0.6182050705686217,1.7342584132939665
1684002488515560900,10.242961181640624,-0.23013830187325324,-0.5377454757128008,1.246515035600268
1684002488525603000,10.25300341796875,0.1372866630421147,-0.39926338192867195,0.6623189448991326
1684002488535645100,10.26304541015625,0.32050323477689135,-0.37890243534468715,0.32160806659972196
1684002488545687000,10.27308740234375,0.3754742144630318,-0.4116191864857695,0.10141563416799268
1684002488555729100,10.28312939453125,0.4482663868595631,-0.4583644868354664,-0.11750030530189584
1684002488565771200,10.293171630859376,0.5687315464665226,-0.3312387466239604,-0.49268698689685186
1684002488575813000,10.30321337890625,0.7614699601148428,0.040545463593908565,-0.9321680069165902
1684002488585855200,10.313255615234375,1.032995462467382,0.6149568557610003,-1.411554455924801
1684002488595897300,10.323297607421877,1.2395188808728552,1.1367635727131864,-1.9521021843768953
1684002488605939100,10.333339599609374,1.293468236773301,1.3102159499649575,-2.3680531978609314
1684002488615981200,10.343381591796875,1.1555665731117735,1.0974502563328126,-2.6075801848919546
1684002488626023300,10.353423828125,0.8262817860176055,0.7755250929379053,-2.7669713496598587
1684002488636065500,10.3634658203125,0.35982608805261423,0.24090576162700558,-2.9179980755260746
1684002488646107300,10.3735078125,-0.18891572953323854,-0.2826843262842859,-2.962811946887349
1684002488656149400,10.3835498046875,-0.6750962735494028,-0.8705863953984142,-2.9408097266913393
1684002488666191600,10.393592041015625,-1.1598383187220376,-1.4236240386539214,-2.7223529815237084
1684002488676233400,10.4036337890625,-1.5945476294771088,-2.160340309059574,-2.412276983236436
1684002488686275600,10.413676025390624,-1.9795200823699337,-3.0812778473848454,-1.8317296504157368
1684002488696317600,10.423718017578125,-2.082995891609582,-4.0006828306654185,-0.7400104999525285
1684002488706359600,10.433760009765624,-1.8056223391537152,-4.4536638261328445,0.6108279226690198
1684002488716401600,10.443802001953124,-1.062796711939786,-4.0879468918747035,1.6908417939698803
1684002488726443600,10.453843994140623,0.08498620983231024,-2.9976596831757036,2.285912990591814
1684002488736485800,10.46388623046875,1.283226251550765,-1.2430753707887003,2.4343128203552054
1684002488746527600,10.473927978515626,2.186343192916156,0.5277462005337966,1.948338270065963
1684002488756569800,10.48397021484375,2.7025394438533583,1.6010694504066099,1.1753058432878138
1684002488766611900,10.49401220703125,2.867320775917968,2.2202796937270337,0.49823963637752355
1684002488776653700,10.50405419921875,2.7400121690268953,2.6547217367776534,-0.04050743584238297
1684002488786695900,10.51409619140625,2.4902200698639962,2.927153587432432,-0.46420156963808706
1684002488796738000,10.524138427734377,2.2333524227922092,2.8473777771631865,-0.8512231111844395
1684002488806779800,10.53418017578125,2.0018506051090226,2.368624687084254,-1.1153194903258064
1684002488816821900,10.544222412109375,1.7957818507275878,1.5801382064240783,-1.2893066405961298
1684002488826864000,10.554264404296877,1.632877588262867,0.5801639557234131,-1.3324127196784021
1684002488836906200,10.564306640625,1.4840592144577018,-0.3450183868914954,-1.1431448460684117
1684002488846948000,10.574348388671876,1.1810107231620377,-0.998254776070511,-0.855639934390473
1684002488856990100,10.584390625,0.7097463607566411,-1.3090353011508526,-0.5696213244979182
1684002488867032200,10.5944326171875,-0.02176666252365525,-1.3140783309972237,-0.29875028128996334
1684002488877074100,10.604474609375,-0.8232105969280415,-1.0815620423860444,0.10758447655170317
1684002488887116200,10.6145166015625,-1.350332498524959,-0.7374944687543473,0.516763687191377
1684002488897158300,10.624558837890625,-1.3962111472621834,-0.34749984745164697,0.6616621017340556
1684002488907200200,10.6346005859375,-0.9882531761704348,-0.10745143884449608,0.6025556326875352
1684002488917242300,10.644642578125,-0.26643413309499225,-0.04697608948762133,0.31442320351927705
1684002488927284400,10.654684814453123,0.5112183093587468,-0.06617736813156863,0.01323401912901957
1684002488937326300,10.6647265625,1.1768230198494996,-0.09442806233941181,-0.20890825991179765
1684002488947368400,10.674768798828126,1.6443914174440823,-0.08829593666022137,-0.3026350139242789
1684002488957410600,10.684810791015623,1.9158928394138057,-0.03851795187839711,-0.3066843152986105
1684002488967452600,10.69485302734375,1.9616303444531602,0.10688114166253797,-0.2655799389743409
1684002488977494400,10.704894775390626,1.956561803763137,0.26838111880960125,-0.24630886334961147
1684002488987536600,10.71493701171875,1.9918603897448663,0.3669900894860385,-0.16148316874857788
1684002488997578600,10.72497900390625,2.0650415420375277,0.39337444304644387,-0.06530117993917202
1684002489007620600,10.73502099609375,2.120342731504569,0.36941719049805466,-0.039802372508198
1684002489017662600,10.74506298828125,2.155341625165665,0.26440811167273826,-0.022946357684543547
1684002489027704800,10.755105224609377,2.1639018057702994,0.13114166252079812,-0.0369068980744094
1684002489037746900,10.765147216796874,2.1463172435424043,0.024458885191097936,-0.013675689692424563
1684002489047788600,10.775189208984376,2.1328504084399187,-0.10368633269131287,-0.02584427594516193
1684002489057830800,10.785231201171875,2.0913665293287202,-0.1554555893903563,-0.11180025344357286
1684002489067872900,10.7952734375,2.1036620141084303,-0.20989608782379862,-0.2141504884083323
1684002489077914800,10.805315185546876,2.1001694203036165,-0.2741022109765413,-0.3179908992282285
1684002489087956900,10.815357421875,2.094588756527286,-0.3025608062075559,-0.4105731846306747
1684002489097999000,10.8253994140625,2.083772659418851,-0.27376747136619556,-0.5341649650651458
1684002489108040900,10.835441162109374,2.0076959133438543,-0.14003086089153427,-0.6496087312999191
1684002489118083000,10.8454833984375,1.885974049616283,-0.0400924682881672,-0.7559798956269852
1684002489128125100,10.855525390625,1.7341070175401887,0.03808593744690943,-0.8426190018602079
1684002489138167200,10.865567626953125,1.6053028106927985,0.08505821240104725,-0.9204393029273259
1684002489148209100,10.875609375,1.461400389817763,0.09855079655401669,-1.010365009354704
1684002489158251200,10.885651611328123,1.361673832005365,0.08112430585089357,-1.1019648314055177
1684002489168293300,10.895693603515625,1.2076737881547575,0.03530597678683821,-1.1299679279433512
1684002489178335200,10.905735595703124,1.0041265487011768,-0.07465457904467464,-1.0966356993288446
1684002489188377300,10.915777587890624,0.7417664527094322,-0.155516624401911,-1.0165307521159765
1684002489198419400,10.92581982421875,0.4342499971663728,-0.190701484787782,-0.8203974367912304
1684002489208461600,10.93586181640625,0.15231019244520128,-0.1708631516999001,-0.5587013960046112
1684002489218503300,10.94590380859375,-0.008399650445639402,-0.11537837987514425,-0.21367627378737036
1684002489228545500,10.95594580078125,0.05295712879217617,-0.07701110845754738,0.1788254975432671
1684002489238587600,10.965988037109376,0.25252076988584304,-0.003199577464483214,0.4406390785757049
1684002489248629400,10.97602978515625,0.5295849442200015,0.07977771754213264,0.6031337378673356
1684002489258671600,10.986072021484375,0.8152267932096882,0.1456832884766178,0.7166526318195736
1684002489268713600,10.996114013671876,1.0510236025415376,0.15396213534847844,0.797547280782865
1684002489278755800,11.00615625,1.210821151669063,0.09757328031260687,0.8690320848242525
1684002489288797600,11.016197998046875,1.2746746539234024,0.026813507060909757,0.8542424439465104
1684002489298839700,11.026240234375,1.3022310734007991,-0.07259654989003504,0.8107697366958714
1684002489308881800,11.0362822265625,1.267621397841224,-0.12653160082963713,0.7366044521601595
1684002489318923600,11.046323974609376,1.2027208806039094,-0.1470212936168081,0.6442096231838071
1684002489328965800,11.0563662109375,1.1328637599927516,-0.10787677768778264,0.5313594341829776
1684002489339007900,11.066408203125,1.0902866124607176,-0.04504489899496063,0.3961000444008178
1684002489349050000,11.076450439453126,1.1065499782706818,0.012777328491004518,0.2793543935459854
1684002489359091900,11.0864921875,1.1193896530319523,0.04652214039910293,0.16223424670183714
1684002489369134000,11.096534423828125,1.1353182793739611,0.09209156046764005,0.11192309846221107
1684002489379176100,11.106576416015624,1.160473227553822,0.07783603665726396,0.025871813412636932
1684002489389218000,11.116618408203124,1.14870107165005,0.07318210595024001,-0.07630479339019965
1684002489399260100,11.126660400390625,1.0948400497837913,0.042303085448399315,-0.17026701577060102
1684002489409302200,11.13670263671875,1.046754837044782,0.08798217781168545,-0.2578843831852511
1684002489419344300,11.14674462890625,0.9548839332324305,0.09062767020906916,-0.3007825910376862
1684002489429386200,11.15678662109375,0.8722147942489651,0.02845001215173348,-0.28057736148346335
1684002489439428300,11.16682861328125,0.7776134014573505,-0.056179046682709476,-0.29679381843018726
1684002489449470400,11.176870849609376,0.6783345341339462,-0.0899085998223939,-0.2829247711392358
1684002489459512200,11.18691259765625,0.6051037311297955,-0.1112461088879438,-0.251087874331895
1684002489469554400,11.196954833984377,0.5392798184336947,-0.09920406340418494,-0.2415822148802474
1684002489479596500,11.206996826171874,0.4745604394922592,-0.011965751647539215,-0.16015368696163268
1684002489489638600,11.2170390625,0.46543246500894697,-0.015567779455124636,-0.06679871678098102
1684002489499680400,11.227080810546877,0.5202771425454642,-0.026113510153875724,0.10636580001338218
1684002489509722600,11.237123046875,0.5742194651910764,0.00827693946240193,0.28671973930475464
1684002489519764600,11.2471650390625,0.6316656470364009,0.027987480158370274,0.4079158604426668
1684002489529806600,11.25720703125,0.6964983938914845,0.06149864201805624,0.4638188183960515
1684002489539848600,11.2672490234375,0.7114956975284298,0.10620689387279168,0.5001302957062754
1684002489549890700,11.277291015625,0.7454179525938388,0.24193668375095898,0.5162204503632825
1684002489559932800,11.287333251953124,0.8073658944201609,0.3518133162744375,0.46763151884598597
1684002489569974600,11.297375,0.8518578411770941,0.3326797485219863,0.4284074305780656
1684002489580016800,11.307417236328124,0.8885541557350458,0.27144813541486673,0.39149713517967094
1684002489590058900,11.317459228515624,0.9076147079483895,0.31240749374703974,0.33545270556805845
1684002489600100800,11.327501220703123,0.8588525055534245,0.3361015318534951,0.26697435984224654
1684002489610142900,11.337543212890624,0.7899166344014574,0.26279068006742756,0.14481443155501486
1684002489620185000,11.34758544921875,0.7111221552506567,0.01644992817911005,0.09144762160133202
1684002489630227100,11.35762744140625,0.5670933724678963,-0.23283386235127085,0.14965266003433164
1684002489640269000,11.36766943359375,0.44060826304253237,-0.46378326419815,0.33451700219638647
1684002489650311100,11.37771142578125,0.3426153957714657,-0.6060352326367938,0.6062512995651359
1684002489660353200,11.387753662109375,0.3243609964527827,-0.5480213164845756,0.8805642723716703
1684002489670395100,11.39779541015625,0.3361721336751863,-0.3213348389767046,1.104374766442303
1684002489680437200,11.407837646484374,0.41997364168872175,-0.07949733724534971,1.2792435885953657
1684002489690479300,11.417879638671875,0.5192561150349605,0.06888103489712565,1.350958704905668
1684002489700521400,11.427921875,0.6368740796569956,0.12294578549167662,1.4313535690639188
1684002489710563200,11.437963623046874,0.6977662444523188,0.19722461696935412,1.5296136140052867
1684002489720605400,11.448005859375,0.7417263984476336,0.22073173523556602,1.624049186696252
1684002489730647600,11.4580478515625,0.8107407091932364,0.1825284957596869,1.7211620807571193
1684002489740689300,11.46808984375,0.8574522733571195,0.029497146641895393,1.850935101465902
1684002489750731400,11.4781318359375,0.8796957731013088,-0.20820140832873643,1.9750765561764507
1684002489760773600,11.488174072265624,0.868207097157407,-0.385561943105138,2.0345914362892286
1684002489770815600,11.498216064453125,0.8701854347334564,-0.5671844482513316,2.0558609963516132
1684002489780857600,11.5082578125,0.8591589331110899,-0.6420478821559039,1.97432398788363
1684002489790899600,11.518300048828126,0.869493424976348,-0.5520877838210154,1.781392097479637
1684002489800941700,11.528342041015623,0.7916029096240256,-0.3430681228529477,1.5969824791640235
1684002489810983600,11.538384033203124,0.6383454204687085,-0.15381336223676526,1.3962397575388525
1684002489821025600,11.548426025390626,0.37700480220621063,-0.03447246549216053,1.1180771587701916
1684002489831067800,11.55846826171875,0.16350674628709147,-0.13535881028915434,0.8453544378904083
1684002489841109900,11.56851025390625,-0.07145185757760367,-0.4559459687258412,0.6091392039514418
1684002489851151800,11.57855224609375,-0.32048162815400544,-0.7903099059459829,0.3860440254769183
1684002489861193900,11.58859423828125,-0.6328724621925986,-1.028556823623734,0.16056844591988922
1684002489871236000,11.598636474609377,-0.9473925828715165,-1.1518182755774347,-0.06839692596239344
1684002489881277900,11.60867822265625,-1.2711769343175088,-1.1365480423801329,-0.3430217505266007
1684002489891320000,11.618720458984376,-1.484120011310574,-1.0166320801301056,-0.5146088005141156
1684002489901362100,11.628762451171877,-1.6324892044593924,-0.8593902588459005,-0.6472262740137888
1684002489911404000,11.638804443359374,-1.68859326841415,-0.6580524443751776,-0.6497284173426431
1684002489921446100,11.648846435546876,-1.6528902052165397,-0.3820858001737252,-0.5604015588807599
1684002489931488200,11.658888671875,-1.4493618011633622,-0.08705997466944294,-0.3487258553611276
1684002489941530300,11.6689306640625,-1.0953170062173594,0.14540004722450608,-0.17542058232072694
1684002489951572100,11.67897265625,-0.6958299280341459,0.28183460230369367,0.028508663275724516
1684002489961614300,11.6890146484375,-0.37996882204750065,0.32966995238450314,0.2193545103672154
1684002489971656400,11.699056884765625,-0.09482908243952307,0.3179893493922258,0.3388614653357923
1684002489981698600,11.709098876953124,0.18984222405918355,0.2710800172568749,0.46963632111041625
1684002489991740300,11.719140625,0.434471249627903,0.21316432959340634,0.4254357220576672
1684002490001782400,11.729182861328123,0.5573341847434583,-0.001503944387738448,0.31013667587345456
1684002490011824600,11.739224853515625,0.7388697862080778,-0.6429719924292838,0.1446621418557108
1684002490021866400,11.749266845703126,1.0286805630473395,-0.8699407577739836,-0.43310335283872614
1684002490031908600,11.759308837890623,1.4504017829336582,-0.36766815190706126,-0.9894312620204012
1684002490041950600,11.76935107421875,1.7483412028155192,0.17009925857379068,-1.4673013685876575
1684002490051992800,11.77939306640625,2.062542915295625,0.6346693038144853,-1.404693126678039
1684002490062034600,11.78943505859375,2.0670175551721095,0.5661258697293736,-0.9541788099721628
1684002490072076600,11.79947705078125,1.932688474648974,-0.34468173990540235,-0.8117711543716495
1684002490082118800,11.809519287109374,1.9223347901618664,-1.146650314185545,-1.1003311873882764
1684002490092160900,11.819561279296876,1.9193089008822883,-1.1315679551507234,-1.627429366222355
1684002490102202800,11.829603271484377,1.898818135208584,-0.5182867050737503,-1.9466910363649743
1684002490112244900,11.839645263671876,1.9119035005164196,-0.5921716691393085,-1.7028546334104253
1684002490122287000,11.8496875,2.065082550183197,-1.0588455200770734,-1.3597364425049054
1684002490132329100,11.8597294921875,2.1653983593115984,-0.6444749832051258,-1.4420444964484815
1684002490142371000,11.869771484375,2.3435509204964298,-0.291009903020511,-1.5841976404313984
1684002490152413100,11.8798134765625,2.578758001379473,-0.0737066268934106,-1.3503265380156622
1684002490162455200,11.889855712890624,2.9069056512302556,-0.14233493806746383,-1.1211858987184016
1684002490172497100,11.8998974609375,3.0958683489738346,-0.09010505678922325,-0.9158051013343043
1684002490182539200,11.909939697265624,3.137290239379842,0.010803222679951242,-0.6549291013804469
1684002490192581300,11.919981689453126,2.96079278009142,0.18840122223883973,-0.42094671731020994
1684002490202623400,11.93002392578125,2.727964878088551,0.42289733889311254,-0.31919622413530563
1684002490212665300,11.940065673828125,2.4805734157249106,0.64216804505899,-0.4058164359247215
1684002490222707400,11.950107666015626,2.286881446913046,0.81492233263773,-0.5951493978831712
1684002490232749600,11.96014990234375,2.1399617194829834,0.7596035004772973,-0.5902065037714788
1684002490242791600,11.97019189453125,1.8116235731778745,0.49795818341223985,-0.529892921468622
1684002490252833500,11.98023388671875,1.487537503230133,0.21885204324887836,-0.2773621083980039
1684002490262875600,11.99027587890625,0.937463402651065,-0.15971469877757696,-0.05374681950283733
1684002490272917600,12.000318115234377,0.39295494572685896,-0.33022594447991915,0.026150941933059745
1684002490282959600,12.01035986328125,-0.2380801439690723,-0.25158691410034867,0.17497801775406024
1684002490293001600,12.020402099609376,-0.6267515420687293,0.005060195993624209,0.168983221040418
1684002490303043800,12.030444091796875,-0.8160758019223725,0.13049697877827582,0.04509389412250539
1684002490313085900,12.040486328125,-0.9124794005694009,0.08448314674284667,-0.10293006904833939
1684002490323127600,12.050528076171876,-0.9329793454765943,-0.0985593796484021,-0.12147557726459322
1684002490333169800,12.0605703125,-0.8555521964470338,-0.24571132663010162,-0.07100009921509053
1684002490343212000,12.0706123046875,-0.7463570832628611,-0.4379129408312772,0.1053092480876046
1684002490353253800,12.080654296875,-0.5172806978725186,-0.7653779981946163,0.11219859122427275
1684002490363295900,12.0906962890625,-0.22663211806045014,-0.8425579070891289,-0.06276810168262578
1684002490373338000,12.100738525390623,0.06027233601778807,-0.7721252441810382,-0.37572109695896444
1684002490383380100,12.110780517578124,0.2130687236941538,-0.6614818572973716,-0.7874144315485496
1684002490393422000,12.120822509765626,0.37700200081963614,-0.4817714690481025,-1.082124233202117
1684002490403464100,12.130864501953123,0.5472221374077689,-0.20400714875843787,-1.3488202094727773
1684002490413506200,12.14090673828125,0.7199445962512596,0.030953407242430925,-1.5067431926508648
1684002490423548300,12.15094873046875,0.9222902060551309,-0.1493797302827564,-1.5700737236469933
1684002490433590200,12.160990478515624,1.1901521682750758,-0.39294528957161995,-1.6346989870982218
1684002490443632300,12.17103271484375,1.469408512178998,-0.6085176467653322,-1.5860661267763503
1684002490453674400,12.18107470703125,1.6998785735078703,-0.7336091996963402,-1.458805918563052
1684002490463716600,12.191116943359376,1.7619833946925967,-0.734822273157711,-1.2026247979306683
1684002490473758400,12.20115869140625,1.7102494239073613,-0.5625257493078819,-0.9606417416569244
1684002490483800600,12.211200927734374,1.5796728135285991,-0.387205123913924,-0.7338076828534512
1684002490493842600,12.221242919921876,1.4186276197163965,-0.18564605724775943,-0.6439291238392051
1684002490503884600,12.23128515625,1.2898273468712627,-0.15408325190273175,-0.6366839407422915
1684002490513926600,12.241326904296876,1.2349778412998897,-0.053257942213918774,-0.6437252759393867
1684002490523968600,12.251369140625,1.1410682200547948,0.17406749715602599,-0.5791867970709286
1684002490534010800,12.2614111328125,0.9834107160507009,0.4296092986641118,-0.44910097128188137
1684002490544052600,12.271453125,0.7567492723790217,0.6200904845184552,-0.31180202967800397
1684002490554094800,12.2814951171875,0.5026906728779997,0.785808563359029,-0.10867261890017534
1684002490564136900,12.291537353515626,0.2970204353019674,0.84967994685178,0.1444363593949122
1684002490574179000,12.301579345703123,0.18950009333543794,0.7684717178035174,0.36143875121264335
1684002490584220800,12.311621337890625,0.19364309312996703,0.6499233245481753,0.49606156347579494
1684002490594263000,12.321663330078126,0.2813050747406831,0.49693679817184333,0.5151393415099399
1684002490604305100,12.33170556640625,0.4664273262804958,0.3413429260348311,0.4430527688773439
1684002490614347200,12.34174755859375,0.5713849066866667,0.13587474830724333,0.32905554771253614
1684002490624389000,12.35178955078125,0.5900975466354914,0.05776119238467175,0.03245854361365084
1684002490634431200,12.36183154296875,0.5260002612166654,0.07836151118742875,-0.3341655732318162
1684002490644473300,12.371873779296877,0.511955976398979,0.07107448584283187,-0.6657559872277106
1684002490654515400,12.381915771484374,0.6616523267360185,0.11497688296691892,-0.9051032065614706
1684002490664557200,12.39195751953125,0.8560887576846798,0.1650457381827126,-1.0735479593114032
1684002490674599300,12.401999755859377,1.0241453648101864,0.13826370251179354,-1.225583195752192
1684002490684641500,12.412041748046876,1.0593373775345594,-0.04611968995817804,-1.2708300351599477
1684002490694683600,12.422083984375,1.001574993152894,-0.26129722595882104,-1.2157398462535605
1684002490704725400,12.432125732421875,0.8130012751379456,-0.3860483170241054,-0.9696220160546338
1684002490714767600,12.44216796875,0.5878044366901071,-0.45231437698499033,-0.694694280617917
1684002490724809600,12.4522099609375,0.508555412250533,-0.3867483140142937,-0.34190082535941385
1684002490734851600,12.462251953125,0.463460922238461,-0.16831970218257566,-0.02096986771881099
1684002490744893600,12.4722939453125,0.5941798686957558,0.2411375046018204,0.3777265549675372
1684002490754935600,12.482336181640624,0.7483649255133867,0.5816917419700777,0.6597650051331033
1684002490764977800,12.492378173828126,0.8793064357113359,0.675350189160977,0.8799910545202855
1684002490775019600,12.502420166015623,0.9438400864918305,0.4299001692636715,1.000769376814348
1684002490785061800,12.512462158203125,0.9112235904445807,0.13400459289741856,1.0415413378154756
1684002490795103900,12.52250439453125,0.8788738846562001,0.05609512342197838,0.9071481227918436
1684002490805146000,12.53254638671875,0.8948899509350576,0.12096214304907693,0.54563283927779
