time,seconds_elapsed,z,y,x
1684179908849815700,0.045216064453125,4.580014858508654e-11,4.212191559956887e-12,1.1917402172561703e-10
1684179908859857100,0.055257568359375,-0.1255922317434049,0.051507949764597105,0.08003169288732179
1684179908869898200,0.065298583984375,-0.21565341958539244,0.13495635971576292,-0.136340647975659
1684179908879939600,0.07533984375,-0.2384123802701709,0.1274323462648234,0.03294262273083783
1684179908889980600,0.085381103515625,-0.03950786596078528,0.17374610895019113,-0.051206082056035544
1684179908900021900,0.09542236328125,0.0008506774385944544,0.22067689903020749,0.13226985924585338
1684179908910063000,0.10546337890625,0.1456470488892325,0.23799133314852147,0.018535941870901858
1684179908920104400,0.1155048828125,0.6879158021383256,0.5822455882507519,-0.3517591953161993
1684179908930145500,0.1255458984375,0.8470706939878597,-0.25865221021438506,0.10082513096137499
1684179908940186800,0.135587158203125,0.8450689314985771,-0.1501574515529469,-0.14059785005137934
1684179908950228100,0.145628662109375,0.702652931308907,0.6183807850943828,-0.6846187113344828
1684179908960269200,0.155669677734375,-0.3042449950874418,-1.2935972214126241,0.12572062008556717
1684179908970310600,0.1657109375,-0.729593276871591,0.05180835717239789,-1.1172753571086025
1684179908980351600,0.175751953125,-1.1549315453310904,-0.9856987000563973,0.35218256715291735
1684179908990393000,0.18579345703125,-0.8954157829313418,-0.840369224605103,-0.08809846650058012
1684179909000434100,0.19583447265625,-0.750108718936157,-0.8451828957019714,0.8395643233684476
1684179909010475400,0.205875732421875,0.11374759673482449,0.3483383656435165,-0.28515970707997124
1684179909020516800,0.215917236328125,0.4458379744404546,-0.8838858603888218,0.742198705778691
1684179909030557900,0.225958251953125,0.9791059493576127,0.2559857368840481,-0.16207349302745433
1684179909040599200,0.23599951171875,0.6876916885666404,-1.0111613273313886,0.3957365752669421
1684179909050640300,0.246040771484375,0.5955085755124666,-0.2515630723183772,-0.1201314927236377
1684179909060681600,0.25608203125,-0.04844474794958617,-0.5171806812521745,1.0237926245495066
1684179909070722700,0.266123046875,-0.3742704391313744,-0.7749402523111358,1.0109996795916487
1684179909080764100,0.27616455078125,-0.4712419508062243,-0.24451684951941072,1.2195460796676645
1684179909090805200,0.28620556640625,-0.7703566551976869,-0.17244362823725434,1.661767244256573
1684179909100846600,0.296246826171875,-0.6938571929662289,-0.6341180800230786,1.9487679004140357
1684179909110887900,0.306288330078125,-0.11643695830010312,-0.5684788225184796,1.8254182339914031
1684179909120928900,0.316329345703125,0.11268138887795977,-0.6801533698768254,2.142624855079185
1684179909130970300,0.32637060546875,0.40321636203978767,0.24168252954812175,2.1026878358343293
1684179909141011400,0.336411865234375,0.23133277892816453,-0.03526973738473611,1.3928890227332789
1684179909151052600,0.346453125,0.11068344129238486,-0.29444456093725363,2.1820745467887828
1684179909161094100,0.356494384765625,0.3976001738598885,0.020184755245006476,0.8353135585683941
1684179909171135200,0.36653564453125,0.34318542462795526,0.07876372343749825,1.1955661773763326
1684179909181176600,0.376576904296875,0.06817626957304702,0.08609747888582998,0.9009606836348946
1684179909191217600,0.386617919921875,-0.1396341323721617,0.17690348621473526,0.8894913197524779
1684179909201258900,0.396659423828125,-0.22254371647368848,0.46575570112561165,0.6172518730198119
1684179909211300300,0.40670068359375,-0.10943317402361394,0.4254200460107324,0.3688161373212735
1684179909221341400,0.41674169921875,0.27839660644637854,0.4817504884646181,0.13998055461930908
1684179909231382600,0.426783203125,0.4115514755534222,0.7870051859292395,-0.18953275681087714
1684179909241423800,0.43682421875,0.5660905837134073,-0.2693326474516185,-0.06878066046881909
1684179909251465100,0.446865478515625,0.882158279463733,-0.3661398888725958,-0.3909873962213303
1684179909261506600,0.456906982421875,1.0340175627876835,-0.19816613184985157,-0.48851943017325195
1684179909271547600,0.466947998046875,1.2497777938947519,-0.2569398880633503,-0.1199069025000793
1684179909281588900,0.4769892578125,1.3243131637146337,0.19185495371442304,0.47216701520663534
1684179909291630000,0.487030517578125,0.0994052888603271,1.060197710805978,1.0409059524538755
1684179909301671300,0.49707177734375,-0.9769420623078177,1.2770814895601916,0.6354017256849834
1684179909311712600,0.507113037109375,-1.6763825416150038,0.9123976229793866,0.4894084929425546
1684179909321753800,0.517154296875,-2.2071814537849326,0.7103328704590618,0.3085951805706355
1684179909331795100,0.527195556640625,-2.410332202851991,0.3396047353235321,0.3669767381217779
1684179909341836200,0.537236572265625,-2.3289856909072513,0.26416587833655847,0.5347347260924745
1684179909351877600,0.54727783203125,-1.8934421537847894,0.6524305342902699,0.6258821486842938
1684179909361918900,0.5573193359375,-1.2313966752063628,0.6171133517396293,0.6418099402721846
1684179909371960000,0.5673603515625,-0.6411805153728508,0.5242658855377288,0.28745269777430704
1684179909382001300,0.577401611328125,-0.20334053053909537,0.20302891731529144,0.40815973267523914
1684179909392042400,0.58744287109375,0.3473143578207646,0.3067044018736398,0.2941322324851264
1684179909402083800,0.597484130859375,0.8465490340672884,0.7083878517918366,0.024982452371201044
1684179909412124800,0.607525146484375,0.9117121697155275,0.6103149652819749,0.07211065290732316
1684179909422166200,0.617566650390625,0.7760896684516913,-0.11186039442377949,-0.9458975791520814
1684179909432207600,0.62760791015625,1.5304007530203838,-0.7694150208904007,-0.1033606528612355
1684179909442248600,0.63764892578125,1.5764541625784807,-1.0644370316611966,0.3298110960462893
1684179909452290000,0.6476904296875,0.5234670637946044,-0.17008626453539052,-0.7118616102877722
1684179909462331300,0.657731689453125,-0.5894947050382904,-0.16793918601340005,-1.0524530410133728
1684179909472372400,0.667772705078125,-0.9749822616074068,-0.7555624245890361,-0.37413740157266834
1684179909482413700,0.677814208984375,-0.4653158187713198,-0.5938069821547147,-0.15750551226991943
1684179909492455100,0.68785546875,0.3201956748992506,-0.26040911672687517,-0.20386648175039035
1684179909502496200,0.697896484375,0.9482188224381848,-0.1989886759231465,-0.5709609986100309
1684179909512537600,0.70793798828125,-0.05141878116960161,-0.5265069008421239,-0.8735051154916345
1684179909522578600,0.71797900390625,-0.7293210028931614,-0.2402489185634238,-1.9235787391967338
1684179909532620000,0.728020263671875,0.06971406937793373,-0.4629638194146153,-1.9263114929884355
1684179909542661000,0.7380615234375,1.08503246309588,-0.5141131877496274,-1.8093948363139483
1684179909552702400,0.748102783203125,1.6611871717923257,-0.5253987311239676,-1.5042548178698287
1684179909562743600,0.75814404296875,1.2033376693028062,-0.49703526481585614,-1.425126552591811
1684179909572784800,0.768185302734375,0.5949344635880234,0.009024381473496719,-1.4475159645085791
1684179909582826200,0.7782265625,-0.1866545676522334,0.46410155284820986,-0.5592432022186572
1684179909592867600,0.788267822265625,-0.5273566246879754,0.44878029821008913,0.7067928314323252
1684179909602908600,0.79830908203125,-1.1204354761795106,0.47317194932220646,0.7955951690824126
1684179909612949900,0.808350341796875,-1.2523791789206755,0.7709546090187924,0.6660747528549394
1684179909622991300,0.8183916015625,-0.7012939451939013,0.48818075661796745,0.42031192798328304
1684179909633032400,0.828432861328125,-0.6996316910550705,0.27510643016017344,0.006517410304509719
1684179909643073600,0.83847412109375,-0.38066005715238155,0.3244278430668431,-0.38687324511937027
1684179909653114800,0.84851513671875,0.01423048966893007,0.01412200944485858,-0.32356166835429717
1684179909663156100,0.858556640625,0.06304168698748643,-0.4441931248450832,0.021826744114058903
1684179909673197600,0.868597900390625,0.260311603613391,-0.49003386503188406,0.12939357753372596
1684179909683238600,0.878638916015625,0.24201846113393463,-0.5005059241078116,0.1403312682770202
1684179909693279900,0.888680419921875,0.04142403589514335,-0.4007439612730673,0.21714591963972027
1684179909703321300,0.8987216796875,-0.22283649451737225,-0.22049784658003752,0.5516881942867506
1684179909713362400,0.9087626953125,-0.5108875035447774,0.15530395499069555,0.619112968442325
1684179909723403600,0.91880419921875,-0.4431763888159522,0.3042356967692297,0.48322200782763186
1684179909733445000,0.928845458984375,-0.21410083767819468,0.221982717446677,0.4238319396840145
1684179909743486100,0.938886474609375,0.24699127662041662,-0.10843324654824532,0.2232370376081813
1684179909753527500,0.948927978515625,0.8106187581426639,-0.603116989035432,-0.06338405599534386
1684179909763568800,0.95896923828125,1.2475107907490077,-0.9094910622136247,-0.19429588316960064
1684179909773609900,0.96901025390625,1.017257690277093,-0.7128417492538109,0.1406803131165231
1684179909783651200,0.9790517578125,0.6845393180993612,-0.48995208746419,0.6693725586032713
1684179909793692600,0.989093017578125,0.1912635565785183,-0.3225543499775054,0.82319545739234
1684179909803733600,0.999134033203125,-0.18950790186204447,-0.0407962799852955,0.5376739501986033
1684179909813775000,1.009175537109375,-0.5297113658276332,-0.1552510261629057,0.41788959512982715
1684179909823816100,1.019216552734375,-0.9416166544055202,-0.385967254473875,0.22381114954386047
1684179909833857500,1.0292578125,-1.4081873893403294,-0.7049090863765438,0.6607160569049763
1684179909843898800,1.03929931640625,-1.8262175321948686,-0.3578155041164327,0.5944385528901754
1684179909853939900,1.04934033203125,-1.315526247016565,-0.16132426258439986,0.8130540848450117
1684179909863981200,1.059381591796875,-0.38820341233750477,-0.08588814737383886,0.7215185165250562
1684179909874022600,1.069423095703125,0.4149633943919153,-0.4221816062967149,0.7497148513584416
1684179909884063600,1.079464111328125,0.7608073354936702,-0.45210075386268206,0.020589828614962426
1684179909894105000,1.08950537109375,0.8309212923653178,-0.47173309329646756,-0.5711488723922431
1684179909904146400,1.099546630859375,0.6894787549160314,-0.5253443718445596,-0.70910167712273
1684179909914187400,1.109587890625,0.6090468168637871,-0.6382944584798161,-0.6229009627694543
1684179909924228800,1.119629150390625,0.33192616701709043,-0.8303399087063159,0.2103509903325477
1684179909934270100,1.12967041015625,-0.1367048323044998,-0.6471886634309738,0.21813201889057393
1684179909944311200,1.139711669921875,-0.3706735968467418,-0.6626343728320787,0.12945652022851
1684179909954352600,1.1497529296875,-0.2986941933098025,-0.648755073461999,0.33092784880416615
1684179909964393900,1.159794189453125,-0.08814610545032704,-0.4567999839160244,0.3095417022939632
1684179909974435000,1.16983544921875,-0.1158726662754143,-0.4502296446988059,0.3311176298813773
1684179909984476300,1.179876708984375,-0.06870388987408985,-0.2971091271569855,0.031151771523836098
1684179909994517600,1.18991796875,-0.06732413172050918,-0.1940193176702174,-0.008877754360552057
1684179910004558800,1.199959228515625,-0.057208955129256334,0.06115531922024421,-0.7024707794722923
1684179910014600100,1.21000048828125,0.08252982796624535,0.12218904494959222,-0.347130775482513
1684179910024641500,1.220041748046875,0.14555057887942485,0.2832808494356884,-0.013574600084365389
1684179910034682600,1.2300830078125,0.19332283728249597,0.48595190056065823,-0.14926433563039201
1684179910044723900,1.240124267578125,0.24533420803699052,0.475375175439099,0.010308265598208275
1684179910054765200,1.25016552734375,0.24100896718113599,0.4096612929759917,0.08277797698901353
1684179910064806300,1.260206787109375,0.06762480737650824,0.2864732742076229,0.04729652411311494
1684179910074847600,1.270248046875,-0.006307661401246768,0.3927593232011633,-0.11577415461442157
1684179910084889000,1.280289306640625,-0.0249135493514356,0.4028668402358863,-0.1313505172380814
1684179910094930100,1.29033056640625,0.13227474694347224,0.19413948063473063,0.301963806338859
1684179910104971400,1.300371826171875,0.05572670680734421,0.5916652678137299,0.04179382335699732
1684179910115012800,1.3104130859375,-0.14341425893757664,0.0645427704538692,0.9402217866323198
1684179910125053900,1.320454345703125,0.012939780835466774,-0.015935897769448988,1.3794317243954366
1684179910135095200,1.33049560546875,-0.1069395245239278,0.15934371958389487,1.3515624998851195
1684179910145136600,1.340536865234375,-0.3820375503628067,0.39679670328894173,0.813892364475354
1684179910155177600,1.350578125,-0.4064250290809966,0.23858451849152332,0.49175739270416746
1684179910165219000,1.360619384765625,-0.0876610280072434,0.21957635894389887,0.22591686239281789
1684179910175260300,1.37066064453125,0.22593706848965395,0.143462657908379,0.08696460716514165
1684179910185301400,1.380701904296875,0.3079410493931624,-0.20257616054411737,0.09539604176193653
1684179910195342800,1.3907431640625,0.39963960658071024,-0.2629194260449825,0.10271167756868894
1684179910205384100,1.400784423828125,0.19355374586800608,-0.22174882882551103,0.16212224961055982
1684179910215425500,1.410825927734375,0.10004067407513677,-0.12395095840821703,0.2361407280333128
1684179910225466600,1.420866943359375,0.15433144577622726,-0.061678886497125524,0.5804142951454425
1684179910235507900,1.430908203125,0.04982423791296865,-0.21515607834234363,0.7034726142912142
1684179910245549200,1.44094970703125,1.039915442372552,-0.5365014077192377,1.1158390046486115
1684179910255590300,1.45099072265625,1.2458138464672468,-0.13743257507151294,1.2774329185451472
1684179910265631600,1.461031982421875,1.262356877262261,0.08329439163912267,1.4905486108083066
1684179910275673000,1.471073486328125,0.960446000071217,0.02327108375015932,1.169755458890691
1684179910285714100,1.481114501953125,0.9123016000508104,-0.9745903015973254,1.3110556602332801
1684179910295755400,1.49115576171875,0.9706023930985684,0.06186008465602937,-0.5560903548399733
1684179910305796800,1.501197265625,0.2498337329107507,0.16239213947114467,0.04446029657407276
1684179910315837900,1.51123828125,0.2589689492192266,1.0436339378780677,-0.09714794170458331
1684179910325879200,1.521279541015625,-0.0726099610653781,-0.16245269771318666,1.3484997749205847
1684179910335920600,1.531321044921875,0.8237106203526181,0.6177091598930468,1.4765057562384454
1684179910345961900,1.5413623046875,0.3060127794759249,0.42494535451892723,1.6606435776102322
1684179910356003000,1.5514033203125,0.03098034845349041,0.33940076825603654,1.4219503403100222
1684179910366044300,1.56144482421875,0.5317023992593802,0.3046975134595297,1.0326242446352243
1684179910376085600,1.571486083984375,0.25251558421106585,-0.21657848346110897,0.5801916122020624
1684179910386126800,1.581527099609375,0.41871756322345566,0.471858978335377,0.17126655582317987
1684179910396168100,1.591568603515625,0.28936856988318793,0.9127788542853558,0.3803343773462955
1684179910406209500,1.60160986328125,-0.05418092013260313,0.32314634317084506,0.5767021179475945
1684179910416250600,1.61165087890625,-0.09491363171688665,0.29966211324711006,0.5440244673207808
1684179910426291900,1.6216923828125,0.15344804516582033,0.5702180862603681,0.22696399683619217
1684179910436333200,1.631733642578125,0.43081617354160756,0.6534152031263715,-0.006828784857135804
1684179910446374300,1.641774658203125,0.5927181245166836,0.6568908691802796,-0.6631202696240728
1684179910456415600,1.651816162109375,0.9246644377741109,0.3591480255808453,-1.2764716148389392
1684179910466457000,1.661857421875,2.058241605744127,-0.39201116556372134,-1.408910751376005
1684179910476498400,1.671898681640625,2.231683254274905,-0.5112118721828379,-1.7754235267476333
1684179910486539400,1.68193994140625,2.3936591149126447,-0.7858524322805466,-1.5704369544747905
1684179910496580800,1.691981201171875,1.7840487956937654,-0.5178194044780836,-2.018090248060618
1684179910506622100,1.7020224609375,0.6468249559031186,0.20837783816366387,-2.552026271669043
1684179910516663500,1.71206396484375,-0.4146263598830063,0.7019968033239911,-2.3645434380235533
1684179910526704600,1.72210498046875,-0.9226490854453762,1.2362513541581093,-2.000439166992921
1684179910536745900,1.732146240234375,-0.6311131714868248,2.3728671072361975,-1.6061811448004903
1684179910546787200,1.742187744140625,-0.1824947595944962,2.195711135777253,-1.349761009256268
1684179910556828300,1.752228759765625,0.3241611719274571,1.5751996039043261,-0.7261128424546509
1684179910566869600,1.76227001953125,0.5419051646724314,0.8399910926471074,-0.9849424363013604
1684179910576911000,1.7723115234375,0.437346100867551,1.3669557569684077,-0.33731269833142075
1684179910586952100,1.7823525390625,0.1723030210239747,1.787390232071979,-0.1728615760504583
1684179910596993500,1.792393798828125,0.1325283646468434,0.7469439506195353,-1.0200476646490344
1684179910607034800,1.802435302734375,0.1334604025068301,-0.5154418943834289,-1.0336985587732537
1684179910617076100,1.8124765625,-0.03954505922096212,-2.329976558579921,-0.3748760223409468
1684179910627117200,1.822517578125,-0.0702821015680802,-3.4046664237073174,0.5885314940973179
1684179910637158600,1.83255908203125,0.2565158009038889,-3.201477050859273,0.9960212706029732
1684179910647199900,1.842600341796875,0.5508299468987385,-1.7202858925415465,0.6077852248727378
1684179910657241300,1.8526416015625,0.4271823763672616,0.06426238999709688,0.18450117112376038
1684179910667282400,1.862682861328125,0.033778071477204095,1.1063632965096217,0.019474983207870243
1684179910677323600,1.87272412109375,-0.4071114063356363,1.133709907577318,-0.1414661406982297
1684179910687365000,1.882765380859375,-0.49355900274848225,1.332321167027635,0.04270935065429145
1684179910697406100,1.892806640625,-0.6569722890064803,0.543126583168252,0.08729743943097241
1684179910707447500,1.902847900390625,-0.4564756154321395,-0.03839540476220893,-0.1971592902649842
1684179910717488800,1.91288916015625,0.04884815211153841,-0.2513403893189784,-0.0030879974389294556
1684179910727530200,1.9229306640625,0.5121396779205565,0.01917648304152242,0.3502011298259394
1684179910737571200,1.9329716796875,0.9276526571393635,0.03747796997575543,1.0915746688808445
1684179910747612600,1.943012939453125,0.9262197016510256,0.18368911757260253,1.6977734566479175
1684179910757653900,1.953054443359375,0.5547671318227307,0.23921155918901524,1.6946229933786354
1684179910767695300,1.963095703125,0.11802029607492727,0.5511169433294133,1.2257046699532321
1684179910777736400,1.97313671875,-0.4718047381580237,0.655731677832803,0.5298962594336306
1684179910787777600,1.98317822265625,-1.0228781698670548,0.539650917173523,0.1361751555112286
1684179910797819100,1.993219482421875,-1.1394269464483486,0.6338133811656749,0.13084411625577236
1684179910807860400,2.0032607421875,-0.9010846615440083,0.11703634259325989,0.14661073693362672
1684179910817901600,2.013302001953125,-0.8635247945464682,-0.31522130960284334,-0.11892652523397637
1684179910827942800,2.02334326171875,-0.9134060142769256,-0.5590581895294242,-0.42565155034082
1684179910837984200,2.033384521484375,-0.8366004227928846,-0.8337526322346618,-0.7286930084057129
1684179910848025300,2.04342578125,-0.863312721184075,-0.8263540267024976,-0.6484475137216089
1684179910858066600,2.053467041015625,-1.04113996026252,-0.5849719047111378,-0.6252489089914856
1684179910868108000,2.06350830078125,-1.5511764288730372,-0.5612368584985273,-0.46218204503994553
1684179910878149300,2.0735498046875,-1.8682615757190109,-0.46157026292199127,-0.29875040051058105
1684179910888190400,2.0835908203125,-2.208090782260489,-0.4354557991804316,0.00989246366919435
1684179910898231600,2.093632080078125,-2.3280475139137864,-0.5636758804054636,0.45602035529481394
1684179910908273100,2.103673583984375,-1.7265548705180906,-1.0153508187271187,0.29850101462046225
1684179910918314400,2.11371484375,-1.3391938208497969,-0.9759783743959025,-0.18737459196502387
1684179910928355600,2.123755859375,-1.0815105437675607,-1.1771078109731312,-0.24716615676705242
1684179910938396800,2.13379736328125,-0.6687414646321691,-1.278675556350567,-0.2620630264988013
1684179910948438200,2.143838623046875,-0.30665755267965084,-1.122489929140915,-0.017441749451295112
1684179910958479600,2.1538798828125,-0.20536923402749163,-1.2052545547535896,0.3832688330606406
1684179910968520600,2.163921142578125,-0.21024727819652939,-1.7140941618518988,0.678111553192398
1684179910978562000,2.17396240234375,-0.20511078817649772,-1.7098498344449402,0.9710922241773264
1684179910988603300,2.184003662109375,-0.21641588219313498,-1.6102676391188757,0.41131544114810925
1684179910998644600,2.194045166015625,-0.033581018507647546,-0.7626032829220568,-0.010373115514939378
1684179911008685700,2.204086181640625,0.20652985579754246,-0.19313430786267138,-0.1524810790758148
1684179911018727100,2.21412744140625,0.3521330356852423,-0.33576822272958384,0.30055379852195946
1684179911028768400,2.2241689453125,0.6491715907363913,-0.12114524837189691,0.5697278976539393
1684179911038809800,2.234210205078125,0.9625880718577771,0.0639567375955698,0.525197505847476
1684179911048850900,2.244251220703125,1.0459365844130488,-0.07320451739849458,0.06569910042890771
1684179911058892200,2.254292724609375,1.0343160628656773,-0.3835835458024762,-0.531540393779184
1684179911068933600,2.264333984375,1.15784239756423,-0.11745452882050596,-1.3458495140711837
1684179911078974900,2.274375244140625,1.3452856538991342,-0.1799349783574999,-2.111519336674497
1684179911089016000,2.28441650390625,1.540737390452593,0.1997389793635956,-2.3288764952638736
1684179911099057300,2.294457763671875,1.7748990058171554,0.27674674992224824,-2.2651667594145253
1684179911109098600,2.3044990234375,1.914876818689499,0.4185853004078575,-2.1541643142073625
1684179911119140000,2.31454052734375,1.7414094211089024,0.41902923592801067,-1.9109616278237804
1684179911129181100,2.32458154296875,1.410301923630852,0.33442926405669904,-1.6041698457202913
1684179911139222400,2.334622802734375,0.9717404842487349,0.01034259794867676,-1.207746505776686
1684179911149263800,2.344664306640625,0.5583815573902738,-0.3666338920167275,-0.8233051298819709
1684179911159305100,2.35470556640625,0.17638063430244613,-0.7569184302585815,-0.17793512345603352
1684179911169346200,2.36474658203125,-0.23663997662772737,-0.8535470962564861,0.6331815721235884
1684179911179387600,2.3747880859375,-0.4951226711232452,-1.3601441382975596,0.721715927108513
1684179911189428900,2.384829345703125,-0.6278822422527951,-1.4464669228690323,0.9079923630734587
1684179911199470300,2.39487060546875,-0.8878605366135156,-1.6013507842539716,0.9238519668339134
1684179911209511600,2.404912109375,-1.260194539968621,-1.980685710911128,1.040468692707447
1684179911219552600,2.414953125,-1.3569099902236958,-2.610700130529628,1.199514865820281
1684179911229594000,2.424994384765625,-0.48438072214723005,-1.2535414695146125,0.6766915320602213
1684179911239635400,2.435035888671875,-0.38946866985653333,-0.4951515196736288,0.2529959678583856
1684179911249676600,2.4450771484375,-1.4266729354682322,-1.4106078149391574,-0.5891780853678588
1684179911259717800,2.4551181640625,-0.67577457415316,-1.5184135437007173,-1.6384015082846708
1684179911269759200,2.46515966796875,0.2715847492625851,-0.2404036521682877,-2.3422102928243405
1684179911279800600,2.475200927734375,-0.03293824189152982,-0.03275966642507191,-2.5714452266763046
1684179911289841800,2.4852421875,-0.18970346435889737,0.14964628227866905,-2.1697430610783837
1684179911299882900,2.495283447265625,-0.19405817996799038,0.0809445381203268,-1.5562734603550747
1684179911309924300,2.50532470703125,0.22777652740843546,0.11861467365507991,-0.8984055517817111
1684179911319965600,2.515365966796875,1.0836663246303282,0.3814091682903343,-0.37410354613513164
1684179911330007000,2.525407470703125,1.5966451168201676,0.3722672463661028,-0.30898714065852034
1684179911340048300,2.53544873046875,1.5307761430097753,0.7158217431424494,-0.4741344453236026
1684179911350089400,2.54548974609375,1.1513156891938756,0.8587207793149445,-0.5435109138920655
1684179911360130700,2.55553125,0.7031776905169945,0.9492082593941917,-0.7000451087663616
1684179911370172100,2.565572509765625,0.6215867996931008,1.0310363769144857,-0.5404191017875482
1684179911380213400,2.57561376953125,0.4963469505699844,1.0648961067302687,-0.09896039950165
1684179911390254600,2.585655029296875,0.057954788230070414,0.8697524071297719,0.26226520549502075
1684179911400295900,2.5956962890625,-0.11990714076639444,0.9425711632503722,0.5431327819803325
1684179911410337200,2.605737548828125,-0.5870130062368025,0.9118313790687922,0.510794162907073
1684179911420378600,2.615779052734375,-1.1365251541379369,0.577279091027139,0.31940555575059804
1684179911430419900,2.6258203125,-1.2407486440369755,0.49213027961808464,0.07608795159495411
1684179911440461000,2.635861328125,-0.973343849166787,0.7333483696030917,-0.1511425971514176
1684179911450502300,2.64590283203125,-0.8014433383619541,-0.1766090392175461,-0.03834724425127462
1684179911460543600,2.655944091796875,-0.03150153147032521,0.09886169446335591,0.05441188826784155
1684179911470585000,2.6659853515625,0.4475810526428284,-0.016774177650991394,-0.1792616844475202
1684179911480626100,2.676026611328125,0.4526813030229559,0.040433883605637044,-0.23718881613408865
1684179911490667400,2.68606787109375,0.01833653448988003,-0.16953802120795305,-0.19662618636788845
1684179911500708800,2.696109130859375,-0.05116748821141935,-0.0597486496078536,0.20850038530181692
1684179911510750100,2.706150634765625,-0.03160119051155885,0.04456090936403738,0.5908379554113039
1684179911520791600,2.71619189453125,-0.0204522609342608,0.049129009289205175,0.7377657888907203
1684179911530832600,2.72623291015625,0.22899103169725094,1.1396632194246914,0.49910497673179477
1684179911540873900,2.7362744140625,0.014101028437559716,0.8375916479321921,-0.18882322309181163
1684179911550915200,2.746315673828125,-0.49505448327806184,0.8761177064400224,-0.7719106673769813
1684179911560956600,2.75635693359375,-1.0595881937985654,0.690870285063389,-1.0791351793942694
1684179911570997900,2.7663984375,-1.346498251037132,0.8062486648071678,-1.1132521630354595
1684179911581039000,2.776439453125,-0.7991096972932746,2.5724339485027037,-0.20131874082268328
1684179911591080400,2.786480712890625,-1.2590882778304155,1.6747932434078947,-0.6683211325387487
1684179911601121600,2.796522216796875,-0.784092903091807,3.316131114915144,-0.501003265333806
1684179911611163100,2.8065634765625,-0.732222080253908,3.1561417579290865,-0.7613816262073645
1684179911621204400,2.816604736328125,-0.5761313437199683,2.01715517033222,-0.8711040020290045
1684179911631245600,2.82664599609375,-0.6051759719606481,-1.0883617401916053,-0.8998172283033089
1684179911641286800,2.836687255859375,-0.8385641575072281,-4.339130401469569,-1.0150547026683614
1684179911651328200,2.846728515625,-1.013879537766497,-7.348911285357994,-0.35296082496937364
1684179911661369600,2.85677001953125,-0.40451073657410236,-5.836500167836529,-0.07124423981428427
1684179911671410900,2.866811279296875,-0.24948859225773323,-1.4816303252781247,0.11421871167101001
1684179911681452000,2.876852294921875,-1.2973470687182025,0.8767437934798613,0.36177706718221025
1684179911691493300,2.886893798828125,-2.5875966550584675,0.6597433091275331,0.39134359351186737
1684179911701534600,2.89693505859375,-2.627544879908903,-0.6366558075462374,0.6962575912271248
1684179911711576000,2.906976318359375,-1.6588773726390744,-1.09406471250634,1.0380768776531566
1684179911721617300,2.917017822265625,-0.47150039684369055,-0.8552427292554505,1.1523509025770218
1684179911731658400,2.927058837890625,0.8495260477467558,-0.9060258864284635,1.2413668632355137
1684179911741699800,2.93710009765625,2.027924299246932,-0.8556270600304205,1.225324153988814
1684179911751741100,2.9471416015625,3.313829421964274,-0.6962270736600971,0.8203065394786077
1684179911761782400,2.957182861328125,4.271339416652315,-0.554908752335015,0.44622612011610735
1684179911771823800,2.96722412109375,4.676198959418648,-0.5775051116697391,0.1416127680723149
1684179911781864900,2.977265380859375,4.481187820356489,-0.6181688308517594,-0.0030136109341826678
1684179911791906200,2.987306640625,3.8118472099384335,-0.43363761895129815,-0.07937169066145498
1684179911801947600,2.997347900390625,2.7438011169679806,-0.376874923749467,-0.21849250797634628
1684179911811988900,3.007389404296875,1.5575563905904743,-0.2550287247042022,-0.26927113532755104
1684179911822030300,3.0174306640625,0.391117096048498,-0.2943134308138588,-0.2250709533242017
1684179911832071600,3.027471923828125,-0.4175868035692384,-0.14198970791472632,-0.0902698040179013
1684179911842112600,3.03751318359375,-0.7839388848386721,0.10624122610304035,-0.017083644871090823
1684179911852154000,3.047554443359375,-0.786236047730594,0.3227357863848003,-0.1484794616421975
1684179911862195400,3.057595703125,-0.6963536740236536,0.45495223995885914,-0.29751920692767847
1684179911872236600,3.06763720703125,-0.6496376991395012,0.36861515043171383,-0.4991238115676804
1684179911882278100,3.077678466796875,-0.5807316301894273,0.12155914309510246,-0.7450420856383105
1684179911892319200,3.087719482421875,-0.4609911442218474,-0.26971530923293596,-0.8793890476708501
1684179911902360600,3.097760986328125,-0.31134581570778347,-0.6145572662166231,-0.977718591610909
1684179911912401800,3.10780224609375,-0.08239197736742526,-0.7712354659574019,-0.879943847624579
1684179911922443200,3.117843505859375,0.26236128804291037,-0.7760286331219853,-0.5872433185222422
1684179911932484300,3.127884765625,0.6864764690898523,-0.7305555343973582,-0.1522758006058642
1684179911942525600,3.137926025390625,1.0274271964900663,-0.6477003096596773,0.0006530283149616479
1684179911952567000,3.14796728515625,1.3870105743226557,-0.3555116652685331,-0.07503819466549387
1684179911962608300,3.1580087890625,1.5899837016270606,-0.3134803771825037,-0.583296775813619
1684179911972649600,3.168050048828125,1.5594787596753175,-0.03240394592345253,-1.0287849902682744
1684179911982691000,3.17809130859375,1.475920200289352,-0.047565460210143524,-1.2137746811867511
1684179911992732300,3.1881328125,1.3622245788275265,-0.4374885558893049,-1.2586392164664892
1684179912002773400,3.198173828125,1.2326107024918966,-0.6435146331539714,-1.016245365065568
1684179912012814800,3.208215087890625,1.0639346839781596,-0.5315208434758523,-0.6039936542684383
1684179912022856100,3.218256591796875,1.0003533365048398,-0.7395982741317672,-0.08941817288075213
1684179912032897500,3.2282978515625,1.0998311042721074,0.2018880845096691,0.17527770989432154
1684179912042938600,3.2383388671875,0.9666494130848343,0.01172924035338951,0.320296526009398
1684179912052979900,3.24838037109375,0.9446340800324888,-0.4991016388311901,0.47901034354960564
1684179912063021200,3.258421630859375,0.9586447475752178,-0.7098455429550266,0.5983104705734853
1684179912073062600,3.268462890625,1.0718080997851942,-0.8668079376092261,0.6503643990030651
1684179912083103900,3.27850439453125,1.1496587992063385,-0.8694667815964435,0.6007940769144672
1684179912093145300,3.288545654296875,1.0818994046418318,-0.710827827434308,0.3743319510845834
1684179912103186400,3.298586669921875,0.8813453912460977,-0.7564382554690964,0.11792802812556988
1684179912113227600,3.308628173828125,0.7252169846895455,-0.7190294266456638,-0.10283017168142962
1684179912123269000,3.31866943359375,0.5599547029883236,-0.6227092742975576,-0.2775099276816597
1684179912133310400,3.328710693359375,0.4933694004671944,-0.5413351057632027,-0.519520998076231
1684179912143351600,3.338752197265625,0.39188933380043367,-0.5027141572121583,-0.8068156241542195
1684179912153393100,3.34879345703125,0.31604892014410635,-0.38900852203638103,-0.9336600303285687
1684179912163434400,3.358834716796875,0.28899747124460223,-0.2530164719834798,-0.9047622681014368
1684179912173475600,3.3688759765625,0.28361803281096315,-0.12363815310661358,-0.813669919929267
1684179912183516800,3.378917236328125,0.30571627629095355,0.02534389490978956,-0.7225120066680238
1684179912193558200,3.38895849609375,0.4242582320302907,0.5749416351509989,-0.7969925403748678
1684179912203599600,3.399,0.3960235714602439,0.49193763743433955,-0.5052392482267227
1684179912213640900,3.409041259765625,0.23804742092878808,0.3771247863119084,-0.33070898049607017
1684179912223682200,3.41908251953125,0.057013034696712775,0.13174533844889663,-0.3459730147794336
1684179912233723300,3.429123779296875,0.19711256034364066,0.18202781683347072,-0.2277569769178617
1684179912243764600,3.4391650390625,0.4740765094735973,0.2679338454906695,-0.010566234587316726
1684179912253806000,3.449206298828125,0.7757468224137215,0.282342910892151,0.2336125374941046
1684179912263847300,3.459247802734375,1.1077408789453065,0.3927545547793213,0.4684529304950009
1684179912273888600,3.4692890625,1.2983570097938348,0.3339214325167878,0.5885567665721034
1684179912283930000,3.479330322265625,1.219139575922839,0.0032968521430543703,0.5748229026402715
1684179912293971100,3.48937158203125,1.0365138054803116,-0.3911514283726267,0.46339941015762837
1684179912304012500,3.499412841796875,0.9092218278770051,-0.38638019554564507,0.34754276269975215
1684179912314053800,3.5094541015625,0.6986416577196801,-0.18138790121269377,0.3038976192513512
1684179912324095200,3.51949560546875,0.3601469696640384,0.214085578876856,0.41801095007786004
1684179912334136600,3.529536865234375,-0.149966120792421,0.4529161454886293,0.6783406735175237
1684179912344177800,3.539578125,-0.593904375946956,0.6395158767923894,0.9745097161500349
1684179912354218900,3.549619384765625,-0.8317337036124528,0.6371002195829897,1.1352391243129478
1684179912364260300,3.55966064453125,-0.699529349861221,0.6203622817811361,1.1444857121510115
1684179912374301600,3.569701904296875,-0.1300491690973441,0.7216730117850011,1.0630609989449769
1684179912384343000,3.579743408203125,0.3055431246897233,0.769776344343178,1.054179906741262
1684179912394384300,3.58978466796875,0.6275455952779262,0.7983779907391335,0.9882471562761489
1684179912404425600,3.599825927734375,0.7150135040919353,0.5900936125998392,0.9894485473299898
1684179912414466700,3.6098671875,0.4750185012742737,0.3625459670960061,0.9764986039626546
1684179912424508100,3.619908447265625,0.2612299918376073,0.2947978972503718,0.9154710769425135
1684179912434549400,3.62994970703125,0.13737812637061256,0.35073089590977524,0.7264032364026857
1684179912444590800,3.6399912109375,0.15179279462654421,0.3751411439151592,0.4931700229744159
1684179912454632100,3.650032470703125,0.2072602808641473,0.10339736934302544,0.3491747379806633
1684179912464673500,3.660073974609375,0.2564556299482482,0.030710220493601816,0.264141321346113
1684179912474714600,3.670114990234375,0.3006670772252626,0.187633514340944,0.1737089156303457
1684179912484755900,3.68015625,0.24396570031023657,0.2605991362149185,0.22775745379490617
1684179912494797200,3.69019775390625,0.17172852158559895,0.2117395400595927,0.1730935572938757
1684179912504838600,3.700239013671875,0.2448856235323547,0.0777854918560011,0.10731101045708831
1684179912514879900,3.7102802734375,0.3446206451101266,0.022092819206361754,0.10674500472849038
1684179912524921300,3.72032177734375,0.3472823500018137,0.028120994610671118,0.26053667070339803
1684179912534962600,3.730363037109375,0.33563762911711714,0.019038200421438157,0.49086379989407486
1684179912545003600,3.740404052734375,0.29619127520148636,0.003998756345785382,0.6098556519265188
1684179912555045000,3.750445556640625,0.2482637018470994,0.01140117640641955,0.6457178591274138
1684179912565086400,3.76048681640625,0.24144348491375486,-0.0019998551818465717,0.6578505039770087
1684179912575127700,3.770528076171875,0.3153049647564404,-0.021949768034397053,0.5958697795632526
1684179912585169100,3.780569580078125,0.2971106171636792,-0.05550384511110942,0.4603512286826457
1684179912595210400,3.79061083984375,0.30746278174433234,0.02654933916603565,0.3335244654703311
1684179912605251800,3.800652099609375,0.353734522919168,0.05428791045424429,0.29392290101032886
1684179912615292800,3.810693359375,0.4149310589773536,0.10840511320335358,0.37492012982060957
1684179912625334200,3.820734619140625,0.49462425708000923,0.2120504378854976,0.46640777600813016
1684179912635375600,3.83077587890625,0.5062323808677858,0.18076992038575945,0.5713689327324205
1684179912645416900,3.8408173828125,0.5222785473027659,0.0961227416172639,0.6156775951324359
1684179912655458200,3.850858642578125,0.5606892109260159,0.04703235618690245,0.655941724598444
1684179912665499600,3.86089990234375,0.5573506355304643,-0.016400337197405718,0.6934885978945989
1684179912675540900,3.87094140625,0.5829304455274952,-0.12024211888649078,0.6716935635413323
1684179912685582000,3.880982421875,0.6102219820121685,-0.10223197950498955,0.6568477155113401
1684179912695623300,3.891023681640625,0.6119489669494137,-0.2839612961471233,0.5834572315890116
1684179912705664600,3.901065185546875,0.6136801243009931,-0.32447814948575987,0.5229930878594885
1684179912715706000,3.9111064453125,0.6291050909698467,-0.2629718780908021,0.5300214290081059
1684179912725747400,3.921147705078125,0.6823301315311103,-0.06976890561617569,0.7051386833487732
1684179912735788600,3.931189208984375,0.7107893229701763,-0.0012903212367840985,1.1445858477274107
1684179912745830100,3.94123046875,0.7318439482932596,-0.009190559371619174,1.7046916484504222
1684179912755871200,3.951271484375,0.8316979408408838,-0.08968639377611166,2.17834258074571
1684179912765912600,3.96131298828125,0.7307634355224745,-0.26501750933798907,2.51346492764347
1684179912775953800,3.971354248046875,0.6639674903098416,-0.43976497654535446,2.708351373682383
1684179912785995200,3.9813955078125,0.6326804159173144,-0.629987716640758,2.829727172932368
1684179912796036600,3.99143701171875,0.6030439735329952,-0.6724033356531548,2.890227556336478
1684179912806077900,4.001478271484375,0.6154118179443768,-0.4139575957753714,2.868398427919281
1684179912816119000,4.011519287109375,0.5484018324073463,-0.10604381569231318,2.736510992050548
1684179912826160600,4.02156103515625,0.35024505846580584,-0.13411426557338915,2.6303842068514056
1684179912836201600,4.03160205078125,0.05936825277966897,0.033486366418760675,2.3127756119450633
1684179912846243000,4.041643310546875,-0.49229130141240024,0.17488670341204007,1.8279008865000475
1684179912856284300,4.051684814453125,-1.3356313705183962,0.32117652877219627,1.0214850902592232
1684179912866325600,4.06172607421875,-1.8781640529639572,0.4546556472364329,0.35931277276450735
1684179912876367000,4.071767333984375,-2.232745885882489,0.4248580932163199,-0.12389063848874868
1684179912886408400,4.081808837890625,-2.3069658280509935,0.36557769778265764,-0.4231812954034032
1684179912896449600,4.09185009765625,-2.3232090471998346,0.3012638092102978,-0.7064219714650691
1684179912906490800,4.10189111328125,-2.6039175986779055,0.1574268341243479,-1.1014534235749769
1684179912916532100,4.1119326171875,-2.9096064566434787,0.07727909096061186,-1.2309657334303357
1684179912926573600,4.121973876953125,-3.164712905958238,-0.1438341140900326,-1.2137861252627686
1684179912936614800,4.13201513671875,-3.1423716545266114,-0.22929096218290182,-1.1427797080243032
1684179912946656200,4.142056640625,-2.698217391878838,-0.19200229655836257,-0.9713109730698991
1684179912956697600,4.152097900390625,-2.039355993290805,-0.11753082267295313,-0.7754335403472143
1684179912966738900,4.16213916015625,-1.4370369910171714,-0.06827926649899073,-0.5181372165743304
1684179912976780000,4.172180419921875,-0.9712553023224649,-0.07693862897267852,-0.21634411800984762
1684179912986821300,4.1822216796875,-0.56766921283055,-0.08287429817340722,0.054537534661053266
1684179912996862600,4.192262939453125,-0.12026575196986906,-0.05753326410221803,0.4182550908561092
1684179913006904000,4.202304443359375,0.19842094184854175,0.0006074905036094908,0.7947952746284653
1684179913016945300,4.212345703125,0.32882231475749196,0.014392852728031771,0.9925661088259449
1684179913026986600,4.222386962890625,0.4138219356480815,-0.07377243037916802,1.0271873474931674
1684179913037028000,4.232428466796875,0.4391554592892251,-0.11049079903580765,0.7903726101233015
1684179913047069400,4.2424697265625,0.516995787577178,-0.2530364989834951,0.5020611285666253
1684179913057110600,4.252510986328125,0.5496768951608876,-0.5350103378397633,0.3604238033175512
1684179913067151800,4.26255224609375,0.7522194980098713,-0.9374961854017422,0.19784450522074057
1684179913077193100,4.272593505859375,1.103596806373308,-1.1901750564643012,-0.09855318079862159
1684179913087234600,4.282634765625,1.5353823899562629,-1.4439277649351658,-0.21772384636731662
1684179913097275800,4.29267626953125,1.955249190282199,-1.6704177856013744,-0.3554110527223039
1684179913107317200,4.302717529296875,2.310945749235222,-1.876309394947755,-0.4894182680593018
1684179913117358600,4.312759033203125,2.572384357388826,-2.219970703012097,-0.5705900191595182
1684179913127399900,4.32280029296875,2.7120122909786866,-2.592967033492425,-0.5740990637813155
1684179913137440900,4.33284130859375,2.7423207759482846,-2.6979646683144445,-0.5121014119312347
1684179913147482300,4.342882568359375,2.67915225023208,-2.4658241271242702,-0.4131424427981407
1684179913157523600,4.352924072265625,2.340884208830562,-1.8581514357790005,-0.2335038184022358
1684179913167565000,4.36296533203125,1.8663480281700207,-1.0591964721673675,-0.012426137823103709
1684179913177606300,4.3730068359375,1.5741331576355213,-0.4187059402364677,0.09948492045979777
1684179913187647600,4.383048095703125,1.4085922241066977,0.12579250339773074,0.02807712539365064
1684179913197689000,4.39308935546875,1.3571403027477087,0.5950737000255298,-0.1973385809964763
1684179913207730400,4.403130859375,1.4557399749924442,0.9822006225278371,-0.4591445922150108
1684179913217771600,4.413172119140625,1.4796785115875675,1.2541575432664305,-0.7628350256666068
1684179913227812800,4.423213134765625,1.4573769569453892,1.3966279031372986,-0.9671235084435631
1684179913237854100,4.433254638671875,1.4956847429747993,1.3755826951218288,-1.1068844793658705
1684179913247895600,4.4432958984375,1.6916553973616684,1.2720098494767345,-1.0777521132590921
1684179913257936800,4.453337158203125,1.920457959181325,1.0669188500821463,-1.115814685816569
1684179913267978200,4.463378662109375,2.0248956680096346,0.8536238669516097,-1.0668230055655523
1684179913278019600,4.473419921875,2.0158143043269434,0.5488862991307295,-1.0695424080938647
1684179913288060800,4.483461181640625,1.950742840651776,0.31153202065299035,-1.0860257148152432
1684179913298102200,4.493502685546875,1.776467919337728,0.14244174971018891,-1.1085157395028955
1684179913308143300,4.503543701171875,1.5455712078582375,-0.03929233557156532,-1.0609197615568982
1684179913318184600,4.5135849609375,1.2514188288020573,-0.20722007750802746,-1.0157477855833743
1684179913328226000,4.52362646484375,0.9099229573388928,-0.41435337064566463,-0.9098072052524929
1684179913338267300,4.533667724609375,0.4973471163258005,-0.6090869905215431,-0.7642338276643276
1684179913348308600,4.543708984375,0.15367269513423495,-0.7373027802685771,-0.676619529673817
1684179913358350000,4.55375048828125,0.15478229516267228,-0.7455606461187483,-0.776816844939676
1684179913368391300,4.563791748046875,0.39294004453679415,-0.6769075394112591,-1.0274095534567518
1684179913378432600,4.5738330078125,0.6581153869012344,-0.6243619919550427,-1.237060546792228
1684179913388474000,4.58387451171875,0.8437972068919103,-0.5269565582334587,-1.440627575006215
1684179913398515100,4.59391552734375,0.9090645312424092,-0.3303728104322075,-1.6274468899366372
1684179913408556500,4.603956787109375,0.9436510802218262,-0.17975521078645967,-1.8343403339920417
1684179913418597800,4.613998291015625,0.93487131593545,-0.06215858449543529,-1.9566524028268821
1684179913428639200,4.62403955078125,0.9483337400816911,0.09309864039914978,-1.9850337504674214
1684179913438680600,4.634080810546875,0.8891552685409916,0.18806362160340734,-1.9801473617882503
1684179913448721800,4.644122314453125,0.8277109860960274,0.17603969574023914,-1.9400243760163864
1684179913458763200,4.65416357421875,0.8144458531799844,0.06532955185538006,-1.8427681921728185
1684179913468804600,4.664204833984375,0.6938414574034663,-0.09864997868662546,-1.5658454894583722
1684179913478845900,4.674246337890625,0.4521124363773999,-0.20976924900639965,-1.2337810991731044
1684179913488887200,4.68428759765625,0.0703043936500558,-0.3015022277404566,-0.8197369576452899
1684179913498928300,4.69432861328125,-0.3651692867341465,-0.3810796737096264,-0.36402130122282644
1684179913508969600,4.7043701171875,-0.9208421707121743,-0.46249198919496165,0.05440425880812161
1684179913519011000,4.714411376953125,-1.2905201911568704,-0.43443012237002165,0.5593442916591043
1684179913529052300,4.72445263671875,-1.0544090270028232,-0.23091888434754848,0.8300857543513998
1684179913539093600,4.734494140625,-0.5153255462615446,-0.08312320713956826,0.8597769737984056
1684179913549135000,4.744535400390625,0.1739113332157021,-0.029562950229244638,0.8833374978066019
1684179913559176400,4.75457666015625,0.6736671925117275,-0.08394432075125349,0.6817650794682765
1684179913569217600,4.7646181640625,0.8896485566984236,-0.2683277128992375,0.6008043291010967
1684179913579258800,4.7746591796875,0.8708173036310771,-0.4382534027310758,0.5528287887932204
1684179913589300400,4.78470068359375,0.7030216456728794,-0.49246406543030136,0.5539283753003391
1684179913599341600,4.794741943359375,0.4806327819817849,-0.44884586341314897,0.40931606287248823
1684179913609382800,4.804783203125,0.32689106467770396,-0.4772148133165748,0.18442535396220697
1684179913619424200,4.814824462890625,0.4333037137535335,-0.49768829346973176,-0.17946195606073553
1684179913629465600,4.824865966796875,0.5786507130051153,-0.4112529754968468,-0.7495729922478395
1684179913639506900,4.8349072265625,0.6123275757463797,-0.3147525787475584,-1.300780773292498
1684179913649548200,4.844948486328125,0.7792881726918826,-0.3453464506983574,-1.6962609292193416
1684179913659589600,4.854989990234375,1.046641111197268,-0.5730323791204144,-1.8570353984553456
1684179913669630900,4.86503125,1.072824358895013,-0.9154329300911638,-1.8239462375764757
1684179913679672200,4.87507275390625,0.7640888690266882,-1.3198251724706274,-1.7256658076821962
1684179913689713600,4.885114013671875,0.17570877062473425,-1.7052984237055369,-1.6919696332056877
1684179913699754600,4.895155029296875,-0.6135451793308979,-2.036257743995521,-1.7805435658785362
1684179913709796000,4.905196533203125,-1.5234329700357652,-2.3128414154443035,-1.8846795558926392
1684179913719837400,4.91523779296875,-2.252325296388629,-2.6256589889910416,-1.9532995222842202
1684179913729878600,4.925279052734375,-2.627335548423028,-2.9511709212243287,-1.7311537265092147
1684179913739920000,4.935320556640625,-2.2706003189962116,-3.0481481552573104,-1.1046628951699369
1684179913749961400,4.94536181640625,-1.2356861829016195,-2.6737041473655236,-0.4038002489215901
1684179913760002700,4.955403076171875,0.12623620048598663,-1.690685272185285,-0.022196769677808436
1684179913770044100,4.965444580078125,1.4411135912361688,-0.4269580841848036,0.25156211852527016
1684179913780085400,4.97548583984375,2.390874385911074,0.4713401792914862,0.5113682745842709
1684179913790126600,4.98552685546875,2.9702756403679067,1.0636606216490876,0.5948905943547084
1684179913800167900,4.995568359375,3.2324328422075097,1.5349698067258795,0.46808433523756726
1684179913810209200,5.005609619140625,3.070909023246316,1.8433885575858302,0.27503919601273474
1684179913820250600,5.01565087890625,2.6770129203206343,2.0499544144980746,0.03273415558985174
1684179913830291900,5.0256923828125,2.2804083824771024,2.002835273830467,-0.08513808241902877
1684179913840333200,5.035733642578125,1.905454397305045,1.741110801708742,-0.07987737657307352
1684179913850374600,5.04577490234375,1.6448192596059938,1.3556337357210124,0.053889274551441206
1684179913860415900,5.05581640625,1.3946583271201443,0.9392080307934755,0.1425571442312047
1684179913870457300,5.065857666015625,1.126016020887583,0.5009365081748826,0.06431961060241931
1684179913880498600,5.07589892578125,0.7895589471526193,0.002582549970925764,-0.1863927841856895
1684179913890539600,5.085940185546875,0.37586021404111714,-0.6030340194781301,-0.36228251465106953
1684179913900581000,5.0959814453125,-0.0077345370919705845,-1.1576271056730143,-0.448465108861826
1684179913910622400,5.106022705078125,-0.3424253464344919,-1.503640174797684,-0.4826068876857751
1684179913920663700,5.116064208984375,-0.5700663328003517,-1.6204004286865694,-0.5046417713681323
1684179913930705100,5.12610546875,-0.6979612112453891,-1.35831737507397,-0.5950007439803596
1684179913940746400,5.136146728515625,-0.6063796280286251,-0.8379907606933403,-0.6841762066370598
1684179913950787800,5.146188232421875,-0.2001767158800746,-0.38274574270529066,-0.6134729385506991
1684179913960829100,5.1562294921875,0.35884761814452026,-0.1089649200038498,-0.4891281128829728
1684179913970870400,5.166270751953125,0.8548663256941735,-0.027323722884436328,-0.39505481718867536
1684179913980911800,5.176312255859375,1.2389314175792319,0.10242271419614196,-0.4117181302918733
1684179913990953100,5.186353515625,1.4484579561988464,0.10831069955836788,-0.3268764018898701
1684179914000994200,5.19639453125,1.4754744769070254,0.10028743743309419,-0.2586181163914814
1684179914011035800,5.206436279296875,1.4128513336159036,0.08275222772019893,-0.14119219791362836
1684179914021076900,5.216477294921875,1.3366165160409291,0.09597778315982702,-0.07361030582255816
1684179914031118300,5.2265185546875,1.3047025203109661,0.060803413497087455,-0.008491039145211564
1684179914041159600,5.23656005859375,1.3615343570443426,-0.07300186156673664,0.08036828046723912
1684179914051200900,5.246601318359375,1.4922170639649643,-0.1498355864649521,0.09343147284210894
1684179914061242300,5.256642578125,1.6137504577839734,-0.11688804613734524,0.05355715743833314
1684179914071283600,5.26668408203125,1.7418901920538303,-0.02206993115579394,0.03975653649131296
1684179914081325000,5.276725341796875,1.7581274508852778,0.07216548921386966,-0.05157041554037398
1684179914091366300,5.2867666015625,1.6699333191115364,0.02037429808301857,-0.17187309264383527
1684179914101407600,5.29680810546875,1.5038297176846984,-0.07181644435361088,-0.2441866398047523
1684179914111448800,5.30684912109375,1.2935576439440937,-0.1253747939666237,-0.325585126904535
1684179914121490400,5.316890869140625,1.1331089734167015,-0.12590026849533184,-0.4082870483013365
1684179914131531400,5.326931884765625,1.0814938546596984,-0.030467987142451646,-0.48219037056092523
1684179914141572800,5.33697314453125,1.1191067694819523,0.02436733227949458,-0.4446997642545649
1684179914151614100,5.3470146484375,1.1987670660795982,0.017026901303024897,-0.34899640067925863
1684179914161655500,5.357055908203125,1.284881114862499,-0.04988002776540829,-0.12144875522167252
1684179914171696800,5.36709716796875,1.3387525081536285,-0.0757961272548415,0.09884953508351786
1684179914181738200,5.377138671875,1.3529354333707286,-0.03235149389560711,0.280359506724565
1684179914191779600,5.387179931640625,1.3148586750933138,0.02991199507746402,0.40621662150687543
1684179914201820800,5.39722119140625,1.2640010117847111,0.07024383532195869,0.466911792624608
1684179914211862200,5.4072626953125,1.2193180322990331,0.07425689690493577,0.44794178001033763
1684179914221903600,5.417303955078125,1.1650373935537337,0.03969764716539108,0.3684818745739282
1684179914231944900,5.42734521484375,1.039758682278858,0.00248622892779317,0.2809648512700637
1684179914241986000,5.437386474609375,0.8817754984135927,0.00318336488283837,0.17098164573972804
1684179914252027300,5.447427734375,0.7430447339932263,0.08701419824498866,0.08168959627203541
1684179914262068600,5.457468994140625,0.6620638965571083,0.12008762357273878,0.06607508653065895
1684179914272110000,5.467510498046875,0.6522526740465855,0.07864189137164289,0.1193332671636884
1684179914282151300,5.4775517578125,0.660219728924899,0.06317138678496453,0.1647593975179476
1684179914292192600,5.487593017578125,0.6696334480754771,0.06648826605689453,0.17116689684558067
1684179914302234000,5.497634521484375,0.7150083780105632,0.11963653558395354,0.2006776334248749
1684179914312275400,5.50767578125,0.7774454353900516,0.08410835278916755,0.2655432224176365
1684179914322316600,5.517717041015625,0.7449001074571284,-0.07782459253305105,0.3591873646777024
1684179914332358100,5.527758544921875,0.7338841557183176,-0.18427085879991928,0.43389511092135874
1684179914342399400,5.5377998046875,0.7057852744580585,-0.1685523986034115,0.36535239219477145
1684179914352440800,5.547841064453125,0.667756378512576,-0.08832550051977056,0.3114490508875529
1684179914362481800,5.55788232421875,0.6415253877549106,0.05142307285742563,0.21711015691285274
1684179914372523200,5.567923583984375,0.5890714526579882,0.1670246125530706,0.1447219849079042
1684179914382564600,5.57796484375,0.568000614588317,0.17735099800054815,0.10144066813196269
1684179914392605900,5.58800634765625,0.565865337871273,0.13053703289982305,0.08742499359670139
1684179914402647200,5.598047607421875,0.584599256552884,0.08158302319265245,0.14775443071678407
1684179914412688600,5.6080888671875,0.6153812407833064,0.09256935115739368,0.14139485359390278
1684179914422729900,5.61813037109375,0.6452966928932219,0.11642932885046885,0.19747948638801632
1684179914432771200,5.628171630859375,0.6201906800814936,0.14713001268145157,0.26977539061065353
1684179914442812600,5.638212890625,0.551621138995989,0.2033452989093381,0.3271684646904766
1684179914452853900,5.64825439453125,0.44834032647910266,0.23046016700774938,0.37907624254305
1684179914462895300,5.658295654296875,0.3481477200976521,0.2006473541296095,0.4465711117266766
1684179914472936600,5.6683369140625,0.25869828459337996,0.19023609161467722,0.48485016824192967
1684179914482977600,5.678378173828125,0.193509966155036,0.20125389110550493,0.4710142612635923
1684179914493019300,5.688419677734375,0.2602535784049568,0.2828321456483978,0.5192286968658079
1684179914503060400,5.698460693359375,0.39625775813305314,0.30193901051997285,0.5390143394495626
1684179914513101700,5.708502197265625,0.4882282018228311,0.15845012658842353,0.5661866665252453
1684179914523143100,5.71854345703125,0.5202270151575755,0.04124736776667127,0.5702998637378982
1684179914533184400,5.728584716796875,0.5652043819600209,-0.010103225737378534,0.5516145229207075
1684179914543225800,5.738626220703125,0.6520698070927696,-0.02506256106119344,0.5832738875707927
1684179914553267100,5.74866748046875,0.7272605896883939,-0.053749084551769695,0.5772535802642901
1684179914563308500,5.758708984375,0.8272945879770179,-0.05832576754990806,0.5341176986215647
1684179914573349800,5.768750244140625,0.9445561767662435,-0.08400630944498994,0.5107779502116241
1684179914583391200,5.77879150390625,1.0140475034129968,-0.09287929532952038,0.48062753681583814
1684179914593432600,5.7888330078125,1.0657582283424138,-0.05944919569265924,0.4151108264973523
1684179914603473800,5.798874267578125,1.0895321370633828,-0.02927398677251489,0.3473567963241926
1684179914613515200,5.80891552734375,1.0544974804631508,0.02612781536849833,0.24011301993815945
1684179914623556300,5.818956787109375,1.0017135142538491,0.03334331520028066,0.15758180602491623
1684179914633597600,5.828998046875,0.9274427890905319,0.04262256621708678,0.073536872918343
1684179914643639000,5.839039306640625,0.8822259903104196,0.10352039344904862,0.019057273776948238
1684179914653680300,5.849080810546875,0.8877204059314455,0.14214134214228505,0.04302787763031153
1684179914663721600,5.8591220703125,0.890984535129056,0.18005561828840713,-0.006522655418410757
1684179914673763000,5.869163330078125,0.8960675001099465,0.15157699584645148,-0.010141134441057123
1684179914683804300,5.879204833984375,0.914707303076923,0.10968303686001281,-0.027240753327290746
1684179914693845600,5.88924609375,0.9399579762265148,0.052297592182953406,-0.04800820352629192
1684179914703887000,5.899287353515625,0.9697875976467911,0.005722045821467988,-0.06017732621165153
1684179914713928400,5.909328857421875,0.9883143901966245,-0.04673576354524197,0.009060144412001286
1684179914723969600,5.9193701171875,0.9180527328613638,-0.11925983414619513,-0.018621206258391938
1684179914734011100,5.929411376953125,0.8375834225941825,-0.1808490752809317,0.04687285416283652
1684179914744052400,5.939452880859375,0.7934539317683476,-0.2221584319536696,0.008850097631344169
1684179914754093600,5.949493896484375,0.7070778608871477,-0.18942928317588376,0.043112754788937245
1684179914764135100,5.959535400390625,0.6332471371275356,-0.17333698283940907,0.08965969087775046
1684179914774176200,5.96957666015625,0.5509588718933366,-0.14536857618172286,0.13888406755348354
1684179914784217600,5.979617919921875,0.5061113834847443,-0.06807994839461812,0.2213571072362294
1684179914794258900,5.9896591796875,0.48023635137603327,0.019868850619890858,0.322021484348457
1684179914804300200,5.99970068359375,0.5065051317051631,0.10877895369710229,0.5203850267710329
1684179914814341600,6.009741943359375,0.5867594478883155,0.19604969011254328,0.6917796134581916
1684179914824382900,6.019783203125,0.7066752315415439,0.3074884415391308,0.7469439506109006
1684179914834424200,6.02982470703125,0.7992721795364476,0.405013084360716,0.7159984113125211
1684179914844465600,6.039865966796875,0.8682364224099215,0.44169139875495217,0.6330034732988566
1684179914854506900,6.0499072265625,0.8697958589846561,0.4326410294029224,0.5433402062737268
1684179914864548300,6.05994873046875,0.8505910635095858,0.34101295467876763,0.42827534676453377
1684179914874589600,6.069989990234375,0.8294641972008607,0.28815841673551174,0.3161799907816854
1684179914884631000,6.08003125,0.7785418034592708,0.24032306670513076,0.2112987043081746
1684179914894672300,6.09007275390625,0.6224585771855691,0.24687862402943342,0.1229031085502467
1684179914904713400,6.10011376953125,0.4565075038963291,0.22471427925215304,0.07471680642163829
1684179914914755000,6.1101552734375,0.29809927943259523,0.14604568496301978,0.08022856717537116
1684179914924796100,6.120196533203125,0.12598305952782302,0.044769287008111225,0.16938638692779442
1684179914934837400,6.13023779296875,0.058424830486254305,0.010903358466455914,0.1980085374467924
1684179914944878800,6.140279052734375,0.09604674570216293,0.09064865104974258,0.23168539999695856
1684179914954920100,6.150320556640625,0.264584124204555,0.1174030302685402,0.41212964070499186
1684179914964961500,6.16036181640625,0.4799157976747178,0.16034412388216673,0.6147296427011208
1684179914975002800,6.1704033203125,0.7385674117947186,0.3676366806082975,0.7618839740913026
1684179914985044100,6.180444580078125,1.019788026771701,0.5694503784874171,0.9017436504426896
1684179914995085600,6.19048583984375,1.2854233980992464,0.7823247908782738,1.0646495819071855
1684179915005126800,6.20052734375,1.423304080883572,0.9896726607430715,1.0661067961806137
1684179915015168200,6.210568603515625,1.4151158331737992,1.0808362961116733,1.1219425202207889
1684179915025209600,6.22060986328125,1.2128586770966523,1.1088142395659808,1.1153864860774754
1684179915035250900,6.2306513671875,0.9090697765301051,1.0407953262737333,0.9712953566064213
1684179915045292200,6.240692626953125,0.43379056459821436,0.9558210373957511,0.7851583958487133
1684179915055333600,6.25073388671875,-0.0768914818104151,0.7154655456003197,0.5067043303201777
1684179915065374600,6.260775146484375,-0.6392439008347514,0.3975019455131272,0.19911170010206564
1684179915075416000,6.27081640625,-1.2156624793819013,0.08897018426870101,-0.00478887549773229
1684179915085457300,6.280857666015625,-1.7382059097057854,-0.36670780194806385,-0.16723060597648334
1684179915095498600,6.290899169921875,-2.1591007709735304,-0.7470588685566033,-0.5398492813610514
1684179915105540000,6.3009404296875,-2.318245887724489,-1.1065816878986174,-0.8519184590989181
1684179915115581400,6.310981689453125,-2.5039665698374978,-1.394871711674328,-1.0997753143400564
1684179915125622600,6.321023193359375,-2.564524650472863,-1.6167373657843387,-1.4215323924770724
1684179915135664000,6.331064453125,-2.3030672072791925,-1.7597990035608622,-1.7251954078688394
1684179915145705400,6.341105712890625,-1.7291330097820914,-1.8524150849337526,-1.9080489873465534
1684179915155746700,6.351147216796875,-1.0296014548185581,-1.9924736022788074,-1.7516599893164317
1684179915165788100,6.3611884765625,-0.38641691204982936,-2.2417001724411216,-1.5271773337919807
1684179915175829400,6.371229736328125,0.05181205269714199,-2.5359706878999337,-0.9242479800349106
1684179915185870800,6.381271240234375,0.27361488345047136,-2.7394104004973556,-0.27950286859023976
1684179915195912100,6.3913125,0.21640515335518185,-2.66967868795201,0.16069459912389153
1684179915205953500,6.401353759765625,-0.06291687490157738,-2.2148275375839725,0.5236270428380769
1684179915215994600,6.41139501953125,-0.2810540198401932,-1.6946859360836186,0.8492434024315677
1684179915226035900,6.421436279296875,-0.39827525614513104,-1.227494239763464,0.9729924201560677
1684179915236077200,6.4314775390625,-0.3840435742038459,-0.8493471145139432,0.9740512370784399
1684179915246118600,6.44151904296875,-0.2509045600932067,-0.5197725296040462,0.9030258656787075
1684179915256159900,6.451560302734375,-0.002461910296590436,-0.2962903975861249,0.8532578945640146
1684179915266201300,6.4616015625,0.1964529751799876,-0.01345729823328462,0.6349885462258876
1684179915276242600,6.47164306640625,0.13319385040672432,0.1814546584877565,0.24627971654870157
1684179915286284000,6.481684326171875,0.33422446255067784,0.3802070616806317,-0.18601226813022867
1684179915296325300,6.4917255859375,0.9547897575661205,0.46856021881788323,-0.4884953500033335
1684179915306366600,6.50176708984375,1.607856273479233,0.4302167891314686,-0.7442703247910217
1684179915316408000,6.511808349609375,2.018668890100459,0.5594043730305154,-1.0342464447777961
1684179915326449300,6.521849609375,2.2868094444156855,0.7726001739538039,-1.4701545238355382
1684179915336490600,6.53189111328125,2.4302840232827196,1.0009479521852496,-1.8576183319272022
1684179915346532000,6.541932373046875,2.542706728012916,1.1899452208635406,-2.058538913694336
1684179915356573400,6.551973876953125,2.6653404234881046,1.2972235680821762,-2.1082229613969523
1684179915366614600,6.56201513671875,2.763174057141042,1.1630582809287222,-1.9463977813773883
1684179915376656000,6.572056396484375,2.4146981239708065,0.9163084030941574,-1.5828790664721233
1684179915386697100,6.58209765625,1.7340772152646429,0.5422172547187135,-1.173971176146495
1684179915396738700,6.59213916015625,0.9510933161671734,0.24175453195397292,-1.0010089874833803
1684179915406779800,6.60218017578125,0.1854354143627446,-0.10318660736298389,-0.7020270825030226
1684179915416821200,6.6122216796875,-0.6087832450530877,-0.4234495161668817,-0.3903491497338837
1684179915426862600,6.622262939453125,-1.4470689297937491,-0.7225036620485548,-0.19657850273641758
1684179915436903900,6.63230419921875,-1.559451103290541,-1.00410461432181,-0.30025148389403905
1684179915446945200,6.642345703125,-0.5968337059087611,-1.275593757660944,-0.7188837527848216
1684179915456986600,6.652386962890625,0.5158917904003313,-1.5528631211102644,-1.1437327861401794
1684179915467027900,6.66242822265625,0.9965342284611821,-1.7285594940189337,-1.4653513431858785
1684179915477069200,6.6724697265625,1.0231872796264128,-1.7007055283387043,-1.8561468124555542
1684179915487110600,6.682510986328125,0.8403048514782163,-1.5711860657851593,-2.1766529083397823
1684179915497151900,6.69255224609375,0.6784390211419461,-1.3259630204362507,-2.3088169098544555
1684179915507193300,6.70259375,0.5639958380870052,-0.9545316695746732,-2.2219007015185674
1684179915517234600,6.712635009765625,0.5156075954757033,-0.5755548478131701,-2.007546663303844
1684179915527276000,6.72267626953125,0.5737644434057687,-0.2805604934289056,-1.7379527092053366
1684179915537317300,6.7327177734375,0.6891076564480325,-0.1313247680304427,-1.4459853172766253
1684179915547358600,6.742759033203125,0.8136975765835502,-0.09153270705947177,-1.0431530476095061
1684179915557400000,6.75280029296875,0.9996186495846896,-0.16100215905107754,-0.6041848658366032
1684179915567441300,6.762841796875,1.0507701635171205,-0.1794147490675367,-0.2676825522939887
1684179915577482400,6.7728828125,1.028098583213044,-0.15387058254899713,-0.01592540730171082
1684179915587523800,6.782924072265625,0.9284678698432869,-0.17469978321444207,0.021548748042523876
1684179915597565100,6.792965576171875,0.7727879284743505,-0.2153253554981615,0.09705877307972724
1684179915607606400,6.8030068359375,0.6245425940063851,-0.23772907266976803,0.12226104753766934
1684179915617647800,6.813048095703125,0.541881322794939,-0.18755912787005968,0.05613136279645212
1684179915627689100,6.823089599609375,0.479543447481555,-0.1585569380422678,-0.08736658097286615
1684179915637730600,6.833130859375,0.45348322395341323,-0.20351886749781653,-0.218127727389942
1684179915647771800,6.843172119140625,0.4250577687086586,-0.20269107823046856,-0.35389518733472847
1684179915657813200,6.853213623046875,0.4568853378238811,-0.2700328828327003,-0.5288033485438042
1684179915667854600,6.8632548828125,0.4689630270343032,-0.3685264588429056,-0.690189838418088
1684179915677895900,6.873296142578125,0.4311013223175879,-0.4168987273671482,-0.7577724456805107
1684179915687937200,6.883337646484375,0.37104797369772285,-0.4661426544858334,-0.7276272774552855
1684179915697978600,6.89337890625,0.359178066339642,-0.47630596160521144,-0.8000092507260959
1684179915708019900,6.903420166015625,0.2846601008261319,-0.5076894760095396,-0.8756308557029111
1684179915718061200,6.913461669921875,0.23743152600906225,-0.5823688506002279,-0.916645526827104
1684179915728102600,6.9235029296875,0.2785480020750516,-0.5837993621479108,-0.9891116618966825
1684179915738143900,6.93354443359375,0.30323195458403784,-0.6055202484390066,-1.103826761402657
1684179915748185000,6.94358544921875,0.19592380510386645,-0.6522684096435446,-1.1967372893564239
1684179915758226400,6.953626708984375,0.05883407597249794,-0.6997518537763893,-1.2271113395893036
1684179915768268000,6.96366845703125,0.1036057474078605,-0.6208820344165832,-1.3308453558390159
1684179915778309000,6.97370947265625,0.22863626470129417,-0.5105838776218941,-1.5448212623205746
1684179915788350400,6.983750732421875,0.39939856519392736,-0.37276554105487364,-1.6622283458513283
1684179915798391600,6.993792236328125,0.46715807905912815,-0.3168287276840543,-1.7089736461248912
1684179915808433100,7.00383349609375,0.47995781888685335,-0.35430049889651566,-1.634696006925995
1684179915818474400,7.013874755859375,0.4384529591175752,-0.3823251723945253,-1.50878334045155
1684179915828515800,7.023916259765625,0.46358954894590276,-0.39865112299875954,-1.445427417891183
1684179915838557100,7.03395751953125,0.4973926543073539,-0.3270959854978004,-1.3554649351987231
1684179915848598400,7.043998779296875,0.5219231844382064,-0.19899654389278468,-1.307703971797722
1684179915858639800,7.054040283203125,0.4701530933283784,-0.07414340983551784,-1.2303771972795419
1684179915868681100,7.06408154296875,0.3940705060585073,0.057071685752471166,-1.0879960060481435
1684179915878722600,7.074122802734375,0.3801121711873977,0.07972908006443873,-0.9382722377183369
1684179915888763800,7.084164306640625,0.37667679794819214,0.039091110233047295,-0.8242931366054524
1684179915898805200,7.09420556640625,0.40546119201313446,-0.005422592062973787,-0.6940701007850072
1684179915908846600,7.104246826171875,0.4996403456413455,-0.11384201045992753,-0.5817513467296432
1684179915918887900,7.114288330078125,0.5816419123722585,-0.13304710378065437,-0.559189796404227
1684179915928929200,7.12432958984375,0.6396988629145519,-0.11794662474296312,-0.571901559973871
1684179915938970600,7.134370849609375,0.6550526619468636,-0.05407333379275068,-0.6132218838066993
1684179915949011600,7.144412109375,0.6857681273484693,0.07767963408246766,-0.6048402785499509
1684179915959053000,7.154453369140625,0.6202850340661274,0.13376903537147383,-0.5095479487120634
1684179915969094600,7.164494873046875,0.46249508846335446,0.08993148794121442,-0.36246156695625326
1684179915979135600,7.1745361328125,0.24354481696211144,-0.020768165661329455,-0.15039730062870815
1684179915989177000,7.184577392578125,0.05514705184695842,-0.3159475325699325,0.07789087300264341
1684179915999218400,7.19461865234375,-0.0825572012532723,-0.7717552184794454,0.41294431696969786
1684179916009259600,7.20466015625,-0.2515623568805906,-1.3308629987855964,0.7329759598718425
1684179916019301000,7.214701416015625,-0.5473473070605089,-1.7636137009310853,0.9750285148691823
1684179916029342400,7.22474267578125,-0.9101432561931615,-1.9002494810530874,1.0204448700577948
1684179916039383700,7.2347841796875,-1.2592476607109737,-1.8630161285374276,0.9466943741281113
1684179916049425100,7.244825439453125,-1.5295038223874435,-2.2120265960684162,0.8615632057932877
1684179916059466400,7.25486669921875,-2.1132309438322667,-2.914113044802573,0.7199277876187139
1684179916069507800,7.264908203125,-3.204119205429909,-3.395263672000142,0.5673842429001311
1684179916079549100,7.274949462890625,-4.307653904002495,-3.1480464935860106,0.41560220707874485
1684179916089590400,7.284990966796875,-3.3613562583859062,-1.9523658753754944,0.26692485809569017
1684179916099631800,7.2950322265625,-1.4020643233798853,-0.6366596222893406,-0.06399726871520846
1684179916109673100,7.305073486328125,0.3987911939058279,0.32413005820715124,-0.4803419111866397
1684179916119714600,7.315114990234375,1.9536074398801409,0.6665482521720875,-1.103991508446534
1684179916129755800,7.32515625,2.8401734828454788,0.8154444694134055,-1.7472729684169552
1684179916139797200,7.335197509765625,3.1716613769383577,1.0050945281518116,-2.0007326603905446
1684179916149838600,7.345239013671875,3.1315398215007213,1.0676107407194777,-1.965458869947854
1684179916159879900,7.3552802734375,2.9429631232128184,0.9897642136067537,-1.7125504016826176
1684179916169920900,7.3653212890625,2.6392943859417435,0.7316112517155787,-1.422184467236969
1684179916179962600,7.375363037109375,2.2162570951804588,0.265253067030342,-1.1425681113543171
1684179916190003600,7.385404052734375,1.7131119966999653,-0.21731662758851764,-0.9781181812086747
1684179916200045000,7.3954453125,1.2040929793890407,-0.47026252750808945,-0.9587922097555934
1684179916210086300,7.40548681640625,0.6639976499785466,-0.5317296981084957,-0.8225245475930342
1684179916220127600,7.415528076171875,0.1780225039318359,-0.547723770070353,-0.5866923331582145
1684179916230169000,7.4255693359375,-0.20837366575440133,-0.5035505293960669,-0.34864115709424776
1684179916240210400,7.43561083984375,-0.3664221763474116,-0.5012245179175427,-0.11781716346281809
1684179916250251600,7.445652099609375,-0.20493471617780623,-0.5319118499691986,-0.0946013927705247
1684179916260293000,7.455693359375,0.15798711782906574,-0.5784492492402643,-0.39723849288157814
1684179916270334400,7.46573486328125,0.5716465712428427,-0.5705928802591728,-0.7839648723918524
1684179916280375600,7.475776123046875,1.0436503887648307,-0.5688190459635886,-1.1731679440318463
1684179916290417100,7.4858173828125,1.5311441421418877,-0.5833959577785952,-1.3854639528615296
1684179916300458400,7.49585888671875,1.9145290852296135,-0.4917726516842378,-1.4360895156619748
1684179916310499800,7.505900146484375,2.1175332068723796,-0.3514099121310344,-1.4165558815005743
1684179916320541100,7.51594140625,2.10702371613471,-0.27991008754155344,-1.3082413673882447
1684179916330582400,7.52598291015625,1.9764364956709564,-0.2826156616029423,-1.1475365161523248
1684179916340623800,7.536024169921875,1.8389867544665497,-0.3548812865098422,-1.0132982730863112
1684179916350665100,7.5460654296875,1.6705443859848408,-0.5038032532557789,-0.8532786369470461
1684179916360706600,7.55610693359375,1.4723440409542332,-0.557280540393396,-0.737858772137666
1684179916370747600,7.56614794921875,1.2226276397410507,-0.45341682440128106,-0.7397446632213887
1684179916380788900,7.576189208984375,1.0152987242120275,-0.2980289458177144,-0.7117173670533972
1684179916390830600,7.58623095703125,0.9809622169048751,-0.20402526861638287,-0.6969742775380399
1684179916400871600,7.59627197265625,1.0727266072225738,-0.11882781992251631,-0.7014799118347965
1684179916410912900,7.606313232421875,1.2201011181130808,-0.1185331344163205,-0.7093989848635694
1684179916420954300,7.616354736328125,1.4132473468885702,-0.1476478577228676,-0.6770720480944761
1684179916430995600,7.62639599609375,1.5767846107226886,-0.2391099931441747,-0.6283071042636427
1684179916441037000,7.636437255859375,1.6968903540024671,-0.2540206909844519,-0.6446516513854125
1684179916451078300,7.646478759765625,1.6829845903687843,-0.2664957046312575,-0.6376774310518188
1684179916461119600,7.65652001953125,1.4733688831224652,-0.27417469029326846,-0.6145291328590724
1684179916471161000,7.6665615234375,1.251830816186783,-0.2749691008005015,-0.606566906075426
1684179916481202400,7.676602783203125,1.0488997696455677,-0.3193664552472071,-0.6237127780229742
1684179916491243600,7.68664404296875,0.9112678766399683,-0.347489356952065,-0.7085306643156789
1684179916501285000,7.696685546875,0.798991441684875,-0.39509201040985303,-0.7363150120032161
1684179916511326400,7.706726806640625,0.676202416484612,-0.531285285927004,-0.7452249527227056
1684179916521367700,7.71676806640625,0.5613306761782617,-0.5692577360187522,-0.7680866717873717
1684179916531409100,7.7268095703125,0.45623332263257554,-0.5067090988526592,-0.7281155584440064
1684179916541450400,7.736850830078125,0.37375923980305015,-0.3916921616761883,-0.6923642157421267
1684179916551491800,7.74689208984375,0.37057533848956803,-0.30557537066065593,-0.5581207275128623
1684179916561533100,7.75693359375,0.3909222186254405,-0.2458353043354988,-0.42096495629229747
1684179916571574400,7.766974853515625,0.4468137325364024,-0.24328041070510537,-0.31639742838663293
1684179916581615800,7.77701611328125,0.5319356322453984,-0.20449733726861313,-0.21074652682976153
1684179916591656900,7.787057373046875,0.6476446390503865,-0.1486196518764945,-0.0943982602604893
1684179916601698600,7.797098876953125,0.7248580456396765,-0.020814895601734867,0.013364553534122473
1684179916611739800,7.80714013671875,0.816594600569235,0.05451107035955281,0.09573340424713603
1684179916621780900,7.817181396484375,0.893754363086312,0.07028579706944253,0.2171158790220036
1684179916631822300,7.82722265625,0.998379349733922,0.08630275711106906,0.29841160788665827
1684179916641863600,7.837263916015625,1.0411669016445309,0.09774208057748542,0.3825659750694357
1684179916651904900,7.847305419921875,1.047922134326293,0.14268493660621775,0.42622303962540875
1684179916661946300,7.8573466796875,1.0424444675168578,0.18972682966098525,0.4765529633375317
1684179916671987600,7.867387939453125,1.026619791893646,0.20046520238783888,0.46619629858286477
1684179916682029000,7.877429443359375,0.9947732089259573,0.22743606574022596,0.4428153038769002
1684179916692070300,7.887470703125,0.9292459487864373,0.18680858611656426,0.3486104011321744
1684179916702111600,7.897511962890625,0.8519894480944653,0.1814317702862738,0.20048022267896384
1684179916712153000,7.907553466796875,0.7717226743618628,0.10160064701492129,0.020677804932433996
1684179916722194400,7.9175947265625,0.7229095100320323,0.004928589008202642,-0.07102465644426481
1684179916732235600,7.927635986328125,0.6578318476053266,-0.13949489581557914,-0.179696321495095
1684179916742277000,7.937677490234375,0.6020342110842541,-0.29323005676340413,-0.26679849611416145
1684179916752318400,7.94771875,0.5306335688580025,-0.38128948200592166,-0.44246101389165177
1684179916762359600,7.957760009765625,0.45215785502691663,-0.44657516483129756,-0.569964170466305
1684179916772401100,7.967801513671875,0.34811484817199556,-0.45884037032678937,-0.7135939599490931
1684179916782442400,7.9778427734375,0.21441553532999513,-0.4471635818432692,-0.8282043934396045
1684179916792483800,7.98788427734375,0.07994638384002897,-0.42357635515264713,-0.8644628524785266
1684179916802525100,7.997925537109375,-0.012163043088330022,-0.3574562072355723,-0.8631711005918697
1684179916812566400,8.007966796875,-0.06560297317952371,-0.25868892650758707,-0.8173656463238225
1684179916822607800,8.01800830078125,-0.05964727707734674,-0.18190574648396782,-0.6783740521578331
1684179916832649100,8.028049560546876,0.0011251866850219086,-0.058451652435252736,-0.4501862525925352
1684179916842690600,8.0380908203125,0.1311220825621327,-0.00938606259699498,-0.16305232050725613
1684179916852731600,8.048132080078124,0.2512207626887121,-0.038466453558950904,0.1461467742729702
1684179916862773200,8.058173583984376,0.3710572124719567,-0.01972103111641147,0.34511470798002913
1684179916872814300,8.068214599609375,0.46172896029814403,-0.008119583097249089,0.5039479731948739
1684179916882855600,8.078256103515624,0.46292918912460823,0.040880203331849815,0.662463664951957
1684179916892896900,8.08829736328125,0.4781855939845321,0.07934665669941983,0.7516868115744791
1684179916902938300,8.098338623046875,0.4742796124099549,0.14742565142672626,0.7702574731080771
1684179916912979600,8.108380126953126,0.44089522953431753,0.17394065846339776,0.7734675407006628
1684179916923021000,8.11842138671875,0.41768899573179624,0.23734474193058924,0.7030253411525854
1684179916933062300,8.128462646484374,0.35278606399948015,0.23829746251916745,0.6994969844644494
1684179916943103600,8.138504150390625,0.2739963829314227,0.17780494705190542,0.7003269194356672
1684179916953145000,8.14854541015625,0.1901424527222029,0.12041187296838421,0.7098295688829179
1684179916963186400,8.158586669921876,0.12751698511487783,0.06379508969687218,0.6668193340612479
1684179916973227600,8.168628173828125,0.04751902831303605,0.005621910079823726,0.673564434016318
1684179916983269000,8.17866943359375,-0.03394344451011051,-0.0635423660095879,0.6374211311788055
1684179916993310400,8.188710693359376,-0.13882401579957945,-0.04931831354235141,0.49337482455460635
1684179917003351700,8.198752197265625,-0.2237580716404414,0.004646301161201963,0.3211779592505032
1684179917013393100,8.20879345703125,-0.28452718271579464,0.06959247592537197,0.15433931353622937
1684179917023434400,8.218834716796875,-0.2956196069500134,0.09381389625030304,0.040224313779395185
1684179917033475800,8.228876220703125,-0.31063586471908344,0.09932518002498165,0.03699922567887642
1684179917043517100,8.23891748046875,-0.24304011454761074,0.06999015811241761,0.09828329079792557
1684179917053558400,8.248958740234375,-0.17608141898688537,0.07689952854629574,0.19238734251026962
1684179917063599800,8.259000244140625,-0.09464460616775205,0.07464599612688805,0.2999553680232163
1684179917073641100,8.26904150390625,-0.017670780363252,0.12216472619651099,0.42290592195831533
1684179917083682600,8.279082763671875,0.074504584018461,0.17853641505693565,0.5206410884843874
1684179917093723800,8.289124267578124,0.1515234411199566,0.23406410228368998,0.6025600434537455
1684179917103764900,8.299165283203125,0.2582989333274246,0.3474769593008307,0.6332230566833198
1684179917113806300,8.30920654296875,0.351531177717954,0.4307289123727343,0.5783159733272859
1684179917123847900,8.319248291015626,0.4283075928621917,0.373722076429876,0.5831451414603004
1684179917133888900,8.329289306640625,0.5021894575249044,0.3387699128025468,0.5758855342561069
1684179917143930300,8.33933056640625,0.5222693680792206,0.31120014195855755,0.5375874042719799
1684179917153971600,8.3493720703125,0.5210386516040018,0.24610996260635293,0.5229232310242963
1684179917164013000,8.359413330078125,0.5437095164380081,0.13946342487290758,0.5410189628388793
1684179917174054300,8.369454833984374,0.5823656320398259,-0.024415969899945638,0.5772578715959054
1684179917184095600,8.37949609375,0.6250058411903492,-0.13862705236515457,0.6616742610900491
1684179917194137000,8.389537353515625,0.7360581159580515,-0.18088340756822632,0.749708413975194
1684179917204178400,8.399578857421876,0.8399700523078139,-0.11524200441986307,0.7504673003598601
1684179917214219600,8.4096201171875,0.8923907280199844,-0.056527137909492035,0.6537978649452385
1684179917224261000,8.419661376953124,0.933625221216738,-0.0466117858766179,0.6390948294975143
1684179917234302400,8.429702880859375,0.9691342115229343,-0.15988636018942545,0.7194247247472455
1684179917244343600,8.439744140625,1.0330291986193523,-0.31431388846992026,0.834077596767778
1684179917254385100,8.449785400390626,1.0890146493900017,-0.3419589996624241,0.8792576791042742
1684179917264426400,8.459826904296875,1.132750868792229,-0.34127712241940317,0.8663015364839806
1684179917274467800,8.4698681640625,1.1098203658740982,-0.42579936983340444,0.7939357757478022
1684179917284509100,8.479909423828126,1.0326044558266037,-0.5471658706414204,0.6842439174624859
1684179917294550400,8.489950927734375,0.8490232228063778,-0.631605148166781,0.5102753638712857
1684179917304591800,8.4999921875,0.662171721437956,-0.6558685304289131,0.25527095813426565
1684179917314633100,8.510033447265625,0.35778564212976643,-0.6326570511860944,-0.010946035460034156
1684179917324674600,8.520074951171875,-0.032683551338711744,-0.5721912384087254,-0.33534526838048023
1684179917334715800,8.5301162109375,-0.4022743105169195,-0.5690393447547925,-0.7141585350203979
1684179917344757200,8.540157470703125,-0.7313199042731453,-0.5302228927510558,-1.035720825199931
1684179917354798600,8.550198974609375,-0.9897617102901853,-0.5175437927479074,-1.3220603466395044
1684179917364839900,8.560240234375,-1.1806004046944851,-0.47576141354133017,-1.4548763036151466
1684179917374880900,8.57028125,-1.261334657654823,-0.359997749246191,-1.508303046346907
1684179917384922600,8.580322998046874,-1.2453861234790269,-0.15190124524543305,-1.5249933003032337
1684179917394963600,8.590364013671875,-1.0932002067436266,0.2034664153180906,-1.3893742562082814
1684179917405005000,8.6004052734375,-0.7886201142052255,0.5393218995792223,-0.9173767568334743
1684179917415046300,8.61044677734375,-0.4269474147688112,0.7480993269957668,-0.15230846402787898
1684179917425087600,8.620488037109375,-0.18504448237733506,0.9268693922618403,0.5777978897877712
1684179917435129000,8.630529296875,-0.1728378533044503,1.017245292535022,1.1294369697567546
1684179917445170400,8.64057080078125,-0.41028523456145477,1.014273643377473,1.471150159850264
1684179917455211600,8.650612060546875,-0.7556896804836991,0.9378376005994944,1.516528368091681
1684179917465253000,8.6606533203125,-1.1139380932947454,0.726854324419752,1.3375833034616982
1684179917475294400,8.67069482421875,-1.4163355826530226,0.4365148544132589,1.0967841146960016
1684179917485335700,8.680736083984375,-1.536189556175227,0.19554710380704285,0.754949092778495
1684179917495377100,8.690777587890626,-1.4229909180713995,0.0012016295919720827,0.35054779051397456
1684179917505418400,8.70081884765625,-1.1312466859502832,-0.23747539519888092,-0.06034135822078047
1684179917515459800,8.710860107421874,-0.8628649114974296,-0.4986553192026226,-0.47097301483180676
1684179917525501100,8.720901611328125,-0.7146270274896536,-0.7650709152245185,-0.8433651924216726
1684179917535542400,8.73094287109375,-0.5609154700402038,-0.8735866545811858,-1.182724237441829
1684179917545583800,8.740984130859376,-0.5461911559487798,-0.8789319992586045,-1.440159797594809
1684179917555625100,8.751025634765625,-0.38261914249754325,-0.7454195022861563,-1.6178939343365795
1684179917565666600,8.76106689453125,0.0381603241539072,-0.5068340301029971,-1.7631555797057028
1684179917575707800,8.771108154296876,0.491187751146932,-0.33802223216603267,-1.763458371026709
1684179917585749200,8.781149658203125,0.9900655746915213,-0.21764278398118234,-1.7436876295830313
1684179917595790600,8.79119091796875,1.536779522768258,-0.12166404718488612,-1.5846345424467334
1684179917605831900,8.801232177734375,1.9570893049057425,-0.1713323592568872,-1.4108605385056763
1684179917615873200,8.811273681640625,2.2449231147950734,-0.27773952497945137,-1.1553087234611819
1684179917625914600,8.82131494140625,2.4037415983040145,-0.49825191491775883,-0.8460750579367569
1684179917635955600,8.83135595703125,2.478846311483864,-0.6747922897185887,-0.5963511467154871
1684179917645997200,8.841397705078125,2.520964384126574,-0.7925615309963624,-0.4690685271427841
1684179917656038600,8.85143896484375,2.5035638807575413,-0.8490705489992028,-0.4134287835873001
1684179917666079600,8.86147998046875,2.428976297287765,-0.7134799957176702,-0.428722620078011
1684179917676121000,8.871521484375,2.225888490631088,-0.5253219604341463,-0.5164744852787719
1684179917686162400,8.881562744140625,1.9337828158216328,-0.32824420935767956,-0.6811022759885897
1684179917696203600,8.89160400390625,1.6665024756714173,-0.13683891305137658,-0.8149261474305679
1684179917706245000,8.9016455078125,1.4644811152698112,-0.015611648597691553,-0.8656606673425977
1684179917716286400,8.911686767578125,1.3197594881133097,0.07385158534964653,-0.8695974350373292
1684179917726327600,8.92172802734375,1.2293224336268782,0.024537086494820406,-0.8930423259927379
1684179917736369100,8.93176953125,1.1283613444720701,-0.03371715545024902,-0.8320469857006473
1684179917746410400,8.941810791015625,1.038566112518267,-0.0025281906265566035,-0.7716231347578507
1684179917756451800,8.95185205078125,0.9601795076374047,-0.010652542041862823,-0.7225475311103486
1684179917766493100,8.9618935546875,0.8793447017126768,0.016199112046234747,-0.6220676899606101
1684179917776534400,8.971934814453125,0.7826515436956121,0.037322998103555355,-0.5510973931071493
1684179917786575800,8.98197607421875,0.7514578103972077,0.04052734375988532,-0.5209152700406483
1684179917796617100,8.992017578125,0.8914809225143897,0.07106780999763974,-0.6163227557888529
1684179917806658600,9.002058837890624,1.0465656518662767,0.01877594001468049,-0.6003723145429198
1684179917816699800,9.012100341796875,0.9851526021191822,-0.11690521236415935,-0.5801799297407642
1684179917826741200,9.0221416015625,0.7637909651995448,-0.27225875859958254,-0.5872476099820908
1684179917836782600,9.032182861328126,0.5195982454731723,-0.4094085694582697,-0.6804823875453567
1684179917846823900,9.042224365234375,0.3584754467140873,-0.4636878967798754,-0.7523505687867584
1684179917856865200,9.052265625,0.15495443345442367,-0.5496482849859754,-0.869552612189874
1684179917866906600,9.062306884765626,-0.026156902338935525,-0.583693504438881,-0.9865944384193595
1684179917876947900,9.072348388671877,-0.14099216449544408,-0.5899000168939937,-1.1222617627083606
1684179917886989200,9.0823896484375,-0.008375287063035659,-0.6015195846751171,-1.3036470414493273
1684179917897030600,9.092430908203124,0.17524886129450343,-0.5892276764692043,-1.5449638366127574
1684179917907071900,9.102472412109377,0.21747124185704841,-0.6504621507002075,-1.7465910911350861
1684179917917113300,9.112513671875,-0.04995703680644553,-0.6345624922192383,-1.7325129508900892
1684179917927154600,9.122554931640623,-0.6482915878844837,-0.642525672992162,-1.5771906375978224
1684179917937195600,9.13259619140625,-1.3633358478281976,-0.7271671295593248,-1.5497870444558564
1684179917947237000,9.142637451171876,-1.7140963077483544,-0.842479705838924,-1.7958786486263405
1684179917957278400,9.1526787109375,-1.446736693445365,-0.8778324127962022,-2.0409350396640993
1684179917967319700,9.16272021484375,-0.6770688296885713,-0.8166561125715688,-2.043960571232854
1684179917977361100,9.172761474609375,0.2207831144569207,-0.6802301407505085,-1.8833684921146714
1684179917987402400,9.182802734375,0.9313086270772156,-0.5443487167661205,-1.6813375951161267
1684179917997443800,9.19284423828125,1.3367283344203023,-0.5113344192122413,-1.5087897777245325
1684179918007485100,9.202885498046877,1.4582552909106394,-0.4021434785616534,-1.2971541882311004
1684179918017526400,9.2129267578125,1.418498993026193,-0.3299150466746364,-1.2030694484615558
1684179918027567800,9.22296826171875,1.1980066299515788,-0.1881675720120369,-1.1083965301518655
1684179918037609100,9.233009521484377,0.9609235524280219,0.005448341292256923,-0.9868419170660225
1684179918047650600,9.24305078125,0.8932076692533724,0.08787727372017881,-0.8769948483443091
1684179918057691800,9.25309228515625,1.075342178321709,0.053992271503603764,-0.7613954543099903
1684179918067733200,9.263133544921876,1.3526178599003018,0.043031692390703286,-0.7663960457563649
1684179918077774600,9.2731748046875,1.6201863289514158,0.025403976547376497,-0.7998440264981553
1684179918087815900,9.28321630859375,1.708547353674848,-0.04042243955399764,-0.7784271240077782
1684179918097857200,9.293257568359374,1.439448118210866,-0.0774068832459488,-0.7593464851128531
1684179918107898600,9.303298828125,0.9529801607070115,-0.07908916464925553,-0.6790757178420328
1684179918117939900,9.31334033203125,0.4324855803603663,-0.01036071775950943,-0.6411242486222751
1684179918127981200,9.323381591796876,0.05431604399137874,0.04699516300319273,-0.6740150451025274
1684179918138022600,9.333423095703123,-0.17390096189873633,0.11416530606634956,-0.7004983424964258
1684179918148063900,9.34346435546875,-0.286709666260572,0.14354038240807973,-0.9096179007829811
1684179918158105300,9.353505615234376,-0.2856169939108765,0.018314361455122868,-1.0843660832193651
1684179918168146600,9.363547119140623,-0.2370688915045893,-0.060338973839537145,-1.142996311117575
1684179918178188000,9.37358837890625,-0.12125587449190885,-0.14242076863611622,-1.1407420635048635
1684179918188229300,9.383629638671875,0.020734548511872678,-0.20654106138082956,-1.0503628253400734
1684179918198270600,9.393671142578125,0.15018522737149384,-0.2364826203088923,-0.9338572024480227
1684179918208312000,9.40371240234375,0.25262558456586626,-0.25914001474648296,-0.834139585537052
1684179918218353100,9.41375341796875,0.2904894351747077,-0.25841903668803906,-0.7795858385167819
1684179918228394600,9.423795166015625,0.4451347588878381,-0.23213195790352112,-0.844631195081394
1684179918238435800,9.433836181640626,0.6116907597156067,-0.2711210251022854,-0.9118716715954402
1684179918248477100,9.44387744140625,0.72342103723732,-0.39410495761456454,-0.9831404685571439
1684179918258518400,9.4539189453125,0.7178083658572348,-0.4786128998281773,-1.0504348277125515
1684179918268559800,9.463960205078124,0.6631485223625649,-0.4908857345727961,-1.0607571601748276
1684179918278601100,9.47400146484375,0.5679328441826039,-0.4241256712774453,-0.9721961022896858
1684179918288642600,9.48404296875,0.4768254757264567,-0.3052558898955251,-0.8270163535513421
1684179918298683800,9.494084228515623,0.3901873827782209,-0.17565250398574078,-0.5192556381576088
1684179918308725200,9.50412548828125,0.31840634351307806,-0.12426376343624089,-0.22700238220832408
1684179918318766600,9.5141669921875,0.1978033780862394,-0.13689517968540113,0.042218446630799406
1684179918328807900,9.524208251953125,0.08007001875086969,-0.18444538131227642,0.1895015240244936
1684179918338849200,9.53424951171875,-0.02366375922847687,-0.21363735190830183,0.18875265120821413
1684179918348890600,9.544291015625,-0.16000556945578617,-0.2716674804719893,0.07811975474886672
1684179918358931900,9.554332275390625,-0.2323207854921837,-0.3103132247910095,-0.1145620345374682
1684179918368973200,9.56437353515625,-0.24353671071188995,-0.3532886505905537,-0.2804224490499893
1684179918379014600,9.5744150390625,-0.24398183819471767,-0.3359422683658575,-0.5067634582232512
1684179918389055900,9.584456298828124,-0.2990292310624725,-0.27772045128977035,-0.5809423924021124
1684179918399097300,9.59449755859375,-0.4239503145501771,-0.17929077140511926,-0.5457730293841568
1684179918409138600,9.6045390625,-0.5203781127401289,-0.06752490995960485,-0.5205538271337048
1684179918419180000,9.614580322265626,-0.4831740855995197,0.016687393234961545,-0.3657925130094118
1684179918429221300,9.62462158203125,-0.4590797425235194,0.05417919154180863,-0.2018139361849278
1684179918439262600,9.6346630859375,-0.43979835516431176,0.06623554237825602,-0.021915912578176912
1684179918449304000,9.644704345703126,-0.357423424865027,0.02400779733589995,0.06612586976729426
1684179918459345300,9.654745849609377,-0.1525965929156371,-0.04115200057086761,0.13455390933571768
1684179918469386600,9.664787109375,0.06914496413845886,-0.15972328172990038,0.033443927693105356
1684179918479428000,9.674828369140624,0.1812176704065969,-0.3283672333883122,-0.21255469322950737
1684179918489469400,9.684869873046877,0.034707427069801136,-0.6286840439474791,-0.40575480468911457
1684179918499510600,9.6949111328125,-0.2773331403667403,-0.8232917785762304,-0.735377550048254
1684179918509552000,9.704952392578123,-0.5261135101560649,-0.8456487654687488,-1.01929688465114
1684179918519593100,9.71499365234375,-0.5895167589899547,-0.6864624023711259,-1.2852325440634031
1684179918529634600,9.725034912109376,-0.43403029442326413,-0.5035638809234166,-1.504127025795377
1684179918539676100,9.735076416015623,-0.2727392911325765,-0.3466882704937675,-1.5219240188290284
1684179918549717200,9.74511767578125,-0.22862339025280456,-0.28090667728624474,-1.4010233878161689
1684179918559758600,9.755158935546875,-0.3767029045396009,-0.2539453505101907,-1.1337482928805076
1684179918569799900,9.7652001953125,-0.5391311644624166,-0.2641878128136813,-0.7653815746341028
1684179918579841200,9.77524169921875,-0.5216156244635797,-0.27468681352212004,-0.4060709476335327
1684179918589882600,9.785282958984377,-0.40753591049798465,-0.3031673430833386,-0.11780166609985983
1684179918599923900,9.79532421875,-0.28965699676883083,-0.2944059370137215,0.072267532236385
1684179918609965200,9.80536572265625,-0.1105941533488523,-0.27630519863667846,0.16389870629461628
1684179918620006600,9.815406982421877,0.0844583511785809,-0.23408508285137813,0.175095081411619
1684179918630047900,9.8254482421875,0.24573719493037988,-0.17708110795418222,0.16248846046780097
1684179918640089300,9.83548974609375,0.2624995709813467,-0.08461284624723903,0.08079743382013169
1684179918650130600,9.845531005859376,0.22508800043007046,-0.019067764309637303,-0.009707212458741113
1684179918660172000,9.855572265625,0.2058041094980225,0.030930519035263244,-0.022193670165928072
1684179918670213300,9.86561376953125,0.17976522436217435,0.025112152007152413,-0.06563377385865239
1684179918680254600,9.875655029296874,0.11407053461365531,0.004372596586047473,-0.11850357059269101
1684179918690296000,9.8856962890625,0.06225180624720912,0.035051345850513914,-0.22918152811917916
1684179918700337300,9.89573779296875,0.004454374266648907,0.050624847439047674,-0.3247196674663976
1684179918710378600,9.905779052734376,-0.01993596558059145,0.10338878629754159,-0.38042974461728796
1684179918720420000,9.9158203125,-0.04343855384454364,0.18106842024285447,-0.38675618172166765
1684179918730461400,9.92586181640625,-0.032784938821265215,0.29043388363438155,-0.4028468131545364
1684179918740502600,9.935903076171876,-0.08744096746268737,0.34402751925659464,-0.3809797762995473
1684179918750544000,9.9459443359375,-0.10297989841664008,0.33811569202789105,-0.30052328122254335
1684179918760585400,9.95598583984375,-0.10178399094968871,0.3065481184732642,-0.27824807162289783
1684179918770626700,9.966027099609375,-0.09882569305120603,0.25672340405939414,-0.20534086228324142
1684179918780668100,9.976068359375,-0.06685400008622377,0.2406148910882052,-0.20819282530489502
1684179918790709200,9.986109619140626,-0.07773756980041387,0.2575263975976337,-0.1873879432662873
1684179918800750800,9.996151123046875,-0.06063199045792279,0.2761459349277866,-0.18870115279824928
1684179918810792100,10.006192626953125,-0.053643703468032815,0.3128843308272911,-0.2048046588122339
1684179918820833200,10.016233642578126,-0.01703858386561355,0.3792629242355334,-0.19794082627295706
1684179918830874600,10.02627490234375,0.08965849887832919,0.43495178219920033,-0.09361577031546024
1684179918840915900,10.03631640625,0.26596593852074624,0.4218378066460463,-0.05333971978122734
1684179918850957200,10.046357666015624,0.4930036068376997,0.45020103458190214,-0.011426448790489098
1684179918860998600,10.05639892578125,0.6378707887105763,0.45825195301459404,0.00302839279359261
1684179918871039900,10.0664404296875,0.7258861065014165,0.4493427277172525,0.003423214006792691
1684179918881081300,10.076481689453123,0.7387583255468363,0.4449386596309943,-0.04344630230543771
1684179918891122600,10.08652294921875,0.7031104565004437,0.4446754456129961,-0.028363704787138972
1684179918901164000,10.096564453125,0.6191884278404094,0.45767974860438226,-0.07419848434878297
1684179918911205300,10.106605712890625,0.48988974083567094,0.40020370480619105,-0.18086123455786784
1684179918921246600,10.11664697265625,0.37298321712013394,0.367867469854133,-0.26698589333916495
1684179918931288000,10.1266884765625,0.22306776040264353,0.38913726816116956,-0.29709649080153516
1684179918941329300,10.136729736328125,0.10028743741400595,0.3537034988826838,-0.2909650801299209
1684179918951370600,10.14677099609375,-0.006332635814786324,0.28297138218504486,-0.31778335580144457
1684179918961412000,10.1568125,-0.12024331081392627,0.2151584626130165,-0.3439168929234567
1684179918971453400,10.166853759765624,-0.319133758495772,0.11158657070917091,-0.24315524105893413
1684179918981494600,10.17689501953125,-0.6361610890386343,-0.07108116140743961,-0.2325353623029361
1684179918991536000,10.1869365234375,-0.8733577728982592,-0.18496036523399256,-0.20399928090833014
1684179919001577400,10.196977783203126,-1.0476710796163058,-0.20431232447770803,-0.12259912486263275
1684179919011618700,10.20701904296875,-0.9991879463185518,-0.10548496243069902,-0.044926405011292886
1684179919021660100,10.217060546875,-0.7259294986494355,0.12626552593535875,-0.08470463755697231
1684179919031701400,10.227101806640626,-0.48165965076034045,0.4391880035416883,-0.14684414867533052
1684179919041742800,10.23714306640625,-0.36371254922961377,0.6189193724402476,-0.16872477543575642
1684179919051784100,10.2471845703125,-0.42987108235261867,0.7447910309128162,-0.22289228442505823
1684179919061825500,10.257225830078124,-0.4412536619496661,0.7526092529417766,-0.2572975159465514
1684179919071866800,10.26726708984375,-0.38072347634591575,0.7499713898039322,-0.2098567484545236
1684179919081908100,10.27730859375,-0.35655117036065176,0.717475891139764,-0.19178009025089748
1684179919091949600,10.287349853515623,-0.2785689831288906,0.6981630325367674,-0.17236590383489547
1684179919101990600,10.297390869140624,-0.19929432863453678,0.749420166133376,-0.1367859841288365
1684179919112032200,10.3074326171875,-0.14487171182381506,0.8398838041622824,-0.04218649873753817
1684179919122073300,10.3174736328125,-0.10283136358584069,0.9216141701685819,0.11875009535533698
1684179919132114600,10.327514892578124,-0.07681679721044903,0.7522420882739266,0.39080452923330394
1684179919142156000,10.337556396484375,-0.06656312929129124,0.3776273727938045,0.602382659958217
1684179919152197300,10.34759765625,-0.13576865209660524,-0.17526626589457409,0.7451450824552485
1684179919162238600,10.35763916015625,-0.3392803669869597,-0.663889884939535,0.8688614369598103
1684179919172280000,10.367680419921877,-0.7328338622992802,-0.9673938753094803,0.8198952674975856
1684179919182321300,10.3777216796875,-1.1540156603163243,-1.1372737885897348,0.6319019795332084
1684179919192362600,10.38776318359375,-1.6288313866277762,-1.2819795607636382,0.42801618575327055
1684179919202404000,10.397804443359377,-2.2856979369728445,-1.4497480393962703,0.33856463435495204
1684179919212445400,10.407845703125,-3.170426607054566,-1.5584821700195914,0.7537345886569462
1684179919222486600,10.41788720703125,-3.5718536376034242,-1.700294494574355,1.3815884590167518
1684179919232528000,10.427928466796876,-2.9212203027358195,-1.7510814668000558,1.7452285288892637
1684179919242569400,10.4379697265625,-1.661743402362422,-1.6519079207227745,1.8934235573234237
1684179919252610700,10.44801123046875,-0.5777544974614937,-1.4301452635508909,2.0448963641026823
1684179919262652100,10.458052490234374,0.2535353898721605,-0.967933654892462,2.0050451754840126
1684179919272693400,10.46809375,0.9996089340005617,-0.41778373725619716,1.6595616341541304
1684179919282734800,10.47813525390625,1.5396510364207336,0.03318119050751735,1.0055181980343175
1684179919292776100,10.488176513671876,1.7505058049915299,0.32506561270129236,0.29702043532332284
1684179919302817500,10.4982177734375,1.690290689594995,0.5654220581036072,-0.5144073963238809
1684179919312858800,10.50825927734375,1.4276130199166748,0.756430625865547,-1.108760833776427
1684179919322900100,10.518300537109376,1.0209898948588647,0.9362955092507552,-1.5473679304299854
1684179919332941600,10.528341796875,0.6995442509571026,1.086272239707275,-1.8788908720585114
1684179919342982800,10.53838330078125,0.43821382525065383,1.0918331144603777,-1.9247897862342283
1684179919353024200,10.548424560546875,0.39809322364704675,0.9004507065735141,-1.830275535476461
1684179919363065600,10.5584658203125,0.4610149859722288,0.5896120072416327,-1.6395121811592506
1684179919373106900,10.56850732421875,0.546919405366217,0.40706443771532425,-1.453136682473751
1684179919383148200,10.578548583984375,0.680333256702989,0.18098640449622527,-1.0859308242713717
1684179919393189600,10.58858984375,0.9384961722443308,-0.03641700736289091,-0.7903735637786515
1684179919403230600,10.598631103515626,1.2374845743624652,-0.20512962336505028,-0.4873323441156068
1684179919413272000,10.60867236328125,1.5236995219909695,-0.15613460549495886,-0.24936890607216897
1684179919423313600,10.6187138671875,1.7337815761588269,0.042830467222206424,-0.08361363403273074
1684179919433354600,10.628755126953124,1.863543033699427,0.1380033494398696,0.03784799570516963
1684179919443396000,10.63879638671875,1.854939460693054,0.11064624795216198,0.10136485105935907
1684179919453437400,10.648837646484376,1.7718671560380876,-0.05784988406490303,0.12320423128925709
1684179919463478600,10.658879150390623,1.5836129187374741,-0.22829055778799484,0.10618805887212744
1684179919473520000,10.66892041015625,1.338239908068444,-0.3047847748251565,0.07487273210989515
1684179919483561400,10.6789619140625,1.1012073755804885,-0.33042430885409824,0.013033866808510784
1684179919493602700,10.689003173828125,0.8077272178049096,-0.25071334840055964,-0.10559511186388268
1684179919503644100,10.69904443359375,0.45232254262204363,-0.17877483368238192,-0.22143697742765614
1684179919513685400,10.7090859375,0.09052485225591611,-0.10538673402564208,-0.43887591350119126
1684179919523726800,10.719127197265625,-0.27090996513101256,-0.013945579486194109,-0.7443571089700475
1684179919533768100,10.72916845703125,-0.5915813444868697,-0.007234573333846509,-1.0072839260690885
1684179919543809500,10.7392099609375,-0.8366527558567013,-0.05651092535990742,-1.251055955859779
1684179919553850800,10.749251220703124,-0.9592263698755782,-0.10198593129836284,-1.4614751339740943
1684179919563892100,10.75929248046875,-0.9147052764928703,-0.22493362424598276,-1.5128873585127582
1684179919573933600,10.769333984375,-0.6156743169646447,-0.3248357772961658,-1.487770199662204
1684179919583974800,10.779375244140626,-0.1964924036287144,-0.3584413529272989,-1.3959491253666658
1684179919594016200,10.78941650390625,0.31245347860193734,-0.3777561187729694,-1.301007747562505
1684179919604057600,10.7994580078125,0.7914865016418191,-0.4565639494258686,-1.0785517692959679
1684179919614098900,10.809499267578126,1.164677977404899,-0.477816581646805,-0.8704569338588783
1684179919624140200,10.81954052734375,1.4347362518541862,-0.5160665511911746,-0.6946160794094401
1684179919634181600,10.82958203125,1.6049585343127357,-0.4877929687681733,-0.6135182381175773
1684179919644222900,10.839623291015624,1.7308517694485048,-0.3190803526651571,-0.5243883133183893
1684179919654264200,10.84966455078125,1.9014227390597254,-0.1844854354662954,-0.4462831020297262
1684179919664305600,10.8597060546875,2.012557506558546,-0.13881206513868805,-0.31481170671255687
1684179919674346600,10.8697470703125,2.048574686078051,-0.11259078972980278,-0.15422201164342503
1684179919684388300,10.87978857421875,2.0397765637357317,-0.09124183637640011,-0.07158684726692567
1684179919694429600,10.889830078125,1.9834320545694926,-0.07213211067148037,0.007980585053647297
1684179919704470600,10.89987109375,1.9233739375053451,-0.059964179979485055,0.09446668624479229
1684179919714512000,10.909912353515624,1.8207342622719245,-0.05010414109666809,0.1519887447068969
1684179919724553400,10.919953857421875,1.6590139866248137,0.012135505787861116,0.1851694582932561
1684179919734594700,10.9299951171875,1.4598547220256513,0.07640933985145947,0.15361189854606175
1684179919744636100,10.940036376953126,1.2246220110822217,0.17395973202936255,0.07247185709931672
1684179919754677400,10.950077880859377,0.9502373338698572,0.19975280773524182,-0.000500917484910682
1684179919764718800,10.960119140625,0.6875655650795115,0.11823272703851505,-0.1080937385169591
1684179919774760100,10.970160400390624,0.47436702252770463,0.12068080893175356,-0.2024452686143605
1684179919784801500,10.980201904296877,0.28395730256120383,0.011080741830140085,-0.33115792278513145
1684179919794842800,10.9902431640625,0.14655621338961464,-0.06208038329174859,-0.42213392249925874
1684179919804884100,11.000284423828123,0.07757971444125727,-0.11785030367383756,-0.4967920782056534
1684179919814925600,11.010325927734376,0.054841086274469784,-0.20628070829786943,-0.6123991012881501
1684179919824966800,11.0203671875,0.04948402946538617,-0.23177146914260638,-0.661632299466245
1684179919835008200,11.03040869140625,0.1097411214819546,-0.24929142004987542,-0.6898174284955091
1684179919845049600,11.040449951171874,0.17858213195009837,-0.20862674717495588,-0.6943876742729109
1684179919855090900,11.0504912109375,0.22646319866605458,-0.14583778361747954,-0.6565265656172392
1684179919865132200,11.06053271484375,0.24647025756406546,-0.15662384040306912,-0.5408723355446045
1684179919875173600,11.070573974609376,0.25265911209975317,-0.1357393264912937,-0.46228051198532527
1684179919885214900,11.080615234375,0.301241159404121,-0.13114452366828055,-0.37552356725409036
1684179919895256200,11.09065673828125,0.36937540766983623,-0.15721893308891557,-0.28555178628408406
1684179919905297600,11.100697998046876,0.4323359130896647,-0.14001750942522795,-0.24288582813059406
1684179919915338900,11.1107392578125,0.4967694284229431,-0.12041473376083527,-0.21915602690126162
1684179919925380300,11.12078076171875,0.5358598828058864,-0.08166217787151983,-0.21893978120115845
1684179919935421600,11.130822021484375,0.48711055500819717,-0.033402442899325736,-0.22552347195067723
1684179919945463000,11.14086328125,0.4797983468061552,-0.040042877313084736,-0.19085645674622378
1684179919955504300,11.15090478515625,0.41884005085437154,-0.1062269212419326,-0.1532793045237326
1684179919965545600,11.160946044921875,0.35701733831801125,-0.10999393462349935,-0.11035561552129448
1684179919975586700,11.170987060546874,0.2727602421467161,-0.1017904282022245,-0.07439994802337885
1684179919985628100,11.181028564453126,0.1568737327912941,-0.08166790014924999,-0.07889938346394154
1684179919995669400,11.19106982421875,0.055407553967981665,-0.07109832766921784,-0.04723811146329573
1684179920005710800,11.201111083984374,-0.021446526170897845,-0.0772533416847223,0.04421353323634481
1684179920015752100,11.211152587890624,-0.05179798603756514,-0.07623481762281085,0.1426398754622273
1684179920025793500,11.22119384765625,-0.0544282495232892,-0.048995017979083864,0.20963454251680944
1684179920035834800,11.231235107421876,-0.03834891323798237,0.006749153091652121,0.24984073622710068
1684179920045876100,11.241276611328123,0.0183394847760024,0.06707096104786067,0.26809048653515705
1684179920055917600,11.25131787109375,0.0745039283108358,0.13194084167573034,0.27875447276208143
1684179920065958800,11.261359130859375,0.09292760483089407,0.1704139710844138,0.33010530478133066
1684179920076000200,11.271400634765625,0.14421910059661064,0.14932346341476033,0.40671825408023904
1684179920086041600,11.28144189453125,0.13380259262950117,0.1804599762999262,0.4073131084962034
1684179920096082900,11.291483154296875,0.0669122934497778,0.20198726639393702,0.43519663825294386
1684179920106124200,11.301524658203125,0.02672031538028731,0.24459838874290152,0.4521057605179221
1684179920116165600,11.31156591796875,-0.03888586177883217,0.30089378365755043,0.4771263597905043
1684179920126206900,11.321607177734377,-0.11754405494937345,0.2623329162343156,0.5383360386870237
1684179920136248200,11.331648681640624,-0.1564723254393857,0.20580101014140686,0.6326069832668821
1684179920146289600,11.34168994140625,-0.17824375625290342,0.22823810571790162,0.7006325722461593
1684179920156330900,11.3517314453125,-0.17453348643753053,0.2624721526133591,0.7851476669578344
1684179920166372300,11.361772705078126,-0.14509788160025977,0.2729730605264883,0.8856618405097054
1684179920176413600,11.37181396484375,-0.1449232100815468,0.31881713866971406,0.9967336654638683
1684179920186455000,11.38185546875,-0.09275907280737343,0.3804750443302899,1.0969533919251722
1684179920196496300,11.391896728515626,-0.1326305865283663,0.46706485736541536,1.106725216016527
1684179920206537600,11.40193798828125,-0.17208790784638095,0.5829172135252373,1.1455967425016629
1684179920216579000,11.4119794921875,-0.2296787500737277,0.6309022905119159,1.1750202178926163
1684179920226620300,11.422020751953124,-0.27874740957625654,0.52245521541774,1.3120665551067812
1684179920236661400,11.432061767578125,-0.3712860048216775,0.366006851151669,1.4015886783318745
1684179920246702800,11.442103271484376,-0.46155342464269666,0.3225936890026347,1.4330224989496412
1684179920256744400,11.452144775390623,-0.5166374444583325,0.40671157836394123,1.4464995860230903
1684179920266785500,11.462185791015624,-0.5544542074878255,0.4984111784680728,1.3703472614085321
1684179920276826800,11.472227294921876,-0.5564612150687648,0.5009984970676922,1.2311451433958214
1684179920286868100,11.4822685546875,-0.49513381722875954,0.4793939590950078,1.1024959088000925
1684179920296909600,11.492309814453124,-0.43004390594246933,0.37985134109822594,0.9328956604355045
1684179920306950800,11.502351318359375,-0.3822762370274173,0.241540908948782,0.7383306026091303
1684179920316992200,11.512392578125,-0.3172673581976544,0.08166408544424598,0.5573961733204108
1684179920327033600,11.522433837890626,-0.2899106742522503,-0.012092590347756286,0.36713671675029885
1684179920337074900,11.532475341796877,-0.23367357263310043,-0.04528522490442217,0.2156033517363947
1684179920347116200,11.5425166015625,-0.1574696898554359,-0.016469955313628354,0.0951931476055139
1684179920357157600,11.552557861328124,-0.020109534381716972,0.0026302337241228017,0.03784275052374337
1684179920367198900,11.562599365234377,0.13968127978064557,0.07788848876929434,0.006572723266890625
1684179920377240200,11.572640625,0.2884675263093101,0.19402980819299112,-0.09568715097866186
1684179920387281600,11.582681884765623,0.41848021752522163,0.2231616974354667,-0.14962124843214342
1684179920397322900,11.592723388671876,0.5048503278294973,0.26108074196479164,-0.17632555964461188
1684179920407364300,11.6027646484375,0.5303160549212883,0.19701099392552074,-0.06339573864323421
1684179920417405600,11.612805908203123,0.5244451164145393,0.07719993608415027,0.19037103657795718
1684179920427447000,11.622847412109374,0.44430047265554823,-0.09289741510466427,0.46115088466179
1684179920437488300,11.632888671875,0.3659780621527665,-0.27743625655330406,0.8244111539354858
1684179920447529600,11.642929931640625,0.49285507198293577,0.0534334184296084,0.9133443830901599
1684179920457571000,11.652971435546876,0.6820122599567708,0.41095352170192373,0.8324863910284049
1684179920467612300,11.6630126953125,0.8107266425835128,0.3466892241341162,0.8729479312165231
1684179920477653600,11.67305419921875,0.8736855982629769,0.07842254643551819,0.8016662598528999
1684179920487695000,11.683095458984376,0.8760691880332327,-0.31080913543296024,0.6317028999502391
1684179920497736100,11.693136474609377,0.8544692397193744,-0.6445550918189469,0.40829610825994234
1684179920507777500,11.703177734375,0.7729184031960448,-0.7698850631845596,0.06454229349036246
1684179920517818800,11.71321923828125,0.5964673163094092,-0.9020385742580964,-0.3137960434465517
1684179920527860100,11.723260498046876,0.3678052425639455,-1.121944427578484,-0.7220518587240352
1684179920537901600,11.733302001953126,0.14956784251237018,-1.3806028367275731,-1.1167168617724403
1684179920547942800,11.74334326171875,-0.07471352829127532,-1.6911315917700722,-1.4803951977309855
1684179920557984200,11.753384521484374,-0.2943758070506641,-1.909351348925611,-1.7801731824732667
1684179920568025600,11.763426025390626,-0.4305476547330273,-2.03047466282455,-2.0637216568487444
1684179920578066900,11.77346728515625,-0.5252823828965661,-1.9235591889142674,-2.1984608174442335
1684179920588108200,11.783508544921874,-0.5838948486893859,-1.5799503326802418,-2.3914062978172272
1684179920598149600,11.793550048828124,-0.6589553355631916,-1.0795173644182605,-2.548161983562756
1684179920608190900,11.80359130859375,-0.7936562895118359,-0.49780273439460004,-2.430744171196924
1684179920618232200,11.813632568359376,-0.9193084239390307,0.09964084619185283,-2.128796100512055
1684179920628273600,11.823674072265623,-0.9272875785630719,0.6147956848128749,-1.6917001009707013
1684179920638314900,11.83371533203125,-0.9246854185505612,0.926198959256997,-1.1322277784257746
1684179920648356300,11.843756591796875,-0.8270540237372593,1.117231368965762,-0.6394476889088504
1684179920658397600,11.853798095703125,-0.6287381647797237,1.1702241898086008,-0.16904902455063744
1684179920668439000,11.86383935546875,-0.4042406379607432,1.129876136723531,0.1403515338187053
1684179920678480300,11.873880615234375,-0.2782903314277894,1.1516036987191078,0.15844058975900452
1684179920688521600,11.883922119140625,-0.26204788679241625,0.879957199056014,0.14133501038263513
1684179920698563000,11.89396337890625,-0.2998056411153349,0.44040393821262214,0.0316882133347318
1684179920708604300,11.904004638671877,-0.44687533380883804,0.07041645047725939,-0.1795818806647113
1684179920718645600,11.914046142578124,-0.5298071503558733,-0.2438440324328921,-0.5544648170356049
1684179920728687000,11.92408740234375,-0.58678877353768,-0.4948062898105993,-0.8692712784426678
1684179920738728400,11.934128662109377,-0.6640964746758716,-0.6704416274175428,-1.0189478397378453
1684179920748769600,11.944170166015626,-0.7023941277864026,-0.7854318618260538,-1.0594938992650622
1684179920758810800,11.954211181640623,-0.7167447209524085,-0.8353681563022044,-1.0679783820208486
1684179920768852100,11.96425244140625,-0.5979777573679291,-0.7418251037355131,-1.0042890310219648
1684179920778893600,11.9742939453125,-0.38039129969504265,-0.636906623979523,-0.7979583740387826
1684179920788934800,11.984335205078125,-0.2896822393334572,-0.4399309159648431,-0.4482204913649102
1684179920798976200,11.99437646484375,-0.3531954288005953,-0.21367835993722833,0.060057163277349515
1684179920809017600,12.00441796875,-0.44323253629078907,-0.03533363336942588,0.6241209506924857
1684179920819058900,12.014459228515625,-0.6954936981713096,0.10144710541788136,1.1049880981082703
1684179920829100200,12.02450048828125,-1.0750130415425119,0.12187194818619054,1.4578227997206583
1684179920839141600,12.0345419921875,-1.3668328523507955,0.07818031321703252,1.5891118051056654
1684179920849182900,12.044583251953124,-1.5660443306683274,0.0038671493893266407,1.5004849432497238
1684179920859224200,12.054624755859376,-1.6704425812616832,-0.16079902659508744,1.3656561374817153
1684179920869265600,12.064666015625,-1.643330931656918,-0.38224029540652926,1.1170032024155716
1684179920879306900,12.074707275390624,-1.4714221953195792,-0.6458435058060381,0.8002383708308602
1684179920889348300,12.084748779296875,-1.2242019176500984,-0.9461240768429136,0.3426465987823278
1684179920899389600,12.0947900390625,-0.978269159831108,-1.2103633880640723,-0.11316061025637801
1684179920909431000,12.104831298828126,-0.6274813413109644,-1.3587570189186617,-0.43594765665875096
1684179920919472300,12.114872802734377,-0.13516712200054068,-1.3689556120522495,-0.7736787794484649
1684179920929513600,12.1249140625,0.4341506362089049,-1.1683444978347108,-1.0690441131666706
1684179920939555000,12.134955322265624,0.9227216243511943,-0.9330606460593922,-1.2512226104577864
1684179920949596300,12.144996826171877,1.3100996017792108,-0.6556253433202021,-1.3602185249657335
1684179920959637600,12.1550380859375,1.5925817490608547,-0.3980045319440772,-1.3921804427652342
1684179920969679000,12.165079345703123,1.7743471862016758,-0.33779907223699795,-1.2688918113001537
1684179920979720400,12.175120849609376,1.7960852385688764,-0.3949899672721064,-1.0133886337728366
1684179920989761500,12.185161865234376,1.6562957763911983,-0.4622726440166814,-0.9747810363821012
1684179920999803100,12.195203369140623,1.702679991627753,-0.3906774520556374,-0.904350996022115
1684179921009844400,12.205244873046874,2.0562019349246023,-0.22257995594480784,-0.7050011158183328
1684179921019885600,12.215285888671875,2.304528713256999,-0.06299114221612263,-0.4033808709017943
1684179921029926800,12.2253271484375,2.2420427798850477,0.08556175250022859,-0.14389276501696338
1684179921039968200,12.23536865234375,2.049040317508932,0.17511367786409995,0.03490543361848426
1684179921050009600,12.245409912109375,1.7365412713070114,0.23638343805805304,0.1494407652658474
1684179921060050900,12.255451171875,1.50824093822374,0.32874774940816376,0.24942016602710948
1684179921070092200,12.26549267578125,1.4086594583239773,0.3755407333535582,0.30802631385445156
1684179921080133600,12.275533935546877,1.2612395288061728,0.44085407257364817,0.38922643673160495
1684179921090174900,12.2855751953125,1.0452364682593067,0.43808555605626565,0.38838768001935087
1684179921100216200,12.29561669921875,0.8299820422473363,0.3838949203021681,0.2646250723682681
1684179921110257600,12.305657958984376,0.5829503535260788,0.31941318510426325,0.09563827503552019
1684179921120298900,12.31569921875,0.4825876950850175,0.18857669821680098,-0.21486568461418204
1684179921130340300,12.32574072265625,0.47232353701143065,0.02378654472460579,-0.5351715087875473
1684179921140381600,12.335781982421874,0.4574174880423657,-0.15237712864676983,-0.9239935875911159
1684179921150423000,12.3458232421875,0.4809771777063825,-0.25767230981627115,-1.3662097452580302
1684179921160464300,12.35586474609375,0.5318675040056342,-0.3320569992075826,-1.75702595692059
1684179921170505600,12.365906005859374,0.6009377241511822,-0.3803234100377122,-2.0268800258126967
1684179921180547000,12.375947509765624,0.6515951157195365,-0.3600873946167001,-2.2525913713575982
1684179921190588300,12.38598876953125,0.6709524394059698,-0.3609457015427128,-2.2981884478574015
1684179921200629600,12.396030029296876,0.6593225002218378,-0.3361463546507276,-2.261466980053165
1684179921210671000,12.406071533203123,0.6050140857945631,-0.27153015145226567,-2.2096683979027882
1684179921220712400,12.41611279296875,0.5065333843063605,-0.11829280850569414,-2.183502197345111
1684179921230753600,12.426154052734375,0.3314561844173334,0.059246063240384846,-1.9836091995520198
1684179921240794800,12.4361953125,0.16436195379058258,0.13609027876376245,-1.7020909786541047
1684179921250836100,12.446236572265626,-0.00889992720572593,0.23832511903891548,-1.5194370747930064
1684179921260877700,12.456278076171875,-0.14677762997352364,0.3205146790110429,-1.3501229285970182
1684179921270918800,12.4663193359375,-0.274857282562854,0.38289403925898696,-1.1086015702450729
1684179921280960200,12.476360595703126,-0.3577857017230323,0.41593694676479787,-0.8120079040515379
1684179921291001600,12.48640185546875,-0.3875162602338373,0.37396144870868026,-0.4773507118103572
1684179921301042900,12.496443359375,-0.4128861428829333,0.25707817066403593,-0.12559604644238215
1684179921311084200,12.506484619140624,-0.3723418712970954,0.16621017459514603,0.18764638898019034
1684179921321125600,12.51652587890625,-0.25064921383372013,0.01535797136850391,0.5908646583081336
