time,seconds_elapsed,z,y,x
1684000189919289000,0.037689453125,-7.045102266582224e-12,-4.699077865617479e-11,9.763924520687385e-11
1684000189929330900,0.047731201171875,0.5094442367493616,0.62083196638056,-0.11606025706947994
1684000189939373000,0.0577734375,-0.16366004934478887,-0.7102601528961214,-0.1452038288622844
1684000189949414800,0.067815185546875,0.04086112973773557,-1.346437454152461,0.3100218772409888
1684000189959456600,0.077857177734375,0.7382602692316547,-0.039299726450904585,-0.6077950000918689
1684000189969498600,0.08789892578125,1.0601511002001285,1.0960001945680766,-0.7102987765451199
1684000189979540400,0.09794091796875,0.05396556857084885,-1.0949501992008395,-0.33517217641666325
1684000189989582300,0.107982666015625,-0.3915386200658972,-0.66272783265378,-0.6941118241770307
1684000189999624100,0.1180244140625,-0.16030025484496532,-1.1883156299698867,-0.4644594192860975
1684000190009666000,0.12806640625,0.45724773419284725,0.3520941735092812,-0.34160661678324483
1684000190019708100,0.1381083984375,0.940599918403829,1.6620994807476739,-0.549131393517676
1684000190029749900,0.148150390625,0.9296178817981259,-0.7119934559673539,0.07354736311893566
1684000190039791800,0.158192138671875,0.8769598007536461,-0.6932818889756647,-0.1099076270790484
1684000190049833600,0.168234130859375,0.497808933254703,0.44062471375008794,-1.353125095307409
1684000190059875600,0.17827587890625,0.8702750204028804,0.6911510229442918,-1.9303340912689275
1684000190069917400,0.18831787109375,1.1161127091595842,0.24495303627781254,-2.1035714148639757
1684000190079959200,0.198359619140625,0.507065772861117,-0.5103676319898037,-1.893931865631911
1684000190090001300,0.208401611328125,0.4908876420455161,-0.27811670308104863,-1.109851837344722
1684000190100043200,0.218443603515625,-10.603860855105134,-0.4434092046125926,-0.11123752593149323
1684000190110085000,0.2284853515625,-10.803972244310675,1.1787185668152818,-2.1521434783544757
1684000190120126900,0.23852734375,-2.970279455160001,1.873731970713004,3.036743163947568
1684000190130168800,0.248569091796875,1.0183038712651915,1.0276422499813345,4.534175872812832
1684000190140210600,0.258611083984375,0.37427639958960807,-0.3172895908168637,3.135214805476722
1684000190150252600,0.268653076171875,-0.20642828933111132,0.25894713391487795,1.7414941786727869
1684000190160294600,0.278695068359375,-0.47422266004687447,0.773201704033573,0.10204219825973772
1684000190170336400,0.28873681640625,0.7020757198998424,0.29816365247742227,-0.4367523192437088
1684000190180378300,0.29877880859375,1.5791809558892276,-0.9734520912577281,-0.11912155151789425
1684000190190420100,0.308820556640625,0.815716266659008,-0.9335381983897646,-0.48539829253626077
1684000190200462000,0.3188623046875,0.38926887516695224,-1.7459261416953882,0.47795486436769025
1684000190210503900,0.328904296875,0.33151817316392845,-2.1923410892867805,-1.1083035470102012
1684000190220545600,0.338946044921875,0.16051983826939267,-1.4156610965424758,-0.919804573046231
1684000190230587800,0.34898828125,0.670319557303242,-1.4428243636783198,0.44506263747944597
1684000190240629600,0.359030029296875,-0.3845410347011653,-1.33403992636374,0.4455232619899541
1684000190250671600,0.369072021484375,-0.6996388435526084,-0.9799621104932839,0.6021242142251375
1684000190260713400,0.37911376953125,-1.434531569499487,-0.7718753813915691,0.3922195432663852
1684000190270755200,0.38915576171875,-1.2775988579629727,-0.5079836845380771,0.31235218045532986
1684000190280797100,0.399197509765625,-0.38684368143462683,-0.7572190761092725,0.676322936921984
1684000190290839000,0.4092392578125,0.18422913545533964,-0.7916917799584754,0.20270347592667692
1684000190300880800,0.41928125,0.8658518790764803,-0.8329770564101703,-0.487706184377228
1684000190310922900,0.4293232421875,0.6063115596880666,-1.6390829086157268,-1.697974205097438
1684000190320964800,0.439365234375,4.8892660141534545,-0.9580087662728543,-1.9930663109648152
1684000190331006600,0.449406982421875,6.729065895074661,-1.541116714577735,-0.8613548277196966
1684000190341048600,0.459448974609375,3.7855718134331435,-1.9459314346733103,-1.0889797210426624
1684000190351090400,0.46949072265625,5.443065166449641,0.1332573892109752,-1.4402527808119847
1684000190361132200,0.47953271484375,1.1860307455177743,-0.8825767039876186,0.1024866104772055
1684000190371174100,0.489574462890625,-2.145047664691749,-0.7435615062776381,-0.3130254745770338
1684000190381216200,0.499616455078125,-3.725150346706158,1.669683575662597,-0.8156652450671406
1684000190391258000,0.509658447265625,-6.010021686726532,3.315676212232563,2.0279979704575215
1684000190401299900,0.5197001953125,-7.482149124128181,4.061632156431309,4.089530944748634
1684000190411341700,0.5297421875,-5.83719062802875,4.146911621150012,4.249116897634849
1684000190421383600,0.539783935546875,-1.8925541639755235,3.1633989810297902,2.6257743835277307
1684000190431425500,0.549825927734375,0.65121436121098,1.770285487209944,1.3733062743779365
1684000190441467600,0.559867919921875,1.9410154820046186,1.2397421597224738,0.18203258501286781
1684000190451509400,0.569909912109375,2.471582889602894,1.4748129844587479,-0.7195243834263506
1684000190461551300,0.57995166015625,1.9505057333574787,1.6151766776119334,-0.8959016798710457
1684000190471593100,0.58999365234375,1.1529276372039474,1.704418659249639,-1.2194900512321298
1684000190481635000,0.600035400390625,0.09534776203859205,2.238564967987595,-1.222702026432277
1684000190491676800,0.6100771484375,-1.192599773389521,1.5976092814525187,-1.2922267912915255
1684000190501718600,0.620119140625,-1.4427325724896443,1.2946723698782987,-1.7147316933296834
1684000190511760600,0.630160888671875,-1.1178369520713056,0.9842563867989861,-1.736775875191448
1684000190521802600,0.640203125,-0.5452586413575815,0.34400749195313846,-1.5428757666267836
1684000190531844600,0.650244873046875,0.5124553442073027,-0.5288658141046434,-1.0844326020286055
1684000190541886400,0.660286865234375,1.9567672015137116,-1.394703388223781,-0.5904159547254916
1684000190551928200,0.67032861328125,2.520361662033448,-1.6694707870372172,-0.5817518233169457
1684000190561970100,0.68037060546875,2.213351964908104,-1.8260586261807696,-0.8671913147871738
1684000190572012000,0.690412353515625,1.6250797510552164,-2.1570520401560307,-1.3172707558702095
1684000190582053800,0.7004541015625,1.3536357879433827,-1.5367925167335088,-1.0212936402016692
1684000190592095600,0.71049609375,0.10034983616576247,-1.5711507798075244,-1.2336473464762527
1684000190602137800,0.7205380859375,-0.09251320359490918,-1.5981221199883995,-0.889381408805387
1684000190612179600,0.730580078125,-0.25541499259561734,-0.8926339148713003,-0.39491748815624605
1684000190622221600,0.740621826171875,-0.8020390869702433,-0.8466014862485653,-0.8467350006473717
1684000190632263300,0.750663818359375,-0.7202944755919792,-0.12172508235865452,-0.32293796538850694
1684000190642305200,0.76070556640625,-0.9809114338486379,0.42500662795491717,-0.2929677962783924
1684000190652347100,0.77074755859375,-0.756934940908401,0.3747763632319577,-0.31410980220302165
1684000190662388900,0.780789306640625,0.005903568307032441,0.24391102806695342,-0.14061355604623976
1684000190672430800,0.7908310546875,0.544149100656014,0.05993747716355251,-0.43641948711777095
1684000190682472900,0.800873291015625,1.0876187085176339,0.55335974694986,-1.1701927185139238
1684000190692514700,0.8109150390625,0.9180203674679248,0.8035850524684622,-0.07905769355791088
1684000190702556600,0.82095703125,0.6488341094015743,0.8770337104323097,0.7592906952173119
1684000190712598400,0.830998779296875,0.41103112703549866,0.5640988349347773,1.676391601652642
1684000190722640300,0.841040771484375,0.1368999780671071,0.435166835956817,1.6149597169646235
1684000190732682200,0.85108251953125,-0.4351153372994574,0.44006919856956994,1.6407861709966922
1684000190742724000,0.86112451171875,-0.8033434153607673,0.42022705087263384,1.7702541351099923
1684000190752766100,0.87116650390625,-0.7201761007970082,0.5385651588863434,2.040327072240879
1684000190762808000,0.88120849609375,-0.47611853465598153,0.6387000084753828,2.480908394009221
1684000190772849800,0.891250244140625,0.06130427132650861,0.9767107963754711,1.8301191329768676
1684000190782891600,0.9012919921875,0.09266501661190377,0.5964131353752582,0.6128520966800813
1684000190792933600,0.911333984375,-0.09269577274939779,-0.7243480681456715,-0.023812294164980152
1684000190802975400,0.921375732421875,0.7070778013061634,-1.0698528289388454,-0.37427473061840943
1684000190813017300,0.931417724609375,0.6692640186866041,-0.18638086314491806,-2.473654270111259
1684000190823059400,0.941459716796875,-0.2604241967715198,-0.7363038063260808,-1.908780097929019
1684000190833101200,0.951501708984375,-0.7053763866906214,-1.6970639228749786,-0.33167505256930746
1684000190843143100,0.96154345703125,-0.501613318860935,-1.6554279327370942,1.002075195255055
1684000190853184900,0.97158544921875,0.24092096095962248,-1.456788063198536,1.8871083259439692
1684000190863226800,0.981627197265625,0.6886414289773611,-0.7375922202572238,1.7088456154399532
1684000190873268600,0.9916689453125,0.6084242463354291,-0.3236842155749425,1.469098568001919
1684000190883310600,1.0017109375,0.7372978925960723,-0.3276095390365663,0.2475109101562122
1684000190893352600,1.0117529296875,0.013544678636276784,-1.0169177054991836,0.9755392074830016
1684000190903394600,1.021794921875,-0.3511360584847215,-0.8212132454459711,1.6759438515447709
1684000190913436300,1.031836669921875,-0.469769030662806,-0.06909847267961293,1.5088267325964169
1684000190923478200,1.041878662109375,-0.37012425065324517,0.08540534972022802,1.9329791069299334
1684000190933520000,1.05192041015625,-0.25365036734381813,0.029467582571119998,1.5309066771734023
1684000190943561900,1.06196240234375,-0.07779353861963674,-0.10788297651963856,1.3253903387809907
1684000190953603800,1.072004150390625,1.076816558849144,-1.1162896155698985,1.2491531372129376
1684000190963645600,1.0820458984375,1.29682648188933,0.5551061630675406,-0.2887477874070674
1684000190973687600,1.092088134765625,0.44371357560474545,0.09567117691802814,-0.2836861611061632
1684000190983729600,1.1021298828125,-0.2352814822662175,-0.110789775805309,0.06861448285162669
1684000190993771400,1.112171875,-0.12368321419165623,0.14227771741698095,0.8007454873094755
1684000191003813300,1.122213623046875,0.20935130115364353,0.08832550038455828,0.8390755654388183
1684000191013855200,1.132255615234375,0.33090695736161735,-0.0905470848569751,0.7528958321615546
1684000191023897000,1.14229736328125,0.06856164337219976,-0.126227378711975,1.3509378432696186
1684000191033938900,1.15233935546875,-0.0011727512093365267,0.10308408737408763,1.3073287010629944
1684000191043980600,1.162381103515625,0.19166697575273822,-0.05315732953227362,1.1349959373363128
1684000191054022800,1.17242333984375,-0.038469970370361914,-8.106198876460732e-06,0.9521803855747824
1684000191064064600,1.182465087890625,-0.3639931679196086,0.1487903593467199,0.6898264885269083
1684000191074106600,1.1925068359375,-0.2870048285126107,-0.2888145448461538,0.5192236900208732
1684000191084148400,1.202548828125,1.541738748581551,-1.0591387748079375,1.0143795012389811
1684000191094190300,1.212590576171875,2.296801567031291,-0.09132909784159715,1.1266012190288106
1684000191104232100,1.222632568359375,1.375814914649633,0.6669774056196451,0.9429416655387303
1684000191114274000,1.23267431640625,0.32485422499935906,0.8260064123976802,0.6263108253544264
1684000191124315800,1.24271630859375,-0.05596268182994336,0.5200428961215386,0.33344173442297526
1684000191134357900,1.25275830078125,0.1081081032793348,1.2315869331114888,-0.32758951181873697
1684000191144399800,1.26280029296875,0.3113906979929346,1.1837654113069216,-0.9451270101874518
1684000191154441600,1.272842041015625,-0.1971485020107003,0.8745265006238971,-1.0571088790785086
1684000191164483600,1.2828837890625,-0.7575674651278924,0.05318641653336504,-0.6367235184362217
1684000191174525400,1.29292578125,-0.7375017403373306,-0.20435142518453903,0.12149047852796259
1684000191184567200,1.302967529296875,-0.6320713162913049,0.1567215920273052,0.01758146270008862
1684000191194609100,1.313009521484375,0.05491894469870227,0.5645914077488857,-0.9191141128938499
1684000191204650900,1.32305126953125,0.8330510258451541,0.9554662704475759,-1.6514692306464784
1684000191214693000,1.333093505859375,0.9896461366306755,0.9936037062513718,-1.6372885703890359
1684000191224734900,1.34313525390625,0.5039296148956506,0.4274878502867525,-0.9400782584255579
1684000191234776800,1.35317724609375,0.084170579876396,0.15688276301149662,-0.735642433140774
1684000191244818600,1.363218994140625,1.2642202376599005,-0.6421799659459178,-0.12722969056642347
1684000191254860500,1.3732607421875,-0.03580737100641499,0.9185833929846671,0.2538399697091802
1684000191264902300,1.383302734375,-1.0849931239908124,1.664651393882122,0.548308372517514
1684000191274944200,1.393344482421875,-1.874145865403657,-0.36531162254122473,0.15915489194204807
1684000191284986000,1.403386474609375,-2.4587297440009723,-2.0291337965785603,0.2602295874985543
1684000191295028100,1.413428466796875,-2.6781764029722166,-3.29749822609236,0.752294540504247
1684000191305070000,1.423470458984375,-1.9315023423180167,-3.34899950029938,0.8522772789313021
1684000191315111900,1.43351220703125,-0.33882677548758117,-1.7152442931930072,0.14975070960967846
1684000191325153600,1.44355419921875,0.43610203266492237,0.31501150134258926,-0.7067060468913708
1684000191335195600,1.453595947265625,0.4347293376999617,1.1010956765525364,-0.5093684196565221
1684000191345237400,1.463637939453125,0.021695017795565767,1.6487064360400678,-0.3146491050729855
1684000191355279300,1.4736796875,-0.3129721879361843,1.278621673642268,0.12061786655418129
1684000191365321100,1.483721435546875,-0.5360429286928998,0.5272741318369332,0.2238430975867332
1684000191375363200,1.493763671875,-0.3029843568614689,-0.2612524032361783,0.1671748160196334
1684000191385405100,1.503805419921875,-0.3060821295647172,-0.7650723458231815,0.23912811271236667
1684000191395447000,1.513847412109375,-0.08326828482003021,-1.1158919335735964,0.4838275910244055
1684000191405488800,1.52388916015625,-0.23746013646305467,-1.103472232845245,0.4994912148736402
1684000191415530600,1.53393115234375,-0.5626456738761397,-0.8884263037905029,0.2964882849243357
1684000191425572600,1.543972900390625,-0.8858635425132709,-0.595982551660566,0.1045365333902754
1684000191435614400,1.554014892578125,-1.210808396243705,-0.020354747798292976,-0.33385801311872226
1684000191445656200,1.564056640625,-1.5564193725422673,-0.029204368661387457,-0.3035850525561727
1684000191455698400,1.5740986328125,-1.6769356728073017,-0.8373570442309073,0.3394174575834202
1684000191465740200,1.584140625,-1.5826539991815338,-1.3478374480398376,0.5617432594769335
1684000191475782100,1.594182373046875,-1.1758778095843712,-1.8535933496001595,0.3903622627463077
1684000191485823900,1.604224365234375,-0.5803068877255175,-1.6883945465374637,-0.10940933232003196
1684000191495865800,1.61426611328125,0.29224556697395904,-1.631796360004954,-0.6404595374341655
1684000191505907600,1.62430810546875,1.311087131414151,-1.2907223701329797,-0.8188123703583101
1684000191515949600,1.634349853515625,2.3940520285538893,0.08828783019677709,-0.6747927665445631
1684000191525991300,1.644391845703125,1.7462224958931485,1.4689664841374663,-0.13313579556839877
1684000191536033500,1.654433837890625,1.3859772682066083,2.761299610126457,-0.6895575522509517
1684000191546075300,1.664475830078125,0.25972378248373945,1.253803253305346,-0.8842024803680775
1684000191556117200,1.674517578125,-0.09417051080650013,-0.49270439155473195,-0.6980328558914178
1684000191566159000,1.684559326171875,0.049737691874620064,-0.6075067520027132,-0.8792386054142954
1684000191576200900,1.694601318359375,-0.039106011393949494,-0.6168217659938036,-1.5361895561665069
1684000191586242700,1.70464306640625,-0.07328736782247686,-0.5026483535994987,-1.6017498970101287
1684000191596284600,1.71468505859375,-0.12938690186452026,-0.3595719338584928,-1.2952327728177861
1684000191606326400,1.724726806640625,-0.2607677577251542,-0.23491382603497868,-1.1990113257334556
1684000191616368300,1.734768798828125,-0.34820342063341575,-0.1744742393685904,-1.0475792884265198
1684000191626410400,1.744810791015625,-0.25013834229731324,-0.3235316276603245,-1.0427780151525952
1684000191636452300,1.754852783203125,-0.2571597098606382,-0.621523857201115,-1.0569572450423925
1684000191646494100,1.76489453125,0.3395347595207878,-1.3670992850764194,-1.262588500975804
1684000191656536000,1.774936279296875,0.5297579170148328,-1.3029084205930033,-1.21409368527323
1684000191666577800,1.784978271484375,0.28923451909793657,-1.0938587188785163,-1.1140079498177462
1684000191676619600,1.79502001953125,-0.024495124810621202,-0.8283605575595769,-0.9856777191977593
1684000191686661600,1.80506201171875,-0.2497292758065806,0.031232357054657815,-0.8248939515372117
1684000191696703400,1.815103759765625,-0.6284477711084301,0.5849323273815512,-0.3642654420446289
1684000191706745300,1.825145751953125,-0.9817051888433391,1.2605247498412508,-0.2849383353308522
1684000191716787400,1.835187744140625,-1.2364218234894258,1.8019089700500373,-0.2961292266511812
1684000191726829200,1.845229736328125,-1.1543898583314929,2.1173110007069154,0.1530385019277147
1684000191736871100,1.855271484375,-0.3919746876900052,1.816913604772763,-0.49046564098732526
1684000191746912900,1.865313232421875,0.08239495757898885,1.2919068335678736,-0.7852592468514124
1684000191756954800,1.875355224609375,0.022591114097499726,0.12935304647258303,-1.4392890930002138
1684000191766996600,1.88539697265625,-0.2890808582465934,-0.884171962647534,-1.9457812310568685
1684000191777038600,1.89543896484375,-0.7421166896714024,-1.480824470603503,-1.9777574539880858
1684000191787080400,1.905480712890625,-1.0568809510461799,-1.6631455422278445,-1.5708451271149777
1684000191797122200,1.915522705078125,-1.0517239570072423,-1.4018583297755407,-0.9901642798337976
1684000191807164300,1.925564697265625,-0.8206775187905261,-0.819559574091942,-0.37999677648142965
1684000191817206200,1.935606689453125,-0.363080740108937,0.39754247680297256,0.0036821365571263974
1684000191827248000,1.9456484375,-0.19280409823951292,0.9726591110951919,0.17402791969532586
1684000191837289900,1.955690185546875,-0.16087698929111918,1.9218406677958613,0.41993808749886263
1684000191847331800,1.965732177734375,-0.2688672542496191,1.349223613769432,0.4911212921497758
1684000191857373600,1.97577392578125,-0.185172319350926,0.8861403465971427,0.37584018702337374
1684000191867415600,1.98581591796875,-0.24897003159100148,0.7212233543816239,-0.29728460320515954
1684000191877457300,1.995857666015625,-0.29068017013827324,0.26853752152038457,-0.47949934007532014
1684000191887499400,2.00589990234375,-0.3309428691161977,-0.058404922563040605,-0.42406797422356446
1684000191897541300,2.015941650390625,-0.3066551686179138,-0.27145099645248955,-0.11107635509206602
1684000191907583200,2.025983642578125,-0.16221141814819534,-0.21228933349623025,0.11835861204416775
1684000191917625000,2.036025390625,-0.12640213966219707,-0.1704006195398768,0.5480456351557488
1684000191927666900,2.0460673828125,-0.2756538391476348,0.4256172180325468,0.747188091168581
1684000191937708600,2.056109130859375,-0.5185291767393787,1.188125133640224,0.7950630188205566
1684000191947750600,2.06615087890625,-0.9332108498598441,1.7935481071220065,0.025420188822568288
1684000191957792400,2.07619287109375,-1.0083625317190392,0.9349703787742947,-0.2937846184893339
1684000191967834600,2.08623486328125,-0.9951338767908494,0.5151677131788914,-0.5584244727937252
1684000191977876400,2.09627685546875,-0.8899621962514364,0.18286514273877194,-0.4374027252494891
1684000191987918300,2.106318603515625,-0.6729531287661725,0.1933341026721116,-0.0015735626359961595
1684000191997960100,2.116360595703125,-0.6442229747948993,0.2244596480993837,0.44997358333953685
1684000192008002000,2.12640234375,-0.653049230620533,0.3558020593364877,0.7505626676620382
1684000192018043800,2.1364443359375,-0.7121551035240474,0.554586887281337,0.7155232428901089
1684000192028085600,2.146486083984375,-0.9945073128551151,0.48601770408673156,0.2676753996733022
1684000192038127600,2.15652783203125,-1.197718143326529,0.14141082763425192,-0.10502433769273634
1684000192048169600,2.166570068359375,-1.1906208992281748,0.298836708099785,-0.36530494686855924
1684000192058211600,2.17661181640625,-1.2114050388428035,0.16988515855966954,-0.6177616120786137
1684000192068253400,2.18665380859375,-1.1584105492201073,0.03139877332758718,-0.6276206971367317
1684000192078295200,2.196695556640625,-1.866442203529403,0.28806686414628,-0.35846090298867817
1684000192088337100,2.206737548828125,-1.130742549933453,0.5830774306579937,0.4519691468162945
1684000192098378900,2.216779296875,-0.6202385424806344,-0.9089484215831484,0.638874053938431
1684000192108420800,2.2268212890625,-0.5586278440084399,-1.2765350341586097,0.43635940547817503
1684000192118462600,2.236863037109375,-0.5341496468828514,-1.104273319318221,0.12389993661282897
1684000192128504600,2.24690478515625,-0.8488409519669612,-1.3339529037972389,0.0794219970609347
1684000192138546600,2.256947021484375,-1.2324457167920426,-1.3782553672262954,0.3037624358209611
1684000192148588500,2.26698876953125,-1.5666794777031186,-1.6983160973104892,0.8817248344479386
1684000192158630300,2.27703076171875,-1.3163368700356275,-2.026922225985554,1.3392152785016367
1684000192168672200,2.287072509765625,0.08966851232993948,-2.0888385773100873,1.441512107876542
1684000192178714000,2.297114501953125,1.5984395740585504,-3.08915615082316,0.556060790900843
1684000192188755900,2.30715625,2.9682149887055664,-2.335203170700126,0.5178022383694196
1684000192198797700,2.3171982421875,3.478096008285315,-2.0014705658412177,0.7473015786035009
1684000192208839600,2.327239990234375,3.1195921897368115,-1.8798689841798266,0.8143258095930188
1684000192218881500,2.33728173828125,2.1859254837183117,-1.2283163071440377,0.3640384675302574
1684000192228923300,2.34732373046875,0.9657461047302965,-0.9397716523299033,-0.8641338349553889
1684000192238965400,2.35736572265625,-0.007462143965060017,-0.28044509883538465,-2.2016437053233067
1684000192249007300,2.36740771484375,-0.5437306165685154,-0.017239570621763168,-2.7071475982922255
1684000192259049100,2.377449462890625,-0.803744315992154,0.12629127510734894,-2.7555339337042324
1684000192269091000,2.387491455078125,-0.7143794297652859,0.22890138625795164,-2.4349923133811293
1684000192279132800,2.397533203125,-0.30823409556749354,0.2215609549778127,-1.826902389531864
1684000192289174600,2.4075751953125,0.2806770800689177,0.2165985107545784,-1.0870447160048877
1684000192299216600,2.417616943359375,0.9879845380521977,0.2538089751659876,-0.3484535218677038
1684000192309258400,2.427658935546875,1.6426140069380786,0.3067874907166764,-0.08529996874643879
1684000192319300600,2.437700927734375,2.0269618034367594,0.16840457903723022,-0.16290664677585234
1684000192329342400,2.44774267578125,2.2887330055685275,0.019316673198752656,-0.36960506428806794
1684000192339384200,2.45778466796875,2.288630723837167,-0.024440765319118662,-0.3887128828999217
1684000192349426100,2.467826416015625,1.9525649547438688,-0.08168315878248068,-0.4532303810237081
1684000192359468000,2.477868408203125,1.2857323884968652,-0.2887811659950428,-0.31960344316916284
1684000192369509800,2.48791015625,0.5150160191863128,-0.4460296630395525,-0.17737293235184462
1684000192379551600,2.4979521484375,-0.358803510577949,-0.48508548739084983,-0.034630775429042325
1684000192389593600,2.507993896484375,-0.9981585143492381,-0.5953655242196904,0.18130207067180118
1684000192399635400,2.518035888671875,-1.0470223428105248,-0.7578182220880402,0.3119020461772694
1684000192409677200,2.52807763671875,-0.3463958500913157,-0.7551937102829372,0.6641983984992139
1684000192419719300,2.53811962890625,0.5938068032421898,-0.7123212813826516,0.688528537640518
1684000192429761200,2.54816162109375,1.3720022439387094,-1.1129665373904447,0.27138519279841533
1684000192439803100,2.558203369140625,2.014590978692391,-0.6619729997561264,-0.20710849770030887
1684000192449844900,2.568245361328125,2.205260753668459,-0.3699731825831653,-0.8031373024112309
1684000192459886800,2.578287109375,2.004381895008258,-0.4963645933958688,-1.2280116081192542
1684000192469928600,2.5883291015625,1.7019371986727831,-0.6522054671819326,-1.2490425110166357
1684000192479970600,2.598370849609375,1.4938695429574913,-0.5564260483443,-0.849522590586684
1684000192490012300,2.608412841796875,1.279928922540076,-0.4618940353455659,-0.4891924858258154
1684000192500054400,2.618454833984375,0.9809305667309756,-0.504267692633207,-0.1187834740346505
1684000192510096300,2.62849658203125,0.8673671484335205,-0.2908048630085883,0.21891784668949266
1684000192520138200,2.63853857421875,0.8042951823212179,-0.13590049743165838,0.16207790373294037
1684000192530180000,2.648580322265625,0.900858759698234,0.0498266221130459,-0.057414054807540124
1684000192540221900,2.658622314453125,0.9719036220679867,-0.08664226526606479,-0.13063383114092847
1684000192550263600,2.6686640625,1.1045130491285942,0.07578659061935011,-0.418390273972163
1684000192560305600,2.6787060546875,1.3514184952273416,0.04334259032705896,-0.139778613914292
1684000192570347400,2.688747802734375,1.763684987928205,-0.005432129010061566,-0.14451789856865008
1684000192580389300,2.698789794921875,1.7615623474853035,-0.0739240646548376,-0.17517614354934838
1684000192590431400,2.708831787109375,1.3248989580990558,-0.24163722997513454,0.35355997092534835
1684000192600473300,2.718873779296875,0.38606566178518864,1.2277865408952178,0.5682449341759311
1684000192610515100,2.72891552734375,-0.2242509424303252,-0.5998306275158615,0.03201532381591314
1684000192620557000,2.738957275390625,-0.01588807984748,0.23188495632620515,0.5119447706204778
1684000192630598800,2.748999267578125,0.02732936287061615,0.006876945536598843,0.15257215500021845
1684000192640640600,2.759041015625,0.020736716880001064,0.016721725460423057,-0.6289896963188025
1684000192650682600,2.7690830078125,0.20255075390945979,0.28981876385349187,-0.7873816489676463
1684000192660724400,2.779124755859375,0.39785459632439923,0.4557971954193527,-0.4791932105996453
1684000192670766300,2.789166748046875,0.5127516389192814,0.856562137438429,-0.6701145173211714
1684000192680808100,2.79920849609375,0.5284711122424608,0.6287770270845656,-0.43624210350931003
1684000192690850200,2.809250732421875,-0.5527091025926166,1.1024346352679248,-0.8000059127999442
1684000192700892100,2.81929248046875,-0.18819725509927837,0.360144615056975,-1.3090877532030474
1684000192710933900,2.829334228515625,0.6348425150008983,0.8482804297691151,-0.7747130394019818
1684000192720975800,2.839376220703125,1.2125798465334983,0.6577000617884703,-0.09623384483451236
1684000192731017600,2.84941796875,0.16133406756247848,3.289323329805735,-0.47097778301333904
1684000192741059600,2.8594599609375,-1.018076300746542,0.6687679291275087,-1.7955403327869832
1684000192751101400,2.869501708984375,-0.6215944289756802,0.5681557654136697,-2.0883989334231057
1684000192761143200,2.879543701171875,0.18900796777369677,1.1591067313936694,-2.068494796830401
1684000192771185100,2.88958544921875,0.37306225307802526,1.2231569291921218,-2.119139671255985
1684000192781227200,2.899627685546875,-0.07416141038472553,1.0766172409104773,-1.9966189861350894
1684000192791269000,2.90966943359375,0.01636090887664466,0.9279932975701238,-1.336724758082441
1684000192801310900,2.919711181640625,0.2779684068264737,0.3721189498483925,0.1223640441974637
1684000192811352800,2.929753173828125,0.5363509654069917,-0.9473237990688724,1.6836028099307923
1684000192821394600,2.939794921875,0.947622775903119,-1.5029802322440422,2.7622787952470342
1684000192831436500,2.9498369140625,1.3612494469082692,-2.7250223159510405,3.8882498739302878
1684000192841478300,2.959878662109375,1.5715892315870197,-2.1222600937319105,5.176410675066498
1684000192851520200,2.969920654296875,0.8740137218920841,-1.5689086913403651,3.4481227396793033
1684000192861562000,2.97996240234375,-0.13574133817321715,-1.3097581862845313,1.3171508313232143
1684000192871603900,2.99000439453125,-0.48398450016871297,-0.8232479096152812,0.0545570852191843
1684000192881646000,3.00004638671875,-0.4199505447752501,-0.8597555160307847,-0.6743912696406038
1684000192891687900,3.010088134765625,-0.18156208089514791,-0.8780803678961295,-1.1417498588519952
1684000192901729600,3.020130126953125,0.14650964755028126,-0.8945188520879036,-1.4589639900622486
1684000192911771600,3.030171875,0.21793919808417184,-0.5914840698269115,-0.8435235024777755
1684000192921813400,3.0402138671875,0.24480068673969296,-0.5264701844180266,-0.1691434383885195
1684000192931855300,3.050255615234375,0.06210085754216597,-0.1349506377535534,0.1694188117970729
1684000192941897100,3.060297607421875,-0.15064543488854332,-0.7034063340284866,1.0697426796347567
1684000192951939000,3.07033935546875,-0.2775963842145786,-0.16578102095788055,1.7706711291237514
1684000192961980800,3.08038134765625,-0.6450390814491863,-1.4517183305116275,1.0937502384841291
1684000192972023000,3.09042333984375,-0.6541491150828908,-0.5604991914043125,1.9434428214297625
1684000192982064800,3.10046533203125,-0.6453409193760102,-0.0037889480735704847,1.9770288467373904
1684000192992106600,3.110507080078125,-0.6904914975899227,0.195465087796138,1.4857797622292255
1684000193002148600,3.120548828125,-0.6543242335478159,0.3467702866232632,0.8735506533619853
1684000193012190400,3.1305908203125,-0.4451336860776436,0.3632707595333865,0.5092275144061025
1684000193022232200,3.140632568359375,-0.14656203980801943,0.3923702239845711,0.1425130366082744
1684000193032274100,3.150674560546875,0.06995093832182188,0.35236167910215493,0.13899993900624225
1684000193042316000,3.16071630859375,-0.2209037542920409,-1.008213043105023,1.1253030301255593
1684000193052357800,3.17075830078125,0.03206747768322652,-0.8112764359817508,0.3816208838767996
1684000193062399600,3.180800048828125,0.6252555847650224,1.1587820054533222,0.1427607536914653
1684000193072441800,3.19084228515625,0.5196016431654312,2.76686811447185,0.4568376540051487
1684000193082483600,3.200884033203125,-0.10914027678699142,-0.04947185516070917,-0.12847304351795102
1684000193092525600,3.21092578125,0.011599004326750519,-1.264923095648272,1.0105571748691569
1684000193102567300,3.2209677734375,0.4795327783565963,0.5883731842351533,1.9269134998900168
1684000193112609200,3.231009521484375,0.08794260019654519,1.1226930617825817,1.307476520539973
1684000193122651100,3.241051513671875,-0.28667020795023873,0.5269021987216953,0.9886846543179378
1684000193132692900,3.25109326171875,-0.4848822057861313,0.12395954117289869,1.212819337830623
1684000193142734800,3.26113525390625,-0.447062641366302,-0.077334404059094,1.0378491878518656
1684000193152776600,3.271177001953125,-0.16887560483508215,-0.14299011228180192,0.8721933365748485
1684000193162818600,3.281218994140625,-0.06021270161802122,-0.19344043732076405,0.8109779357204161
1684000193172860600,3.291260986328125,0.16041421892841282,-0.06581497182563696,0.6360893248765574
1684000193182902400,3.301302734375,0.3198355436861325,-0.39844226843353925,0.5951194762224423
1684000193192944300,3.3113447265625,0.6285781263907961,-0.6585264205902934,0.7222437858791809
1684000193202986200,3.321386474609375,0.8513312935945725,-0.7245740892021797,0.8268027305035593
1684000193213028000,3.331428466796875,0.8328277468623452,-0.7142105101817452,0.8269650935820683
1684000193223069900,3.34147021484375,0.7893515824438039,-0.5895032882548923,0.8083653450165568
1684000193233111700,3.35151220703125,0.7866799234713363,-0.6083908081442664,0.8838486671753715
1684000193243153600,3.361553955078125,0.7312100529771783,-0.665733337437377,1.0141174793047172
1684000193253195600,3.37159619140625,0.6060465574821366,-0.8808221816537282,1.0510828495725193
1684000193263237600,3.381637939453125,0.4628584384312213,-1.2145919799438052,1.1872577667569668
1684000193273279400,3.3916796875,0.45230114458841597,-1.0437431336255416,1.4390170574155707
1684000193283321300,3.4017216796875,0.29375746857993784,-0.22649860385390727,0.9795794487825373
1684000193293363100,3.411763427734375,-0.16881395871945545,1.7202954292170376,1.7949872016694264
1684000193303405000,3.421805419921875,-0.6344262360707508,0.18981742846114996,0.7611124514093377
1684000193313446800,3.43184716796875,-0.8716523052434522,0.17138576508831724,0.8155686856755114
1684000193323488600,3.44188916015625,-1.218000292936724,-0.3838205337378643,0.7865808010546238
1684000193333530600,3.451930908203125,-1.6000087262537919,-0.6571712492864916,0.2712113857921142
1684000193343572400,3.461972900390625,-1.7783114910578433,-0.43542194364360254,-0.02120018001116914
1684000193353614300,3.4720146484375,-1.9512887000683938,-0.7046165466271227,-0.6018106936631006
1684000193363656400,3.482056884765625,-1.986530303825814,-0.9739608764050701,-1.1463366746461519
1684000193373698200,3.4920986328125,-1.877749800636379,-0.7125759125066902,-1.5736328364261696
1684000193383740100,3.502140380859375,-1.4614177943401019,0.030564308179692575,-1.47760629659652
1684000193393781900,3.512182373046875,-0.6811288595564932,0.4943161010669,-1.1087418793352442
1684000193403823800,3.52222412109375,-0.2127201558710827,0.33781528472775596,-0.7938899994278072
1684000193413865600,3.53226611328125,0.21378183378382126,0.7619867323306959,-0.23016715051323816
1684000193423907600,3.542307861328125,0.4202419518582378,0.088870048600215,-0.5739901066589908
1684000193433949400,3.552349853515625,0.4891963600182662,0.014535903785426369,-0.6294784545937351
1684000193443991200,3.5623916015625,0.5688500405411728,0.4309558866941791,-0.35427522658033384
1684000193454033100,3.57243359375,0.48165750510580607,0.6099796295291624,-0.049268722546461155
1684000193464074900,3.582475341796875,0.37966567274715207,0.5518856048398937,0.250047445258975
1684000193474117000,3.592517333984375,0.274950027569336,0.43609809891535306,0.43763613707013893
1684000193484158900,3.602559326171875,0.2845779657045704,0.3081417084437842,0.49720406537961614
1684000193494200800,3.61260107421875,0.31512796864980663,0.1440820695213394,0.5207147598054749
1684000193504242600,3.62264306640625,0.36353099339499145,1.358785629252274,1.5108296869844209
1684000193514284500,3.632684814453125,-0.09609735016987572,-0.5819339751358604,0.4189386369197544
1684000193524326300,3.642726806640625,0.2783712149343253,-0.8298740386966945,-0.10559225079802359
1684000193534368200,3.6527685546875,0.7679511308639388,-0.4715185164510811,-0.1057775021064711
1684000193544410000,3.662810546875,0.9876847864438089,-0.42626667010728764,-0.11501550665041807
1684000193554452100,3.6728525390625,1.0404546261971932,-0.5673599242287471,-0.1781678200152586
1684000193564494000,3.682894287109375,0.8686739207603422,-0.598277091973781,-0.24896001820134123
1684000193574535900,3.692936279296875,0.7192798852672152,-0.7876224517533291,-0.5514631270948451
1684000193584577600,3.70297802734375,0.6994479895127915,-0.6376419067628422,-0.7206957340814791
1684000193594619600,3.71302001953125,0.6475670338722824,-0.4599313736816711,-0.7036480902395365
1684000193604661400,3.723061767578125,0.5633018015631681,-0.12233352661249892,-0.3770039081483884
1684000193614703300,3.733103759765625,0.517399787952665,-0.42423534395516577,-0.4779157638927602
1684000193624745100,3.7431455078125,0.6446238755553044,-0.36020278935223266,-0.5539524556410129
1684000193634787000,3.7531875,0.7618323565148577,-0.10039234158269826,-0.41901779170271364
1684000193644828800,3.763229248046875,0.7781406640963624,0.18703174597314431,-0.44881105414772193
1684000193654870600,3.77327099609375,0.6873713732847663,0.315045356674606,-0.3924415110065284
1684000193664912800,3.783313232421875,0.6415218113923421,0.3456201552029949,-0.3964810371166867
1684000193674954600,3.79335498046875,0.5545144080789275,0.40721607217713907,-0.43501901632130263
1684000193684996600,3.80339697265625,0.4023594855833387,0.5180921553005482,-0.34380269060893026
1684000193695038400,3.813438720703125,0.2445865868547021,0.16277313240806396,-0.5959417820088595
1684000193705080200,3.823480712890625,0.3055548668087714,0.3106994628381533,-0.5570163726612272
1684000193715122100,3.8335224609375,0.3169356585521779,0.314289092956325,-0.615803003294086
1684000193725164000,3.843564453125,0.36031425008276363,0.1858453750750097,-0.7779128552098985
1684000193735205800,3.853606201171875,0.37660038471548984,0.10611248018384285,-0.8918800353844774
1684000193745247600,3.86364794921875,0.6373647451406197,0.919901370967423,-0.993017912016114
1684000193755289600,3.87368994140625,0.0006024837320904164,-0.3936252594169012,-0.4967095850144123
1684000193765331600,3.88373193359375,0.07442593580201182,-0.33076000209611117,-0.5212299824603203
1684000193775373600,3.89377392578125,0.03616380691575781,-0.4176311493516188,-0.7425601480993487
1684000193785415300,3.903815673828125,0.09348607054008506,-0.3319444656350419,-0.754347324309089
1684000193795457200,3.913857666015625,0.15614199636389473,-0.28777027134837735,-0.4100868702009498
1684000193805499100,3.9238994140625,0.012631893211146068,-0.3364849089502448,-0.1476187704905725
1684000193815540900,3.93394140625,-0.19620108605809475,-0.421584129397063,-0.04542684558833375
1684000193825582800,3.943983154296875,-0.41783523565591657,-0.4409732818514473,0.08667230621232147
1684000193835624600,3.95402490234375,-0.5676097868872286,-0.4097661970734389,0.08324384682032633
1684000193845666600,3.96406689453125,-0.6411635876686461,-0.3259963988134865,-0.03446006774996211
1684000193855708300,3.974108642578125,-0.6202325821148442,-0.21093368531799286,-0.225048542037514
1684000193865750200,3.984150634765625,-0.4914367198760506,-0.11615467081216564,-0.4579219817104864
1684000193875792300,3.994192626953125,-0.37179970740146456,-0.0030164716828468465,-0.5541279315587082
1684000193885834200,4.004234619140625,-0.2277359962213777,-0.023244857871972353,-0.717160701640826
1684000193895876000,4.0142763671875,0.0852463245684739,0.11169815048180146,-0.6793768406256186
1684000193905917900,4.024318359375,0.26255095011370144,0.24450683588649025,-0.5361084939304136
1684000193915959600,4.034360107421875,0.2965817452449614,0.6608314515670334,-0.47168493268249234
1684000193926001600,4.044402099609375,0.2999137639754045,1.7543053626984506,0.029778957474347396
1684000193936043400,4.05444384765625,0.021531343409104214,0.5900692939117345,0.1803731918890559
1684000193946085300,4.064485595703125,0.08477997786385756,-0.6184806823849879,-0.16091823572549133
1684000193956127200,4.074527587890625,0.42411351209011794,0.11216831190847786,-0.19005489352401844
1684000193966169000,4.0845693359375,0.44314825519634693,0.5478658675322985,-0.18532228481150295
1684000193976211100,4.094611572265625,0.4604433775254901,0.9519472121699016,-0.19434642799467478
1684000193986253000,4.1046533203125,0.31526982779924606,0.8362917899252399,-0.11299371709132852
1684000193996294800,4.1146953125,0.367975711689782,0.6541404724088762,-0.10169410697100525
1684000194006336600,4.124737060546875,0.2519526482095671,-0.035715103283643766,-0.4712100029779781
1684000194016378600,4.134779052734375,0.22860252853510038,0.25833320620204614,-0.2349672318915288
1684000194026420400,4.14482080078125,-0.0017237664334915552,0.2934436799000029,0.033764362289170465
1684000194036462300,4.154862548828125,-0.2062230109841012,0.33657646185794654,0.3390760422240583
1684000194046504100,4.164904541015625,-0.2477533818321,0.3338093757532335,0.6814608574954498
1684000194056546000,4.1749462890625,-0.15116763118099746,0.24128818499473,0.9336762427955672
1684000194066588100,4.184988525390625,0.044844627388395474,0.17276477818214686,1.1574473382026325
1684000194076629900,4.1950302734375,0.25606822969464943,0.047755241475468564,1.2889504432943992
1684000194086671800,4.205072265625,0.2508430481264649,0.20408439633450162,0.9121170043083279
1684000194096713600,4.215114013671875,0.11148905757506404,0.29365491864595783,0.4594130516766549
1684000194106755600,4.225156005859375,-0.06976437550711156,0.32628154758684813,0.07499980927447487
1684000194116797400,4.23519775390625,-0.08875727647039558,0.310056686388082,-0.2623362540009969
1684000194126839200,4.245239501953125,-0.1844654083701847,0.21706867215662853,-0.5529046058609435
1684000194136881100,4.255281494140625,-0.3120582103941669,0.25521659851522827,-0.7470703125337712
1684000194146922900,4.2653232421875,-0.38658475858150176,0.33374643323454956,-0.8794603347591097
1684000194156964800,4.275365234375,-0.3303873539258365,0.4239573478846292,-0.9887304306260509
1684000194167006600,4.285406982421875,-0.25720644006431753,0.37789010996879857,-1.0587108135021692
1684000194177048800,4.29544921875,-0.16048097627008764,0.3276524544009917,-1.0246608256955936
1684000194187090600,4.305490966796875,-0.1512072084846185,0.30186653146770964,-0.921893119788419
1684000194197132500,4.315532958984375,-0.1317441463298181,0.0902814866466733,-0.7694451808997504
1684000194207174300,4.32557470703125,-0.15787148470815604,0.2234773636398808,-0.6510891914633483
1684000194217216200,4.335616455078125,-0.045216321777199475,0.23384666442260024,-0.6005399227002185
1684000194227258000,4.345658447265625,0.1674690246432284,0.22041320793512664,-0.5298738479008436
1684000194237299900,4.3557001953125,0.21642017361865956,0.23801803583561001,-0.6213910580383765
1684000194247341700,4.3657421875,0.15833091731022048,0.19859504698429425,-0.7886004448226144
1684000194257383600,4.375783935546875,0.08552432052274443,-0.4271392821652611,-0.7391419410176693
1684000194267425500,4.385825927734375,0.25172436245190327,-0.4071388246458738,-0.7238118649508367
1684000194277467600,4.395867919921875,0.04428505879368553,-1.3400058747661405,-0.6634364129468066
1684000194287509400,4.405909912109375,-0.20358705522679144,-0.3474931717424254,0.5671758651195055
1684000194297551300,4.41595166015625,-1.4079778194300057,-2.5815620421183665,0.3758554458904089
1684000194307593100,4.42599365234375,-2.3989501000456213,-3.4616413117952587,0.5610289573425609
1684000194317635000,4.436035400390625,-3.0060458183661027,-4.576290130737201,0.05576515214040284
1684000194327676800,4.4460771484375,-2.7906072140647606,-5.079679489026305,-0.8636808394672464
1684000194337718600,4.456119140625,-1.5332494972863473,-3.211098670779121,-0.35601091389881023
1684000194347760600,4.466160888671875,-0.45230519773621675,-0.9340028762907252,0.10018730164268244
1684000194357802400,4.476202880859375,0.27662730223426707,0.36953163143474144,0.1504559517049601
1684000194367844300,4.48624462890625,0.786851763750704,0.501994132951504,-0.027965068930761405
1684000194377886100,4.49628662109375,1.1679230929399482,0.5508651732605446,-0.4224958419769984
1684000194387928200,4.50632861328125,1.4227976800059345,0.4895668030279358,-0.7200138567726964
1684000194397970100,4.51637060546875,1.6266736985086363,0.6020698547652417,-0.7534863948855568
1684000194408012000,4.526412353515625,1.7586694957497473,0.40868186947952406,-0.693582296226875
1684000194418053800,4.5364541015625,1.8106360434505668,0.1561765670513502,-0.6146183012891978
1684000194428095600,4.54649609375,1.8140958548017045,0.3481731415130951,-0.6353204250043795
1684000194438137600,4.556537841796875,1.9348523616822606,0.8612451553185576,-0.22352695461086752
1684000194448179400,4.566579833984375,1.8802845478688461,1.5882401465584821,0.37316036238499134
1684000194458221200,4.57662158203125,1.5670592785157944,1.4060587883019917,0.33774232856814007
1684000194468263100,4.58666357421875,1.252944588610161,1.145687103273599,0.09504914299420315
1684000194478304900,4.596705322265625,1.0384604930724104,1.0484576225438953,-0.3597493171179935
1684000194488346800,4.606747314453125,1.0032130480139767,0.817728996247023,-0.7743813992603172
1684000194498388900,4.616789306640625,1.155185103504849,0.5415830612853082,-1.0928921699376248
1684000194508430800,4.6268310546875,1.4253371953635587,0.256164550801033,-1.2525074483003718
1684000194518472600,4.636873046875,1.6091089248077692,0.0061216354639225925,-1.3710260391105853
1684000194528514600,4.646914794921875,1.723666191141942,-0.3092565535526162,-1.4059565068855167
1684000194538556300,4.656956787109375,1.7535530328928215,-0.6261367798773768,-1.0898280142882315
1684000194548598200,4.66699853515625,1.6108504533950945,-0.9247884751148203,-0.6540427207280933
1684000194558640000,4.67704052734375,1.3913452627108027,-1.0097484588516759,-0.5155634880912339
1684000194568681900,4.687082275390625,1.1505477427912776,-0.9278802872784284,-0.4055120943967164
1684000194578723800,4.697124267578125,0.9212520719226616,-0.7315034866044438,-0.5030975343314001
1684000194588765600,4.707166015625,0.6676327585183985,-0.6372871399124737,-0.6412823199663852
1684000194598807700,4.7172080078125,0.6849495171944248,-0.4813613891508514,-0.2382271291122703
1684000194608849600,4.72725,0.9338530897880656,-0.1707668305022423,0.2133018971268801
1684000194618891400,4.737291748046875,1.127906560806089,0.17641162859307608,0.3705661297126891
1684000194628933300,4.747333740234375,1.3326685427804266,0.3240089416553904,0.5505330562897814
1684000194638975200,4.75737548828125,1.5182330608121344,0.36590003962770173,0.8069660663245678
1684000194649017000,4.76741748046875,1.5341978073061007,0.35498714455933383,1.0076708792779516
1684000194659058900,4.777459228515625,1.4533092975196782,0.32944011678260826,1.1331210136672363
1684000194669100600,4.787501220703125,1.274359464682962,0.2604598997915278,1.2456641196463984
1684000194679142600,4.79754296875,0.9760122299481023,0.24859142295754452,1.2580556868785913
1684000194689184400,4.807584716796875,0.6504794359545945,0.27235317229243444,1.2577743528419068
1684000194699226300,4.817626708984375,0.38618817925757387,0.29554843897276767,1.1996946335267045
1684000194709268400,4.827668701171875,0.24563238019226571,0.3077802657390132,1.1757969855690646
1684000194719310300,4.837710693359375,0.23110941053722628,0.4110422134331596,1.0533289909644743
1684000194729352100,4.84775244140625,0.3772731423004813,0.49024105083699165,0.8843712805771476
1684000194739394000,4.85779443359375,0.6010482310562323,0.44272708895453566,0.7426609993534312
1684000194749435800,4.867836181640625,0.7381817102492222,0.27663612368889823,0.529063701662079
1684000194759477600,4.877878173828125,0.8606415986434673,0.08607673635933236,0.3381838797753022
1684000194769519600,4.887919921875,0.9252053500349585,-0.12106990820531177,0.09480333336430079
1684000194779561400,4.8979619140625,0.9938089848019629,-0.15591239930654077,0.05004692064431354
1684000194789603200,4.908003662109375,1.001667261172981,-0.2974748611638817,-0.22478914277264794
1684000194799645100,4.91804541015625,1.118760466540568,-0.21824836732228933,-0.2514233587750511
1684000194809687000,4.92808740234375,1.0923457146535158,-0.2163858414137175,-0.35837340362380654
1684000194819729100,4.93812939453125,1.103680610741206,-0.20012187946158652,-0.5601873398504779
1684000194829770900,4.94817138671875,1.0950623751124928,-0.22388267518890226,-0.5998306274702999
1684000194839812800,4.958213134765625,1.0964506864581791,-0.2566184998305138,-0.6044783592206038
1684000194849854600,4.968255126953125,1.0771607160524173,-0.25353527084457855,-0.5277705192964445
1684000194859896600,4.978296875,1.0194215774442514,-0.3124084472610587,-0.5963115691988954
1684000194869938400,4.9883388671875,0.9289188385277782,-0.41285800931945205,-0.5971872805790487
1684000194879980200,4.998380615234375,0.7900015712020091,-0.47531223291057284,-0.5052487850478157
1684000194890022100,5.00842236328125,0.6453336477415718,-0.5377082826154551,-0.4034502505361703
1684000194900063900,5.01846435546875,0.4603081345699001,-0.5448865889909381,-0.35336852074809083
1684000194910105800,5.028506103515625,0.3537801802210126,-0.39583587640679585,-0.2291874885179388
1684000194920147600,5.038548095703125,0.2718070446924562,-0.1643037797102494,-0.11120414742993955
1684000194930189700,5.048590087890625,0.17245858915249312,0.022070884712718907,-0.0849308968464603
1684000194940231600,5.058632080078125,0.23601549870441946,0.3773250578891202,0.048369884527883926
1684000194950273500,5.068673828125,0.2802351714782331,0.49692821511805274,0.11304283151351802
1684000194960315300,5.0787158203125,0.32476419219859964,0.3934936524758902,0.15935087190814962
1684000194970357200,5.088757568359375,0.3461952209432638,0.3187198638635286,0.2258181570892366
1684000194980399000,5.09879931640625,0.32077741614135696,0.1357393263022417,0.12909364687747313
1684000194990440900,5.10884130859375,0.3628878595379825,-0.2054929733421079,0.12009477626988563
1684000195000482700,5.118883056640625,0.3728186785496905,-0.3185606002126453,0.03972625741646186
1684000195010524600,5.128925048828125,0.4947651625179192,-0.32375717155732453,-0.03304719920680976
1684000195020566400,5.138966796875,0.6428089142474555,-0.3959341048837683,-0.007428169134805031
1684000195030608600,5.149009033203125,0.745514392853379,-0.2804641723309568,-0.1528973579722553
1684000195040650400,5.15905078125,0.6676008701575418,-0.24143218997498148,-0.6955265997537987
1684000195050692300,5.1690927734375,0.6908319592496153,-0.23521232611285586,-0.9560830593894749
1684000195060734100,5.179134521484375,0.9151862264434937,-0.42588043211723897,-0.748692512506781
1684000195070776000,5.18917626953125,1.096540212499367,-0.6180629729739545,-0.6849079132191415
1684000195080817800,5.19921826171875,1.0586047170717294,-0.48274898530549387,-0.8339412212252363
1684000195090859600,5.209260009765625,1.0117022991543505,-0.4659547806703177,-1.039342164922129
1684000195100901600,5.219302001953125,1.01498007767567,-0.4243688583457418,-0.9766669272650275
1684000195110943400,5.22934375,0.9629133344177343,-0.48268222819071244,-0.9390518665005693
1684000195120985300,5.2393857421875,0.8349582553071765,-0.4968509673292028,-0.8876004217991181
1684000195131027100,5.249427490234375,0.7358472347863008,-0.4526948930025343,-0.8298134802285663
1684000195141069200,5.2594697265625,0.6366078257850136,-0.38634395596439225,-0.7445254324910082
1684000195151111100,5.269511474609375,0.5881937145509154,-0.34574413301255313,-0.6509647368035754
1684000195161152900,5.27955322265625,0.526966571809318,-0.29502582531813165,-0.5370514392471805
1684000195171194800,5.28959521484375,0.48392981287115494,-0.23663520807980393,-0.40766429907163554
1684000195181236600,5.299636962890625,0.48126018050148117,-0.1514902115961151,-0.23188686371233644
1684000195191278600,5.309678955078125,0.46502995491993065,-0.056467056225872024,-0.06269931804644767
1684000195201320400,5.319720703125,0.45098614682857496,0.061727523679127844,0.12405252457384676
1684000195211362200,5.3297626953125,0.46726858606122723,0.14516830446009726,0.24425506590746868
1684000195221404100,5.339804443359375,0.47529530508601736,0.21063327799764972,0.42090654364229585
1684000195231445900,5.349846435546875,0.5148472784639747,0.28671360014064134,0.5731520652155417
1684000195241487800,5.35988818359375,0.5188463329077917,0.3072471617583248,0.6778006552712236
1684000195251529900,5.369930419921875,0.49397432800048574,0.34371757498253525,0.7332849501012818
1684000195261571800,5.37997216796875,0.4963746070123773,0.35818767534511853,0.7805624008932942
1684000195271613600,5.390013916015625,0.4686508178791357,0.39795684808150233,0.8171830177545341
1684000195281655500,5.400055908203125,0.4325277805919684,0.42717266082885275,0.8383812903613024
1684000195291697300,5.41009765625,0.3822376132091225,0.43083381644100244,0.8085417747170017
1684000195301739200,5.4201396484375,0.3266507982818124,0.39085960379573165,0.7895426750710244
1684000195311781000,5.430181396484375,0.268870234445294,0.3862533570731585,0.7264947891548034
1684000195321822900,5.440223388671875,0.2119945287327643,0.37638950348152156,0.6577224731369992
1684000195331864800,5.45026513671875,0.15659219012144085,0.31351089461500276,0.5401401518956664
1684000195341906600,5.46030712890625,0.0959335566012421,0.240959167371439,0.4363317490833384
1684000195351948500,5.470348876953125,0.07074546813168206,0.14917659751606252,0.3700690268133724
1684000195361990600,5.480390869140625,0.06626981501154165,0.03355026245057546,0.26989507681650116
1684000195372032400,5.490432861328125,0.03714030993486217,-0.015203475915232358,0.1834669112148815
1684000195382074300,5.500474609375,0.005185902123006158,-0.006907463031677503,0.11050033558479717
1684000195392116100,5.5105166015625,0.0037169456519523195,-0.1029834747370003,-0.0852842331502366
1684000195402158000,5.520558349609375,0.010533094340320386,-0.14782047268835505,-0.0736632348063011
1684000195412199900,5.530600341796875,0.029872000108487125,-0.1586799620882116,-0.09471797949629925
1684000195422241600,5.54064208984375,0.038005173335934755,-0.17385959619538774,-0.11019897456820994
1684000195432283600,5.55068408203125,0.049446761731752345,-0.17648410784079252,-0.11266613006187037
1684000195442325400,5.560725830078125,0.1023387908610429,-0.19772243512543833,-0.04023456586373943
1684000195452367300,5.570767578125,0.1295719743062491,-0.18514156344907215,-0.012774467432795205
1684000195462409400,5.580809814453125,0.16686522971165285,-0.1723117828140702,0.07005882273649681
1684000195472451200,5.5908515625,0.16374200584483406,-0.13308715811345925,0.05985879891639051
1684000195482493100,5.6008935546875,0.19959008688300095,-0.12009716025899624,0.10481071471534562
1684000195492535000,5.610935302734375,0.20484048131086105,-0.08085250860706754,0.0756249428076211
1684000195502576800,5.620977294921875,0.2346294520721662,-0.039392471314679475,0.12272548682247925
1684000195512618600,5.63101904296875,0.2553820015407439,0.01857185361714318,0.09303712842183798
1684000195522660600,5.64106103515625,0.2843830585031524,0.049383163454948246,0.02243661894359417
1684000195532702400,5.651102783203125,0.3271836639180135,0.15266895287419546,0.03308725347890342
1684000195542744200,5.66114453125,0.3783953189226722,0.17171382893273635,0.008071422547252237
1684000195552786100,5.6711865234375,0.43509423737155456,0.15973949425785688,-0.016608238402539898
1684000195562828000,5.681228271484375,0.4430360196973666,0.16676712035881042,-0.029052734441573167
1684000195572870100,5.6912705078125,0.46881395577213736,0.12898826592091087,-0.03637552261508383
1684000195582911900,5.701312255859375,0.4671328664652481,0.06353855126487781,-0.06942033754985323
1684000195592953800,5.711354248046875,0.46905130135598805,0.01791667952452144,-0.08077144627397226
1684000195602995600,5.72139599609375,0.4559906126377588,-0.019964218184085624,-0.08728170386993223
1684000195613037600,5.73143798828125,0.4406549335482187,-0.07856178287008114,-0.10340356822246767
1684000195623079300,5.741479736328125,0.3976640104122444,-0.11745166771633181,-0.10772609704961597
1684000195633121200,5.751521484375,0.39562380302198363,-0.14168262489861247,-0.12164449695808958
1684000195643163100,5.7615634765625,0.37950509778241687,-0.1680126190208643,-0.1497564315937342
1684000195653204900,5.771605224609375,0.35166966915873077,-0.17994213096077846,-0.18476200109615218
1684000195663246800,5.781647216796875,0.3360469936768349,-0.15218544020077104,-0.2108583450837824
1684000195673288600,5.79168896484375,0.2718656659981052,-0.174992561271306,-0.25208806992563604
1684000195683330700,5.801731201171875,0.2941687703382378,-0.15470123301486444,-0.29668617246139345
1684000195693372600,5.81177294921875,0.27914035311419527,-0.20086669917441913,-0.23038387297865567
1684000195703414400,5.82181494140625,0.2767292260661155,-0.2043399811417115,-0.253287792173764
1684000195713456300,5.831856689453125,0.2631627917402559,-0.11424922951739437,-0.22544527069098189
1684000195723498200,5.841898681640625,0.19189283236415652,-0.16006469736191167,-0.32101273534565156
1684000195733540000,5.8519404296875,0.19095516197460236,-0.1574964523590991,-0.3291811943227773
1684000195743581900,5.861982177734375,0.18838489046852486,-0.1479301453811131,-0.2666726112410456
1684000195753623700,5.872024169921875,0.16740155209606633,-0.12704086311261256,-0.24111890788829152
1684000195763665600,5.88206591796875,0.12809115641465846,-0.16815090176803552,-0.24278831481416605
1684000195773707400,5.89210791015625,0.03058782219659454,-0.20669651032989425,-0.2524404526352449
1684000195783749600,5.90214990234375,-0.030065029876335993,-0.1664648055459537,-0.34333395954232904
1684000195793791400,5.91219189453125,-0.12447315447545967,-0.16186523438301237,-0.3754665850435592
1684000195803833300,5.922233642578125,-0.10040330883041548,-0.1734867097108512,-0.34992408760002147
1684000195813875100,5.932275634765625,-0.04561412324477927,-0.13995361326023772,-0.37155961992235453
1684000195823917000,5.9423173828125,0.028031557899238075,-0.12097549451920694,-0.35739278808448005
1684000195833958800,5.952359130859375,0.12866821878933515,-0.06926441189175739,-0.36684489254145763
1684000195844000600,5.962401123046875,0.23571428651794754,0.0006380082299504834,-0.3944261072735091
1684000195854042600,5.97244287109375,0.3341402410223727,-0.01280021656036069,-0.32442378995568305
1684000195864084400,5.98248486328125,0.37838572251528735,-0.007067680293021685,-0.32814908025206674
1684000195874126300,5.992526611328125,0.3992578683630747,-0.004274368280988379,-0.26673626886148005
1684000195884168100,6.002568603515625,0.3831024766408856,0.10966587067118687,-0.2523972987978397
1684000195894210200,6.012610595703125,0.28282454600823026,0.17057991016470242,-0.42070770262625384
1684000195904252100,6.022652587890625,0.29059463732269786,0.026767730610124676,-0.3981456756736074
1684000195914293900,6.0326943359375,0.28232830757800076,-0.09018993381730064,-0.4660282134736905
1684000195924335800,6.042736083984375,0.2663114666212988,-0.24431037887569337,-0.5827383996254076
1684000195934377600,6.052778076171875,0.31677383188558766,-0.44095134725089324,-0.7309935092652352
1684000195944419600,6.06281982421875,0.3633038698054949,-0.49810314167870234,-0.8958532809529741
1684000195954461400,6.07286181640625,0.4696471691209265,-0.6635541915105541,-0.7979991434977841
1684000195964503200,6.082903564453125,0.5994440315875765,-0.503528594931537,-0.4349315167786701
1684000195974545100,6.092945556640625,0.5566742420504555,-0.20870876296936117,-0.27833604813093715
1684000195984586900,6.1029873046875,0.3829221725400218,0.02027606972061247,-0.213161468513003
1684000195994628800,6.113029296875,0.16994307938685294,0.10898971562105764,-0.15356063840864956
1684000196004670900,6.1230712890625,-0.01594259958578887,0.08555698400747709,-0.11613368984441776
1684000196014712800,6.133113037109375,-0.13636597982995693,0.08830451955363354,-0.16423320771849392
1684000196024754600,6.143155029296875,-0.16793775558318824,0.12133502958564935,-0.18375205993046234
1684000196034796500,6.15319677734375,-0.14892730111632332,0.1440067292119878,-0.17771911621709757
1684000196044838300,6.16323876953125,-0.14098927386584625,0.10001659398774386,-0.18881487858391832
1684000196054880200,6.173280517578125,-0.09534291928891396,0.07759380335963574,-0.13902139648832523
1684000196064922000,6.183322509765625,-0.08456596738160599,0.029363632264648106,-0.12573623647866086
1684000196074963900,6.1933642578125,-0.06003834315954576,-0.01578617082817227,-0.09145784360139177
1684000196085005700,6.20340625,-0.07716810717809741,-0.06250095370601996,-0.008113861062963945
1684000196095047900,6.2134482421875,-0.09564942118257072,-0.12487506862970381,0.06929731361787696
1684000196105089600,6.223489990234375,-0.11523160340356371,-0.12961006166284064,0.11037445067352103
1684000196115131600,6.233531982421875,-0.17538151149424225,-0.11058425898108927,0.10171461105096874
1684000196125173400,6.24357373046875,-0.2488546072809434,-0.04456329361155643,0.0749831198762726
1684000196135215300,6.25361572265625,-0.29949924350164747,0.01803588861048177,0.14783430087405006
1684000196145257100,6.263657470703125,-0.35349246849470484,0.018306732138469364,0.2595353126517575
1684000196155299000,6.273699462890625,-0.3710749745057552,0.03720760339210743,0.3832559584399481
1684000196165340800,6.2837412109375,-0.40728694190437104,0.09788513188034771,0.4762153626586524
1684000196175382600,6.293783203125,-0.39589720973516446,0.1877698897973307,0.5716609954537909
1684000196185424600,6.303824951171875,-0.3539206386052376,0.26875495927130216,0.6155419349696989
1684000196195466600,6.3138671875,-0.33583337055297524,0.322189331202549,0.6817879678175338
1684000196205508600,6.323908935546875,-0.40213584888616327,0.2965078354423473,0.7554674149452754
1684000196215550400,6.33395068359375,-0.5428000092008034,0.269736289943938,0.869773864598508
1684000196225592200,6.34399267578125,-0.6757999061708667,0.2688055036989561,0.9351682661440137
1684000196235634100,6.354034423828125,-0.857871591971726,0.2626657485807548,0.9352869987011442
1684000196245676000,6.364076416015625,-1.0681083203130266,0.2631988524399904,0.8800067901179955
1684000196255717800,6.3741181640625,-1.225715637259617,0.22939395899586204,0.8645420075929234
1684000196265759600,6.38416015625,-1.4494996070150525,0.13463020330467373,0.7902231216006161
1684000196275801600,6.394201904296875,-1.7647111415712073,0.0549716949998764,0.7137660978973932
1684000196285843400,6.404243896484375,-2.0167689323082847,0.03293418874511668,0.630055427511854
1684000196295885600,6.414285888671875,-1.9442391395319598,0.058871269226146286,0.49391508090659086
1684000196305927300,6.42432763671875,-1.574123621124375,0.08331108088413093,0.3063178061050886
1684000196315969200,6.43436962890625,-1.1907143593983893,0.16431999214602447,0.08707904825838132
1684000196326011100,6.444411376953125,-0.8346400261274481,0.22788906096870845,-0.12288427362471642
1684000196336052900,6.454453369140625,-0.5582507849982667,0.3366279602571202,-0.33635687831258476
1684000196346094800,6.4644951171875,-0.21639788145020994,0.37662792203111656,-0.5709657669370543
1684000196356136600,6.474537109375,0.2445710897331604,0.34650802604717046,-0.7623229026964342
1684000196366178600,6.484578857421875,0.5792539118905142,0.31587219236490394,-0.8909120559303916
1684000196376220300,6.494620849609375,0.6473920344633408,0.22475528717231866,-0.9273366929387831
1684000196386262200,6.50466259765625,0.6343694925320876,0.09724140176096487,-0.8238940238282902
1684000196396304000,6.514704345703125,0.5059419870418418,0.040620803914764754,-0.5595896244564961
1684000196406346200,6.52474658203125,0.37079662090978105,0.0956382751545267,-0.2771015168310428
1684000196416388000,6.534788330078125,0.29447424402709765,0.16884708388237815,0.0788588525054162
1684000196426429900,6.544830322265625,0.19089126594039116,0.2809791564578838,0.48372221002128757
1684000196436471600,6.5548720703125,0.09636592864572051,0.3522272108433233,0.8362870217087497
1684000196446513600,6.5649140625,-0.006204128195968289,0.4528760910204923,1.1393084526797725
1684000196456555400,6.574955810546875,-0.1358772516802986,0.41101169572061996,1.2768659592162233
1684000196466597300,6.584997802734375,-0.23988187311485104,0.3302869797252006,1.253613948819907
1684000196476639200,6.59503955078125,-0.36347723009323557,0.2750577927427163,1.3256053925516884
1684000196486681000,6.605081298828125,-0.45028066638400016,0.3019027710559445,1.2813658714641223
1684000196496722900,6.615123291015625,-0.5937891604096102,0.39354038239044214,1.1131911278219568
1684000196506764600,6.6251650390625,-0.6997688411776012,0.5856838226170364,0.8856210708475172
1684000196516806800,6.635207275390625,-0.6570903659958087,0.7520442009597635,0.5804853438141905
1684000196526848600,6.6452490234375,-0.5643838644298753,0.8815660476817178,0.14688777928376434
1684000196536890600,6.655291015625,-0.5582422615126678,0.9157104494053342,-0.22432327261324694
1684000196546932400,6.665332763671875,-0.6371300221700028,0.9365768431712631,-0.5060849189253462
1684000196556974300,6.675374755859375,-0.7783811688216609,0.7065067290645575,-0.8855814934833419
1684000196567016100,6.68541650390625,-0.9519650936111017,0.22944068914842344,-1.41849637032989
1684000196577058000,6.695458251953125,-1.197531938529111,-0.204674720692076,-2.1419098377535395
1684000196587099800,6.705500244140625,-1.4943265913770007,-0.7532091139796216,-2.77949666983071
1684000196597141900,6.715542236328125,-1.6802728177398396,-1.3240365981664162,-3.278706550612203
1684000196607183800,6.725584228515625,-1.5726015568574965,-1.694027900613684,-3.468241691648222
1684000196617225600,6.7356259765625,-1.2815998793247578,-1.8959856033770888,-3.3273916245144064
1684000196627267600,6.74566796875,-1.0274403095704074,-1.9970254897846702,-3.000099659143583
1684000196637309400,6.755709716796875,-0.7220834493972151,-1.9965190888193691,-2.6455960275012873
1684000196647351200,6.765751708984375,-0.4445116520096183,-1.8384771347535172,-2.2142212391631677
1684000196657393100,6.77579345703125,-0.22200429437197372,-1.6001138688015577,-1.8149924278745917
1684000196667434900,6.78583544921875,-0.04195356362939382,-1.310584068312363,-1.3937282561498205
1684000196677476800,6.795877197265625,0.16652071482338346,-0.9445056914288006,-0.8775210381830967
1684000196687518600,6.8059189453125,0.39033216231447093,-0.5910692216174882,-0.3288583755884054
1684000196697560600,6.8159609375,0.5568450688374103,-0.15957927691799745,0.34398889529283705
1684000196707602600,6.8260029296875,0.6006025673495737,0.2568922043161336,0.9579434394816423
1684000196717644500,6.836044921875,0.5323984623037681,0.538170814531143,1.3967509269072402
1684000196727686300,6.846086669921875,0.322125226213897,0.7308750152050824,1.6306438445372995
1684000196737728200,6.856128662109375,0.06448647373520033,0.9215502739707309,1.5975127219239291
1684000196747770000,6.86617041015625,-0.19068306695337664,0.9781737326685138,1.3987879751897199
1684000196757811900,6.87621240234375,-0.35343626148853,0.8976569175135214,1.2218704223675914
1684000196767853700,6.886254150390625,-0.5547716618684311,0.8031187057047194,0.990849971775706
1684000196777895600,6.8962958984375,-0.773093819555464,0.6525516509098407,0.62029314032649
1684000196787937500,6.906337890625,-0.9541726111264616,0.41574478163903517,0.18156480779041062
1684000196797979300,6.916379638671875,-1.0268237590719966,0.1242198942865213,-0.2149972915761738
1684000196808021400,6.926421875,-0.9256897569205992,-0.08829784383530621,-0.5273001195432514
1684000196818063300,6.936463623046875,-0.6390800476211491,-0.195684432959061,-0.6269016266119507
1684000196828105100,6.946505615234375,-0.2812287806676008,-0.28172588357172096,-0.5144436359560828
1684000196838147000,6.95654736328125,0.1262802332704831,-0.29729557040924526,-0.1876773834130408
1684000196848188800,6.96658935546875,0.4885632396099312,-0.22437953951442752,0.007135868069525959
1684000196858230600,6.976631103515625,0.7791973353535742,-0.2065486907518966,0.034378528644775634
1684000196868272600,6.9866728515625,1.0304502249158596,-0.10955429083083991,0.024171352411719357
1684000196878314400,6.99671484375,1.0821416377987199,0.0401058196404777,0.0004034042601221394
1684000196888356600,7.0067568359375,0.9636888505806694,0.15352630616478266,0.05067872991056065
1684000196898398400,7.016798828125,0.676479697244005,0.21368885045843836,0.15501213072531436
1684000196908440200,7.026840576171875,0.27421596648914504,0.3759031294996359,0.2870759963672604
1684000196918482100,7.036882568359375,-0.20210856202169147,0.4053974151539884,0.5344595908764814
1684000196928524000,7.04692431640625,-0.62861096859341,0.4881782530535661,0.8050980568182522
1684000196938565800,7.05696630859375,-1.0155930519364773,0.3515548707738385,0.9525260926781581
1684000196948607600,7.067008056640625,-1.2158598900468913,0.1636714934842881,0.9415831566496033
1684000196958649600,7.0770498046875,-1.1017301082512854,0.1473989488294451,0.8758401870564552
1684000196968691400,7.087091796875,-0.6878519058220015,0.2524394989182537,0.786541461841721
1684000196978733200,7.097133544921875,-0.1354028285796847,0.3063726424797443,0.8216528892363864
1684000196988775100,7.107175537109375,0.3466570376254883,0.2734918595299588,0.8356924057960934
1684000196998817200,7.117217529296875,0.6800339222622147,0.34545326247678027,0.674723148248893
1684000197008859100,7.127259521484375,0.9521418810021928,0.3623371123341164,0.5932335852792603
1684000197018900900,7.13730126953125,1.1521520613786647,0.36776638024837716,0.5467205048195878
1684000197028942800,7.14734326171875,1.2409523725074236,0.25668907161992344,0.61393165592898
1684000197038984600,7.157385009765625,1.2862238883976742,0.2946872711750789,0.5849704742216641
1684000197049026600,7.167427001953125,1.2359170913524955,0.3932781220972133,0.42969894411520915
1684000197059068300,7.17746875,1.1498681306842922,0.5064973830322212,0.27184772489013387
1684000197069110200,7.187510498046875,0.9957370162163228,0.5809249877372964,0.2051491736301431
1684000197079152300,7.197552734375,0.8595791458919564,0.5160608290426002,0.12344932547122059
1684000197089194200,7.207594482421875,0.7368711232064759,0.3408250810187804,0.09087705621369252
1684000197099236000,7.217636474609375,0.6129710674855906,0.2057132720915626,0.07100486755992369
1684000197109277900,7.22767822265625,0.4957645534304957,0.09866523732297065,-0.029222488254126933
1684000197119319700,7.23772021484375,0.36929780243576327,0.42384147647938575,-0.4731729030436347
1684000197129361600,7.247761962890625,0.1366876958772465,0.12751674656009426,-0.5759897231853683
1684000197139403400,7.257803955078125,-0.03816312554365655,-0.44256687146894863,-0.417951345425977
1684000197149445300,7.267845703125,-0.15755748747471035,-0.7335977554136216,-0.46006512641693237
1684000197159487200,7.277887451171875,-0.2434433399913725,-0.7889442442677775,-0.6463046073617721
1684000197169529000,7.287929443359375,-0.2549733519839161,-0.6598014831785359,-0.7955207823403887
1684000197179570900,7.29797119140625,-0.21429195987230099,-0.6146535874752455,-0.8683204651392161
1684000197189613000,7.308013427734375,-0.13893002258193632,-0.677639007433165,-0.8064641953600991
1684000197199654800,7.31805517578125,-0.04179751876081309,-0.9033050536575906,-0.6198983193024864
1684000197209696600,7.32809716796875,0.11814075702468053,-0.9659576415705403,-0.41307902330555707
1684000197219738600,7.338138916015625,0.18737167111008782,-0.7003307342697688,-0.44405579552757624
1684000197229780400,7.348180908203125,0.19446313389946016,0.12977886195930657,-0.6528501510144524
1684000197239822300,7.35822265625,0.30360823870712345,0.10469627366493556,-0.1405730248606511
1684000197249864100,7.368264404296875,0.32663518194206553,-0.07139110573913308,0.16135931015727414
1684000197259906000,7.378306396484375,0.32267135389245105,0.0830669402137537,0.23653936367518555
1684000197269948100,7.388348388671875,0.3245286941331237,0.18933391563707042,0.3685941697576278
1684000197279989900,7.398390380859375,0.3553422095101359,0.18698310865158918,0.4625949860501755
1684000197290031800,7.40843212890625,0.33159619572449295,0.2530107497367335,0.3657755851341714
1684000197300073600,7.41847412109375,0.3760860562590453,0.03842735274635374,0.4459152221521346
1684000197310115600,7.428515869140625,0.4192888736655764,0.024072647139262847,0.241950035082292
1684000197320157400,7.438557861328125,0.48127692949140966,0.11202049253894537,0.07587146762955375
1684000197330199200,7.448599609375,0.491127788910644,0.1684684754971736,-0.035027980839515444
1684000197340241100,7.458641357421875,0.4743913411684106,0.1218652725064103,-0.05010366429985751
1684000197350282900,7.468683349609375,0.4024647473615587,0.15670108783340103,-0.13602542865184117
1684000197360324800,7.47872509765625,0.3122700452894881,0.16072559369817305,-0.19207048427624
1684000197370366900,7.488767333984375,0.24344009173441872,-0.028785705521861365,-0.07372760767623907
1684000197380408800,7.49880908203125,0.15787619339918257,-0.11967849730879106,-0.16767740249099553
1684000197390450600,7.50885107421875,0.13211029763338847,-0.17886638639184188,-0.13387107841565252
1684000197400492500,7.518892822265625,0.11113190666450393,-0.1662216187905536,-0.12868261326312871
1684000197410534300,7.528934814453125,0.03090238568759689,-0.1967630384615225,-0.06419658656923707
1684000197420576200,7.5389765625,-0.05301117896002746,-0.1291809080283723,-0.10958766940337533
1684000197430618000,7.549018310546875,-0.1258063912274411,0.0034742354961801985,-0.21802186978314167
1684000197440659900,7.559060302734375,-0.11045783746729305,0.1083955764609233,-0.30247712141257
1684000197450701700,7.56910205078125,-0.05409157287001473,0.19757843020786328,-0.3584487439150213
1684000197460743900,7.579144287109375,0.05809992558428207,0.05311203008627291,-0.2059350012881082
1684000197470785600,7.58918603515625,0.11437559126435443,-0.15561580653253315,-0.01836776737287346
1684000197480827600,7.59922802734375,0.16979527483710907,-0.24811553943181044,0.02852630613067272
1684000197490869400,7.609269775390625,0.24623531088955275,-0.3727941513861246,0.2259407042836417
1684000197500911300,7.619311767578125,0.2753148078886789,-0.3548984526998956,0.26339483262020424
1684000197510953100,7.629353515625,0.3244431019558594,-0.17750644678050462,0.2625503539843268
1684000197520995000,7.6393955078125,0.3600890637186237,-0.057651519778170505,0.28029680253352274
1684000197531036800,7.649437255859375,0.3123624920149632,0.11164474479841267,0.1845669746322704
1684000197541078600,7.65947900390625,0.2426862716535352,0.26418113715436725,-0.0006694792741390566
1684000197551120600,7.66952099609375,0.23791956920825974,0.1670789718447823,0.14223289498478833
1684000197561162600,7.67956298828125,0.2225861549516713,-0.0916280747802449,0.30211114884291973
1684000197571204600,7.68960498046875,0.22227931017146269,-0.20308685311397523,0.3424711228228395
1684000197581246400,7.699646728515625,0.2255092858982386,-0.22896003713347357,0.352076530526207
1684000197591288200,7.709688720703125,0.10515475274172983,0.03462982176952054,0.05985307695245817
1684000197601330100,7.71973046875,-0.0013443827496086474,0.15551948548194655,-0.10571098318126383
1684000197611372000,7.7297724609375,0.05052697655076611,0.11213588709828687,0.07062673582184043
1684000197621413800,7.739814208984375,0.038568258294810163,-0.048776626532158356,0.26820611961061586
1684000197631455600,7.74985595703125,0.0575668215586889,-0.14666748044084957,0.3589820862013847
1684000197641497800,7.759898193359375,0.053879678244541006,-0.27626323687792825,0.3366150856203793
1684000197651539600,7.76993994140625,0.059229731585498734,-0.11103725427170702,0.22207546253180596
1684000197661581600,7.77998193359375,0.0817123055466031,0.049417495585782095,0.18347930905883322
1684000197671623300,7.790023681640625,0.059674143769465504,0.14035892479378584,0.24062395095330955
1684000197681665200,7.800065673828125,0.03947091099832995,0.1903219222585552,0.2652273178104898
1684000197691707100,7.810107421875,0.12084686741804007,-0.03659534449265573,0.5473089218029873
1684000197701748900,7.8201494140625,-0.06048995257588899,0.6886205673267193,-0.4042940139028565
1684000197711790800,7.830191162109375,-0.12750858082623276,0.5900163650432313,-0.4653382301095279
1684000197721832900,7.8402333984375,0.10421514498874683,-0.11880016319969298,0.3407373428814036
1684000197731874700,7.850275146484375,0.13557827485266144,-0.15142250044581843,0.3049120903470567
1684000197741916600,7.86031689453125,0.004794120890194063,0.4387302399935985,-0.2706675529980673
1684000197751958400,7.87035888671875,-0.06612515438249554,0.42942714678837557,-0.1959023474503863
1684000197762000300,7.880400634765625,-0.06556385757718364,0.0948352812781936,-0.16341304780371133
1684000197772042200,7.890442626953125,-0.07628464698044819,0.04623508453988084,-0.35941362379926256
1684000197782084000,7.900484375,-0.07542502876517894,0.03624916066138326,-0.5117743016292889
1684000197792125900,7.9105263671875,-0.1886582375421371,-0.08906841282266835,-0.6145334242792526
1684000197802167600,7.920568115234375,-0.23222696779419433,-0.28655719764014187,-0.6974544524298734
1684000197812209800,7.9306103515625,-0.14728838216405,-0.3944835662937805,-0.454774379715342
1684000197822251600,7.940652099609375,-0.0686333178538149,-0.2215347290562667,-0.4642491339747118
1684000197832293600,7.95069384765625,0.026773810296196607,-0.08105277999454633,-0.35891866688228585
1684000197842335400,7.96073583984375,0.16095149506907253,-0.020239829878511712,-0.16994237900514422
1684000197852377300,7.970777587890625,0.22383022307245382,0.11505508417313665,-0.21902084355805576
1684000197862419100,7.980819580078125,0.19766080379843118,0.21360778804569297,-0.2748532295150426
1684000197872461000,7.990861328125,0.2649576662960115,-0.03289794907129847,0.09903717032432235
1684000197882502800,8.0009033203125,0.30564141277678536,-0.26890563966367537,0.4011869430221659
1684000197892544600,8.010945068359375,0.2706825733070073,-0.20993042010860413,0.4281277656187745
1684000197902586600,8.020987060546876,0.29014873512112915,-0.18608188626864045,0.5117444991396911
1684000197912628600,8.031029052734375,0.26699507251704097,-0.034055709738236746,0.3954806327438257
1684000197922670600,8.04107080078125,0.23779928690362281,-0.012413024868731064,0.36068868628126943
1684000197932712400,8.05111279296875,0.19542872905101977,0.06965732574802491,0.2789974213749857
1684000197942754200,8.061154541015625,0.11992263804590003,0.3343448640355431,0.05361986162019006
1684000197952796100,8.071196533203125,0.021374344863921292,0.418315887418791,-0.06607770929238697
1684000197962837900,8.08123828125,-0.059207320186243265,0.2678041459958289,-0.01662397383424876
1684000197972879800,8.0912802734375,-0.07188725460075795,0.12232494352191105,0.0651507378693804
1684000197982921600,8.101322021484375,-0.10011583559921523,0.10490989677475655,-0.024754524299323115
1684000197992963800,8.1113642578125,-0.09125649939958899,0.0038604737882508046,0.09768295281404542
1684000198003005600,8.121406005859376,-0.019438266731200086,-0.13070106491851968,0.2531838417828232
1684000198013047500,8.13144775390625,0.02205896392166041,-0.11945438391955567,0.318561077135177
1684000198023089300,8.14148974609375,0.06064260015352886,-0.16479301439626876,0.31945514680969445
1684000198033131200,8.151531494140626,0.1419665813821003,-0.1768198014470945,0.43285942079099926
1684000198043173000,8.161573486328125,0.20785152911759214,-0.10909271242561519,0.4403657911790784
1684000198053214900,8.171615234375,0.1513470410858806,0.03693008426241736,0.4050064088060523
1684000198063256800,8.1816572265625,0.08255207525137881,0.16806697849829424,0.3533372879409627
1684000198073298900,8.19169921875,-0.006618738166136184,0.2188625335260405,0.31406068801891573
1684000198083340600,8.2017412109375,-0.052476048363305175,0.21182918532943215,0.3335146903504771
1684000198093382600,8.211782958984376,-0.08718872082239852,0.12674140934695133,0.35385179510109754
1684000198103424400,8.221824951171875,-0.0776087044614644,0.11752700814716384,0.4306850434916059
1684000198113466300,8.23186669921875,-0.15877217053988102,0.09131813054151135,0.35633993162932137
1684000198123508100,8.241908447265626,-0.24021506312716628,0.15223026265520234,0.23753452312621456
1684000198133550000,8.251950439453125,-0.32647144791507543,0.1999187469127477,0.1361393928107944
1684000198143591900,8.2619921875,-0.36686891322698895,0.2581501007276232,-0.07789659501131448
1684000198153634000,8.272034423828124,-0.3278762102787343,0.28002452843566095,-0.21870851515865333
1684000198163675800,8.282076171875,-0.22435623404154528,0.07537651059794057,-0.12066745757063371
1684000198173717600,8.2921181640625,-0.1284769773767121,0.03687477097405796,-0.15401649468895995
1684000198183759600,8.302159912109374,-0.006354451207079762,0.029875755233010778,-0.20559787757551812
1684000198193801400,8.312201904296876,0.11154568190847425,-0.0787391662560921,-0.18430662158753036
1684000198203843200,8.32224365234375,0.2217686174725387,-0.21710491179182712,-0.2849912642955768
1684000198213885100,8.332285400390624,0.2740935086981534,-0.3162860869806627,-0.5498056412299349
1684000198223927000,8.342327392578126,0.2404181957673032,-0.40022659304414027,-0.6763701437651073
1684000198233969100,8.352369384765625,0.21441638470833219,-0.49309539802628805,-0.7078213692602845
1684000198244010900,8.362411376953125,0.11169576636261196,-0.5474586487117356,-0.8785467148339751
1684000198254052800,8.372453125,0.013961672782468801,-0.36985301976307094,-1.1678278447279895
1684000198264094600,8.3824951171875,0.04950082305628699,-0.25560188297449404,-1.2105724810348086
1684000198274136600,8.392536865234375,0.10200095177082648,-0.22961807243008686,-1.2703099249771708
1684000198284178400,8.402578857421876,0.1838268042147329,-0.22873878472964662,-1.3554644584008628
1684000198294220200,8.41262060546875,0.2578170300517807,-0.27097320547839415,-1.1561105253007355
1684000198304262100,8.422662353515625,0.22027206416564424,-0.24798011791691624,-0.6846661568910629
1684000198314304200,8.43270458984375,0.1401046513569512,-0.14058685296012155,-0.38735246660823186
1684000198324346000,8.442746337890625,0.011968493607476649,-0.030456542817396775,-0.2289552686655564
1684000198334387900,8.452788330078125,-0.06048357476539732,0.05425262447419433,-0.10371589659326393
1684000198344429700,8.462830078125,-0.12118637550172642,0.11404132835444125,-0.07023000723801383
1684000198354471600,8.4728720703125,-0.171661138506325,0.13504981992100568,-0.0733876227932272
1684000198364513500,8.482913818359375,-0.19717472794392996,0.10149192811927658,-0.11504411710342576
1684000198374555300,8.492955810546874,-0.21413803108138085,0.09235572817268863,-0.2269001007627981
1684000198384597200,8.50299755859375,-0.19902378320909145,-0.005639076052807988,-0.2215847968136666
1684000198394639300,8.513039794921875,-0.11674225320458126,-0.18681907651157975,-0.18449497229770148
1684000198404681100,8.52308154296875,-0.037330865691244684,-0.24249172212693645,-0.17692804353627153
1684000198414723000,8.533123291015626,0.03276121600720774,-0.24031925187610445,-0.15958833696399535
1684000198424764800,8.543165283203125,0.10836172095208677,-0.22826004032644157,-0.044912338192359964
1684000198434806600,8.55320703125,0.13384091848856536,-0.10509681702031141,-0.03872537616007461
1684000198444848600,8.5632490234375,0.15670919419509935,-0.020563125604754595,-0.04649734510391605
1684000198454890400,8.573290771484375,0.1513453721601397,0.09200763701085621,-0.049024582004556706
1684000198464932300,8.583332763671875,0.11205875883158774,0.19197559350756968,-0.06573343278643827
1684000198474974400,8.593374755859376,0.09062218671683252,0.1708154678987076,0.024761199939870245
1684000198485016200,8.603416748046875,0.08989536748411239,0.13630199419917804,0.07888555538168847
1684000198495058100,8.61345849609375,0.15402758109942968,-0.11198329921113005,0.3740811348400966
1684000198505100000,8.623500244140626,0.12321817871155988,0.09867763528804079,0.1754932403880244
1684000198515141800,8.633542236328125,0.10900175571411552,0.14833927147673795,0.1997318267586713
1684000198525183600,8.643583984375,0.14404273037581192,0.059851646450366204,0.3045883177966701
1684000198535225600,8.6536259765625,0.23019039629234012,-0.033244132954851714,0.4380555153219573
1684000198545267400,8.663667724609375,0.2463693618977353,0.03026962266010523,0.3874840736943325
1684000198555309600,8.6737099609375,0.21865749365230006,0.17114448529819187,0.3394436835949098
1684000198565351300,8.683751708984374,0.22293341170213335,0.199144363351676,0.4928693772035524
1684000198575393200,8.693793701171876,0.1925607921180038,0.22854042058347246,0.5654740332550124
1684000198585435100,8.70383544921875,0.17511081685764918,0.2688035964838352,0.5587778091720182
1684000198595476900,8.713877197265624,0.10856282716318727,0.35040950785469743,0.4813961982232167
1684000198605518800,8.723919189453126,0.03618502623254125,0.33628654492934434,0.35598945608149685
1684000198615560600,8.7339609375,0.0278949736752586,0.23486137393981588,0.3638401031561213
1684000198625602600,8.7440029296875,0.027500629555247142,0.10152149207322295,0.36075830456130625
1684000198635644600,8.754044921875,-0.04928910733966372,0.06687164291408883,0.28199338920163114
1684000198645686400,8.7640869140625,-0.05992358926967084,0.01191902153800776,0.30370330807048834
1684000198655728300,8.774128662109375,-0.048399388829319975,0.0027437210272974366,0.2898015975980555
1684000198665770200,8.784170654296876,-0.005756497452548965,0.017626762459952004,0.28607320773216777
1684000198675812000,8.79421240234375,0.0017521382638166487,0.06327915180938894,0.2876982689118163
1684000198685853900,8.804254150390625,0.019716858895398582,0.09435939791398944,0.32022571549241236
1684000198695895700,8.814296142578126,0.050070881924130756,0.12046909336987026,0.27715587631179606
1684000198705937600,8.824337890625,0.08310782898440328,0.13928413389406838,0.28914880752114264
1684000198715979600,8.834380126953125,0.09971070301149962,0.1742267607660984,0.2960333824663981
1684000198726021600,8.844421875,0.14719474317224748,0.1449146270384113,0.25303983700671534
1684000198736063400,8.8544638671875,0.18009328839379937,0.1442298890100828,0.24580144869716633
1684000198746105300,8.864505615234375,0.1939814090302367,0.14112281802347487,0.23139667503848652
1684000198756147100,8.874547607421874,0.20817124831541553,0.11439704891774538,0.22865104689502144
1684000198766189000,8.88458935546875,0.22992300970094048,0.08331489569484879,0.2821259498034272
1684000198776230800,8.89463134765625,0.24697428937461452,0.04799079897014976,0.20976781841448983
1684000198786272600,8.904673095703124,0.20394909393115537,0.006180763307009511,0.1458683012182809
1684000198796314800,8.914715087890626,0.1429360507142926,-0.08213901505465225,0.03149223327752982
1684000198806356600,8.924757080078125,0.06622761472401499,-0.1690473556029087,-0.026390552637941468
1684000198816398600,8.934798828125,-0.017974018926625947,-0.21439361571519824,-0.13456153867758616
1684000198826440400,8.9448408203125,-0.13688075551575632,-0.23270988475174934,-0.25181531896962567
1684000198836482200,8.954882568359375,-0.22077614064807075,-0.22651958472528771,-0.32586240766811164
1684000198846524100,8.964924560546875,-0.2742848991907129,-0.19366645814240036,-0.34538269046265324
1684000198856565900,8.97496630859375,-0.2687464356133035,-0.1649913787452613,-0.28517341621299
1684000198866607800,8.98500830078125,-0.21371060617208987,-0.060389518731298567,-0.1161279677349191
1684000198876649900,8.99505029296875,-0.11647927751336719,0.005565643326856834,0.07450437556189007
1684000198886691800,9.005092041015626,-0.0035337806045900315,0.08745479594098679,0.20119953166632348
1684000198896733600,9.015134033203124,0.12211036680321417,0.17309093493746397,0.2742567062444868
1684000198906775600,9.02517578125,0.2172363995353628,0.236364364648487,0.3721141813961403
1684000198916817300,9.0352177734375,0.2834993005739349,0.25403499599291224,0.4191250800727765
1684000198926859200,9.045259521484375,0.3484722374746403,0.26433753965332657,0.47014713277449954
1684000198936901000,9.055301513671877,0.3998631238494035,0.27203750601451265,0.515662670151927
1684000198946942900,9.06534326171875,0.44265747069638395,0.2818193434999509,0.5344223974806137
1684000198956985000,9.075385498046876,0.477345824234428,0.2959423063559626,0.5431613922437093
1684000198967026900,9.08542724609375,0.5350357890032041,0.27887153626910755,0.6099543572808555
1684000198977068600,9.09546923828125,0.5206934808714553,0.23323726660825495,0.6157317163309266
1684000198987110600,9.105510986328126,0.5118847488496551,0.23474597936210684,0.5497770309552904
1684000198997152400,9.115552734375,0.4840936064041281,0.19766426093732622,0.4742617605832996
1684000199007194300,9.1255947265625,0.409123241957009,0.17427921301713845,0.2949299812078391
1684000199017236400,9.13563671875,0.28321331728893545,0.12218093868058928,0.10331344595290753
1684000199027278300,9.1456787109375,0.15205299855264853,0.03496837613960308,-0.06473636623927106
1684000199037320100,9.155720458984376,-0.012275636197139315,-0.10543441756310012,-0.18577909477690732
1684000199047362000,9.165762451171876,-0.16196805233265685,-0.23903083810189515,-0.2954459190610856
1684000199057403800,9.17580419921875,-0.34148126844375026,-0.3090324401977466,-0.39795589450314006
1684000199067445600,9.18584619140625,-0.4639313817156501,-0.31844043741268735,-0.4999711512433362
1684000199077487600,9.195887939453126,-0.5491097569397988,-0.3219976424877422,-0.546968460122711
1684000199087529600,9.205929931640624,-0.5760517121289875,-0.28663825982883245,-0.5234525203398327
1684000199097571600,9.215971923828125,-0.517754793090039,-0.20117950437343673,-0.45903301241408434
1684000199107613400,9.226013671875,-0.38654550918138253,-0.10158920281438924,-0.3329033852414741
1684000199117655200,9.2360556640625,-0.19660156962082576,-0.039940834084405706,-0.15526580810494617
1684000199127697100,9.246097412109377,0.060480177437933415,0.06615257257266877,0.09813928600367111
1684000199137738900,9.256139404296874,0.32759517434754004,0.13568305981797285,0.24465322492359803
1684000199147780800,9.26618115234375,0.5568436981359931,0.19492816934640858,0.4175491333864214
1684000199157822600,9.27622314453125,0.7391324638286642,0.27667427061605177,0.5898337363984872
1684000199167864800,9.28626513671875,0.9004347325428749,0.34017944336999306,0.6761579512105258
1684000199177906600,9.29630712890625,1.0306892395019294,0.3854637146735738,0.7386879920212347
1684000199187948500,9.306348876953123,1.1146352292902406,0.4504051209438086,0.7801561356559156
1684000199197990300,9.316390625,1.1633002758107969,0.5156908035677441,0.7701311112314925
1684000199208032200,9.3264326171875,1.1501355171373646,0.5411453247950248,0.7728242874512781
1684000199218074000,9.336474365234375,1.067507982207912,0.48494243618870947,0.750268936174285
1684000199228115900,9.346516357421876,0.8679203986399665,0.4001045227023531,0.643910407938352
1684000199238157700,9.35655810546875,0.6753239630841812,0.31553745262259036,0.42731618888616846
1684000199248199900,9.366600341796875,0.4361138940537489,0.2480039594881846,0.27705860135088256
1684000199258241600,9.37664208984375,0.21344035866791164,0.15743541714566506,0.051150798901739215
1684000199268283600,9.38668408203125,-0.02672243124046217,0.11708831782068524,-0.15063190457732747
1684000199278325400,9.396725830078124,-0.27534300083872,0.11811923991221097,-0.17540073392710406
1684000199288367300,9.406767578125,-0.5031396747302669,-0.0452890396519022,-0.5003342629409411
1684000199298409100,9.4168095703125,-0.6368384958356431,-0.24850749964020127,-0.6581125259191967
1684000199308451000,9.426851318359375,-0.7460876703527392,-0.3533697128066406,-0.5844993592018616
1684000199318493100,9.4368935546875,-0.8112633228733771,-0.3596096039668526,-0.5897111893671226
1684000199328535000,9.446935302734374,-0.7837880253257347,-0.39367866512098354,-0.6036930084532283
1684000199338576800,9.456977294921876,-0.7230240108258822,-0.39334011074737646,-0.5403308868140574
1684000199348618600,9.46701904296875,-0.6155225037003244,-0.3113002777895975,-0.46252393723055096
1684000199358660600,9.47706103515625,-0.4940136968883782,-0.20060920712452526,-0.3873825073215406
1684000199368702400,9.487102783203126,-0.3651876448839711,-0.13322639473512682,-0.2721185684575292
1684000199378744600,9.497144775390623,-0.2567728460356219,-0.06624317161070079,-0.17432451257062417
1684000199388786400,9.507186767578125,-0.165088683331773,0.00031852733361042616,-0.06281566603629792
1684000199398828200,9.517228515625,-0.05764690048044227,0.10220813750586996,-0.018877506162138635
1684000199408870100,9.5272705078125,1.940129802924191e-05,0.14628696440084882,-0.04686069489949407
1684000199418911900,9.537312255859376,-0.014284908751960361,0.1996631622582558,-0.09380483627804205
1684000199428953800,9.547354248046876,-0.04631051405251313,0.22172927863318057,-0.10228872308358003
1684000199438995600,9.55739599609375,-0.10577566936271962,0.22923660274291194,-0.13939476012794408
1684000199449037600,9.56743798828125,-0.14672894767596623,0.22226428995008823,-0.1763796806929086
1684000199459079600,9.57747998046875,-0.2493955939667551,0.2057008743615467,-0.25616788866193996
1684000199469121500,9.58752197265625,-0.3287288546292087,0.15572452547341656,-0.2354145051169402
1684000199479163300,9.597563720703125,-0.40488725900835615,0.1177701949820483,-0.25302433979373407
1684000199489205200,9.60760546875,-0.4480406046556336,0.08724498748324788,-0.23689222338644916
1684000199499247000,9.6176474609375,-0.4569387137957818,0.09286212930007916,-0.198957443227702
1684000199509288900,9.627689208984377,-0.35443755998780796,0.08191490167208947,-0.10840797430409703
1684000199519330700,9.637731201171874,-0.2674860954857539,0.12129306789655675,-0.027451991976962242
1684000199529372800,9.647773193359376,-0.1683881878048789,0.12489414228793021,0.003439426383043554
1684000199539414600,9.657815185546877,-0.03000275796587351,0.13098525984546439,0.1301131249161926
1684000199549456600,9.66785693359375,0.09116183204725381,0.1680145263379911,0.19197702420161636
1684000199559498400,9.67789892578125,0.1677882969954321,0.1904954911270801,0.1676568985745949
1684000199569540300,9.687940673828123,0.23947583139602044,0.22969150541633565,0.13656187053599572
1684000199579582100,9.697982421875,0.2866047023880577,0.2185440063823444,0.193899631423291
1684000199589624000,9.7080244140625,0.2802991568323173,0.20241165161353464,0.14328098310051762
1684000199599666100,9.71806640625,0.24467578539857998,0.23378276826228764,0.12809085842236903
1684000199609708000,9.7281083984375,0.1633756458520002,0.1883144378087261,0.06453466420385683
1684000199619749800,9.738150146484376,0.08278340088986777,0.14034175863980577,-0.04228782645977003
1684000199629791600,9.748192138671875,-0.01749914149825826,0.05393123635298576,-0.032543659236921076
1684000199639833600,9.75823388671875,-0.13416233664721736,-0.08054637915870454,-0.08123826972954483
1684000199649875400,9.76827587890625,-0.24295246603581583,-0.1768131255963212,-0.18067073835632502
1684000199659917200,9.778317626953124,-0.3534171879365633,-0.21809291843355735,-0.14410519607824757
1684000199669959100,9.788359375,-0.4054408668774543,-0.2763423918558718,-0.16330671326925517
1684000199680001200,9.798401611328124,-0.4749931096923543,-0.30131721509378145,-0.24996256817110227
1684000199690043100,9.808443359375,-0.5297841431353344,-0.3548336028902997,-0.28039336211030674
1684000199700084900,9.8184853515625,-0.5530440212222433,-0.3606214522496103,-0.3201785088217378
1684000199710126800,9.828527099609374,-0.5312939285977691,-0.3853807448714891,-0.35261964796643974
1684000199720168600,9.838569091796876,-0.5151575804905533,-0.3935422897605193,-0.3779480456196381
1684000199730210700,9.848611083984377,-0.5023391246905061,-0.39231204991188845,-0.4053783417963804
1684000199740252600,9.858653076171874,-0.4999108016989071,-0.3911266327186038,-0.3992366790994214
1684000199750294400,9.86869482421875,-0.474686324581694,-0.38298606870789204,-0.4002122879546185
1684000199760336300,9.87873681640625,-0.46261477471729984,-0.3445043564908591,-0.391769170840457
1684000199770378200,9.888778564453125,-0.4538526833894393,-0.33748817438127304,-0.31066060065673545
1684000199780420000,9.8988203125,-0.436560958737523,-0.38749885561090136,-0.30443978326346666
1684000199790461900,9.9088623046875,-0.4346575737251139,-0.40409660345311266,-0.3317580224005653
1684000199800503600,9.918904052734376,-0.44812330618829366,-0.5361299514592061,-0.3284196854157238
1684000199810545800,9.9289462890625,-0.4624179900083143,-0.6074943542283704,-0.3585281371942956
1684000199820587600,9.938988037109375,-0.47011244303762895,-0.7088260651240836,-0.31351757038866224
1684000199830629600,9.949030029296877,-0.49243527653018165,-0.7501230239640501,-0.3428108691652694
1684000199840671400,9.95907177734375,-0.5386313796414544,-0.7345762253136681,-0.400027275208844
1684000199850713300,9.96911376953125,-0.6060913801670701,-0.7125930785500889,-0.44468975050944737
1684000199860755100,9.979155517578125,-0.6536793708735094,-0.5740032196847688,-0.4329230786386529
1684000199870797200,9.98919775390625,-0.7049998046759198,-0.3876819611531652,-0.3544650077219379
1684000199880839100,9.999239501953124,-0.6980016233036241,-0.24846744523538944,-0.2325046061357263
1684000199890880900,10.00928125,-0.6549434661918878,-0.1060543059776182,-0.08855152146119065
1684000199900922800,10.0193232421875,-0.6223545073942836,-0.039328575128706605,0.01737833017104664
1684000199910964600,10.029364990234376,-0.6015019417863632,-0.01943302152835611,0.1043033599168654
1684000199921006600,10.039406982421877,-0.5953208207439871,-0.05819225304617379,0.16978836058540034
1684000199931048400,10.04944873046875,-0.5748180149657263,-0.13676071174803411,0.23937273041170581
1684000199941090600,10.059490966796876,-0.553788065907975,-0.17216396331148365,0.3141098021993951
1684000199951132300,10.06953271484375,-0.5282595157526833,-0.25137233728178177,0.12787866583964827
1684000199961174200,10.07957470703125,-0.43566608438165233,-0.25888156895469394,0.034254550789388306
1684000199971216000,10.089616455078126,-0.2777491807570303,-0.2357072829833368,-0.05623817442506332
1684000199981257900,10.099658203125,-0.1572417019485367,-0.14687156688134403,-0.03841972337881547
1684000199991299800,10.1097001953125,-0.08945083620630044,-0.325497627264274,-0.1512455939946044
1684000200001341600,10.119741943359376,-0.021272778492984628,-0.3161468505513973,-0.10805225366073862
1684000200011383600,10.1297841796875,0.07538914681851054,-0.17727279655584077,-0.1536808014542685
1684000200021425600,10.139825927734377,0.1947153807010076,0.020522117646823993,-0.20356082924417257
1684000200031467400,10.149867919921874,0.29128527647006996,0.23805046081496656,-0.21871471395954314
1684000200041509300,10.15990966796875,0.3729410170681616,0.21153831475632875,-0.4143946170742145
1684000200051551200,10.16995166015625,0.530550003112333,0.2999677658859636,-0.39433383945534634
1684000200061593000,10.179993408203124,0.6336761712534423,0.36332130427943266,-0.3245120048271776
1684000200071635100,10.190035400390624,0.7193543911004276,0.39827251444173384,-0.3628749845587778
1684000200081677000,10.200077392578123,0.8098868130858398,0.31339645390267024,-0.5711166857919185
1684000200091718800,10.210119140625,0.8589382766628396,0.2821168899826105,-0.6294176579055074
1684000200101760600,10.2201611328125,0.9249042870115418,0.27208518984191205,-0.621784687137454
1684000200111802600,10.230202880859377,1.0482404231861104,0.28729820252036287,-0.6730298994493905
1684000200121844400,10.240244873046874,1.127050876556182,0.25663185133527083,-0.730453729661822
1684000200131886600,10.250286865234376,1.1304377318340595,0.20623683933287462,-0.7119953632171806
1684000200141928400,10.260328857421875,1.0825049877194761,0.10273456568244234,-0.7561659814479463
1684000200151970200,10.27037060546875,1.0210967064895942,0.07845020308091147,-0.7371947766207214
1684000200162012100,10.28041259765625,0.9449507592618449,0.0024232865446405464,-0.7478544711521291
1684000200172053900,10.290454345703123,0.8172046542745048,0.021231651382319368,-0.7031140327573038
1684000200182095800,10.30049609375,0.48153412358710346,0.02013874050439054,-0.5992250443665479
1684000200192137600,10.3105380859375,0.09059035788048794,-0.031185150274336375,-0.5240197182502527
1684000200202179600,10.320579833984375,-0.29717147361370905,-0.08214378372134859,-0.4242606162309647
1684000200212221600,10.3306220703125,-0.5423117875934396,-0.10411834715323316,-0.2853493690675578
1684000200222263500,10.340663818359374,-0.5617629289509641,-0.15296173099551497,-0.32311868667467547
1684000200232305300,10.350705810546875,-0.4909777642993978,-0.23041439039291545,-0.36456298831971257
1684000200242347200,10.36074755859375,-0.4164958000752757,-0.26978111271323035,-0.38409376141856716
1684000200252389000,10.37078955078125,-0.4097826481562787,-0.31260108958401694,-0.34500503551924755
1684000200262431200,10.38083154296875,-0.3782140016467846,-0.31924724586607506,-0.3560204506647168
1684000200272473000,10.390873291015623,-0.4827530384372735,-0.39948081971852906,-0.4257407189297415
1684000200282514900,10.400915283203124,-0.5313396454615599,-0.3355569840295643,-0.36235189440991983
1684000200292556600,10.41095703125,-0.5587445497378687,-0.2714128494236004,-0.28889989861478244
1684000200302598600,10.4209990234375,-0.5357644559239393,-0.1808853149874473,-0.27543163305710816
1684000200312640400,10.431040771484374,-0.5396771430862644,-0.049875259228351586,-0.20287704469147078
1684000200322682300,10.441082763671876,-0.519895434491496,0.030218124341191255,-0.10079860690502254
1684000200332724100,10.45112451171875,-0.554910540407809,0.18070125564021708,-0.022648334412195464
1684000200342766300,10.461166748046876,-0.5543185472430612,0.24399089802031576,-0.04212522515348725
1684000200352808100,10.47120849609375,-0.4954590797719108,0.2264003752668545,-0.005942821429915485
1684000200362850000,10.48125048828125,-0.4096535444528894,0.18120002746666605,-0.022581100472836884
1684000200372891800,10.491292236328125,-0.26653480521658157,0.10867309571961961,-0.00036621088042689264
1684000200382933600,10.501333984375,-0.06810605527573198,0.04521179199339367,0.008933067259001346
1684000200392975800,10.511376220703124,0.20494413387835048,-0.00407123577538936,-0.017955780052521218
1684000200403017600,10.52141796875,0.4984545707532381,0.011040687530178783,-0.06628084190020442
1684000200413059600,10.5314599609375,0.6525186897157869,0.09227371221055022,-0.012629509119763363
1684000200423101400,10.541501708984375,0.7370870113409477,0.20331764220024895,-0.03268289566449994
1684000200433143200,10.551543701171877,0.8411149979471346,0.36049842827452616,-0.07299280171782224
1684000200443185100,10.56158544921875,0.8789277077017743,0.4635233879901201,-0.1487784384700595
1684000200453226900,10.57162744140625,0.7784689664671882,0.5341649057392743,-0.18637847911869618
1684000200463269000,10.58166943359375,0.5379593967410576,0.5578880309540797,-0.20286273958078216
1684000200473310900,10.591711181640624,0.21980595590530988,0.49809265135257036,-0.14404201496419666
1684000200483352800,10.601753173828126,-0.016476869518104006,0.48065185544857253,-0.07731771479332662
1684000200493394600,10.611794921875,-0.2055768965903183,0.4643306731440698,0.05703783028035199
1684000200503436500,10.6218369140625,-0.37924683080365446,0.3565435410232548,0.12874364863768156
1684000200513478300,10.631878662109376,-0.33806383619490493,0.28750896454336317,0.21380329136770915
1684000200523520400,10.6419208984375,-0.3722333907865121,0.25903034198212266,0.3589510918183756
1684000200533562300,10.651962646484376,-0.3637144566432197,0.2677588462208974,0.490672111500586
1684000200543604100,10.662004638671876,-0.4607280492119957,0.12514209752267644,0.41538763046820926
1684000200553646000,10.67204638671875,-0.47929155817168073,0.04945182795523798,0.4139084816683479
1684000200563687900,10.682088134765625,-0.5542238950178789,0.03469371797494302,0.39393663402528833
1684000200573729600,10.692130126953124,-0.5673759580374929,-0.011774063108335477,0.2540068625753502
1684000200583771800,10.702172119140624,-0.5007457136696155,0.0525035858243963,0.03992795952053475
1684000200593813600,10.712214111328125,-0.3925201891988104,0.15538883219352465,-0.06697082513189083
1684000200603855600,10.722255859375,-0.251810550691305,0.12923431388140239,-0.09894609447770243
1684000200613897400,10.7322978515625,-0.13889360424615804,0.14728164674667704,-0.11723422987138041
1684000200623939200,10.742339599609377,-0.06064409000558042,0.1303138734094665,-0.14415884021868872
1684000200633981100,10.752381591796874,-0.010662138339633608,0.13807106028883145,-0.15119981760731746
1684000200644023000,10.76242333984375,-0.07417517896065635,0.1323289870955946,-0.14295196542197136
1684000200654065100,10.772465576171877,-0.19168877594564537,0.18461132065080396,-0.10504484176374954
1684000200664106900,10.78250732421875,-0.34811514605219446,0.20160865797455174,-0.05627059947710252
1684000200674148800,10.792549072265626,-0.5039689542239414,0.20996189107944135,-0.06743240357795154
1684000200684190600,10.802591064453123,-0.5736252666692766,0.2027091979529283,-0.03760528561927425
1684000200694232600,10.8126328125,-0.582124352439915,0.22507190707926372,-0.046176433551488025
1684000200704274400,10.8226748046875,-0.5608236194617999,0.16707515718628027,-0.050474166947430725
1684000200714316500,10.832716796875,-0.5399336816229582,0.07178783418609025,-0.129676341905075
1684000200724358300,10.8427587890625,-0.48245406132198826,-0.005713462831290379,-0.2138109207098247
1684000200734400200,10.852800537109376,-0.3953649402232294,-0.04587364186289431,-0.2717914581747129
1684000200744442000,10.862842529296875,-0.3176047802153398,-0.11750507347080132,-0.40051889420194786
1684000200754483900,10.87288427734375,-0.3338325619866258,-0.25295448306525736,-0.4456300733754431
1684000200764526000,10.882926513671874,-0.46104419234574195,-0.5010824203621194,-0.432774543696097
1684000200774567900,10.89296826171875,-0.6067970394359168,-0.7119693756898692,-0.462078094515342
1684000200784609600,10.903010009765625,-0.7557004688914346,-0.7780370712685273,-0.4692993165334564
1684000200794651600,10.913052001953124,-0.8970730305091041,-0.8380260468891856,-0.5154948234602034
1684000200804693400,10.92309375,-1.0466632843536778,-0.9722795487531589,-0.4424762725839861
1684000200814735300,10.9331357421875,-1.1643776893339337,-1.0956001280941294,-0.2111506462470853
1684000200824777100,10.943177490234374,-1.2047476769578025,-1.1379232406884658,0.02203369137071885
1684000200834819200,10.9532197265625,-0.9775928257931149,-1.0655984878360631,0.24494647989759866
1684000200844861100,10.963261474609377,-0.5025631785875962,-0.7395257949702714,0.4206409453384396
1684000200854903000,10.973303466796876,0.13625913862937547,-0.19820308690217237,0.6163587570392064
1684000200864944800,10.98334521484375,0.8615470528919519,0.3714427948125664,0.748216629017385
1684000200874986600,10.993386962890623,1.3423607349089008,0.9020104409116311,0.7942872048174314
1684000200885028600,11.003428955078125,1.4373745917728584,1.184495925884501,0.8744792938618019
1684000200895070600,11.013470947265626,1.24630212775302,1.2611799239555959,0.8432097433439283
1684000200905112600,11.023512939453123,0.9748958946697956,1.0125570296183461,0.6972084045481712
1684000200915154400,11.0335546875,0.6545462012166958,0.9823598860774987,0.5166888237448511
1684000200925196200,11.0435966796875,0.27370378371289805,0.9564552308419813,0.4232687950066398
1684000200935238100,11.053638427734375,-0.10092717410242542,0.7323708534990404,0.439207553790916
1684000200945280200,11.0636806640625,-0.405333280465648,0.5180416107523435,0.4947495461204132
1684000200955322000,11.073722412109374,-0.6699777244421571,0.3183555602673686,0.44718456268278356
1684000200965363900,11.083764404296875,-0.7547556162444415,0.17436409000737327,0.4103164672251714
1684000200975405700,11.09380615234375,-0.6372297405683056,0.012263298157570154,0.3659639358426937
1684000200985447600,11.103847900390624,-0.37763202183482086,-0.12722015383466292,0.38366889967107726
1684000200995489500,11.113889892578126,-0.07678374652062504,-0.20139789581721537,0.38153839119471233
1684000201005531300,11.123931640625,0.19172486661674312,-0.2155370711780778,0.36838245406186315
1684000201015573400,11.133973876953124,0.40871372807250905,-0.17731189745210635,0.24781084049665464
1684000201025615300,11.144015625,0.5383245348858218,-0.1729488371706661,0.07218599314287259
1684000201035657100,11.1540576171875,0.5781939030895848,-0.08528232577062883,-0.13936567303867523
1684000201045699000,11.164099365234376,0.539944767956645,-0.019516944702032257,-0.31759786595776
1684000201055740800,11.174141357421876,0.41173452131274485,0.012578964284629034,-0.4912352561227787
1684000201065782600,11.18418310546875,0.216732397526049,0.011225700368991981,-0.6051378249747925
1684000201075824800,11.19422509765625,-0.01207253330590139,-0.059082031225251574,-0.6707530020112861
1684000201085866600,11.20426708984375,-0.22775644053647381,-0.14320278166152228,-0.6567273139484617
1684000201095908600,11.214308837890623,-0.3211909532413912,-0.2151823043113159,-0.5469002723753108
1684000201105950400,11.224350830078125,-0.2899148762426603,-0.23468017579146258,-0.39195728311202593
1684000201115992200,11.234392578125,-0.11657431727597212,-0.19209098826005566,-0.27765369422079866
1684000201126034100,11.2444345703125,0.12107063817429016,-0.1279516220109922,-0.13194370273619743
1684000201136076200,11.2544765625,0.32564079759421743,-0.016056060830646316,-0.03623390202065449
1684000201146118100,11.2645185546875,0.4766314624663383,0.1407871246344083,0.02805852894509269
1684000201156159900,11.274560302734375,0.609091103138307,0.24460887904121256,0.022853851264329535
1684000201166201800,11.284602294921877,0.7030138371982636,0.30268001554421653,0.027035236373872625
1684000201176243600,11.29464404296875,0.8005980849249646,0.27696323385782157,-0.021450996284077914
1684000201186285700,11.30468603515625,0.819628357942492,0.25150680535158293,-0.033675193841874285
1684000201196327600,11.31472802734375,0.8378813266443821,0.22161579125071632,-0.08125972747464069
1684000201206369500,11.324769775390624,0.7943112252614071,0.18254089345914323,-0.13308000560984737
1684000201216411300,11.334811767578126,0.7409138679131632,0.1246957778796402,-0.13189840309391934
1684000201226453200,11.344853515625,0.6587969660966371,0.059996604900314464,-0.1901459694240951
1684000201236495000,11.3548955078125,0.5654660463332842,0.00030326844419660526,-0.23373174676289613
1684000201246537100,11.3649375,0.4339086116115878,-0.07362842561163645,-0.2747640609983748
1684000201256579000,11.3749794921875,0.2967945037719155,-0.13560199741806342,-0.31577682480906377
1684000201266620800,11.385021240234376,0.18448202314465723,-0.2167320250598841,-0.3257699011473709
1684000201276662600,11.39506298828125,0.07636492706923553,-0.24528789510808502,-0.35491418839856803
1684000201286704600,11.40510498046875,-0.05632016812321963,-0.2619857786732558,-0.429429531186932
1684000201296746400,11.415146728515625,-0.11535802482939826,-0.27652168276887085,-0.44677209862169776
1684000201306788300,11.425188720703124,-0.15995122479330393,-0.23644256592546364,-0.39773559585611545
1684000201316830400,11.435230712890624,-0.15845391145460042,-0.19916725153423745,-0.33024358739484977
1684000201326872200,11.445272705078125,-0.09658905878919569,-0.14316654202981577,-0.22045087803772778
1684000201336914100,11.455314453125,-0.003696627796212669,-0.12116813662837114,-0.14280557641384042
1684000201346956000,11.4653564453125,0.05236838763148661,-0.08772945404360083,-0.11637163159387015
1684000201356997800,11.475398193359377,0.12104602156587299,-0.05959320071934142,-0.11712455757536142
1684000201367039600,11.485440185546874,0.14912444359030166,-0.04378032692367353,-0.10890054699096144
1684000201377081800,11.495482177734376,0.16954797494066073,-0.03310298917402193,-0.06783962254858279
1684000201387123600,11.50552392578125,0.17742675553372445,-0.06107139592840187,-0.07777929319542458
1684000201397165600,11.51556591796875,0.19710421567365846,-0.08221530921674641,-0.05025625237477406
1684000201407207300,11.525607666015626,0.19844678046564615,-0.055707931367880124,-0.08043861384171713
1684000201417249200,11.535649658203123,0.23218540850725794,-0.05091953280923781,-0.06790828700316476
1684000201427291300,11.545691650390625,0.2672190366706261,0.015632629416766804,-0.05847930922175537
1684000201437333200,11.555733642578126,0.2914039194662897,0.026366233670997375,-0.10557508461515691
1684000201447375000,11.565775390625,0.310197710961976,0.036594390921260427,-0.09129142755313745
1684000201457416900,11.5758173828125,0.3512835802042671,0.020503044042578578,-0.08002471935439497
1684000201467458700,11.585859130859374,0.36194425821644094,0.03750133507019658,-0.045535564537051244
1684000201477500800,11.5959013671875,0.35882535567074,0.03761482241902235,-0.051705360533150974
1684000201487542600,11.605943115234377,0.3109730482779475,0.04457569132564043,-0.06973171228789239
1684000201497584600,11.61598486328125,0.2641309797923376,0.041758537281083655,-0.03354835512993232
1684000201507626400,11.62602685546875,0.20225673905874866,0.03417301173900987,-0.07327461242400149
1684000201517668300,11.636068603515625,0.14533334984475868,0.012440681501225593,-0.034767150778487355
1684000201527710100,11.646110595703124,0.0631211698038033,0.007513046215202365,-0.05097627625870144
1684000201537752200,11.656152587890626,0.03002673379513559,0.012208938664840359,-0.028953552285118905
1684000201547794100,11.666194580078123,0.006368964903708778,0.031027793908042264,-0.04255819311471477
1684000201557836000,11.676236328125,-0.014043688814863856,0.04260921468289949,-0.02764654164534549
1684000201567877800,11.6862783203125,-0.0027517676874414276,0.04942226413103274,-0.05068540568825002
1684000201577919600,11.696320068359377,0.03199404466330915,0.013798713817244084,-0.016986846838129278
1684000201587961600,11.70636181640625,0.08642041671484399,0.028346061652765844,0.011576652412883347
1684000201598003600,11.716404052734376,0.14299935113584955,0.04746055609607177,0.018619537378070195
1684000201608045600,11.72644580078125,0.19409704213121662,0.05918502816751555,0.08908844008902209
1684000201618087300,11.73648779296875,0.2272687554443548,0.03991127009218055,0.1816148757445314
1684000201628129200,11.746529541015626,0.24228972207188,0.06063079833819667,0.19907188413463206
1684000201638171100,11.756571533203124,0.25382775075834163,0.09478473656556494,0.2392144203066781
1684000201648212900,11.76661328125,0.2631040811558816,0.14685630797148938,0.2662014961543657
1684000201658255000,11.776655517578124,0.28018480527610573,0.16466617581056428,0.2611470222767349
1684000201668296900,11.786697265625,0.28159129623790624,0.16763019556826994,0.23399257663911927
1684000201678338700,11.7967392578125,0.28383547078456917,0.18189620967303788,0.17808437353594128
1684000201688380600,11.806781005859374,0.3077744244196604,0.16731262202308717,0.12701749804808002
1684000201698422400,11.81682275390625,0.33183264719236355,0.1786518096225416,0.03864049917706592
1684000201708464300,11.82686474609375,0.3585482836219589,0.1284122466987874,-0.013406753522516881
1684000201718506400,11.83690673828125,0.3643077014842641,0.05771541597296064,-0.04134130463629425
1684000201728548300,11.84694873046875,0.38247293238230246,-0.023799896287537693,-0.07878446578479746
1684000201738590100,11.856990478515623,0.42169797415150634,-0.08062744143792556,-0.1019225121845347
1684000201748632000,11.867032470703125,0.46205782889591296,-0.08019351971456594,-0.1390652655182887
1684000201758673800,11.87707421875,0.46560281515065705,-0.12218666092000555,-0.13785743715846321
1684000201768716000,11.887116455078123,0.473022162824342,-0.12818717960056156,-0.15067768094400263
1684000201778757800,11.897158203125,0.47290331130690094,-0.13171958926245964,-0.1584663390766052
1684000201788799600,11.907199951171876,0.46074324843732317,-0.17049312583826923,-0.16602516172199686
1684000201798841600,11.917241943359375,0.4646193383373139,-0.17800140370811088,-0.1473879813175837
1684000201808883400,11.92728369140625,0.42244547602649385,-0.14056110387051407,-0.18511390692755111
1684000201818925600,11.937325927734374,0.3768837452607414,-0.14614486694563136,-0.1606950758271978
1684000201828967300,11.94736767578125,0.2972003220585099,-0.12088394164181898,-0.20424795145623062
1684000201839009200,11.95740966796875,0.24784159673987458,-0.07705688483889428,-0.17106628431778284
1684000201849051100,11.967451416015624,0.1513307092841725,-0.10911750783557132,-0.1543245314497336
1684000201859092900,11.977493408203124,0.0702164768055906,-0.06736087797645586,-0.13241243367086727
1684000201869134800,11.98753515625,0.021199524313706697,-0.05179309856173637,-0.11709403995858023
1684000201879176900,11.997577392578124,-0.07106071693482995,-0.03845310208936258,-0.12017631533723407
1684000201889218700,12.007619140625,-0.12767940758091342,-0.017906188904024244,-0.0967750549356986
1684000201899260600,12.017660888671877,-0.18189215656680596,0.014450073208799482,-0.11330509179969357
1684000201909302400,12.027702880859374,-0.22863370184418458,0.04201889026167564,-0.12901353826844913
1684000201919344300,12.03774462890625,-0.23700129985568438,0.06736850735615127,-0.10843658441625265
1684000201929386400,12.047786865234375,-0.24279177198149782,0.029378890902940408,-0.09449529643554248
1684000201939428300,12.05782861328125,-0.20108330237989347,0.0255832672279546,-0.0825018883678982
1684000201949470100,12.06787060546875,-0.1503636239873227,0.07422447205482445,-0.044220924409694405
1684000201959512000,12.077912353515623,-0.05785351984967602,0.08733272555504917,0.043491840212148476
1684000201969553800,12.087954345703125,0.049613296885593045,0.07951068873812463,0.14197254186817848
1684000201979595600,12.09799609375,0.17350292192760883,0.12864398950873537,0.20378971109708094
1684000201989637800,12.1080380859375,0.27708655604377197,0.13710117338692884,0.26479148865878943
1684000201999679600,12.118080078125,0.3546173572055942,0.1500234602327839,0.2753105164466348
1684000202009721600,12.128121826171874,0.3700013160494742,0.1553163527595034,0.28772592542163483
1684000202019763400,12.138163818359375,0.3893498182594372,0.1789674757638843,0.2620911598519293
1684000202029805200,12.14820556640625,0.341816246452942,0.16661643987867564,0.22280502307995387
1684000202039847300,12.158247802734374,0.2763444186042259,0.15660667419476995,0.23366641999005827
1684000202049889200,12.16828955078125,0.21812778703001104,0.1466789245754179,0.24203062055285737
1684000202059931100,12.17833154296875,0.16593742380752488,0.10876941671617196,0.23626375196046942
1684000202069972900,12.188373291015624,0.1272385120538042,0.09287738807022142,0.3179254531838683
1684000202080014800,12.198415283203126,0.12302225841093543,0.06339168542442301,0.3302979470101411
1684000202090056600,12.20845703125,0.10534024242007428,0.09104537966903872,0.37088680262563173
1684000202100098700,12.2184990234375,0.1070581675078279,0.1161098479051683,0.37824106210009156
1684000202110140600,12.228541015625,0.08761990061582249,0.13393306719320902,0.3765330315840638
1684000202120182400,12.238582763671875,0.05922764541637484,0.20822715761125937,0.3942003250813787
1684000202130224300,12.248624755859376,0.06029999243689737,0.23447227472041954,0.4331493378235863
1684000202140266200,12.25866650390625,0.06965237855263824,0.2535781860129677,0.4719028473094843
1684000202150308000,12.26870849609375,0.09449118367006733,0.2490224836704879,0.507717132515263
1684000202160350100,12.27875048828125,0.11093378063221836,0.2398185728678582,0.49784231196482226
1684000202170392000,12.28879248046875,0.13763415814288849,0.2495498657911223,0.4595236779642321
1684000202180433800,12.298834228515624,0.14122378822953063,0.23296451571080348,0.3999333380873004
1684000202190475600,12.3088759765625,0.15962201348224175,0.2187156676885479,0.29113340373233443
1684000202200517600,12.31891796875,0.17827284336690827,0.1856451034055405,0.1953387259160977
1684000202210559600,12.3289599609375,0.1898222567013313,0.15070629115673945,0.0750613213682504
1684000202220601600,12.339001953125,0.20579075815905373,0.08326721188897314,-0.010468006166358457
1684000202230643400,12.349043701171874,0.17160308355849938,0.003072738750343365,-0.10101795203252088
1684000202240685200,12.359085693359376,0.1867486238597723,-0.06124114989716442,-0.167838573496289
1684000202250727100,12.36912744140625,0.19645297531675024,-0.11005783085687797,-0.2327966689198513
1684000202260769200,12.379169677734374,0.2032752036378433,-0.11053848258214159,-0.27682399754667114
1684000202270811100,12.38921142578125,0.2071170211532359,-0.10575389867620559,-0.299992322876282
1684000202280852900,12.39925341796875,0.20127147435644618,-0.12397289265078258,-0.23899602879854626
1684000202290894800,12.409295166015625,0.17733693120833466,-0.1129846572385481,-0.20128059379112748
1684000202300936600,12.4193369140625,0.17672133453945713,-0.06611537926750272,-0.07583141317237496
1684000202310978600,12.42937890625,0.16425317520781976,-0.0310869217983843,0.06036758438001268
1684000202321020600,12.4394208984375,0.16573691357694834,0.022752761943402384,0.15275955216185916
1684000202331062400,12.449462890625,0.18740439415287335,0.09979724885566654,0.19044923787105358
1684000202341104300,12.459504638671875,0.2023818494331872,0.1760873794706556,0.155607700329806
