time,seconds_elapsed,z,y,x
1684007012770007000,0.039407470703125,1.0346491546955672e-12,-6.668775347611125e-11,-6.683237969132363e-11
1684007012780048000,0.049448486328125,-0.02851295466382336,0.009160518579123037,-0.052122115983436274
1684007012790089400,0.05948974609375,0.1893815993882632,0.02734637263349759,-0.04380536061509613
1684007012800130600,0.06953076171875,0.13146495833949945,0.03991746891792272,-0.12907242763995766
1684007012810171800,0.079572265625,0.25996208177559604,0.02109956741342404,-0.12617421161057651
1684007012820212900,0.08961328125,0.4192018507941015,0.12990212444643745,-0.012240886661615026
1684007012830254300,0.099654541015625,0.3955984115588733,0.17378163329635643,0.18634891494535535
1684007012840295300,0.10969580078125,0.20275211338930604,0.18209624291860885,0.011634349862226924
1684007012850336400,0.11973681640625,-0.08675479885538302,-0.005638122642035761,-0.030254840960568456
1684007012860377800,0.129778076171875,-0.7304744721202675,-0.1612846850668727,-0.06806468960698343
1684007012870419100,0.139819580078125,-1.3575081825949162,-0.15756654744237628,-0.15274858463744354
1684007012880460200,0.149860595703125,-1.1454949378165267,0.07581019389361664,-0.10135936728384519
1684007012890501300,0.159901611328125,-0.35888099665696976,0.24800729741448574,0.3755784033260032
1684007012900542600,0.169943115234375,-0.20058250435077174,0.3457102776448319,0.39893651000741226
1684007012910583600,0.179984130859375,-0.5648121833323773,0.2124111652453406,-0.08943009392010243
1684007012920625100,0.190025390625,-0.011265754754166411,0.0944199562709436,-0.21111512172891242
1684007012930666200,0.200066650390625,0.03104400624953381,-0.028495073418314462,-0.7500631808394835
1684007012940707600,0.21010791015625,-0.4176692963500549,-0.2809560297805136,-1.1326837539294776
1684007012950748600,0.22014892578125,-0.3744955063254108,-0.3875777719851569,-0.8900790214535195
1684007012960789900,0.2301904296875,-0.054028511036408405,-0.422055482872214,-0.6540887355086707
1684007012970831000,0.2402314453125,-0.0275640485977415,-0.356837987797715,-0.578786373287597
1684007012980872400,0.250272705078125,0.47277975092353697,-0.515894651512047,-1.1288204193021685
1684007012990913500,0.26031396484375,0.5788040161546723,-0.4892287254571124,-1.0472741128275225
1684007013000954800,0.270355224609375,0.3435802458999138,-0.1696276665009595,0.03257465354677581
1684007013010995900,0.280396240234375,-0.08448410045670972,0.11532187466714562,0.929772854007332
1684007013021037200,0.290437744140625,-0.17072486877553794,0.1209208966236585,0.9371943472450812
1684007013031078300,0.300478759765625,-0.398201465684711,0.2882349490374323,1.0387682914736565
1684007013041119400,0.310519775390625,0.19537830364551473,-0.17911744111995556,0.5044736861813222
1684007013051160800,0.32056103515625,-0.11672115318185362,0.1135160924329263,0.2667040824854305
1684007013061201800,0.330602294921875,-0.20586061485011758,-0.5030097961271598,0.15919065462339438
1684007013071243200,0.3406435546875,-0.4239692687065912,-0.12106895454128899,0.7666382790915109
1684007013081284300,0.3506845703125,-0.3609552383223808,-0.13227987286768478,0.6296839714375962
1684007013091325600,0.36072607421875,-0.6138448714198457,0.11180758483724333,0.6885428428749871
1684007013101366600,0.37076708984375,-0.2580423356555837,-0.15129590019671174,0.5304455757912971
1684007013111408000,0.380808349609375,0.09807634350332702,-0.1036005020692012,0.17582988736992497
1684007013121449100,0.390849609375,0.447318553872691,-0.04202294359802412,0.32011985783311464
1684007013131490600,0.400890869140625,0.24083948122920668,0.01938509945020616,-0.2894539832676853
1684007013141531600,0.410931884765625,-0.12568235398104907,0.1316962241789839,-0.8039321900864902
1684007013151572900,0.420973388671875,-0.21894598016262187,0.40028285968143457,-1.4215869902365874
1684007013161614000,0.431014404296875,-0.30801010125540246,-0.5544428824718757,-1.8855395317358359
1684007013171655300,0.4410556640625,-0.5902695657467535,-1.3510601520105088,-2.378815174066348
1684007013181696400,0.451096923828125,-0.47359037412099675,-1.1059556007203044,-1.7629814147122571
1684007013191737600,0.461137939453125,-0.5499358175926807,-0.9051849842320504,-0.7772617340482532
1684007013201778900,0.47117919921875,-0.4818115234183653,-0.36030650140118226,0.23742103583260402
1684007013211820200,0.481220703125,-0.6376600265200655,-0.25171089174759664,0.6091642380987606
1684007013221861300,0.49126171875,-0.5538218021221357,-0.1496140956302339,0.9428830146304551
1684007013231902400,0.501302734375,-0.18490839002720144,0.39886832241515074,1.334499836056754
1684007013241943700,0.51134423828125,0.16240262992570914,0.03212070469113177,1.6241722107213066
1684007013251984800,0.52138525390625,0.5026059149027072,-0.0733299255235956,1.5173726080450007
1684007013262026200,0.531426513671875,0.7487368583879471,0.2335479260145711,1.3908200264764874
1684007013272067200,0.541467529296875,0.5301618577337999,0.4437196255184759,0.9993095396834072
1684007013282108600,0.551509033203125,0.08736681955350238,-0.0004913806309721161,0.2568092345746699
1684007013292149600,0.561550048828125,-0.16739678381086748,-0.2837681770101816,0.15153789516959712
1684007013302191000,0.57159130859375,-0.05235409722659361,-0.45667648326391647,0.3388891220428139
1684007013312232100,0.581632568359375,-0.0860354901098178,-0.45924854265435555,0.3806924819855075
1684007013322273500,0.591673828125,0.1644752024932606,-0.49577474592939763,0.5682697295916485
1684007013332314600,0.60171484375,0.9955315591361338,-0.5415396690016405,0.7256736755787617
1684007013342355900,0.61175634765625,1.2817544936351222,-0.5341968537984546,0.39028453822702425
1684007013352397000,0.62179736328125,1.418926000524014,-0.5220632551903128,0.40993499767877184
1684007013362438300,0.631838623046875,3.831546068253527,-0.2557992934930565,1.0511379241622367
1684007013372479400,0.6418798828125,3.2532787322580266,0.4716749191610934,3.4628229141228224
1684007013382520800,0.651921142578125,-5.163318634025222,1.3764388562805054,-0.08696460705760216
1684007013392561800,0.661962158203125,-4.754750251720308,1.250610113189504,-1.9246382713373211
1684007013402603200,0.672003662109375,-2.0300559996285794,-0.4951860904430235,-0.35961627955381237
1684007013412644300,0.682044677734375,0.5051274298230467,-1.4365007878708909,0.24740505213599656
1684007013422685600,0.6920859375,1.0466434954262254,-0.25297689433605464,0.9273185729929974
1684007013432726600,0.702127197265625,0.20492720604801765,0.4612684248579872,1.0522232056141148
1684007013442767800,0.712168212890625,-0.8369807004489904,0.7375001906957385,1.1979446412717956
1684007013452809100,0.72220947265625,-1.5813536643594368,1.4659402370077983,1.4561977386789022
1684007013462850200,0.732250732421875,-1.1751124859391806,1.6703498363626812,1.6517715454375241
1684007013472891600,0.7422919921875,-0.012478113185884918,2.372342586400213,1.9885587691483704
1684007013482932600,0.7523330078125,0.40131282806606383,2.6799812318181546,1.6458902357959504
1684007013492974000,0.76237451171875,0.37974774839578207,2.6524577140252577,0.6882896421467378
1684007013503015100,0.77241552734375,0.47071218480301086,2.6389360427141737,1.2390775680658275
1684007013513056400,0.782456787109375,0.25738644604806565,2.41929793338813,-0.611541748065734
1684007013523097600,0.792497802734375,0.6484906673271033,2.321703195491834,-1.200778961170731
1684007013533138900,0.802539306640625,1.0187122822473715,2.0895335673863453,-1.6729941367524535
1684007013543180000,0.812580322265625,1.1238677502100967,2.37037682539386,-2.6011705397970033
1684007013553221300,0.82262158203125,1.265571951748991,1.1429374218410184,-3.1713318825833765
1684007013563262400,0.832662841796875,0.915393471668956,-0.42313241951572755,-1.1813793181299987
1684007013573303600,0.8427041015625,0.07066774366559113,-2.1082818508314785,-2.3243823052293626
1684007013583344800,0.8527451171875,-0.9174532294040829,0.44438362124038805,-4.128262996718796
1684007013593386200,0.86278662109375,0.24691069130202017,0.3516805172718342,-2.94095277799005
1684007013603427200,0.87282763671875,0.7249116898758826,1.1947315932606097,-0.4830760955194232
1684007013613468600,0.882868896484375,-1.6352512836005477,0.04943895339764617,-0.718671798555918
1684007013623509600,0.89291015625,-1.3257056475981424,-1.1524877549317163,0.6343755722158676
1684007013633551000,0.902951416015625,0.0955021976738036,-1.0732753278003737,-1.2173900603751147
1684007013643592100,0.912992431640625,0.4255782364711146,-0.30161690720741974,-1.5353460311300615
1684007013653633500,0.923033935546875,0.3194324969878099,-0.5259194375443503,-1.7783231736578027
1684007013663674600,0.933074951171875,0.04385784277797982,-0.6586842536901166,-1.882134437560851
1684007013673715900,0.9431162109375,-0.28771382566160353,-0.26030421248540464,-1.8449354171815455
1684007013683757000,0.953157470703125,-0.5652856826385295,-0.08569741243994057,-1.3781328201557828
1684007013693798300,0.96319873046875,-0.22658827906354354,-0.4791350364860527,-0.08309841157416535
1684007013703839400,0.97323974609375,-0.01702338453070804,-0.24165582657592083,0.42354583738763935
1684007013713880600,0.983281005859375,0.0338322519880916,-0.0013957024272643903,0.7603778839683026
1684007013723921800,0.993322265625,-0.3218093812597688,-0.0814926624077453,1.1216144563097057
1684007013733963200,1.003363525390625,-0.7786148189456508,0.1506211758107044,0.9516439437556945
1684007013744004300,1.01340478515625,-0.8443782329755232,0.4350829122557695,0.6050310134766116
1684007013754045400,1.02344580078125,-0.4785643221354903,0.13544774051878591,0.1552419663702414
1684007013764086600,1.033487060546875,-0.3417331277115286,-0.03644919378713119,-0.8440227509243237
1684007013774127800,1.043528076171875,-0.30139529713906527,-0.023464679638472912,-1.6900634767073883
1684007013784169100,1.053569580078125,-0.3896164594595694,0.16304755215916925,-2.3552613257317736
1684007013794210200,1.063610595703125,-0.4889499842906913,-0.14150810253074406,-2.2080507278615884
1684007013804251600,1.07365185546875,-0.7221009134927999,-0.20900821697796462,-2.4355974196335803
1684007013814292600,1.083693115234375,-0.8120482564631135,-0.37998390186585956,-2.0014142990281196
1684007013824334000,1.093734375,-0.5923527480569376,-0.11082935337290474,-1.7624835968962502
1684007013834375100,1.103775390625,-0.14595295487429483,-0.058489322534048815,-1.3411054611472322
1684007013844416400,1.11381689453125,-0.006025210082561451,-0.3494954108951819,-1.0568966866687628
1684007013854457600,1.12385791015625,0.07850417482872106,-0.29756593695694405,-0.35712528214591394
1684007013864498900,1.133899169921875,0.09267006067255394,0.024013996197970146,0.28871345517156527
1684007013874540000,1.1439404296875,-0.29568538085302093,0.5060782432968722,1.1507248879573955
1684007013884581300,1.153981689453125,-0.6599249245004098,0.734675884217798,1.8128695488395696
1684007013894622400,1.164022705078125,-0.3016009330824987,0.4258346558383901,2.56943845738909
1684007013904663700,1.174064208984375,-0.1971061825245789,0.0915627478183893,3.1342158316670763
1684007013914704800,1.184105224609375,-0.0451152921186877,0.02102375034446496,3.204611778240781
1684007013924746200,1.194146484375,-0.0654408334203151,0.2623648645258853,2.953487872976054
1684007013934787200,1.204187744140625,0.04606938358319461,-0.1837978362848164,2.910848140703499
1684007013944828600,1.21422900390625,0.29457950595140464,-0.47088527687698456,2.4660334587141346
1684007013954869600,1.22427001953125,0.8202658891324719,-1.1054148673477737,2.271656036343195
1684007013964911000,1.2343115234375,1.4284260273444143,-1.5088219642874394,1.9070253372037218
1684007013974952100,1.2443525390625,1.9878913162958294,-1.9046373367015659,1.7041220666003443
1684007013984993500,1.254393798828125,2.6394453046967783,-1.9269213676885548,1.284692764273784
1684007013995034600,1.26443505859375,1.718155741678996,-1.8038220406684549,0.8798894882107293
1684007014005075900,1.274476318359375,0.3938126266962823,-1.4106354714252975,1.0634994505795687
1684007014015117000,1.284517333984375,-0.5415325760712719,-1.046928882560889,1.1757206917389813
1684007014025158300,1.294558837890625,-1.308974504446926,-1.1341214179849077,0.5491065980150275
1684007014035199400,1.304599853515625,-1.9291639328828645,-0.5470557212492693,0.3008527756178963
1684007014045240800,1.31464111328125,-1.7869205476169694,-0.16985321028758177,0.04558134085990955
1684007014055281800,1.32468212890625,-1.3814345597916597,-0.6833271980990016,0.08438110362202254
1684007014065323200,1.3347236328125,-0.522784292630841,-0.7719287871544633,0.16265916816702405
1684007014075364300,1.3447646484375,0.3320095838641155,-0.512828350049795,0.23930072781687317
1684007014085405600,1.354805908203125,0.8825954198690565,-0.4286026954404256,0.36905145633227565
1684007014095446600,1.36484716796875,0.8911494612064712,-0.48124837878573395,0.29051160816947785
1684007014105488000,1.374888427734375,0.614512443411822,0.7360033989234863,-0.9440059661066904
1684007014115529100,1.384929443359375,0.07740443958883786,-0.29510641110593755,-0.8283748627916319
1684007014125570200,1.394970703125,-0.15254080286078175,-1.074058055957136,-0.8585472108673646
1684007014135611600,1.405011962890625,-0.025932192837166843,-1.3857007026565862,-0.28998136529327784
1684007014145652900,1.41505322265625,0.22754442696532462,-1.4727678299439384,0.36932039262969507
1684007014155694000,1.425094482421875,0.321149230133687,-0.688889980254252,1.1203150749630468
1684007014165735100,1.435135498046875,0.15506041041368238,-0.17898893369046656,1.4485650062925635
1684007014175776400,1.4451767578125,-0.25884014366035796,-0.3094830512418503,1.3534502982453438
1684007014185817600,1.455218017578125,-0.6965442894601294,-0.575781345303437,0.6900024413569851
1684007014195858900,1.46525927734375,-0.8015255929890437,-0.5344328879613764,-0.034265041434159496
1684007014205900200,1.475300537109375,-0.7857460378727679,-0.6905641556680301,-0.16974449156895496
1684007014215941300,1.485341796875,-0.5155702232568491,-0.7056040763582165,0.21612167357736384
1684007014225982400,1.4953828125,-0.4505404234050635,-0.9452381133718938,0.5534124372692569
1684007014236023600,1.505424072265625,-0.5595175027510492,-0.7217736244236339,1.1191697121187023
1684007014246064800,1.51546533203125,-0.7321780920140085,-0.4952940939739947,1.5324249268030867
1684007014256106200,1.525506591796875,-0.8767505288670953,-0.4069671629379839,1.8849806785343806
1684007014266147600,1.5355478515625,-1.0195586680924036,-0.4264769553162537,1.718702316261925
1684007014276188600,1.545589111328125,-0.9803454875763216,-0.13483238229396036,0.997487068296798
1684007014286229600,1.555630126953125,-0.783918380664165,0.23918867097819996,0.3176975251459204
1684007014296271000,1.56567138671875,-0.5591381788914208,0.5618400573825716,-0.3396024703832295
1684007014306312100,1.57571240234375,-1.0186825990795925,0.37776851654218824,-0.38999080653095036
1684007014316353500,1.58575390625,-1.454262018221656,1.1300392150197023,0.4511203765007251
1684007014326394800,1.595795166015625,0.6384726763411515,0.36343050005899763,0.37125873559525735
1684007014336435900,1.605836181640625,-0.0861765145851536,3.792998075508556,-1.911795616186243
1684007014346477000,1.61587744140625,-0.9531495569933562,0.2691450119647406,-1.4853320121840314
1684007014356518300,1.625918701171875,-1.146315574767301,0.590395927490857,0.4591231346780995
1684007014366559400,1.635959716796875,-0.6328709124883279,1.5996890068276157,1.7046275139895597
1684007014376600800,1.646001220703125,-0.3672326804232059,2.162681102822467,1.1828842162655704
1684007014386641800,1.656042236328125,-0.24045538894046256,3.5070459842496677,0.29712057112509405
1684007014396683200,1.66608349609375,-0.4630150795893122,1.7141642569510447,-0.04070949550036174
1684007014406724300,1.676124755859375,0.1735069751850027,0.5865221023617789,0.6927299500452531
1684007014416765600,1.686166015625,0.39175677301480494,0.17323207844298152,1.5295062064761573
1684007014426806600,1.69620703125,0.7310131788491517,-1.1707358359898392,2.246099472155943
1684007014436848000,1.70624853515625,1.359493374758841,-1.050810813909823,1.7918810842938255
1684007014446889100,1.71628955078125,1.782027482843248,-0.18037796015694685,0.5467987061553
1684007014456930600,1.726330810546875,1.4506826400924588,-0.7873396873394596,0.07198047632336105
1684007014466971600,1.7363720703125,1.409146309037004,2.6816248892184977,-1.4353947640283125
1684007014477012900,1.746413330078125,0.13486862191860385,-2.7920722962175666,0.27556562426382825
1684007014487054000,1.756454345703125,-0.37178421028198944,-3.3050341605880846,-0.5876297950781895
1684007014497095300,1.766495849609375,-0.028561830445638696,-1.4981074333238455,-0.7530760765258525
1684007014507136400,1.776536865234375,0.47832167151951743,-0.960289955197769,-1.0112223624671595
1684007014517177800,1.786578125,0.6021468638475498,-1.326771259275224,-0.9626874923373846
1684007014527218900,1.796619384765625,0.4182841776018887,-1.6058177949210326,-1.2508592605411069
1684007014537260200,1.80666064453125,0.2991359233014646,-1.554154872995109,-1.6335725782817316
1684007014547301300,1.81670166015625,0.4932358263342039,-1.463428497373445,-1.862478256205565
1684007014557342600,1.826742919921875,0.5145430565112254,-1.495659351390242,-1.8388266564147526
1684007014567383700,1.8367841796875,0.3653872013926028,-1.5067787169719973,-1.5547571181381488
1684007014577425100,1.846825439453125,0.3282468319884757,-1.282737731898003,-1.431360721547438
1684007014587466200,1.856866455078125,0.3428328037290451,-1.1448321342050556,-1.2828345297812715
1684007014597507600,1.866907958984375,0.471140861630251,-0.9621114731260283,-0.8512277601870839
1684007014607548600,1.876948974609375,0.8562819957443575,-0.7892532349708087,-0.6532278060245875
1684007014617589900,1.886990234375,1.4363014698678274,-0.7435340881064788,-0.7583293915987155
1684007014627631000,1.897031494140625,2.037101507283476,-0.6059165000742766,-1.2488183975030869
1684007014637672400,1.90707275390625,2.805014848668939,-0.37010955808228896,-0.8768849374568252
1684007014647713500,1.91711376953125,2.2211542129354522,-0.14066600799005916,-0.7816920280107149
1684007014657754800,1.9271552734375,0.7743806838768861,-0.5026159285851098,-0.5990862845734117
1684007014667795900,1.9371962890625,-1.7754166125750108,-0.40276002901900704,-0.4933114051215828
1684007014677837200,1.947237548828125,-3.0526571274137053,-0.10833978657872086,-0.6553387640096469
1684007014687878300,1.95727880859375,-3.4646787643576493,-1.5211153029374906,-1.433015346492858
1684007014697919600,1.967320068359375,-1.8932707310550143,-1.311164855979963,-1.6051163672839472
1684007014707960800,1.977361083984375,-1.1692955495145783,-1.2396774292100277,-1.4533367156596275
1684007014718002100,1.987402587890625,-0.527823209734105,-0.08499050156674075,-1.5455913543843107
1684007014728043200,1.997443603515625,-0.23610901836448484,0.6179342268818855,-1.554634094354264
1684007014738084600,2.00748486328125,0.7171204090607434,2.708124637448476,-2.271999359004366
1684007014748125600,2.017526123046875,-1.2479069231807465,-2.3745222091004115,-1.1158189774391003
1684007014758167000,2.0275673828125,-0.7571580410144776,-2.733693122786968,-0.6554079055458891
1684007014768208000,2.0376083984375,-0.2841124534479162,-1.2997961043966424,-0.28188562381405863
1684007014778249400,2.04764990234375,0.029645443042327916,-0.9131631851234714,-0.42926931380419847
1684007014788290700,2.057691162109375,-0.04861688618991957,-0.9732451438741658,-0.5840792657047003
1684007014798331800,2.067732177734375,0.013151884209191845,-0.8041133880233908,-0.9536838532197082
1684007014808372900,2.077773193359375,0.07350873952395469,-0.34309244144603174,-1.3522877692345863
1684007014818414300,2.087814697265625,0.07325887685526507,-0.17681789398782438,-1.402790546464383
1684007014828455300,2.097855712890625,0.07905411722394577,-0.01865577694929951,-1.178573608237449
1684007014838496600,2.10789697265625,0.27696490279398894,0.3141489029535252,-0.9430618286595073
1684007014848537800,2.117938232421875,0.43694520014886995,0.5717225075630259,-1.0654888152808608
1684007014858579100,2.1279794921875,0.2720146178622222,0.5786595343194457,-1.4377765654686878
1684007014868620500,2.138020751953125,-0.14511656770740614,0.5099592208098507,-1.5750088690358115
1684007014878661600,2.14806201171875,-0.36500215549712284,0.7351293563767438,-1.3263931275191518
1684007014888702600,2.15810302734375,-0.21927714336825468,1.2432341576897805,-0.942882537878243
1684007014898744000,2.168144287109375,-0.19108986848216308,1.5169682500970783,-0.4296951293130924
1684007014908785100,2.178185546875,0.08177804945907158,0.9973769186701325,-0.5929236412577171
1684007014918826400,2.188226806640625,0.3536939620847546,0.8762154578091678,-0.7503848076455636
1684007014928867800,2.19826806640625,0.2698826790809112,1.5929179191808949,-2.4904711247135696
1684007014938908800,2.208309326171875,0.2078213691777973,1.7221803664105169,-2.1135334966870385
1684007014948950200,2.2183505859375,-0.016719579670995563,1.6885046959952275,-2.10520529744652
1684007014958991300,2.2283916015625,-0.2529063224796731,1.4045472145418771,-1.7890982627120167
1684007014969032400,2.238432861328125,-0.4595777987891453,1.0453796386139425,-1.3667454720030652
1684007014979073600,2.24847412109375,-0.3445851803366008,3.4552555084400236,-0.6193222998613855
1684007014989115100,2.258515380859375,-0.8397841454643002,1.538512706769333,-0.4703516959707847
1684007014999156100,2.268556640625,-0.6235373019060219,1.4279084205519863,-0.030950069583201022
1684007015009197600,2.278597900390625,-0.8009865284753078,0.27075815198391306,0.4233913421321568
1684007015019238600,2.288638916015625,-1.049058198973442,-1.655027389477836,1.01949501029582
1684007015029279900,2.298680419921875,-1.3941540716893752,-3.011101722733813,1.2723422050119526
1684007015039321000,2.308721435546875,-1.3750436306911937,-2.6810398101130484,0.7466611860694762
1684007015049362400,2.3187626953125,-1.1618816851737555,-1.5246601103669921,0.11545133583166092
1684007015059403400,2.328803955078125,-0.7209804058247885,-0.3697061537408263,0.1695008277447874
1684007015069444800,2.33884521484375,-0.5979354381285145,0.23122310639339896,0.7245173454288462
1684007015079485900,2.34888623046875,-1.0141830443372744,0.4043006896528458,1.1947112083616505
1684007015089527200,2.358927734375,-1.3560426234700282,0.49966716781264386,1.3406596183661406
1684007015099568300,2.36896875,-1.2142620085972917,0.5854797363858247,1.1246187688018294
1684007015109609600,2.379010009765625,-1.0031113624823262,0.37798023233185823,0.7839708327484145
1684007015119650700,2.389051025390625,-0.8640742300738831,0.11631393432157901,0.4732615947537227
1684007015129692100,2.399092529296875,-0.8012595177340822,-0.03261470787064831,0.3724279403819755
1684007015139733200,2.409133544921875,-0.6852939129719364,-0.08588409411408218,0.4457411766509278
1684007015149774600,2.4191748046875,-0.5511777401054907,-0.15870952607466998,0.6618721484343721
1684007015159815600,2.429216064453125,-0.4260590074466198,-0.5504961013509895,1.1893205642153701
1684007015169856900,2.43925732421875,-0.6676414011640139,-0.4014081955248231,0.9715585709414486
1684007015179898000,2.44929833984375,-1.572790384219432,-1.0275554655850325,0.9254417418757663
1684007015189939400,2.45933984375,-2.4237964154298717,-1.2633419036224243,1.2064452171539248
1684007015199980500,2.469380859375,-2.462479114390503,-1.3052644729575067,1.7458498478619922
1684007015210021800,2.479422119140625,-1.454208373915392,-1.2437553405960378,2.162423372258519
1684007015220062900,2.48946337890625,-0.08093643185544565,0.696306228607963,2.563188552821264
1684007015230104200,2.499504638671875,1.119079709104304,-1.4379777907810773,1.8495423793268357
1684007015240145300,2.509545654296875,1.9554829598526158,-2.636920929086573,1.0831511021113491
1684007015250186600,2.519587158203125,2.6407332420786247,-3.0332717894118155,0.35864329352068325
1684007015260227800,2.529628173828125,2.8329186437942,-2.8707304001483536,-0.3093638421452187
1684007015270269100,2.53966943359375,2.77723455432593,-2.318541526728554,-1.078541993945515
1684007015280310200,2.549710693359375,2.553540706531831,-1.2338237763867306,-1.951391458491489
1684007015290351600,2.559751953125,1.9929332732985177,-0.022121429463938146,-2.3124208449824484
1684007015300392600,2.56979296875,1.2208434341669505,0.2622442244957429,-2.4617366790635926
1684007015310434000,2.57983447265625,0.5256652831839544,0.31517982486969615,-2.628838062346481
1684007015320475100,2.58987548828125,0.04684495923400653,0.6200847626047904,-2.8096504212642746
1684007015330516400,2.599916748046875,-0.11213779440765817,0.9864182471247096,-2.850476980219883
1684007015340557600,2.6099580078125,-0.24313354481543456,0.6787233351167159,-2.6148827074611476
1684007015350598800,2.619999267578125,-0.0018246174699296277,0.4204053878699398,-2.103369712676264
1684007015360639900,2.630040283203125,0.6388689279428114,0.7582893370856392,-1.6571050882271605
1684007015370681300,2.64008154296875,1.1258293389357705,1.009953498718154,-1.2324576377592544
1684007015380722600,2.650123046875,1.4801663159355616,0.9203939437180793,-0.9939577581037273
1684007015390763600,2.6601640625,1.7464203834708372,0.4835395814202132,-0.5603075027560658
1684007015400804800,2.670205078125,2.0540959835798316,0.4281854628926425,-0.13086080541405662
1684007015410846100,2.68024658203125,2.1469845771368377,0.3205928803026579,0.39398980158140307
1684007015420887200,2.69028759765625,2.0362722872751147,0.35508346554838216,0.7370626925355241
1684007015430928600,2.700328857421875,1.8836028574992791,0.24137973779211722,1.0452518462478697
1684007015440969900,2.710370361328125,1.8479015829019032,0.013835906999222323,1.1816570759137008
1684007015451011000,2.720411376953125,1.8514678478638602,3.1132416724353646,1.6728472709161144
1684007015461052300,2.73045263671875,1.673110723422763,0.6707515716604523,0.7597327231977846
1684007015471093400,2.740493896484375,1.61215901373891,-0.5135774612627048,0.8049890994397749
1684007015481134800,2.75053515625,1.72532010082652,-1.2479143143634077,0.7570509909212422
1684007015491175900,2.760576171875,1.3612055778893077,-1.6953802108287113,0.4961755274993711
1684007015501217200,2.77061767578125,0.8744344711374198,-1.742403030450053,0.3529403208675022
1684007015511258300,2.78065869140625,0.48799276364895033,-2.310113906804834,0.23812317851585332
1684007015521299600,2.790699951171875,0.2796428204134437,-2.331347465371003,0.3818628787250751
1684007015531340600,2.8007412109375,0.5801881552287692,-1.3665866850647745,0.7421565055370296
1684007015541382100,2.810782470703125,0.685115575748525,-0.5835266113065094,0.6298313139514132
1684007015551423200,2.820823486328125,0.49757027624584726,-0.5900468825514745,0.37559723858444505
1684007015561464600,2.830864990234375,0.38234591484261704,-0.6008119583645051,-0.016793250876374607
1684007015571505600,2.840906005859375,0.45239079000936994,-0.47448062885905185,-0.35086083423611525
1684007015581546900,2.850947265625,0.6183928250762208,-0.349603653000042,-0.5615968705570027
1684007015591588000,2.860988525390625,0.6568703055980548,-0.11044597637677783,-0.9058375358855659
1684007015601629400,2.87102978515625,0.5533378124118393,-0.020745277481303847,-1.0893971920406722
1684007015611670400,2.88107080078125,0.3103454113449586,-0.06797885892314079,-0.838235020621707
1684007015621711800,2.8911123046875,-0.07605612267255873,-0.0020055770452864865,-0.4866726399324029
1684007015631752900,2.9011533203125,-0.33645856375324,0.11630249013023716,-0.18831968307493735
1684007015641794200,2.911194580078125,-0.29634559153936724,0.296295166135284,0.03585529337934207
1684007015651835300,2.921235595703125,-0.21590685839658022,0.39224910750034214,0.098356246999132
1684007015661876600,2.931277099609375,0.19430804257476567,0.5949440003331486,0.20666050910966619
1684007015671917700,2.941318115234375,0.2695693970681503,0.2873764039207025,0.7740559576913385
1684007015681959100,2.951359375,0.3537085057072154,0.1474866867422511,1.2218770980230553
1684007015692000200,2.961400634765625,0.45938098422235446,0.058527946404644315,1.3522124292157423
1684007015702041600,2.97144189453125,0.33723288775538107,-0.17345428453047892,1.6038601397466876
1684007015712082900,2.981483154296875,0.10848832124563179,-0.5218944548655878,1.7353844641720269
1684007015722124000,2.9915244140625,-0.09164798251214162,-0.8479642867975747,1.9079029560303526
1684007015732165300,3.001565673828125,-0.0842019318507454,-1.1092977523775354,2.3696651458233444
1684007015742206400,3.011606689453125,-0.24959802620325347,-1.8105430603700774,2.763216972225322
1684007015752247600,3.021648193359375,-0.41971850401947636,-2.046965599181966,2.99222111711007
1684007015762288800,3.031689208984375,-0.35002994550275873,-2.0257892608687,3.0505454540558135
1684007015772330200,3.04173046875,0.09661316880966071,-1.5352382658876604,3.136296510693648
1684007015782371200,3.051771728515625,0.5860537885819371,-1.2444877625329838,3.267708778229345
1684007015792412600,3.06181298828125,0.7199879287719226,-1.0225515366164328,2.9206573963817646
1684007015802453600,3.07185400390625,0.7001882195895612,-0.6071586610153971,2.1606585979498245
1684007015812495000,3.0818955078125,0.6554810405873868,-0.21072959901679397,1.5549917220546523
1684007015822536100,3.0919365234375,0.6466276645496734,-0.06184959402832051,0.9771995545902604
1684007015832577500,3.101977783203125,0.7260888815766826,0.08352947216531562,0.8568789958468401
1684007015842618600,3.11201904296875,0.5919834376464668,0.15555477142123736,0.7959294319401514
1684007015852659900,3.122060302734375,0.23758465048873104,0.17771530151470416,0.4357333183724993
1684007015862701000,3.132101318359375,0.0852173267853534,0.37281131746038804,-0.14984154696540525
1684007015872742300,3.142142822265625,-0.07504704591917814,0.59963607783985,-0.20733380316722444
1684007015882783400,3.152183837890625,-0.07971292723845959,1.0312967300082745,-0.0877778530398938
1684007015892824800,3.16222509765625,-0.004378110157507809,1.7349905966795365,-0.08077764510728591
1684007015902865800,3.172266357421875,-0.042533189096545,2.112892151016753,-0.20476794235566814
1684007015912907200,3.1823076171875,-0.18382297457358523,2.3638248442387386,-0.11849427208631817
1684007015922948600,3.192348876953125,-0.09271991246776512,2.485100746208989,0.013744592657525593
1684007015932989600,3.20239013671875,-0.1476308256810448,2.6449279785233446,-0.133698940239193
1684007015943030600,3.21243115234375,-0.06967003649080106,3.756654262713611,-1.1375328301696224
1684007015953072000,3.222472412109375,-0.5709303617365686,3.4766740798241416,-2.21301198017311
1684007015963113400,3.232513671875,-1.2100985048346937,2.740791320759792,-3.5096595286707792
1684007015973154600,3.242554931640625,-2.075899839568583,0.6691589355665909,-4.094006538405937
1684007015983195800,3.25259619140625,-1.554000854446417,1.1168851853071142,-4.2563896178727525
1684007015993236900,3.26263720703125,-1.0862019060698096,1.635441779958828,-3.6642279626285035
1684007016003278300,3.2726787109375,-1.1121819019059043,1.098054885839891,-2.497279405475775
1684007016013319300,3.2827197265625,-0.9988227486579004,0.5288009644151986,-1.796964049281434
1684007016023360600,3.292760986328125,-0.8856827616220038,0.3461561203540903,-1.4539419412034422
1684007016033401800,3.30280224609375,-0.872083306439257,0.43890571601969025,-1.3179308176721272
1684007016043443100,3.312843505859375,-0.8319147824584919,1.3174304962307681,-0.7347210644654042
1684007016053484200,3.322884521484375,-0.8681598901133427,-0.7570800783175233,-1.0222641229673024
1684007016063525600,3.332926025390625,-0.8217142821231966,-2.5925083161044067,-0.5036053657217412
1684007016073566600,3.342967041015625,0.05397254233717035,-2.6593351362934246,0.379200458663126
1684007016083608000,3.35300830078125,0.7814382314208143,-2.2483396530554858,1.414511680493902
1684007016093649300,3.3630498046875,0.9334182141717514,-2.3001260756598993,2.5440378189412485
1684007016103690400,3.3730908203125,0.9587743281856453,-2.2873497009780124,3.3977506160156414
1684007016113731800,3.383132080078125,0.9347715378249671,-2.1909751891714158,3.6201872825967536
1684007016123772800,3.39317333984375,0.9048992991684485,-2.1466703416432065,3.2082581521408198
1684007016133813900,3.40321435546875,0.95145273202534,-2.0553712845245675,2.404294014121412
1684007016143855300,3.413255615234375,1.0878673793239169,-1.9065752028259328,1.6960462330998514
1684007016153896600,3.423297119140625,1.083503723264715,-1.884976387169012,1.1358996629874327
1684007016163937600,3.433338134765625,0.8984702823995405,-1.6936168670302172,0.9531456232160771
1684007016173979100,3.44337939453125,0.5727921128938087,-1.0106992721745143,1.0915925502847952
1684007016184020100,3.453420654296875,0.4713797866848603,-1.3451862336152849,0.06133055674288207
1684007016194061600,3.4634619140625,0.24954584233846172,-1.1963386536883163,-0.08734059336200586
1684007016204102600,3.4735029296875,0.006361424901699424,-0.9278993606345547,0.04951179028566795
1684007016214143900,3.48354443359375,-0.3142949342516206,-0.436196327260718,0.17627584939178437
1684007016224185000,3.49358544921875,-0.773408770434666,0.12745285032495624,0.1284570693247848
1684007016234226400,3.503626708984375,-1.293040394763699,0.552441596842855,-0.014976024532786049
1684007016244267400,3.513667724609375,-1.7630734444044918,0.7960338591359023,-0.28003478055746966
1684007016254308800,3.523709228515625,-1.9530484675088302,0.9829034805803504,-0.44581186774649206
1684007016264349900,3.533750244140625,-2.045659065218342,0.8356170654072107,-0.36588287363152117
1684007016274391200,3.54379150390625,-1.7686104775112494,0.870292663493317,-0.330089092263691
1684007016284432600,3.5538330078125,-1.2212252616867691,0.8165569305234444,-0.15158140650910326
1684007016294473600,3.5638740234375,-0.47613072379181626,1.054407119683558,0.11925303946919505
1684007016304515000,3.573915283203125,0.13270151634101535,1.5872383117679403,0.08751499656783752
1684007016314556100,3.58395654296875,0.17576086529438295,0.5905599593712325,0.4115779400445986
1684007016324597400,3.593997802734375,0.6724064349343267,0.8105878830791299,0.30013036731407233
1684007016334638600,3.604038818359375,0.6827074885007238,0.5420875549062371,0.1948460340416874
1684007016344679900,3.614080322265625,1.0195779800289904,0.43538475034329294,0.3672837017566254
1684007016354720900,3.624121337890625,1.1752955913993257,0.36662673939731033,0.5545196533500008
1684007016364762300,3.63416259765625,0.9346151949015113,-0.0493173600085017,0.7251808643102736
1684007016374803400,3.644203857421875,1.1694389583240532,0.9504623411750148,1.494857787961289
1684007016384844600,3.6542451171875,0.7435232401166816,0.1358137131036444,1.2834595441297216
1684007016394885800,3.6642861328125,0.8292933703810456,-1.127494812026925,0.463557124165396
1684007016404927200,3.67432763671875,1.1626101732059577,-0.897242546089466,0.25652575499283553
1684007016414968200,3.68436865234375,0.9822843074391284,-0.8821182251188331,0.616713762136252
1684007016425009600,3.694409912109375,0.8845313786275869,-0.7889156343192858,0.6157181262419364
1684007016435050600,3.704451171875,0.8534932135353527,-0.47222614275188224,0.861235976274997
1684007016445092000,3.714492431640625,0.354426383935423,-0.5556354523849786,0.7154620884890674
1684007016455133100,3.724533447265625,1.2082827091406265,-1.4418287277969146,-0.2119945287360924
1684007016465174400,3.734574951171875,1.5553084612791097,-1.0499114991288656,0.08181190482262386
1684007016475215600,3.744615966796875,1.8724834918588367,-1.2246942520321347,-0.710063457537172
1684007016485256900,3.7546572265625,1.9514677524521662,-0.5710687636187909,-0.727934598943462
1684007016495298200,3.76469873046875,1.5200628041948983,-0.3702173232600017,-0.4264938831826994
1684007016505339300,3.77473974609375,1.263726353728907,-0.03518962857557466,-0.6291695833294263
1684007016515380600,3.784781005859375,1.0135695934570814,0.198502540487893,-1.0154120921870684
1684007016525421700,3.794822265625,1.1652421951598608,1.0890769959995223,-0.031183719797776125
1684007016535463100,3.804863525390625,1.0202407837477967,0.4854145048195752,-0.6663961410281645
1684007016545504200,3.814904541015625,0.9563095569736277,0.8350324629975313,-0.045097589448897475
1684007016555545600,3.82494580078125,1.046720743096971,-0.1182909012276086,-1.291021466323653
1684007016565586600,3.834987060546875,1.0237866640516562,0.2983541488523242,-0.8969225883130825
1684007016575628000,3.8450283203125,1.1788107156104137,-0.0015954971774925263,-1.3338749408661108
1684007016585669000,3.8550693359375,1.251206159482191,0.9400167465164802,-0.9668776989813276
1684007016595710400,3.86511083984375,0.7247612476963395,0.19664382925073423,-0.8552620412109895
1684007016605751600,3.875152099609375,0.6064269543181403,-0.15834331515817768,-1.1300611496678354
1684007016615792800,3.885193115234375,0.45989322658988224,-0.005828857472557777,-0.9075753688814847
1684007016625834200,3.895234619140625,0.20129990581106766,0.23272514334277852,-0.8221106529839801
1684007016635875200,3.905275634765625,-0.25852870946219364,-0.1167783737585255,-0.24898648251468083
1684007016645916600,3.91531689453125,-0.37507987024046624,-0.11581420891231929,-0.1517519951764393
1684007016655957600,3.925358154296875,-0.4949243068756128,-0.22781372068943156,0.015613317505434997
1684007016665999000,3.9353994140625,-0.4808483124554594,-0.3309202195251912,0.2584381105328492
1684007016676040100,3.9454404296875,-0.44204473503871444,-0.42056083664660926,0.36463570590827343
1684007016686081500,3.95548193359375,-0.43881559374807483,-0.5044622420835791,0.45415401444701503
1684007016696122600,3.96552294921875,-0.3790707587182057,-0.5160112381831775,0.4105784891799377
1684007016706163900,3.975564208984375,-0.24650478353702981,-0.368867874246451,0.30500102036148735
1684007016716205000,3.98560546875,-0.10150885586493072,-0.3811950681826991,0.28005003919792915
1684007016726246300,3.995646728515625,0.12122607218600226,-0.23090648659269328,0.10279345511428767
1684007016736287600,4.00568798828125,0.0037569999824898126,-0.29213333121210916,0.1405663491281598
1684007016746328800,4.015729248046875,0.22363615022482053,-0.7324285506295322,-0.7411561011561267
1684007016756370100,4.0257705078125,0.5455770492812192,0.3154869078521769,-0.38744378091146453
1684007016766411200,4.0358115234375,0.22651243213790534,-0.27295017255534665,-1.0238952636231051
1684007016776452600,4.04585302734375,-0.014894723842534062,0.2775993347125193,-0.8849265576159429
1684007016786493600,4.05589404296875,-0.24698638909863754,-0.5619239807662576,-1.4542324542931213
1684007016796535000,4.065935302734375,-0.11807298657005973,-1.1247100830883652,-1.8214776514997335
1684007016806576000,4.0759765625,0.2825546264414045,-0.48208808899561034,-1.0391907692377629
1684007016816617400,4.086017822265625,0.6379849911333211,0.14043235775079835,-0.25996899608926044
1684007016826658600,4.096058837890625,0.761945009309416,0.35642909995827793,-0.01236629492722373
1684007016836699800,4.106100341796875,0.8449914456114143,0.30748844145116844,-0.04655647269225661
1684007016846740900,4.116141357421875,1.0048751832261842,0.3131074905280528,-0.4440751076889592
1684007016856782300,4.1261826171875,1.0759851931386464,0.26757431028691697,-0.6884875295887153
1684007016866823600,4.13622412109375,1.0810298920741663,0.06843090058063031,-0.5853810310857039
1684007016876864600,4.14626513671875,1.1774318218581878,0.012271881195249325,-0.30282330503882054
1684007016886906000,4.156306396484375,1.2345845699818725,-0.023480415219167373,0.2013742923148492
1684007016896947100,4.166347412109375,1.184199333174383,-0.22847175609668438,0.5853817462595822
1684007016906988500,4.176388916015625,1.1020832061959365,-0.2685518265930007,0.7343847752025925
1684007016917029600,4.186429931640625,0.9087266923249685,-0.14932537082277322,0.5252380371837544
1684007016927070900,4.19647119140625,0.683053016587268,0.22887134550619234,0.29712486265277355
1684007016937112000,4.206512451171875,0.2581400872065368,-0.10600185379344804,-0.15558600429772398
1684007016947153300,4.2165537109375,-0.0467579363346542,-0.07372188561846942,-0.23902750020077548
1684007016957194400,4.2265947265625,-0.16279029847810322,0.09032249455016875,-0.24668836602009125
1684007016967235800,4.23663623046875,-0.10149931913065674,0.12630176535792043,-0.20183110245968794
1684007016977276800,4.24667724609375,0.041667938370305996,0.16898345961800665,-0.22854018208176477
1684007016987318200,4.256718505859375,0.15080571178112795,0.24742317201541325,-0.2953248024240529
1684007016997359600,4.266760009765625,0.2678947448963262,0.2994356154198285,-0.336095809917945
1684007017007400600,4.276801025390625,0.2583689689537244,0.35809421546789266,-0.41496205321111873
1684007017017442000,4.28684228515625,0.12453532214966995,0.37310600277528033,-0.45988774307367586
1684007017027483100,4.296883544921875,-0.11682105053836891,0.4574623108087258,-0.3676409721617622
1684007017037524400,4.3069248046875,-0.2510938642884992,-0.06672382353707725,-0.16957569124289565
1684007017047565600,4.3169658203125,-0.06335663797148787,0.7225618361242211,0.36707043651682947
1684007017057606800,4.32700732421875,-0.5094139575815781,0.3565731048001783,-0.2812120913508181
1684007017067647900,4.33704833984375,-1.504148244860776,-0.3554344176428173,-0.3937027454975291
1684007017077689300,4.347089599609375,-1.5315742492771762,-0.8824386596222092,-0.6027801037063693
1684007017087730400,4.357130859375,-1.6121883392792697,-0.9561634064815014,0.08537530901521082
1684007017097771600,4.367172119140625,-1.5748805999258821,-0.6109743118170898,0.25726103766278063
1684007017107812800,4.377213134765625,-1.740446805830465,-0.3168392181561698,0.03242015841249244
1684007017117854100,4.387254638671875,-1.5390107632593413,-0.3383398055681042,-0.0015764236256739638
1684007017127895600,4.3972958984375,-0.4388191701239639,0.07568073265551217,-0.3579785822846799
1684007017137936600,4.4073369140625,0.7283349036001968,0.4394054413670241,-0.8658056259848013
1684007017147977900,4.41737841796875,1.436292290658564,0.5531778335757866,-1.7493393421226084
1684007017158019000,4.42741943359375,1.6811312438642774,-0.3079051971101905,-1.8468871117983663
1684007017168060300,4.437460693359375,1.9632397890014734,0.4040060044276413,-1.5045585632561795
1684007017178101400,4.447501708984375,1.5470165015911952,-0.11361885061549681,-2.1101722716200935
1684007017188142800,4.457543212890625,0.6297432183993424,-0.3251819610699434,-1.8717311620518913
1684007017198183900,4.467584228515625,-1.2302303314081748,-1.5136651993325148,-2.0471546649684194
1684007017208225200,4.47762548828125,-3.7143499851711033,-3.385088920592571,-2.0000813008517984
1684007017218266300,4.487666748046875,-4.72959709168706,-4.0272274016938825,-1.2599840162946176
1684007017228307600,4.4977080078125,-2.70270800589451,-1.963977813733233,0.5500504970815768
1684007017238348600,4.5077490234375,-0.05487728128833466,-0.9943227767809368,1.6838576794038882
1684007017248390100,4.51779052734375,1.963269710612351,-0.6564168929757515,1.841109514269896
1684007017258431400,4.527831787109375,3.0102934837847473,-1.0855588913306986,1.620485782562223
1684007017268472600,4.537872802734375,3.3456814287948653,-1.4115314484697503,1.2629137038671354
1684007017278513800,4.547914306640625,3.3477344512266267,-0.5275526047744925,0.33890604971758187
1684007017288554900,4.557955322265625,2.956227779326348,-0.017464637663097218,-0.636781930923992
1684007017298596300,4.56799658203125,2.539850473239818,0.18104457856565495,-1.140709638715298
1684007017308637400,4.578037841796875,2.2350029943553356,0.4422931671640963,-1.309121728033809
1684007017318678600,4.5880791015625,1.968888282671754,0.6286478043838911,-1.2745931147664533
1684007017328719800,4.5981201171875,1.7693300246078727,0.74423122409113,-1.0169200897659456
1684007017338761100,4.60816162109375,1.558772802315241,0.5927820204311579,-0.658304691420034
1684007017348802200,4.61820263671875,1.3389031888263556,0.39400863637048533,-0.3154499531047177
1684007017358843600,4.628243896484375,1.0863468646881005,0.4989404679051967,0.060759782673778615
1684007017368884600,4.63828515625,0.8959896564418952,0.8173818587771818,0.4969336987539643
1684007017378926000,4.648326416015625,0.49599266044067936,0.5764303208074419,0.817733526208248
1684007017388967300,4.65836767578125,0.19971430304504784,0.5785551071145527,0.8634395599681559
1684007017399008400,4.668408935546875,0.0649771690817863,0.5645771026572076,0.9656734465430825
1684007017409049800,4.6784501953125,0.05366313461107014,0.4889192581551703,1.1227343082558514
1684007017419090900,4.6884912109375,0.13540196427597953,0.29221439354314716,1.0646131039003384
1684007017429132200,4.69853271484375,0.44020295144004307,0.42145824419088057,0.8106920719033375
1684007017439173300,4.70857373046875,0.7660088537863468,0.29161548620883676,0.4794476032878063
1684007017449214600,4.718614990234375,0.9948576092888389,0.20044898997058397,0.30534863457910805
1684007017459255600,4.72865625,1.2095274924834611,0.11681652064578896,0.25626611708683444
1684007017469297100,4.738697509765625,1.4344485997616465,0.1436452865905107,0.31513476371162635
1684007017479338400,4.74873876953125,1.5841294526718883,0.3777933119542225,0.6139733790263749
1684007017489379600,4.75877978515625,1.7317963838571704,0.20486259470352536,0.6210305689624697
1684007017499420800,4.7688212890625,1.9632718564288105,1.0313014983713722,1.3521285058730805
1684007017509461900,4.7788623046875,1.772395372452619,0.44873905175809026,1.3046362400169982
1684007017519503300,4.788903564453125,1.6568646431556229,0.358347892778321,1.293762445411765
1684007017529544400,4.79894482421875,1.5311028958069768,-0.1189718244678388,1.0255057811627186
1684007017539585600,4.808986083984375,1.6665960551715917,-0.5381402969935939,0.6893084048350887
1684007017549626800,4.819027099609375,2.0573625564978593,-1.1908226013069487,0.18763470650698055
1684007017559668100,4.829068603515625,2.5364358425955067,-0.8516139983758206,0.3832666872869491
1684007017569709600,4.83910986328125,2.6676023004704255,-0.420210838247873,0.6973278523577822
1684007017579750600,4.84915087890625,2.4905300139757434,-0.2535324096011822,1.018778085710248
1684007017589791900,4.8591923828125,2.1507673265012524,-0.226840972913483,1.026742458399153
1684007017599833000,4.8692333984375,1.7672072650220012,-0.11734771742017029,0.7329013347202002
1684007017609874400,4.879274658203125,1.471887111670203,-0.04185199742963754,0.3509714603532963
1684007017619915400,4.88931591796875,1.4043935537632088,-0.02910232545240988,0.15435409561562455
1684007017629956800,4.899357177734375,1.4766790865401755,-0.014675140363298726,0.06370449079552784
1684007017639997900,4.909398193359375,1.4662282467095802,-0.04594326021376527,0.07536077505785288
1684007017650039200,4.919439697265625,1.398424863739825,-0.14129638684195434,0.113228559508088
1684007017660080300,4.929480712890625,1.2279912231925163,-0.17855834954693292,0.23433446878128267
1684007017670121600,4.93952197265625,0.9924587013230781,-0.12240505213800751,0.46879529948964554
1684007017680162700,4.949563232421875,0.7270326614949285,-0.06417655941102562,0.6364445686233137
1684007017690204100,4.9596044921875,0.5301676989026591,0.10085010534806793,0.6979198455533626
1684007017700245400,4.969645751953125,0.40569460389876766,0.20025157930069287,0.7009007932091552
1684007017710286600,4.97968701171875,0.3775277436006867,0.24379158031273032,0.6154382229060527
1684007017720327900,4.989728271484375,0.40787735587124124,0.19582843786105775,0.7252719401889219
1684007017730368900,4.999769287109375,0.5464650988588304,-0.014018058829971605,0.7709090708772305
1684007017740410300,5.009810791015625,0.6311804055934929,0.1495189667519012,1.0108830927693995
1684007017750451400,5.019851806640625,0.7444431186425525,0.19575214394257462,1.0071177483031868
1684007017760492600,5.02989306640625,0.9536255598667215,0.004326820518050416,0.6640994548528983
1684007017770534100,5.0399345703125,0.9486039281312187,-0.3116846084905778,0.4519875049692014
1684007017780575200,5.0499755859375,0.8614233136400006,-0.2554473876405778,0.6490488053488042
1684007017790616600,5.060016845703125,0.799700260031263,-0.16083335883167954,0.7654764653274831
1684007017800657600,5.07005810546875,0.6955210567877881,-0.1170015334765858,0.8403284550241769
1684007017810698900,5.080099365234375,0.6576207280358601,-0.15500068666125752,0.7683701516436425
1684007017820740000,5.090140380859375,0.6392235755722723,-0.19793796540268405,0.5315458775523778
1684007017830781400,5.100181640625,0.553587019525482,-0.3171892166747565,0.388986825795406
1684007017840822400,5.110222900390625,0.5343698858925102,-0.21414661391287804,0.3089437484925247
1684007017850863800,5.12026416015625,0.5051147341872397,-0.21412181858841114,0.17199206345906942
1684007017860904900,5.13030517578125,0.5252876877280659,-0.19259548181203878,-0.02565312391774553
1684007017870946200,5.1403466796875,0.6771765352131679,-0.20475101471562465,-0.06461119657314791
1684007017880987300,5.1503876953125,0.9389342068961152,-0.21926784512979774,-0.16244578359311648
1684007017891028600,5.160428955078125,1.2008903027430393,-0.16574001318351803,-0.2845523359066634
1684007017901070000,5.170470458984375,1.3711059093252982,0.22012138370973797,-0.36030411723879385
1684007017911111100,5.180511474609375,1.2018927337503895,-0.256620406961883,-0.06846809389726648
1684007017921152400,5.190552734375,1.3395173549452941,-0.3580541610756318,0.03576302519817295
1684007017931193600,5.200593994140625,1.3891695738280154,-0.208256721587968,0.061392545669982854
1684007017941234900,5.21063525390625,1.3760399818483435,0.048040389983861294,0.23118376736641955
1684007017951276000,5.22067626953125,1.3962110282127367,0.14305305467779447,0.5824315548566642
1684007017961317300,5.2307177734375,1.442799448918994,0.1754741669404345,0.8482527731670764
1684007017971358600,5.240759033203125,1.4844369888343332,0.1553058625357192,1.053963422728094
1684007017981399700,5.250800048828125,1.5704550743366958,0.20634746555827765,1.1479845047563406
1684007017991441100,5.260841552734375,1.6385493279427366,0.5006494522699124,1.2707021234543623
1684007018001482200,5.270882568359375,1.3644354343690945,-0.010441780199997745,0.9421291352226436
1684007018011523600,5.280923828125,1.1960334777629371,-0.055326461698276416,0.35908842079435394
1684007018021564600,5.290965087890625,1.0149226188939953,-0.034191131572757265,-0.136588334904824
1684007018031605900,5.30100634765625,0.8761129379828911,0.1658201216699133,-0.23629355423914936
1684007018041647000,5.31104736328125,0.7216506004182179,0.25467872615131276,-0.08220124255162382
1684007018051688400,5.3210888671875,0.6656697987710081,0.23394012452024895,0.04256773001423932
1684007018061729500,5.3311298828125,0.6169497965284335,0.20658779147548248,0.09580159182820161
1684007018071770800,5.341171142578125,0.6571519375735858,0.1518125534842585,-0.023895740541740616
1684007018081812100,5.351212646484375,0.6731497048499783,0.1574783325503945,-0.12420511241503965
1684007018091853200,5.361253662109375,0.654998779185131,0.09568023668898884,-0.19757151603786482
1684007018101894600,5.371294921875,0.6374085546948082,0.13960266121429055,-0.2766767741307415
1684007018111935600,5.381336181640625,0.6479215621763281,0.07309341436290968,-0.13610029227123602
1684007018121977000,5.39137744140625,0.671844720760965,0.005736350936750429,0.036946773602326885
1684007018132018100,5.40141845703125,0.7539297342510859,0.033695220817370274,0.19094777108204433
1684007018142059400,5.4114599609375,0.8746203184845989,0.037323951605478696,0.3882827759002997
1684007018152100800,5.421501220703125,1.0137420892059,-0.006828308164163454,0.46652317048764474
1684007018162141900,5.431542236328125,1.1364030837761843,-0.0791425704701624,0.4436330795250528
1684007018172183200,5.44158349609375,1.1263375281848536,-0.10829162590412578,0.3408448696301803
1684007018182224300,5.451624755859375,1.0632729530520875,-0.09718132002399331,0.22376871104491516
1684007018192265600,5.461666015625,0.9438722729680338,-0.09339809432949872,0.21122479430524377
1684007018202306700,5.47170703125,0.8294588326502357,-0.08254814156208061,0.14708471302442577
1684007018212348100,5.48174853515625,0.6653553247483092,-0.08827972421430316,0.1315255165991036
1684007018222389200,5.49178955078125,0.5472933053245845,-0.15985107417859598,0.17521786687567917
1684007018232430600,5.501830810546875,0.43375346071853893,-0.20660400395948653,0.13153433794103397
1684007018242471600,5.5118720703125,0.3121922015791178,-0.1488752364378638,0.1455738545173247
1684007018252512900,5.521913330078125,0.20919159055151734,-0.030898094190424868,0.15004086486440274
1684007018262554300,5.53195458984375,0.10703733560019793,0.042519569476536095,0.1655199526098696
1684007018272595400,5.541995849609375,0.06552273038583223,0.12854385389283263,0.13748908041132307
1684007018282636600,5.552037109375,0.11390203237621811,0.1494503022736164,0.08155179021792133
1684007018292677800,5.562078125,0.2117751985316603,0.05236625659198353,0.10713553442488154
1684007018302719200,5.57211962890625,0.2521594763818951,0.006217002821928391,0.15074205393065337
1684007018312760200,5.58216064453125,0.2398307324616951,-0.058073043868233296,0.17443919184116483
1684007018322801600,5.592201904296875,0.09924030287140306,-0.001075744637138163,0.22178268425058928
1684007018332842600,5.6022431640625,-0.057832360263302296,-0.010794639637508267,0.2573344707828223
1684007018342884000,5.612284423828125,-0.22507819540333884,0.026675224343208466,0.37242150308807465
1684007018352925400,5.62232568359375,-0.3737275004911121,-0.0004577636858846103,0.49162077900855433
1684007018362966400,5.632366943359375,-0.5417586564712267,-0.18333244327842185,0.5617883205489457
1684007018373007800,5.642408203125,-0.598822236178386,-0.16141891470849015,0.4809823035902216
1684007018383048900,5.65244921875,-0.6526157259359002,-0.21440029143142786,0.477134704569966
1684007018393090200,5.66249072265625,-0.7005291582003017,-0.24452781687192637,0.46522092810645865
1684007018403131300,5.67253173828125,-0.7489180564445659,-0.2231893539858354,0.4069721699927309
1684007018413172600,5.682572998046875,-0.9060565829008805,-0.2506322859686318,0.32010960588898707
1684007018423214000,5.692614501953125,-1.1194808482938257,-0.2979450224645868,0.2938389778295983
1684007018433255100,5.702655517578125,-1.3538446426267121,-0.2909545897337813,0.39292502421608266
1684007018443296400,5.71269677734375,-1.5347474814493705,-0.28264904030865606,0.5729813575872654
1684007018453337600,5.722738037109375,-1.744641065726919,-0.25942039486485713,0.7954957486754847
1684007018463378900,5.732779296875,-1.8449527025500996,-0.26502132410476265,0.9487812519667209
1684007018473420000,5.7428203125,-1.8338758945162257,-0.26409244545032884,1.037287712086463
1684007018483461300,5.75286181640625,-1.727895736826144,-0.20919322962166592,1.0350720883561328
1684007018493502400,5.76290283203125,-1.5890245437876187,-0.2079677581553756,0.9772343636436229
1684007018503543600,5.772944091796875,-1.2963775396217823,-0.17365074157551005,0.6671464443778269
1684007018513584800,5.782985107421875,-0.6587798596055711,0.7770442963001136,0.09260416016527175
1684007018523626200,5.793026611328125,-0.5788722037565742,0.04836177835216061,0.32208609567380553
1684007018533667600,5.80306787109375,-0.2163711787592098,-0.23949050905895808,0.35535120963397604
1684007018543708600,5.81310888671875,0.27000546447741364,0.2775039673343455,0.4968883989535113
1684007018553749900,5.823150390625,0.3522348403785804,-0.26533794401125244,-0.08353161822970044
1684007018563791000,5.83319140625,0.6007962227566574,0.03786754606067015,-0.1486444472651517
1684007018573832400,5.843232666015625,0.5956376791277707,-0.18520927439058202,-0.23918271063950083
1684007018583873500,5.85327392578125,0.6672960521106938,-0.30949020395795485,-0.5658814906091809
1684007018593914800,5.863315185546875,0.7844783067642465,-0.045505523576886274,-0.6220961807369867
1684007018603956100,5.8733564453125,0.8329763412044412,0.14921569826160264,-0.5777101516997111
1684007018613997200,5.883397705078125,0.853959441229134,0.26154136664228667,-0.5029671192435903
1684007018624038600,5.89343896484375,0.837864279784774,-0.13334560396945958,-0.8925070763318765
1684007018634079600,5.90347998046875,1.0828344821955782,-0.47400569916628915,-0.9192733763820804
1684007018644121000,5.913521484375,1.292649626691,-0.8693361282364902,-0.795014619952984
1684007018654162100,5.9235625,1.4062235353689658,-0.8751621246300864,-0.42961287504447915
1684007018664203400,5.933603759765625,1.3791801928742993,-0.5802097319430891,-0.19244909297804857
1684007018674244800,5.943645263671875,1.2410480975580402,-0.31718063347325637,-0.0237672329091189
1684007018684285900,5.953686279296875,1.199578762090354,-0.570966720568583,-0.47976493843731405
1684007018694327200,5.9637275390625,1.9485714435883381,0.5101566314508822,-0.5060303209923654
1684007018704368300,5.973768798828125,2.1648941039830314,0.5582675934498496,-0.4095296861358689
1684007018714409600,5.98381005859375,2.4078519345110307,0.712144851550638,-0.6305534840135982
1684007018724450700,5.99385107421875,2.7849655152255197,0.47844982130450364,-0.8607569933169613
1684007018734492100,6.003892578125,2.8070213795124577,0.1871480941845162,-0.9454419612850598
1684007018744533200,6.01393359375,2.3261656761413585,-0.11257266996159093,-0.9559910296263784
1684007018754574600,6.023974853515625,1.7644048929599043,-0.3627376556032266,-1.0775256157411726
1684007018764615600,6.03401611328125,1.3650825022694717,-0.5568313598765052,-1.2153486013151944
1684007018774656900,6.044057373046875,1.0011804103384208,-0.6525688171016136,-1.3552755117489446
1684007018784698300,6.0540986328125,0.6429905889914789,-0.6127223968614361,-1.5669131279868436
1684007018794739400,6.064139892578125,0.22066497796983053,-0.5675010682428874,-1.670933723435607
1684007018804780600,6.07418115234375,-0.37460756297408876,-0.4332647323683921,-1.777988910566529
1684007018814821800,6.08422216796875,-0.9849309920983419,-0.3950357438242625,-1.850052595021874
1684007018824863200,6.094263671875,-1.4648499488659144,-0.4253969192218457,-1.9187383651205667
1684007018834904200,6.1043046875,-1.7119967938294838,-0.42075633998864226,-1.9379251004266904
1684007018844945600,6.114345947265625,-1.7039678094993624,-0.49985218044312846,-1.9633696079615384
1684007018854986900,6.12438720703125,-1.4901800155968927,-0.5445251464215368,-1.9570555686308446
1684007018865028000,6.134428466796875,-1.207752466150566,-0.7558088301260019,-1.861032009205314
1684007018875069400,6.1444697265625,-1.0324292182102257,-0.8816280366418175,-1.9089117049407294
1684007018885110400,6.1545107421875,-0.7582094669844014,-0.4304580687650854,-2.0940461159267802
1684007018895151800,6.16455224609375,-0.4491138458312465,-0.10756111139066533,-1.9792069197976394
1684007018905192900,6.17459326171875,-0.2495896815778747,0.020992278929777685,-1.7133762835219548
1684007018915234200,6.184634521484375,-0.11136960989356678,0.03097915644290055,-1.53609168538282
1684007018925275600,6.194676025390625,0.17667937290999242,-0.075371742274199,-1.3899695872548827
1684007018935316600,6.204717041015625,0.27514529218146816,-0.14531135549333332,-1.1670368911500313
1684007018945358000,6.21475830078125,0.2794914246325671,-0.1278247834050902,-1.0166752339314487
1684007018955399100,6.224799560546875,0.2589960098381018,-0.04799747466329248,-0.9662916659176419
1684007018965440400,6.2348408203125,0.08152818696562952,0.14778614035963109,-1.013207912350063
1684007018975481600,6.2448818359375,-0.02292871462045462,0.25718784323024285,-0.999137878370893
1684007018985522900,6.25492333984375,-0.08197927490493005,0.3222951887808166,-0.9289227723152587
1684007018995564000,6.26496435546875,-0.1539645193867527,0.26877689358112655,-0.8884960412268659
1684007019005605300,6.275005615234375,-0.26578855504232196,0.22358322146828327,-0.8568321465610793
1684007019015646600,6.285047119140625,-0.32404232021711066,0.22577381132658472,-0.6493897437617283
1684007019025687700,6.295088134765625,-0.06722617140961924,0.8067064285370176,-0.2820563316270698
1684007019035729100,6.30512939453125,0.15418100340686283,0.7070131301069656,-0.13630247127172115
1684007019045770200,6.315170654296875,0.4493916033956647,0.6640357970056825,-0.219447851077681
1684007019055811600,6.3252119140625,0.805782318057181,0.6441946028271194,-0.35984516149838325
1684007019065852600,6.3352529296875,1.0490125417947591,0.6595506668167128,-0.5018494128318951
1684007019075893900,6.34529443359375,1.1219416856623121,0.583619117791425,-0.6042447089713964
1684007019085935000,6.35533544921875,1.093937396994498,0.5527439118889423,-0.4759604932085034
1684007019095976400,6.365376708984375,0.9601500034086567,0.5212507248662545,-0.3138794898057373
1684007019106017600,6.375418212890625,0.8033922910324346,0.5516471861521142,-0.0959191322685533
1684007019116058800,6.385459228515625,0.6702234744916121,0.5872983932776128,0.23210024824311484
1684007019126100100,6.39550048828125,0.48987865439499195,0.5136270523166583,0.60473275171443
1684007019136141200,6.405541748046875,0.2019710539953394,0.4301357270737051,0.9181396960938526
1684007019146182600,6.4155830078125,-0.22198557859345827,0.30880069744933053,1.1771037579378798
1684007019156223600,6.4256240234375,-0.8192496298848002,0.14323806759545712,1.4516460895215517
1684007019166265000,6.43566552734375,-1.6105928421908104,-0.022550582782596983,1.7304394243625214
1684007019176306400,6.445706787109375,-2.361434936417467,-0.16166782386394468,1.9950883388467802
1684007019186347400,6.455747802734375,-2.8176102638437914,-0.20610618576843076,2.0713067054457417
1684007019196388800,6.4657890625,-2.9080963133947657,-0.265686988884422,1.9075033665232322
1684007019206429900,6.475830322265625,-2.7731313705473366,-0.36476993553206355,1.4604396820053054
1684007019216471200,6.48587158203125,-2.5449476242708187,-0.36689853659619237,0.9916448592662997
1684007019226512600,6.495912841796875,-2.173697233190788,-0.28931999223035343,0.5978579521734895
1684007019236553600,6.5059541015625,-1.689004301977009,-0.34858417506764905,0.47373962402591674
1684007019246595000,6.515995361328125,-1.210239291248945,-0.4371070862311352,0.47522425647320926
1684007019256636100,6.526036376953125,-0.7127296924269114,-0.3766822816298087,0.5523562430766752
1684007019266677400,6.536077880859375,-0.17951083186184033,-0.17094039908893693,0.6089103223512435
1684007019276718600,6.546118896484375,0.45539486405095664,0.0676774978611,0.5288178921874789
1684007019286759900,6.55616015625,1.0182688235951771,0.17750072461853336,0.3974120617668793
1684007019296800900,6.566201416015625,1.4188002348124797,0.1405353546097644,0.2053663730979506
1684007019306842300,6.57624267578125,1.6268723009456394,0.022192955020702215,0.016920089708831722
1684007019316883600,6.586283935546875,1.630204677669774,-0.15087985997811248,-0.12726926809189937
1684007019326924600,6.5963251953125,1.4312164782907881,-0.35461235051905116,-0.20486831664504265
1684007019336966100,6.606366455078125,0.9966828823949423,-0.5650882721118301,-0.39087104802813555
1684007019347007200,6.616407470703125,0.2007350920685389,-0.8205776215394227,-0.7436676024998498
1684007019357048600,6.626448974609375,-1.0004522801395563,-1.1478614806450709,-1.1010102032598361
1684007019367089600,6.636489990234375,-1.9547705651535843,-1.5187025070213063,-1.1622349023682315
1684007019377130900,6.64653125,-2.3334155082685215,-1.5204067231116054,-0.706148386014225
1684007019387172300,6.65657275390625,-1.989744663097908,-0.9375009536655534,-0.03822612762916222
1684007019397213400,6.66661376953125,-0.8743422030771432,-0.290742874137432,0.3869640827355472
1684007019407254600,6.676655029296875,0.46222162259042315,0.20132923111622036,0.4407436847445743
1684007019417295800,6.6866962890625,1.4863429068594192,0.5389127730806806,0.12501859676359017
1684007019427337100,6.696737548828125,2.032220840442951,0.6617383958310035,-0.3377716542167575
1684007019437378200,6.706778564453125,2.1743345260974607,0.524847984450036,-0.7377347947247119
1684007019447419600,6.716820068359375,2.054258346578824,0.3790645599684529,-1.0052124261064903
1684007019457460600,6.726861083984375,1.7564635276916953,0.2441854475267816,-1.1789739133507116
1684007019467502000,6.73690234375,1.240939259538876,0.1627321242051526,-1.3140469788515903
1684007019477543300,6.74694384765625,0.5162221789210887,0.0736293792982582,-1.4494143725239417
1684007019487584400,6.75698486328125,-0.30490821610708935,0.009357452393177477,-1.623865127554199
1684007019497625800,6.767026123046875,-0.9319465159345911,-0.14787673941634374,-1.6611655951104631
1684007019507666900,6.7770673828125,-1.0633776188801947,-0.31978607187648794,-1.4464606047051427
1684007019517708200,6.787108642578125,-0.782796621488501,-0.40429782872863707,-1.075378894757762
1684007019527749300,6.797149658203125,-0.3481412529937139,-0.4620809554827513,-0.6366083621837122
1684007019537790600,6.80719091796875,0.08982601774312707,-0.4580154419076171,-0.2364683152001724
1684007019547832000,6.817232421875,0.4705213308441469,-0.2944211959566789,-0.013195276400788701
1684007019557873100,6.8272734375,0.8051449060215274,-0.025756835897977202,0.012961387647850263
1684007019567914400,6.837314697265625,1.1877092122129143,0.09546375268567298,0.13979578019261163
1684007019577955600,6.84735595703125,1.468034505857879,0.11063098904631738,0.16410136230146635
1684007019587996800,6.857397216796875,1.716676235218024,0.015465736511201674,0.3010256290518798
1684007019598037900,6.867438232421875,1.8513207436826882,-0.0010576246593566256,0.36620879178358945
1684007019608079300,6.877479736328125,1.9195200204309348,-0.012994766193700498,0.34357023247928553
1684007019618120600,6.88752099609375,1.9521408080163034,0.010748863296309518,0.2931442259786743
1684007019628161600,6.89756201171875,1.931662201920859,0.06302738183213455,0.19131851181551843
1684007019638203100,6.907603515625,1.8928298950058544,0.08397102361154464,0.12125062954979855
1684007019648244100,6.91764453125,1.8565785883611132,0.056651115510841336,0.024478435460185185
1684007019658285600,6.927685791015625,1.791620492967603,0.06462097173225816,-0.09456443779011615
1684007019668326800,6.937727294921875,1.7510142326825087,-0.023481369129043368,-0.2376213073734996
1684007019678367900,6.947768310546875,1.7230956554316055,-0.1021575928227011,-0.3391499518570088
1684007019688409300,6.9578095703125,1.662410497619458,-0.09724426278805028,-0.4437453747923604
1684007019698450400,6.967850830078125,1.5595382452508086,-0.18803405770068007,-0.5437755584043852
1684007019708491600,6.97789208984375,1.3478269577353752,-0.24540138248043145,-0.6175868509562894
1684007019718532800,6.98793310546875,0.977604269917186,-0.25025463113179663,-0.7433503866376909
1684007019728574100,6.997974609375,0.5124920010539822,-0.23122596732997813,-0.8339247703606794
1684007019738615500,7.008015869140625,0.04130673026668747,-0.1929845809333531,-0.9122695923418075
1684007019748656600,7.018056884765625,-0.3430517614119748,-0.13532829288267217,-1.015651345367459
1684007019758697900,7.028098388671875,-0.6039129496958933,-0.13930225358731493,-1.0338389872829956
1684007019768739000,7.038139404296875,-0.7030203938197437,-0.097198486483592,-1.034430742309003
1684007019778780300,7.0481806640625,-0.6495683788206015,-0.04010391244744771,-0.9345560073075211
1684007019788821400,7.058221923828125,-0.4228147268532602,0.015089035031330637,-0.864454507893817
1684007019798862800,7.06826318359375,-0.10106497988996001,0.05868625649848125,-0.676535963868629
1684007019808904100,7.078304443359375,0.24756471807587443,0.10025691994928188,-0.4710659980382091
1684007019818945200,7.088345703125,0.5634356735830911,0.15647029882423225,-0.25507187848357266
1684007019828986600,7.098386962890625,0.7889290452711376,0.16035270686307976,-0.06920266167173691
1684007019839027600,7.108427978515625,0.9299865961088555,0.17880153649086328,0.12459921827486412
1684007019849069000,7.118469482421875,1.031078457738588,0.23550415032430588,0.24227046971159424
1684007019859110100,7.128510498046875,1.0603882074218378,0.27293777468898067,0.32431149468336823
1684007019869151400,7.1385517578125,1.0628225802987372,0.26955986018396233,0.4087893963164855
1684007019879192800,7.14859326171875,1.0146149397897106,0.2731685638525482,0.4907851219821226
1684007019889233800,7.15863427734375,0.9355882405535101,0.1857919694452793,0.5415656567320124
1684007019899275200,7.168675537109375,0.8361428380402366,0.189078330972167,0.5681302546223014
1684007019909316300,7.178716552734375,0.7506740093942108,0.18726921099056915,0.5466358660580994
1684007019919357600,7.188758056640625,0.6422876118587363,0.19709110264902713,0.49857544909725676
1684007019929398600,7.198799072265625,0.5409265754926645,0.1897716522158477,0.4235148428271989
1684007019939440000,7.20884033203125,0.39720317731598437,0.14872741714123364,0.2930684091366086
1684007019949481400,7.2188818359375,0.2667320370014596,0.06705760954374224,0.2130053044028938
1684007019959522600,7.2289228515625,0.1685642600287957,-7.152557309470145e-05,0.11206817615682613
1684007019969563800,7.238964111328125,0.0970920323608213,-0.0693349838571207,0.026612520388233075
1684007019979604900,7.24900537109375,-0.007565319521887646,-0.10009956363126067,-0.033686637933174085
1684007019989646300,7.259046630859375,-0.05629765982260309,-0.061411857504829484,-0.05709886547739071
1684007019999687300,7.269087646484375,-0.10566788898552913,-0.072878837565228,-0.05366563813336496
1684007020009728600,7.279129150390625,-0.17152833939886522,-0.0651407242330851,-0.03580498690453788
1684007020019770000,7.28917041015625,-0.22237813475226223,-0.06928348540918317,-0.0013413429722049554
1684007020029811100,7.29921142578125,-0.28202596305365973,-0.05171012879968618,0.04532909386727043
1684007020039852500,7.3092529296875,-0.326109349629528,-0.014670372001670795,0.10955262180224937
1684007020049893600,7.3192939453125,-0.3401896358131007,0.049098014905075996,0.12016463296329731
1684007020059934900,7.329335205078125,-0.31735163925344356,0.0679636001628848,0.2663619517836657
1684007020069976000,7.33937646484375,-0.2700158357509656,0.12318420408749328,0.4593682289974818
1684007020080017300,7.349417724609375,-0.18718737373475927,0.20255374903055925,0.636548280674344
1684007020090058600,7.359458984375,-0.08103698500562447,0.1889524458919659,0.8623182773427119
1684007020100099800,7.369500244140625,0.012824475860918267,0.249784469505591,1.0433633325707756
1684007020110141100,7.37954150390625,0.13220179079083136,0.28905200951025745,1.2073109150217753
1684007020120182200,7.38958251953125,0.21421372884364442,0.27550411226089117,1.334131956205212
1684007020130223600,7.3996240234375,0.24417328828066134,0.23782539368248304,1.4952117203829511
1684007020140264600,7.4096650390625,0.23101472844168852,0.2118206024000445,1.5613673925701237
1684007020150306000,7.419706298828125,0.240775108288332,0.2762689590588041,1.604824304630023
1684007020160347300,7.429747802734375,0.1890507340832472,0.33060455326143307,1.5946736335547327
1684007020170388400,7.439788818359375,0.1181331872245863,0.4581117630143841,1.508224606573823
1684007020180429700,7.449830078125,-0.00801080455927034,0.4981727598464158,1.3434936998604616
1684007020190470800,7.459871337890625,-0.14961677802668386,0.3220014571629643,1.1260075568905679
1684007020200512200,7.46991259765625,-0.28537106505287574,0.05257320390016828,0.9011410475265542
1684007020210553300,7.47995361328125,-0.41103968027572807,-0.15884017943117407,0.7307907343495778
1684007020220594600,7.4899951171875,-0.4054201246272898,-0.3742265700628067,0.6272138355555239
1684007020230636000,7.500036376953125,-0.30313473933846896,-0.5125131608136151,0.6485387087535928
1684007020240677000,7.510077392578125,-0.13216108083179207,-0.667354583726688,0.7637237309437979
1684007020250718400,7.520118896484375,0.09134888647785316,-0.7794418334706985,0.9318691491343072
1684007020260759600,7.530159912109375,0.38185471292170875,-0.9471187591961983,1.1561155318160463
1684007020270800800,7.540201171875,0.623736321833449,-1.3017559052101635,1.3479678629945344
1684007020280841900,7.5502421875,0.7755380869466708,-1.7137813566421818,1.4829831124321817
1684007020290883200,7.56028369140625,0.7387018202589914,-2.2093172072906575,1.5702283381672246
1684007020300924600,7.570324951171875,0.4694799184055926,-2.463247299126608,1.366706967486643
1684007020310965600,7.580365966796875,0.07157659536348233,-2.418372154284823,0.9298639297044223
1684007020321007000,7.590407470703125,-0.3813380003608829,-2.0698814393467595,0.4290266038406795
1684007020331048100,7.600448486328125,-0.7587532997378147,-1.6400117873831006,0.030435800549715297
1684007020341089500,7.61048974609375,-0.9072334170891405,-1.138199806256128,-0.25279021271651414
1684007020351130800,7.62053125,-1.109646081837649,-0.5860404967658022,-0.7161480188922607
1684007020361171900,7.630572265625,-1.4096446035446568,0.004501342745322513,-1.3189827203301763
1684007020371213200,7.640613525390625,-1.6428427696219097,0.5927429199899852,-1.746246099504767
1684007020381254300,7.65065478515625,-1.695673108044319,1.1974229812525699,-2.0435700416425777
1684007020391295600,7.660696044921875,-1.3915147781480037,1.6215772628739271,-2.046031474982572
1684007020401336800,7.670737060546875,-0.9489815236266509,1.8713803291791142,-1.9850798843983397
1684007020411378100,7.680778564453125,-0.4439568518779765,1.9030303955628505,-1.9917479751983638
1684007020421419400,7.69081982421875,0.1371299773648655,1.6637229920347467,-1.8564759492306948
1684007020431460600,7.70086083984375,0.6042683123728666,1.3045539856660202,-1.6029261350952073
1684007020441501900,7.71090234375,0.8431745768630146,0.9584674836381702,-1.4559093714673466
1684007020451543000,7.720943359375,0.9837337733488726,0.5480413437268372,-1.2338498830307956
1684007020461584300,7.730984619140625,1.1108210086002355,0.16965866086064424,-0.9329506159868073
1684007020471625600,7.741026123046875,1.119711756699395,-0.14065551772614393,-0.7033938169218451
1684007020481666700,7.751067138671875,0.9970270990881327,-0.3546295165786483,-0.48161447050027173
1684007020491708100,7.7611083984375,0.7844899295510993,-0.5948905943324552,-0.26257181165005056
1684007020501749200,7.771149658203125,0.5833352804951364,-0.8406801224158736,-0.10135245318661533
1684007020511790600,7.78119091796875,0.569634914481554,-1.0616216658363937,-0.03562593466112285
1684007020521831600,7.79123193359375,0.678148865839813,-1.2795085906020096,-0.02996778489542267
1684007020531872900,7.8012734375,0.9006992579558052,-1.4583148955520757,-0.010248661028464476
1684007020541914300,7.811314697265625,1.1535509823731716,-1.4612674712696525,-0.016115427050077884
1684007020551955400,7.821355712890625,1.3337340353860392,-1.2113971710172922,0.08967614189148715
1684007020561996600,7.831397216796875,1.3457036019234387,-0.8518590926556003,0.20030212408199807
1684007020572037800,7.841438232421875,1.1755528449460935,-0.5257310866768647,0.259530305935076
1684007020582079200,7.8514794921875,0.7941518426661955,-0.27336788182684785,0.24913716321319973
1684007020592120600,7.86152099609375,0.4348250627192219,-0.07068729418356172,0.25311684601209866
1684007020602161600,7.87156201171875,0.2876530886409518,0.16139030446489663,0.19128155706228003
1684007020612202900,7.881603271484375,0.3539067508252105,0.4398736954577573,0.06106257434647277
1684007020622244000,7.89164453125,0.5106949805272857,0.6839904786418954,-0.14424061769548024
1684007020632285400,7.901685791015625,0.7067436576161613,0.7987241743932899,-0.31021571157777766
1684007020642326400,7.911726806640625,0.7402182223114702,0.8343152998991226,-0.44451761252035304
1684007020652367800,7.921768310546875,0.6747290491550457,0.7948455809140028,-0.45441341411927993
1684007020662409100,7.9318095703125,0.5952433348032713,0.7632093430698154,-0.533785581520609
1684007020672450200,7.9418505859375,0.5694497228907267,0.8248701095386999,-0.7124254703790899
1684007020682491600,7.95189208984375,0.5504222512999534,0.7790040970079366,-0.9441816806346923
1684007020692532600,7.96193310546875,0.5131402014458122,0.6522445678629831,-1.1180772781827797
1684007020702574000,7.971974365234375,0.4506105782020428,0.44015407568916826,-1.3029612302660853
1684007020712615300,7.982015625,0.3123768567807539,0.19537925711388363,-1.4300926923366166
1684007020722656400,7.992056884765625,0.07675242422685996,-0.04412174221893974,-1.4531638622516139
1684007020732697800,8.00209814453125,-0.2772866486570149,-0.3553686141331517,-1.4339879750834799
1684007020742738900,8.01213916015625,-0.7573478221275193,-0.655643463092442,-1.3824609519138642
1684007020752780200,8.0221806640625,-1.3365348578900347,-0.9458780290048029,-1.2642742396357496
1684007020762821300,8.0322216796875,-1.9834052322460263,-1.22947120666785,-1.1729184390026552
1684007020772862600,8.042262939453124,-2.161231994599764,-1.3206815719549478,-1.0892678498889283
1684007020782904000,8.052304443359375,-1.783630013472809,-1.2023401259991127,-1.2442356346955077
1684007020792945100,8.062345458984375,-1.233006596474168,-1.0644588469270693,-1.3931401967499362
1684007020802986400,8.07238671875,-0.7512559890867143,-0.7359123229922984,-1.5641421079820819
1684007020813027600,8.082427978515625,-0.44248998164649916,-0.4723672867279539,-1.635738611233435
1684007020823068800,8.09246923828125,-0.2509227992000648,-0.2551860808915046,-1.563293814534363
1684007020833110200,8.102510498046875,-0.08389925953144188,0.0984096528734954,-1.513616442762031
1684007020843151300,8.1125517578125,0.15213108060887562,0.16763114929277512,-1.0854955910355486
1684007020853192600,8.122593017578126,0.11127328880553082,0.28905868542255536,-0.6709697244673011
1684007020863233600,8.132634033203125,0.092913627560614,0.31810569769513536,-0.24981045729153092
1684007020873275100,8.142675537109374,0.0013718606024143204,0.32096958150617544,-0.06686472890383913
1684007020883316400,8.152716796875,-0.008733272502178441,0.45320224767004,0.06908392895005001
1684007020893357600,8.1627578125,0.02414393433317017,0.6335697175549112,0.1303911209471428
1684007020903398800,8.17279931640625,0.09848070151198828,0.6755695344527671,0.11830401413248447
1684007020913439900,8.18284033203125,0.19579100617358816,0.6510953903040503,0.12937593459520874
1684007020923481300,8.192881591796874,0.3936729432243455,0.5627012253303109,0.17932176596939473
1684007020933522600,8.202923095703126,0.6242232321425075,0.41782379156725763,0.23663616179095825
1684007020943563600,8.212964111328125,0.8479506969239835,0.2806110381142172,0.4177174567921266
1684007020953605000,8.22300537109375,1.080860733869539,0.28647518148869827,0.6044542789151984
1684007020963646100,8.233046630859375,1.1186205149054027,0.630761146606719,0.4415235519131955
1684007020973687500,8.243087890625,1.145835757167135,1.0026521682066234,0.16992616654302667
1684007020983728600,8.25312890625,1.2714304924626278,1.3443689346270393,0.00543022151464682
1684007020993769900,8.26317041015625,1.3782416582511205,1.285224437588093,0.08092021957256146
1684007021003811200,8.273211669921874,1.39361727242864,1.1323575973015152,0.1939969062378598
1684007021013852300,8.283252685546875,1.2629843950002242,0.9239482879074231,0.2294261454613173
1684007021023893600,8.293294189453125,0.9513125419518406,0.7615003584914498,0.33394622805815605
1684007021033934800,8.303335205078126,0.46514558803258355,0.597970008720876,0.34594011307425887
1684007021043976100,8.31337646484375,-0.10180473329611699,0.5448856354062644,0.33726143833775446
1684007021054017500,8.32341796875,-0.5529251099259423,0.5249958039110776,0.34695744512044985
1684007021064058600,8.333458984375,-0.8579137325270049,0.3631238937910888,0.43373990063543083
1684007021074099900,8.343500244140625,-0.9854145051349374,0.15450572979491364,0.4260640143691151
1684007021084141000,8.353541259765626,-1.1103346349003718,-0.11054420466096833,0.3610193729697046
1684007021094182300,8.363582763671875,-1.2980394363430732,-0.42213535298179755,0.2261731625905313
1684007021104223400,8.373623779296874,-1.4018065929488979,-0.6956558227097942,0.06135416011623348
1684007021114264800,8.3836650390625,-1.2798099518259654,-0.742912292453489,-0.2063615321163265
1684007021124306100,8.39370654296875,-1.0310993195305038,-0.7033433915924429,-0.5054223537004154
1684007021134347200,8.40374755859375,-0.8107290268589697,-0.6410751341440588,-0.8566396235545426
1684007021144388600,8.413788818359375,-0.716746568584674,-0.37613296518745454,-1.3793425559547001
1684007021154429600,8.423830078125,-0.8822541237865545,-0.16865539547775746,-1.8876692056255584
1684007021164471000,8.433871337890626,-1.2713098526931124,-0.026118278488571702,-2.422496318848378
1684007021174512000,8.443912353515625,-1.6964349745931955,-0.04087352751525104,-2.783149480805855
1684007021184553400,8.453953857421874,-1.8468246458465225,-0.19775390620095157,-2.8438272476949016
1684007021194594700,8.4639951171875,-1.8574275969637557,-0.3335685730771649,-2.6443319319743575
1684007021204635800,8.4740361328125,-1.7167832851551754,-0.3596668241835723,-2.3317506313976217
1684007021214677200,8.48407763671875,-1.3716247082112645,-0.3502197264773947,-1.9400706290204357
1684007021224718300,8.49411865234375,-0.9146659373566556,-0.348622321946638,-1.6198419332227452
1684007021234759600,8.504159912109374,-0.5846707820979684,-0.37949466706897733,-1.2442708015365858
1684007021244800900,8.514201416015625,-0.4424567222359428,-0.6586809156572142,-0.8282849788643283
1684007021254842000,8.524242431640625,-0.6169431209579657,-1.1793994903229499,-0.4007296562958046
1684007021264883400,8.53428369140625,-1.0830429791787466,-1.9661912919753055,0.2000656128059968
1684007021274924600,8.5443251953125,-1.466237664227003,-2.591747284013789,1.042266607204376
1684007021284965800,8.5543662109375,-1.2031382321016753,-2.7844066619729624,2.045362949555774
1684007021295007200,8.564407470703125,-0.2670477629380685,-2.4507646560523195,2.5568895339556748
1684007021305048200,8.57444873046875,0.9343135356542416,-1.8500432967809468,2.429108857938594
1684007021315089600,8.584489990234376,2.126062631500191,-1.1241483688107263,2.2892420292483155
1684007021325130600,8.594531005859375,3.0578985214374255,-0.33036613465133885,1.966584682480446
1684007021335172000,8.604572509765624,3.511412620540404,0.4658117295001951,1.3928513525463273
1684007021345213400,8.61461376953125,3.661657810147307,1.1982631683157419,0.6359865665675478
1684007021355254400,8.62465478515625,3.639873027657,1.730740547240204,-0.06635856635374528
1684007021365295800,8.6346962890625,3.589814424360622,2.0327768327023903,-0.6749734878888444
1684007021375336900,8.6447373046875,3.422318458413525,2.015835762013068,-1.0137056111410192
1684007021385378200,8.654778564453125,3.0987262723882694,1.6761522293230215,-1.1266672610132276
1684007021395419600,8.664820068359376,2.7772672175246247,0.989781379563719,-1.0395520925905097
1684007021405460600,8.674861083984375,2.5168418883057133,0.3675184250943383,-0.9914289712908576
1684007021415502000,8.68490234375,2.2831463813603725,-0.08635807042397332,-0.9857692719495762
1684007021425543100,8.694943603515625,1.8833656311013387,-0.45666313165176653,-0.988826036347216
1684007021435584400,8.70498486328125,0.959444045972369,-0.8996286392560369,-1.07080447667875
1684007021445625800,8.715026123046876,-0.6606965660044568,-1.2781019210491846,-1.238236188949229
1684007021455666900,8.7250673828125,-2.4790790080689042,-1.3530330656114693,-1.3058601618091825
1684007021465708200,8.735108642578124,-3.749262571386369,-1.1618881225570585,-1.3450585604194518
1684007021475749300,8.745149658203125,-3.671876430633264,-0.8245248794614821,-1.292211174848906
1684007021485790600,8.75519091796875,-2.509002208775487,-0.5131883621259172,-1.092857837561938
1684007021495832000,8.765232421875,-1.1279778479020994,-0.21103668213084792,-0.9053921700111799
1684007021505873100,8.7752734375,0.10437881952411188,-0.041288375825589585,-0.7770277261900836
1684007021515914400,8.785314697265624,1.0475171804595893,0.05318737038656358,-0.6629469393658067
1684007021525955600,8.79535595703125,1.623085737155256,0.08881378162676261,-0.5313520431204208
1684007021535996800,8.805397216796875,1.8269273042409644,0.19081115740095492,-0.28925848012422306
1684007021546037900,8.815438232421876,1.847253799554534,0.25845146194774893,-0.069694519009714
1684007021556079300,8.825479736328125,1.8460675477682216,0.3531913758275419,0.11323952675579654
1684007021566120600,8.83552099609375,1.8639788627396638,0.32401657102994064,0.23364925385432497
1684007021576161600,8.84556201171875,1.8975192307734634,0.23315048224395207,0.3325395584856086
1684007021586203100,8.855603515625,1.9277230501979192,0.1355857848818832,0.43584942814235395
1684007021596244100,8.86564453125,1.9424932001572621,0.102845192067513,0.5614857672113407
1684007021606285600,8.875685791015625,1.9094655513639904,0.06773471834156732,0.6888275145384831
1684007021616326800,8.885727294921875,1.806974887834825,0.0061235426870060354,0.835531950048433
1684007021626367900,8.895768310546876,1.6532373428860796,-0.06786346429472817,0.9933204652627846
1684007021636409300,8.9058095703125,1.495974302200694,-0.12798881537688983,1.0761749744592093
1684007021646450400,8.915850830078124,1.2879929542582298,-0.07871532440218873,1.07291293135057
1684007021656491600,8.92589208984375,0.9999161958736416,-0.06619262700163811,0.9954359530516933
1684007021666533000,8.935933349609375,0.7085297109107692,0.009786605663919293,0.8317544459359087
1684007021676574100,8.945974609375,0.35266405347231217,0.06786155690390558,0.6635797023361992
1684007021686615600,8.956015869140625,0.05337523667267472,0.10825061794322524,0.4391465187244393
1684007021696656600,8.966056884765624,-0.06538875406448388,0.15985679622586604,0.17343974105635304
1684007021706697900,8.976098388671875,-0.07514600453292057,0.20391941078285575,-0.07501816751497788
1684007021716739200,8.9861396484375,0.01736724202786264,0.2192869188130209,-0.2838926315584037
1684007021726780300,8.9961806640625,0.14229600135727236,0.2875328064884899,-0.45230174078206836
1684007021736821600,9.00622216796875,0.2921023665813327,0.2632293700160007,-0.5455322266082338
1684007021746863000,9.016263427734376,0.3938608466572177,0.25180149075466773,-0.5227303503956146
1684007021756904100,9.026304443359376,0.4973568022547991,0.10983848577954114,-0.4250996113458466
1684007021766945500,9.036345947265623,0.5758385658061691,0.014234542790938668,-0.28441905977265497
1684007021776986600,9.046386962890624,0.6245041489822857,0.007822036763048958,-0.17012190817335632
1684007021787027900,9.05642822265625,0.6598845125540864,0.05922508256371826,-0.037110328656741076
1684007021797069000,9.066469482421876,0.6749802826837238,0.10130500794297609,0.13083744051138682
1684007021807110300,9.0765107421875,0.653474569303564,0.15302181244634003,0.30197119723573107
1684007021817151600,9.086552001953123,0.6339846252985484,0.1807928084733441,0.5092194082175262
1684007021827192800,9.09659326171875,0.6140708923359733,0.2036628722790315,0.6803970336758747
1684007021837234100,9.106634521484375,0.6029320955372529,0.18568611159214563,0.7911913393956436
1684007021847275200,9.116675537109376,0.5521190167373928,0.1578407289124459,0.869820833193199
1684007021857316600,9.126717041015626,0.5040071011708622,0.17256259921883815,0.8466956615309412
1684007021867357900,9.13675830078125,0.4067131580120413,0.14147758487030385,0.8227300643603964
1684007021877399000,9.14679931640625,0.3263858855771906,0.12435150151662495,0.7879221438767141
1684007021887440300,9.1568408203125,0.25476485497030277,0.13078880292711909,0.6707730291792154
1684007021897481400,9.1668818359375,0.1685857178463947,0.1297359465354782,0.6099979877530385
1684007021907522700,9.176923095703126,0.12536722430415417,0.056753158464879896,0.5480935572998255
1684007021917564100,9.186964599609375,0.09113949529652865,-0.03294658663751207,0.43060779562923185
1684007021927605200,9.197005615234374,0.04616743325231711,-0.08185195928312058,0.3563377857457379
1684007021937646600,9.207046875,0.016201555705939612,-0.10905933384971232,0.29949021331221987
1684007021947687600,9.217087890625,-0.0324623584906146,-0.12408542633935161,0.26285481468432537
1684007021957728900,9.22712939453125,-0.05447971822913669,-0.07678318025769136,0.21308708186759376
1684007021967770300,9.237170654296875,-0.05950111142247738,-0.034164428634403006,0.2147746085070349
1684007021977811400,9.247211669921874,-0.08369660365897345,-0.03914546970882337,0.20845747001834328
1684007021987852600,9.257253173828126,-0.09387320278971342,-0.024670600925641325,0.21130371096479597
1684007021997893800,9.267294189453125,-0.0981636643136783,0.04912471766961783,0.241464376463984
1684007022007935200,9.27733544921875,-0.07634615901676213,0.09145832069109336,0.3932402133196268
1684007022017976600,9.287376953125,-0.05409693719742783,0.14279651639012125,0.5063049794405746
1684007022028017600,9.29741796875,-0.028929710385933307,0.18638324725087996,0.65597653391207
1684007022038058900,9.307459228515626,-0.015567600813956533,0.20572853077763528,0.7776083945869887
1684007022048100000,9.31750048828125,-0.026317060137149583,0.17993640890951385,0.8054671286858734
1684007022058141400,9.327541748046874,-0.075206577910118,0.17568206796860583,0.8472030162141111
1684007022068182600,9.3375830078125,-0.08774566655217181,0.24453353870002362,0.8816988469029948
1684007022078223800,9.347624267578125,-0.02716928708986906,0.19703197466935032,0.9463307858269184
1684007022088265100,9.35766552734375,0.06713950626814534,0.16702270509330377,1.0471471548977873
1684007022098306200,9.36770654296875,0.16691112505515518,0.13525772098038324,1.1072670220694871
1684007022108347600,9.377748046875,0.2551170588079421,0.06390857689526108,1.2065730093638196
1684007022118388900,9.387789306640624,0.330790698523353,0.05707836145098581,1.174652218840607
1684007022128430000,9.397830322265625,0.3711544870733227,0.09223747242506806,1.1308444738543315
1684007022138471300,9.407871826171874,0.3470742105936033,0.1189498901897844,0.9544969796464656
1684007022148512400,9.417912841796875,0.2752408981298432,0.158491134536014,0.6856250763021468
1684007022158553800,9.4279541015625,0.18667960170599046,0.18033981315555697,0.3250410557356477
1684007022168595100,9.43799560546875,0.060850143276831886,0.14281463624094498,-0.03211224073555265
1684007022178636200,9.44803662109375,-0.09614944444587484,0.016797065816764382,-0.2849683762527429
1684007022188677600,9.458077880859374,-0.1674116254005828,-0.18894481642693248,-0.37571835511602797
1684007022198718600,9.468119140625,-0.1875845789283875,-0.34820747382887685,-0.371059060034083
1684007022208760000,9.478160400390625,-0.11963224413144914,-0.3440322874859472,-0.3159840106914053
1684007022218801300,9.48820166015625,0.07677990199770256,-0.3299770354711049,-0.22943520554065436
1684007022228842400,9.498242919921877,0.3104425667219759,-0.31594562535188275,-0.12306571012001737
1684007022238883800,9.5082841796875,0.5204367637667093,-0.30703258523557253,0.0039387940611106086
1684007022248925100,9.518325439453124,0.6692155003735714,-0.36925029739950865,0.11156106000527376
1684007022258966200,9.52836669921875,0.802507221686706,-0.47779464707116287,0.18983697885531048
1684007022269007600,9.538407958984376,0.9079099894913164,-0.829516410847157,0.39569485189106873
1684007022279048600,9.548448974609377,1.0045943259623322,-1.250840187149461,0.7388970853497594
1684007022289090000,9.558490478515624,1.039498925259897,-1.391016960203309,0.9165567159496298
1684007022299131300,9.56853173828125,0.9400301576567501,-1.5409698484921155,1.0073788167075612
1684007022309172400,9.57857275390625,0.7061322927288436,-1.354368209800275,0.8574312926176146
1684007022319213700,9.5886142578125,0.3524580000744769,-1.0586099624331455,0.7004022598626506
1684007022329254800,9.5986552734375,-0.06990993032167823,-0.7253446578730176,0.5220912694085351
1684007022339296200,9.608696533203124,-0.4777752160336138,-0.41689205160853815,0.3369170427955041
1684007022349337300,9.618737548828124,-0.8982913495064788,-0.08048534383213252,0.08688163761121738
1684007022359378600,9.628779052734377,-1.2656359673922366,0.4011230467480393,-0.36621248715287175
1684007022369420000,9.6388203125,-1.4660525322244233,0.5810546874841441,-0.5333707332163933
1684007022379461000,9.648861328125,-1.5036672352774658,0.8874788282844898,-0.7555413245830243
1684007022389502400,9.65890283203125,-1.3506176473005898,1.1742601394048753,-0.87072730059295
1684007022399543600,9.668944091796876,-1.0221706629567306,1.3550481795564169,-0.8822561502068503
1684007022409584800,9.678985107421877,-0.530935883540391,1.3938798904514162,-0.7327748537716006
1684007022419626200,9.689026611328124,0.0437126756485848,1.1978006361448164,-0.5021321773538916
1684007022429667200,9.699067626953124,0.4896547495847552,0.9394626617013712,-0.25235974800513383
1684007022439708600,9.70910888671875,0.6941072939655218,0.6620273589435132,0.007780551893249072
1684007022449749900,9.719150390625,0.7786946298077193,0.42997264854558964,0.18926560881152144
1684007022459791000,9.72919140625,0.7455670237777519,0.21442413332734156,0.3148170710606539
1684007022469832400,9.739232666015624,0.6107824443989401,0.10846900931901424,0.3789756299246115
1684007022479873500,9.74927392578125,0.46796017897061093,0.011683463931124209,0.31292247773336934
1684007022489914800,9.759315185546876,0.2321871220423075,-0.10684204112797895,0.20605683336909353
1684007022499956100,9.7693564453125,0.01208876075478799,-0.2901496889035726,0.20634317379977674
1684007022509997200,9.779397705078123,-0.18718588344301015,-0.4858188628548732,0.21021437645306204
1684007022520038600,9.78943896484375,-0.26579385977419834,-0.6033620833802257,0.16714358339222146
1684007022530079600,9.79947998046875,-0.2725973724816826,-0.6337642670830269,0.11039328580202679
1684007022540121000,9.809521484375,-0.18360644580823418,-0.5848102569644894,0.008449077625846445
1684007022550162400,9.819562744140624,-0.02171111117278989,-0.5119094850144785,-0.043239355114061837
1684007022560203400,9.829603759765623,0.1839925051988943,-0.4558820725043852,-0.10955572113354892
1684007022570244800,9.839645263671876,0.36577302204813955,-0.4478302000919249,-0.10273981088083796
1684007022580286100,9.8496865234375,0.4489883184679085,-0.41830158224298564,-0.11174654970596651
1684007022590327200,9.8597275390625,0.517651259998108,-0.33606052393549524,-0.15069985392579174
1684007022600368600,9.86976904296875,0.6657206417956983,-0.24869632720926332,-0.2789299488539586
1684007022610409600,9.87981005859375,0.8993012905237359,-0.16067600242838306,-0.3834648130514075
1684007022620451000,9.889851318359376,1.1650750636545912,-0.10037994386790529,-0.48076963415107604
1684007022630492300,9.899892822265626,1.3553320168977632,-0.05539512651021718,-0.6152501106973695
1684007022640533400,9.909933837890623,1.3676278590933322,-0.05388545980052604,-0.7712519168319654
1684007022650574800,9.91997509765625,1.3289785385517723,-0.07856273648551308,-0.9356013537563258
1684007022660615900,9.930016357421875,1.3843672274888352,-0.12631130215569297,-1.0974349975610196
1684007022670657200,9.9400576171875,1.431986570309556,-0.22505569457690633,-1.1961847544545068
1684007022680698600,9.950098876953126,1.475790023738316,-0.2857866287305958,-1.2291511297032298
1684007022690739600,9.96014013671875,1.5014283655888294,-0.28666591649531675,-1.219598054896781
1684007022700781000,9.970181396484374,1.5620679854700825,-0.24181747440194254,-1.1738536358382783
1684007022710822100,9.980222412109375,1.693972468438212,-0.16309833520020053,-1.1488419770587763
1684007022720863400,9.990263916015625,1.8355274201461507,-0.12241172782392566,-1.0543377400054472
1684007022730904800,10.00030517578125,1.915720224502316,-0.022253990118902226,-0.9994986057224955
1684007022740945800,10.01034619140625,1.9020425081689638,0.11740589155212351,-0.9384981393326101
1684007022750987200,10.0203876953125,1.728481411896194,0.2504510879066924,-0.8659579754009171
1684007022761028600,10.030428955078126,1.5369400977162542,0.3260526656662254,-0.7575366498248738
1684007022771069600,10.040469970703125,1.4445143937693041,0.3988714218827432,-0.6814699171353736
1684007022781111000,10.050511474609374,1.420002579561436,0.4428167341379901,-0.648936033178718
1684007022791152000,10.060552490234375,1.3817703722818147,0.36257648480965426,-0.6809883116798885
1684007022801193400,10.07059375,1.3220280408688274,0.29924678805999055,-0.6778900623098586
1684007022811234700,10.08063525390625,1.2426996230839689,0.3030128479029723,-0.7877526282749366
1684007022821275800,10.09067626953125,1.0719487666289174,0.25934886919174893,-0.835104465597556
1684007022831317200,10.100717529296874,0.8584799766755633,0.1515016556131004,-0.8342628478989461
1684007022841358300,10.110758544921875,0.6281474828234747,-0.016032219026374864,-0.8187315464098757
1684007022851399600,10.120800048828125,0.3764058349621497,-0.1911144256918497,-0.7669715881881498
1684007022861440900,10.13084130859375,0.12100708474085686,-0.3696575165732912,-0.7100858687010876
1684007022871482000,10.14088232421875,-0.12738692775559596,-0.4799051284625815,-0.7006886004683855
1684007022881523400,10.150923828125,-0.3278952838300022,-0.5142116545997769,-0.6780889033943661
1684007022891564500,10.16096484375,-0.4768460988428966,-0.5535526274154066,-0.6358006001860987
1684007022901605800,10.171006103515625,-0.6268657445962221,-0.6169271468002255,-0.5856702326988124
1684007022911647200,10.181047607421876,-0.7429177759964173,-0.6255455017713479,-0.5307862758037972
1684007022921688200,10.191088623046875,-0.7950599193049882,-0.6559143067253047,-0.5407588483123557
1684007022931729600,10.2011298828125,-0.6976146697703889,-0.6479969025602825,-0.5323762894693733
1684007022941770900,10.21117138671875,-0.48588192460777146,-0.6134405135844726,-0.4924414157610377
1684007022951812000,10.22121240234375,-0.21167421347501378,-0.5783004761543629,-0.4630982875315578
1684007022961853400,10.231253662109374,-0.0069801808802861165,-0.4827022551999769,-0.43852114662880937
1684007022971894400,10.241294921875,0.22466349612663097,-0.3839921950560384,-0.4505579472233719
1684007022981935800,10.251336181640625,0.46039915069798765,-0.2844076155538967,-0.39933443075431124
1684007022991977100,10.26137744140625,0.6381273269794752,-0.2225189209985068,-0.3505661486960681
1684007023002018200,10.271418701171877,0.6911652086770488,-0.13190937037615263,-0.38542628277861823
1684007023012059600,10.2814599609375,0.7214956284809035,0.008554458627253944,-0.4806504248430503
1684007023022100600,10.2915009765625,0.7460803986946217,0.1392393112807209,-0.7151832580664672
1684007023032142000,10.30154248046875,0.760975480108632,0.2989854811950615,-1.005404710872753
1684007023042183300,10.311583740234376,0.7441945075529928,0.4001264572744195,-1.182351827520695
1684007023052224400,10.321624755859377,0.7657829522556345,0.4003858567045213,-1.2172517778166072
1684007023062265800,10.331666259765624,0.7928935289021473,0.37892532359083,-1.178129434569493
1684007023072307100,10.34170751953125,0.8170423507545089,0.3286399841918775,-1.0707480906172098
1684007023082348200,10.35174853515625,0.823354601820054,0.3424091338762786,-0.9108119010103155
1684007023092389600,10.3617900390625,0.7330880164214607,0.395606994521381,-0.6975636482442188
1684007023102430600,10.3718310546875,0.6257393360147918,0.4255590439422259,-0.4655578136567335
1684007023112472000,10.381872314453124,0.484987854956744,0.3627347945578331,-0.2298202514084426
1684007023122513300,10.391913818359376,0.387433886449523,0.23078441627368804,0.0251960755331001
1684007023132554400,10.401954833984377,0.2521585226696572,0.12738513937019114,0.10755109789607714
1684007023142595800,10.41199609375,0.018584728092416347,0.04511928559085627,0.1422669886812031
1684007023152636800,10.422037353515623,-0.2532238960937547,-0.004721641353661158,0.1747982501431531
1684007023162678200,10.43207861328125,-0.4204339980293588,0.001269340399162692,0.11447787268330077
1684007023172719600,10.442119873046876,-0.27855896940618025,0.10164070145102021,-0.04237389567269955
1684007023182760600,10.4521611328125,0.0676043033500112,0.1635646819259084,-0.2326858043273984
1684007023192802000,10.462202392578124,0.37037229527319837,0.1879615783794614,-0.3728044033416252
1684007023202843300,10.47224365234375,0.5180830953893176,0.15358257288881272,-0.3943400382358912
1684007023212884400,10.482284912109376,0.5022691488486267,0.1059331893816311,-0.47385406493471544
1684007023222925700,10.492326171875,0.382589221046182,0.016323089588635275,-0.46681737916479804
1684007023232966800,10.5023671875,0.19029688848776383,-0.003046035794334022,-0.39386916150909856
1684007023243008200,10.51240869140625,-0.05051660535957667,0.009011268603086292,-0.30503082268447823
1684007023253049600,10.522449951171875,-0.22599613679174554,0.07375240311628968,-0.20231533043342165
1684007023263090600,10.532490966796876,-0.33827030666220875,0.19566059108833708,-0.09553956980541702
1684007023273132000,10.542532470703126,-0.430867671886276,0.2813539505181207,0.07206368448038143
1684007023283173000,10.552573486328123,-0.528166174843305,0.2689275741428676,0.09254884711347851
1684007023293214400,10.56261474609375,-0.6757966279426352,0.2542114257354549,0.10000395777840905
1684007023303255700,10.57265625,-0.8017764089919426,0.3349342346420559,0.16810250297960733
1684007023313296800,10.582697265625,-0.8949427604159828,0.4032011032509453,0.2718715667984321
1684007023323338200,10.592738525390626,-0.7665047646161856,0.3878698350094187,0.2249748708321158
1684007023333379600,10.60277978515625,-0.4493172169784918,0.21634864794177974,-0.01627063750822434
1684007023343420600,10.612821044921876,-0.18806111808453885,-0.021332740795485854,-0.5092139244809443
1684007023353461900,10.6228623046875,0.004380822171645757,-0.2291517257380403,-0.8634471894646699
1684007023363503300,10.632903564453123,0.12624633302618346,-0.3957433699514104,-0.998947620255945
1684007023373544400,10.64294482421875,0.17930281165478995,-0.48112392437183243,-1.1481122969146742
1684007023383585600,10.652986083984375,0.08737754824747254,-0.5455322263897319,-1.2624410392624703
1684007023393626800,10.663027099609376,-0.25372076029028273,-0.6656141281331499,-1.3574137688713768
1684007023403668100,10.673068603515626,-0.8828400373671723,-0.906068801880988,-1.455988407266758
1684007023413709600,10.68310986328125,-1.8704686164350608,-1.3700542449392312,-1.4740800857906777
1684007023423750600,10.69315087890625,-3.0517628193221245,-1.9890413283894786,-1.3982044458543663
1684007023433791900,10.7031923828125,-3.8064742089689565,-2.5873908997534,-0.8921542167625068
1684007023443833000,10.7132333984375,-3.5813136100861414,-2.793652534517582,0.1520080566119451
1684007023453874400,10.723274658203126,-2.617742061691419,-2.3437356947664,1.2139732839215405
1684007023463915600,10.733316162109375,-1.3409723044562478,-1.4123611449001905,1.9251613617421486
1684007023473956800,10.743357177734374,-0.019435763339208705,-0.3430128095705748,2.1871883869184887
1684007023483998100,10.7533984375,1.0892422199299845,0.5784816742119291,2.1709778309173338
1684007023494039600,10.76343994140625,1.7753525971626944,1.1758871080106728,1.8444957733550542
1684007023504080600,10.77348095703125,2.2092330456238467,1.5205488204133661,1.5571405886951573
1684007023514121900,10.783522216796875,2.50765371315586,1.626287460356255,1.2662296294014301
1684007023524163000,10.7935634765625,2.625742435398001,1.6057591438911942,0.8981046675532576
1684007023534204300,10.803604736328126,2.612849235473831,1.374209404095177,0.5445780754135404
1684007023544245600,10.81364599609375,2.481921196002479,1.1506795883611416,0.2073211670528077
1684007023554286800,10.823687255859374,2.2990474700249393,0.9073352813175242,-0.029067277848095378
1684007023564328100,10.833728515625,2.0288958549691363,0.6349010466153968,-0.1409475802495582
1684007023574369500,10.843769775390625,1.759190201743748,0.3953714371142423,-0.21262884120464143
1684007023584410600,10.85381103515625,1.4347863197278568,0.07619476316260147,-0.34452533714944233
1684007023594451900,10.863852294921877,1.0692809819538196,-0.16980075834513125,-0.45894479759209134
1684007023604493000,10.873893310546874,0.6551417113829985,-0.2881059647959148,-0.6348824500968003
1684007023614534300,10.883934814453124,0.31200265885724193,-0.2841625213645234,-0.8791614770958053
1684007023624575600,10.89397607421875,0.0884295104721061,-0.3018722533801142,-1.0653449297018187
1684007023634616800,10.90401708984375,0.04531937836260704,-0.3176708222792753,-1.1718058584791196
1684007023644658100,10.91405859375,0.17544853694999818,-0.36537837982984195,-1.1905682087634963
1684007023654699200,10.924099609375,0.38266423350202344,-0.41426754001705257,-1.0979639292108712
1684007023664740600,10.934140869140624,0.6786094903958315,-0.3927631377037969,-1.0225303173967777
1684007023674781900,10.944182373046877,0.9825146795622558,-0.23818206780342485,-1.0109221934285288
1684007023684823000,10.954223388671876,1.2371693849425933,-0.026270866263889442,-0.9463105202423919
1684007023694864300,10.9642646484375,1.3987790346235112,0.14721775046867802,-0.7107074262056243
1684007023704905600,10.97430615234375,1.5088341236687908,0.22692680359017264,-0.47410035127924804
1684007023714946700,10.98434716796875,1.616210699068824,0.30850982676256994,-0.3805527688779688
1684007023724988100,10.994388427734377,1.6642311811713084,0.3371906278990344,-0.3842158318043962
1684007023735029400,11.004429931640624,1.6306471825178421,0.28938198084878347,-0.3769233226000563
1684007023745070600,11.014470947265623,1.4936085939165695,0.24160766609590473,-0.3589994907191901
1684007023755111900,11.02451220703125,1.3148010968938302,0.1482172011759554,-0.28368520733289504
1684007023765152900,11.03455322265625,1.0794237853114537,0.14315509790036177,-0.30107784257173037
1684007023775194300,11.0445947265625,0.7923353909531919,0.13567256917109036,-0.3070554733763731
1684007023785235600,11.054635986328124,0.4545457957781693,0.03752899177099134,-0.2672238350077635
1684007023795276600,11.064677001953124,0.10958613460686534,-0.02214622499803929,-0.18107414247004838
1684007023805318100,11.074718505859376,-0.1632987856442805,-0.08653354661167587,-0.17483282092978342
1684007023815359400,11.084759765625,-0.26937240363176584,-0.15818977348487256,-0.10760545731812067
1684007023825400600,11.09480078125,-0.1796184481081377,-0.17978668215976062,-0.1300535200371347
1684007023835441800,11.10484228515625,0.07875226429831934,-0.1155338286524929,-0.13938760767483688
1684007023845483200,11.114883544921875,0.39504581691182905,-0.08017444622437898,-0.12628269206791087
1684007023855524300,11.124924560546877,0.6940552593366852,-0.09279632571103782,-0.02948379523586007
1684007023865565600,11.134966064453126,0.9440762997639554,-0.12477111825875283,0.06381559376806804
1684007023875606600,11.145007080078123,1.0727956295392729,-0.1809492111217314,0.13377690312463184
1684007023885648000,11.15504833984375,1.1629364491918015,-0.17289161677188616,0.14460897438759435
1684007023895689400,11.16508984375,1.2334634066398125,-0.07221984868525992,0.11982631675266692
1684007023905730600,11.175130859375,1.2749423979824945,-0.060853004378745655,0.18054413786303034
1684007023915771800,11.185172119140624,1.279697179894132,-0.05985450744299865,0.1733124257486101
1684007023925813200,11.195213623046875,1.2750884293229614,-0.10480594631660169,0.14929652202306656
1684007023935854300,11.205254638671876,1.2966996431482192,-0.14053535462686678,0.10198283196772075
1684007023945895600,11.2152958984375,1.2653646469044713,-0.1430644988536775,0.06071519848594873
1684007023955936600,11.225337158203123,1.1961253881772822,-0.18638324745235602,-0.02398610127171725
1684007023965978000,11.23537841796875,1.064218759440431,-0.13417816147430744,-0.0774238108831701
1684007023976019400,11.245419677734375,0.8998607398087546,-0.07498168960327672,-0.11364006998875417
1684007023986060500,11.2554609375,0.6564676165126208,0.015079498472972125,-0.16125750525765656
1684007023996101800,11.265502197265626,0.4500086009740244,0.16224479669483416,-0.2415921688180659
1684007024006142900,11.275543212890623,0.284108459973616,0.10857868191128701,-0.20851373680303417
1684007024016184200,11.285584716796874,0.16955834646710963,0.15072441093759464,-0.19377493857447206
1684007024026225600,11.2956259765625,0.1547183693842061,0.22161960592151692,-0.19734525676759607
1684007024036266600,11.3056669921875,0.21817632019935307,0.2447767257451687,-0.14290666583091413
1684007024046308000,11.31570849609375,0.3163618147608406,0.28001499183034767,-0.12860226646821302
1684007024056349400,11.325749755859375,0.4575907289492402,0.2843246459684083,-0.06590986255971885
1684007024066390400,11.335790771484374,0.5710749625124828,0.27434158324723285,-0.010387420583129857
1684007024076431800,11.345832275390626,0.6313617230519512,0.371871948204768,-0.07177901265858343
1684007024086472900,11.355873291015625,0.7261375187996572,0.14200210589966977,0.05357885374953202
1684007024096514200,11.36591455078125,0.7352246047043787,0.21125984196242467,0.03589177138755895
1684007024106555600,11.3759560546875,0.7209043501914059,0.010547637944035605,0.2028203009518344
1684007024116596600,11.3859970703125,0.6765145657737563,0.027645111075008392,0.22642469408797164
1684007024126638000,11.396038330078126,0.683490038013352,0.060476303102295514,0.3571691513759732
1684007024136679300,11.406079833984377,0.6404330728980587,0.08788490293762477,0.5184161662061031
1684007024146720400,11.416120849609374,0.6430201530085704,0.10976886760784275,0.6616544722463169
1684007024156761800,11.426162109375,0.6395902037400911,0.08121109024558394,0.7599606513647389
1684007024166803100,11.43620361328125,0.6214945912075361,0.12073326124817929,0.7219867706846755
1684007024176844200,11.44624462890625,0.5797548293688374,0.10013198861838775,0.5901882648208173
1684007024186885600,11.456285888671877,0.4721388816393835,0.079483985741721,0.3717343806442767
1684007024196926600,11.4663271484375,0.3740389943120824,0.13672733291585962,0.012784480958364985
1684007024206968000,11.476368408203124,0.29225265979769716,-0.09432029719061054,-0.1593902109843653
1684007024217009300,11.48640966796875,0.20592266304905982,-0.05757427212860469,-0.4196166992049078
1684007024227050400,11.496450927734376,0.16303002836248442,-0.05377578732495637,-0.5416884422192217
1684007024237091800,11.5064921875,0.17742031826643978,-0.0777444838875032,-0.5848585366736048
1684007024247133100,11.516533447265624,0.2549885511267417,0.0545530320364988,-0.6636296511725942
1684007024257174200,11.52657470703125,0.3351795077955409,0.04157543193317823,-0.6758426428459086
1684007024267215600,11.536615966796877,0.47434252507003366,-0.12378883357869191,-0.5971213578814406
1684007024277256900,11.5466572265625,0.5909358262574501,-0.2413349151507074,-0.4833217860014869
1684007024287298000,11.556698486328123,0.6981281043190541,-0.11643886553440932,-0.3627758026131541
1684007024297339300,11.56673974609375,0.7427393793567837,0.0396461486529527,-0.3364853857779216
1684007024307380400,11.57678076171875,0.7181521654856476,0.10629177094810578,-0.28510117528721773
1684007024317421700,11.586822265625,0.6678315997349014,0.1484985351843485,-0.20916247369807303
1684007024327463100,11.596863525390624,0.5076745152912423,0.12899589553183047,-0.12559151638003554
1684007024337504400,11.60690478515625,0.3365858793245345,0.12883758546903243,-0.011183500413956465
1684007024347545600,11.61694580078125,0.21059978013212743,0.17353916176353204,0.12094020839307772
1684007024357586900,11.6269873046875,0.1354153156119642,0.2787895203570617,0.2013545035632305
1684007024367628000,11.6370283203125,0.099294304874342,0.31860923775844513,0.26027536377049254
1684007024377669300,11.647069580078124,0.05221027141382177,0.24921894081735546,0.2691423892682067
1684007024387710600,11.657111083984375,0.007693052172485403,0.11269569397130356,0.16882061968290832
1684007024397751600,11.667152099609376,0.009801208900079733,-0.07782840734568854,0.13899207117385398
1684007024407793100,11.677193359375,0.045623540888137686,-0.06701183324337683,0.08290958409042992
1684007024417834400,11.68723486328125,0.10504889472069699,0.09009647370204772,0.01564192769495736
1684007024427875600,11.69727587890625,0.19747084377066343,0.10364055617624883,0.07290935497338792
1684007024437916800,11.707317138671876,0.23548877236141338,0.19959545129114625,0.05449652669677374
1684007024447957900,11.7173583984375,0.25444722193264524,0.2635478973172146,0.09136557565969204
1684007024457999300,11.727399658203124,0.25122886882999884,0.22060871138061577,0.14029908184977766
1684007024468040600,11.73744091796875,0.2157818675872794,0.19028472909595742,0.12394928950680542
1684007024478081600,11.747482177734376,0.18644845479325775,0.11602401743188138,0.15711307529057555
1684007024488123100,11.7575234375,0.11714464425087819,0.09757328033868991,0.3191938401805272
1684007024498164400,11.767564697265623,0.04059898864375312,0.1128273010766653,0.522724151691257
1684007024508205600,11.77760595703125,-0.03492128843261502,0.18944835646460828,0.7310776709388856
1684007024518246800,11.787647216796875,-0.031582653526343867,0.20861625687338434,0.9483666419602211
1684007024528288200,11.7976884765625,-0.05481493476246984,0.1782960892051096,1.1296842097244977
1684007024538329300,11.807729736328126,-0.09299421304872688,0.12031459814369602,1.3056011199526547
1684007024548370600,11.81777099609375,-0.13457328076633565,0.10334682456055284,1.3843369485047163
1684007024558411600,11.82781201171875,-0.17706173652082807,0.11727809904396319,1.4780259131245561
1684007024568453000,11.837853515625,-0.21183794744301704,0.07927513124053992,1.5530943869483491
1684007024578494400,11.847894775390625,-0.18759912243645294,0.07037067425550257,1.5506858825681185
1684007024588535500,11.857935791015626,-0.1015086770735127,0.05720996874659001,1.5190269947076662
1684007024598576800,11.867977294921875,-0.0016673208927701073,0.1126527786172539,1.4672420024220558
1684007024608618200,11.8780185546875,0.14561861754194622,0.20698833456175444,1.3643167018803986
1684007024618659200,11.8880595703125,0.34532016517246716,0.23117160809903808,1.1806640625302192
1684007024628700600,11.89810107421875,0.5790539979163716,0.24520969397122144,1.0451776980191785
1684007024638741900,11.908142333984374,0.8194359541172315,0.22321701061523738,0.9495985508611715
1684007024648783000,11.918183349609375,1.043918013638993,0.19855594620132663,0.8998455999865594
1684007024658824400,11.928224853515625,1.227740526132741,0.10988426207913635,0.8735892772679893
1684007024668865500,11.938265869140626,1.3347711562817668,0.04049777996018584,0.891299247677268
1684007024678906800,11.94830712890625,1.4139692783177613,-0.10420799263114859,0.9028165339029086
1684007024688948100,11.9583486328125,1.402650356278204,-0.42074966438149763,1.0386464596923
1684007024698989600,11.968389892578124,1.2989116906967517,-0.641965866090546,1.0262751579489429
1684007024709030600,11.978430908203125,1.127923011883404,-0.700838088971425,0.8109421731256552
1684007024719071900,11.988472412109376,0.8746978043504207,-0.6832904816730831,0.5411489010571061
1684007024729113000,11.998513427734377,0.5401281714009762,-0.6131830215536378,0.19633579255263678
1684007024739154400,12.0085546875,0.20337486261614365,-0.49995422364006303,-0.1298251150578395
1684007024749195600,12.01859619140625,-0.18702983860187702,-0.36955928814457834,-0.4819551706470037
1684007024759236800,12.02863720703125,-0.5930771827731359,-0.2288703919378411,-0.8075104952133283
1684007024769278100,12.038678466796876,-0.9207393527687684,0.032211303661177526,-0.9737542867204105
1684007024779319500,12.048719970703123,-1.1102349758228904,0.26040172577896653,-1.0601931811177687
1684007024789360600,12.058760986328124,-1.0853537320704483,0.503296852133375,-1.133502364090293
1684007024799401900,12.06880224609375,-0.8893913028995992,0.5693340302932539,-0.8899607658040344
1684007024809443000,12.078843505859377,-0.6217644812481524,0.5684051515182148,-0.6717729569114849
1684007024819484300,12.088884765625,-0.39414539935103043,0.49333858488246873,-0.3908675909718503
1684007024829525600,12.098926025390623,-0.21147993209296065,0.4538745879452576,-0.048598766285280204
1684007024839566800,12.10896728515625,-0.12809705729343002,0.4734821319768226,0.33282649500971123
1684007024849608100,12.119008544921876,-0.14913433796486805,0.42992973317016175,0.6178883313644192
1684007024859649500,12.1290498046875,-0.27380165473994317,0.404491424486892,0.721767067880075
1684007024869690600,12.139091064453124,-0.5116386414156466,0.33517360686880865,0.6564227343482674
1684007024879731900,12.14913232421875,-0.7905797958368644,0.294033050439988,0.43248164652654697
1684007024889773200,12.159173583984376,-1.0108530520547028,0.18799781809502483,0.20125603685439197
1684007024899814300,12.169214599609376,-1.1264461279160134,0.01948642738832757,0.01520919802662808
1684007024909855600,12.179256103515623,-1.1501522065331684,-0.18067169187560786,-0.1262235640040251
1684007024919897000,12.18929736328125,-1.0846034288694877,-0.3937120436506261,-0.2852313517691928
1684007024929938100,12.19933837890625,-0.988461017614999,-0.61762523635606,-0.42081701770159197
1684007024939979400,12.2093798828125,-0.8854135869353446,-0.7620935440003502,-0.5472588540175296
1684007024950020800,12.219421142578126,-0.7545766831763846,-0.9303607940625181,-0.6930840015950673
1684007024960061900,12.229462158203123,-0.5395268202035801,-0.9984560012195499,-0.8057838677321686
1684007024970103200,12.239503662109374,-0.14366012824976884,-1.0715866088890502,-0.8679370879637728
1684007024980144300,12.249544677734375,0.2689819038258233,-1.144575118975343,-0.81419384481756
1684007024990185600,12.2595859375,0.8284481764405448,-1.1140279769740433,-0.7246897220358812
1684007025000227000,12.26962744140625,1.4852799177638014,-1.0604124068844207,-0.6958622930716061
1684007025010268100,12.27966845703125,2.004996538217412,-0.9638338089422165,-0.6026856897859476
1684007025020309400,12.289709716796876,2.251274347262954,-0.9412164688460231,-0.44655752183257497
1684007025030350800,12.299751220703126,2.230930328523937,-0.792096138024359,-0.3801743984132611
1684007025040391900,12.309792236328123,1.9650574922928874,-0.5839471816257286,-0.2830173968540413
1684007025050433200,12.31983349609375,1.6418020725816171,-0.33834743503450393,-0.21223998068602615
1684007025060474300,12.329874755859375,1.4648036956030193,-0.011738777214005586,-0.2108850479231661
1684007025070515600,12.339916015625,1.3361520767217083,0.1812496184745509,-0.09813952438773467
1684007025080557000,12.349957275390626,1.1970821617979484,0.269666671758743,-0.005296230422941484
1684007025090598300,12.359998779296877,1.1867673396632517,0.30387496949333004,0.0077669620617004335
1684007025100639400,12.370039794921874,1.2217764855035567,0.3316717146496141,0.04114532473146949
1684007025110680800,12.3800810546875,1.3029681443494532,0.30504322051682803,-0.013292074085538407
1684007025120721800,12.390122314453125,1.4527618884953781,0.259628295759038,-0.11294937132765764
1684007025130763200,12.40016357421875,1.6212445497066135,0.25026893618779056,-0.25085210791312695
1684007025140804600,12.410204833984375,1.8199844362146411,0.3056793212603942,-0.42911219587478133
1684007025150845600,12.42024609375,1.9735912083631206,0.3473119734855194,-0.5588147639070349
1684007025160887000,12.430287353515626,2.0090067387920776,0.3253173828408094,-0.6594903468152883
1684007025170928300,12.44032861328125,1.98405480384839,0.24457836152064624,-0.6780421733135483
1684007025180969400,12.450369873046874,1.9306190013312747,0.119519233872752,-0.7617113589821655
1684007025191010700,12.4604111328125,1.9071099757668402,0.01742744457982276,-0.9555488824180185
1684007025201052100,12.470452392578125,1.8058185576480719,-0.04490184790460982,-1.1752065419300717
1684007025211093200,12.48049365234375,1.6631278992362115,-0.13243865981644196,-1.304307699077382
1684007025221134600,12.490534912109377,1.4300868512085136,-0.12592983244716838,-1.3546056746461281
1684007025231175900,12.500576171875,1.0883512496422378,-0.14831352231239914,-1.3197278975339017
1684007025241216900,12.510617431640624,0.6068600414752888,-0.15779972078660812,-1.1696904896334137
1684007025251258300,12.52065869140625,0.21600830560474468,-0.20699405666380064,-1.1643598079969177
