time,seconds_elapsed,z,y,x
1684180418349329300,0.031729736328125,-1.449936716895147e-10,1.7015959699839517e-10,6.861889121407158e-11
1684180418359370900,0.041771240234375,0.08390331266551906,-0.15968275065428852,-0.20329713813246122
1684180418369412300,0.051812744140625,0.1595745086865888,-0.20302915561916904,-0.09386396396384737
1684180418379453900,0.061854248046875,0.0366196633472477,-0.646432876713494,0.003916263589507637
1684180418389495200,0.0718955078125,-0.18640995015569026,-1.2076840401355664,0.03326368345341521
1684180418399536800,0.081937255859375,-0.1637372970642413,-0.9174618721628425,-0.7268190383427817
1684180418409578200,0.091978515625,0.05492925630603765,-0.11473870271257992,-1.3361306191983255
1684180418419619800,0.102020263671875,0.3863344193474912,0.12422347069249665,-1.6908488273738458
1684180418429661100,0.1120615234375,-0.04399013517222381,-0.7967526913396258,-0.5015048978828149
1684180418439702600,0.12210302734375,0.21746301646272168,-0.03290891640295075,-0.9547481537680343
1684180418449744000,0.13214453125,0.21430206298417812,-0.5576214789035309,-0.6715021134285504
1684180418459785600,0.14218603515625,0.6581530570406844,-0.19191551201739118,-1.1799712180899762
1684180418469827000,0.152227294921875,0.5006623267895964,0.061395645172426336,-0.43933343892554216
1684180418479868600,0.16226904296875,0.33723449712932296,0.41069030766619824,-0.3750033378685572
1684180418489909900,0.172310302734375,-0.09661245344306547,0.48800086975356,-0.15116357804459948
1684180418499951600,0.18235205078125,-0.44855499263542714,0.7590932846018152,-0.30846023553199303
1684180418509992900,0.192393310546875,-0.4942607877911142,1.065412759748533,0.11358976363690892
1684180418520034600,0.202434814453125,-0.37357521053376724,0.22516512878708062,0.3231239318791971
1684180418530076100,0.2124765625,0.06725788118050476,0.1987659931721393,0.30858945844777663
1684180418540117400,0.222517822265625,0.2113075257273422,0.27799844735737944,-0.43977928169875724
1684180418550159000,0.232559326171875,0.05042839051357419,0.08255863179897045,-0.6909766196513705
1684180418560200400,0.242600830078125,0.17733335491768876,0.09387993815210714,-1.0162534714721128
1684180418570242000,0.252642333984375,0.15472888958164696,-0.09034204484462482,-1.200752258146451
1684180418580283300,0.26268359375,-0.054733753156721285,0.23910784714930416,-1.2770333289648377
1684180418590324900,0.272725341796875,-0.28717088714478206,0.6279809473994431,-0.8069925307010003
1684180418600366300,0.2827666015625,-0.5506482123591755,0.24675631507239126,0.0024638176017240266
1684180418610407900,0.292808349609375,-0.4188399314309887,0.12853240967294527,-0.4381189346327834
1684180418620449200,0.302849609375,0.13301753979718828,-0.28082370746418817,-0.7904839515946739
1684180418630490800,0.31289111328125,0.984940051902939,-0.5644505023744057,-1.5703635216878544
1684180418640532100,0.3229326171875,1.7463860511177314,-0.6559617519528574,-1.769022941609637
1684180418650573700,0.33297412109375,1.7640953063525013,-0.843244075706027,-2.0155258177812403
1684180418660615300,0.343015625,1.4508249759159768,-0.8280451297876354,-2.1253666877515762
1684180418670656600,0.35305712890625,1.6157171724979396,-0.9845530985891451,-1.3770585061786755
1684180418680698300,0.3630986328125,1.7202486991640127,-0.3220424653102175,-1.3390002250843935
1684180418690739600,0.37314013671875,1.6845114232836589,0.5006668567859903,-0.9958996772637465
1684180418700781200,0.383181640625,1.6217517853550083,1.0550370215881342,-0.22717237475661448
1684180418710822600,0.393222900390625,0.9612696171139714,1.358131408795741,0.44066619870276075
1684180418720864200,0.4032646484375,-0.00800633432276402,0.4284679890679881,1.058869361983721
1684180418730905800,0.41330615234375,0.23175573352184575,-0.16372394563926748,1.9438428878716523
1684180418740947100,0.423347412109375,0.6658799650078606,0.0671160219732457,1.6840085984884154
1684180418750988600,0.43338916015625,0.055011749264619894,0.19946527493681743,1.512614250215729
1684180418761030100,0.443430419921875,-0.22700321679013952,0.3692259788116617,0.9394454956087853
1684180418771071400,0.453471923828125,-0.2429590822588485,0.33015680320064106,0.6490383147850501
1684180418781113000,0.463513427734375,-0.337441831838701,0.054087162022612434,0.1716775893381323
1684180418791154600,0.473554931640625,-0.6136590837413721,-0.2324829102121854,-0.13130855554758333
1684180418801196000,0.483596435546875,-0.7247079611424441,-0.8113641739176495,0.45090675349107134
1684180418811237600,0.493637939453125,-0.24879200747798588,-0.6948146820011258,0.5372762679540255
1684180418821278900,0.50367919921875,-0.07431489977688735,-0.6366333961462203,0.3434543608117161
1684180418831320600,0.513720947265625,-0.1368346810405327,-0.7124633788631813,-0.3010416030392465
1684180418841361800,0.52376220703125,0.30140328409207323,-0.4448938368436342,-1.653195381131937
1684180418851403400,0.533803955078125,0.5549576282172552,-0.39684963223614944,-3.1431517600957126
1684180418861445000,0.543845458984375,0.412289589504164,-0.30993795397586155,-4.814164161614726
1684180418871486400,0.55388671875,-0.4770296215258941,-0.7344999313244183,-3.1828832626519667
1684180418881528000,0.563928466796875,-0.2196813524497134,-0.48134183885711074,-1.2661256790563886
1684180418891569300,0.5739697265625,0.3085476756069159,-0.4566102028666053,-0.06987285604060878
1684180418901610900,0.58401123046875,0.46506205202086276,-1.5610136986610552,1.7847208977494293
1684180418911652300,0.594052734375,0.556884527202586,-1.3776602745043884,2.3401255607516878
1684180418921693900,0.60409423828125,0.9658966064774449,-0.8038072586537577,1.868117809273199
1684180418931735200,0.614135498046875,1.410090684970415,-0.9483933449236395,1.7120761870947498
1684180418941776800,0.62417724609375,1.387693524232696,-1.1531572341102476,1.9634118079779603
1684180418951818400,0.63421875,1.0463163852274358,-1.2090635299388475,1.9590439796962524
1684180418961859800,0.64426025390625,0.6510382890480522,-1.4625864029502256,2.328275680558929
1684180418971901400,0.6543017578125,-0.01870739465345896,-1.190288543677365,2.4607315063679867
1684180418981942600,0.664343017578125,-0.8172852396093407,-1.137640476228789,2.001885414151423
1684180418991984300,0.674384765625,-0.9314162731687646,-0.8336400984848685,1.2048473356704494
1684180419002025600,0.684426025390625,-0.5989104508067686,-0.12867450727840632,0.7903137207290172
1684180419012067200,0.694467529296875,-0.5895602107186669,-0.6558303832650899,0.11593103398702514
1684180419022108800,0.70450927734375,-0.20844331385655554,-1.5692820548955202,-0.5325279235838141
1684180419032150200,0.714550537109375,0.7580217122738903,-2.222300052700662,-0.3114500045888352
1684180419042191800,0.72459228515625,1.5952500103779157,-2.391004085488282,0.0885453225690451
1684180419052233100,0.734633544921875,2.455507755447464,-2.6330842972279043,1.1707515717057444
1684180419062274700,0.744675048828125,2.045397520062426,-0.2705430985266146,0.2242350578377584
1684180419072316100,0.754716552734375,0.6943652628677958,0.5191373824770922,-0.13266944878946346
1684180419082357600,0.764758056640625,-0.6093502640337739,-0.4095635414216486,0.0702757835420008
1684180419092399000,0.77479931640625,-0.6604508162504205,-0.6329188346379059,0.24189090739842375
1684180419102440600,0.784841064453125,-0.5216850637485957,-0.3685579299834007,0.15110015880670857
1684180419112482200,0.794882568359375,-0.3171360491875442,-0.16855859756414146,0.1697998048478989
1684180419122523600,0.804924072265625,0.041930705229317126,-0.32123994841662706,0.18124771111858
1684180419132565200,0.814965576171875,1.5648000239351143,-0.367639064658373,0.644475460111114
1684180419142606600,0.8250068359375,2.15893101691392,-0.19697570805922707,0.23427295690141414
1684180419152648100,0.835048583984375,1.7539106607360044,-1.053267955735911,-0.39530944838830956
1684180419162689500,0.84508984375,0.9997344614261776,-0.1928472519262955,-0.1466803551762207
1684180419172731100,0.85513134765625,-0.05111201103181959,0.545824527777232,-0.4006729126428895
1684180419182772400,0.8651728515625,-0.6143380402924776,-0.08039236058083898,0.27962732323577816
1684180419192814000,0.87521435546875,-0.5778062939316237,0.4624209403178113,0.5710735321556053
1684180419202855600,0.885256103515625,-0.4705540240442693,0.6687378883457594,0.48912763597681813
1684180419212896900,0.89529736328125,-0.5271939634457988,-0.01183700574091276,0.10562896716805163
1684180419222938600,0.9053388671875,-0.2467557786862358,-0.0045824051857534355,-0.06967353817916055
1684180419232979900,0.91538037109375,-0.18027405435588212,-0.08687639229382217,-0.04189443587607028
1684180419243021600,0.925421875,-0.2742910683501687,0.011177062868020527,-0.03416156773744075
1684180419253062800,0.935463134765625,-0.2582278848848573,-0.1299161910539922,0.2562918663107944
1684180419263104400,0.9455048828125,-0.1209698019988355,0.04998779303458308,0.3564634323313526
1684180419273146000,0.95554638671875,-0.3146439792245632,0.12150955196472141,0.24235773091722176
1684180419283187400,0.965587890625,-0.5466996432027658,0.21322727198495725,-0.009108543400846953
1684180419293229000,0.97562939453125,-0.5645353197977095,0.7022814750797444,-0.40567493434700513
1684180419303270300,0.985670654296875,-0.7381353377672947,0.5721716880912548,-0.6930279730823452
1684180419313311900,0.99571240234375,-1.2266288996829717,-0.18879270545152801,-0.352752208712258
1684180419323353300,1.005753662109375,-0.9566937685787837,-0.09075117111636447,0.005818843895219321
1684180419333394900,1.015795166015625,-0.19791692483186926,-0.0647153853626596,0.06745767601430268
1684180419343436200,1.025836669921875,-0.07198172816445106,-0.35532569878692993,-0.15242385880767306
1684180419353477800,1.035878173828125,0.12043973796890468,0.25720453258600684,-0.3897857665502399
1684180419363519400,1.045919921875,0.2315082252639371,0.013800621047979378,-0.16396188733044328
1684180419373560800,1.055961181640625,-0.16425922528726913,-0.28566503539887816,0.19346761706094615
1684180419383602400,1.066002685546875,-0.6252765060844719,-0.4134154320346151,0.08603858937070005
1684180419393643600,1.076044189453125,-0.9099525214041252,-0.1789689064502627,0.18714857103126173
1684180419403685300,1.086085693359375,-1.2865415811402872,0.6181545257150526,0.3550791740554988
1684180419413726900,1.096127197265625,-1.7510893345160992,1.3444676399166056,0.3808832169673132
1684180419423768200,1.106168701171875,-1.8835420607728504,1.9033360482081645,-0.08260297790477147
1684180419433809800,1.116210205078125,-1.7405428884840939,1.7086777687597177,-0.47475528720673943
1684180419443851200,1.12625146484375,-1.5583543777467945,1.681617260096176,-0.7280211448156289
1684180419453892800,1.136293212890625,-1.1624512672952834,1.744197368515161,-0.9950919152360149
1684180419463934100,1.14633447265625,-0.7816060780972568,1.285120964013544,-0.7630677223371073
1684180419473975600,1.156376220703125,-0.4699289798053647,0.7007102966930135,-0.33366298682921713
1684180419484017300,1.166417724609375,0.622632741854902,-1.3126387595940725,0.24568223953590898
1684180419494058600,1.176458984375,0.5684389473333142,-1.7927937507934122,1.2222981452075403
1684180419504100300,1.186500732421875,0.398678541220764,-3.024808883625774,3.1668014525262214
1684180419514141600,1.1965419921875,-0.009050607678342192,-6.109126567864846,6.246391296348309
1684180419524183200,1.20658349609375,1.8684170244828122,0.16571903233206767,2.647158145931577
1684180419534224600,1.216625,2.338986873614723,2.3103170395721984,1.685968875927377
1684180419544266200,1.22666650390625,1.636719346136222,1.5779528617666232,0.8856210709163628
1684180419554307800,1.236708251953125,1.4268046617948371,0.9759869574100282,-0.6580390931366985
1684180419564349100,1.24674951171875,2.9136240483981175,1.6483230590683575,-2.704554796210413
1684180419574390600,1.256791015625,3.1534643173934005,4.480172157235875,-2.564854860426102
1684180419584432000,1.26683251953125,1.2299010754496367,1.6653432846359775,-2.1102180480751755
1684180419594473600,1.2768740234375,-0.21128535284245456,-0.589597702030388,-1.242888927478943
1684180419604515200,1.28691552734375,-0.7419199942551962,-0.8456873893611576,-0.3483014105203517
1684180419614556600,1.29695703125,-0.46381270887058507,-0.08200502398086891,0.41943502432234864
1684180419624598200,1.30699853515625,-0.745432376849927,-0.04145431511445916,1.0220761298687344
1684180419634639600,1.3170400390625,-1.1395758389795405,-0.35276174546242045,1.4738831519837154
1684180419644681100,1.32708154296875,-0.6465358734248864,-0.3007717132572847,1.7484488486969907
1684180419654722600,1.337122802734375,0.19136595720681965,-0.23100948334652457,1.734500885049168
1684180419664764100,1.34716455078125,0.7812086343787522,-0.43406772619704215,1.723983764664083
1684180419674805400,1.357205810546875,1.0878318549005097,-0.9089555741947237,1.3346166611010102
1684180419684847000,1.367247314453125,1.2771245240741345,-1.7376756668344424,1.4714622498428882
1684180419694888600,1.3772890625,1.3573719263856892,-2.077037811439855,2.0111641884443148
1684180419704930000,1.387330322265625,1.222864151102343,-1.7955741882950218,2.2087745666301295
1684180419714971600,1.3973720703125,0.8278390170506474,-1.3544797897887593,2.1687545777158936
1684180419725013200,1.40741357421875,0.39484572406675145,-1.089468002264142,1.7561593055363047
1684180419735054600,1.417454833984375,-0.06784951694015784,-0.6747064591287009,1.0523362159277703
1684180419745096100,1.42749658203125,-0.7929531334443073,-0.608148574824701,0.18861389165235953
1684180419755137500,1.437537841796875,-1.0591025351734933,-0.9962253571110783,0.04016876217429201
1684180419765179100,1.447579345703125,-0.6673622129819029,-0.9904003143644609,0.2841672897163913
1684180419775220400,1.457620849609375,-0.7916871308593871,-0.7235851287327032,0.2763552666710327
1684180419785262000,1.467662353515625,-0.9718387723756707,-0.2684564588909781,-0.3597345353918925
1684180419795303600,1.4777041015625,-1.01560974115473,-0.09157848362363878,-1.1088709831526649
1684180419805344900,1.487745361328125,-1.3364566564489135,0.07067680361867451,-1.6503496168973786
1684180419815386600,1.497786865234375,-2.5447628497574457,0.3508911131956925,-2.059506654664219
1684180419825427900,1.507828369140625,-3.6057560443952785,-0.5974378587243515,-1.140391349661715
1684180419835469600,1.517869873046875,-3.6290702821485623,-0.6448001860262009,-0.548034191274543
1684180419845511100,1.527911376953125,-2.7549550532009706,-0.4329261778851398,-0.21388626085320017
1684180419855552400,1.537952880859375,-1.3648698328979392,-0.3588037490321226,-0.2473983765338769
1684180419865594000,1.547994384765625,0.20872709156957373,0.24226284015221194,-0.5936498641973932
1684180419875635400,1.558035888671875,0.7704228759766086,1.0953493118446016,-0.5483703612949257
1684180419885677000,1.568077392578125,0.24714696414023596,1.1860618592554972,-0.011867523105192276
1684180419895718300,1.57811865234375,-0.22080868486122837,1.1391997337881408,-0.28449964521525245
1684180419905759900,1.588160400390625,-0.3867096902112485,2.3700709342068764,-1.4813008308445539
1684180419915801600,1.598201904296875,-0.9292857647195606,2.021385192768537,-2.001769542545353
1684180419925842900,1.6082431640625,-1.1693098544900007,2.6664156914202066,-1.182122230476432
1684180419935884500,1.618284912109375,-1.2948206663071995,2.2222347260818562,-0.7268662453646855
1684180419945925800,1.628326171875,-1.5065613984463164,1.2989573477979102,-0.9538831712167151
1684180419955967400,1.638367919921875,-1.146317362635166,0.6907310487067655,-0.4337306022272843
1684180419966008800,1.6484091796875,-0.8759737611684171,-0.425722122260011,-0.2702522277117752
1684180419976050400,1.65845068359375,-0.7612582444602418,-1.9006738661970606,0.36505889898730765
1684180419986092000,1.668492431640625,-0.3736364245886965,-3.095252990693313,1.0978474617232195
1684180419996133300,1.67853369140625,0.03110778328110859,-2.828708648627906,1.5062513349928024
1684180420006174900,1.6885751953125,0.5031962990405272,-0.8076581954311824,1.606508731685582
1684180420016216600,1.698616943359375,-0.13579344745604555,0.00967693321876517,1.5248680114180337
1684180420026257800,1.708658203125,-1.1415305137919938,-0.18403816210919058,1.3087706566283726
1684180420036299400,1.718699951171875,-1.570946097525719,-0.21743106847619623,0.9353094099984814
1684180420046340800,1.7287412109375,-1.6460992096868488,-0.3996238709792141,0.3286662102444286
1684180420056382400,1.73878271484375,-1.3081074951633505,-0.28006649010518225,-0.33954334255735086
1684180420066423600,1.74882421875,-0.6557557582006852,-0.5236949920065107,-0.8273446560650463
1684180420076465300,1.75886572265625,0.06723451601131905,-0.9481973647955902,-1.3786146639940435
1684180420086506900,1.7689072265625,0.513847112806779,-1.3196144103469143,-1.6481044291891425
1684180420096548300,1.77894873046875,0.38359427457554646,-1.905020713866571,-1.4106051920798695
1684180420106589900,1.788990234375,0.3523225783197627,-2.1527948379602724,-0.8546984195489122
1684180420116631200,1.799031494140625,0.38468360912647975,-2.016314506535314,-0.33921980856792094
1684180420126672800,1.8090732421875,0.6281671524018092,-1.4138975143323107,0.3269398212424006
1684180420136714400,1.81911474609375,0.9566080570705547,-0.9692344665244963,0.5923399924615096
1684180420146755800,1.82915625,1.1857770681611317,-0.753870964077539,0.5540351867114747
1684180420156797400,1.83919775390625,1.155140042131753,-0.7029485704221023,0.24284148223125182
1684180420166838600,1.849239013671875,1.0375156402893497,-0.8144187925896396,-0.1817593573439358
1684180420176880300,1.85928076171875,0.9107112884538655,-0.9315013884505758,-0.5688598156725633
1684180420186921900,1.869322265625,0.9763674737037473,-1.1122732163106142,-0.8837714195104002
1684180420196963200,1.87936376953125,1.3038295508363176,-1.1392536164842897,-0.9037933349131492
1684180420207004800,1.8894052734375,1.6735512016387093,-0.7932004927605326,-0.5755512714903189
1684180420217046200,1.899446533203125,2.04456639282917,-0.40694046026398106,-0.49561142913606104
1684180420227087800,1.90948828125,2.1967391966759116,0.033410072214869316,-0.23818922024113307
1684180420237129400,1.91952978515625,1.906156539856493,-0.05856227881642452,-0.46141672118565896
1684180420247170700,1.929571044921875,1.7939413787476701,0.19268798835863254,-0.9112689494495234
1684180420257212300,1.93961279296875,1.7449861763863481,0.576201438915892,-1.1378681659664467
1684180420267253600,1.949654052734375,1.5765491725084104,0.781099319599391,-0.9856863023119093
1684180420277295300,1.95969580078125,1.3605756760128254,0.7528367042851813,-0.7679319381547183
1684180420287336900,1.9697373046875,1.1557281018325234,0.7576580049125459,-0.82727193822892
1684180420297378200,1.979778564453125,1.0241584777637454,0.686485767397321,-0.8078870773014718
1684180420307419800,1.9898203125,0.8983807564540213,0.3703727721622159,-0.3943462373308933
1684180420317461200,1.999861572265625,0.6783292292656476,0.16368293746052312,-0.26364064210003496
1684180420327502800,2.009903076171875,0.7322027682027381,-0.5237464904555106,-0.8118484019908246
1684180420337544400,2.01994482421875,0.4842584133710724,-0.8067226409328172,-0.7590339183811049
1684180420347585600,2.029986083984375,0.16869711872451829,-0.7816171644211988,-0.5260829925698552
1684180420357627300,2.04002783203125,-0.28305220616261034,-0.8108367918223698,-0.4616599082297997
1684180420367668600,2.050069091796875,-0.4952116011199221,-0.7127542495266067,-0.5994892119977683
1684180420377710300,2.060110595703125,-0.5071408749859165,-0.45192241669016453,-0.5771603584391384
1684180420387751900,2.07015234375,-0.45870780948299106,-0.3123626709127829,-0.2372355462619444
1684180420397793200,2.080193603515625,-0.4807574748440142,-0.22795200338120697,0.05317783350950212
1684180420407834800,2.090235107421875,-0.5242669581959787,-0.16630363457045544,0.14297676078547808
1684180420417876100,2.100276611328125,-0.4166700840835154,-0.08687210097465874,0.010428428620907716
1684180420427917700,2.110318115234375,-0.34153175352730897,-0.1738595961255449,-0.17799472817073397
1684180420437959300,2.12035986328125,-0.21037864689867566,-0.22345256794881876,-0.015704631924758912
1684180420448000600,2.130401123046875,-0.06439447398821917,-0.04779148115623735,-0.08523607248290735
1684180420458042300,2.140442626953125,-0.13646483430281112,-0.06530857073561028,-0.6413505077924931
1684180420468083600,2.150484130859375,-0.11323809642586312,-0.03532409670153773,-1.138278007660352
1684180420478125200,2.160525634765625,0.00937342660533111,-0.12918090810089475,-1.271727800498691
1684180420488166800,2.170567138671875,0.18920660017211785,-0.09554672248923195,-1.1390364171527927
1684180420498208200,2.180608642578125,0.3397703170440083,0.03022575382645094,-1.0589630603811346
1684180420508249800,2.190650146484375,0.22032976137338486,-0.12505626668971476,-0.652798175826784
1684180420518291100,2.20069140625,0.30586409565786843,0.11730289460329417,-0.5955860614927729
1684180420528332600,2.210733154296875,0.28555107126550855,0.2666950226431799,-0.9115588663883522
1684180420538374300,2.220774658203125,-0.008477687751935149,0.5007243155777247,-1.2453303337172552
1684180420548415600,2.230816162109375,-0.3702723978399154,0.24831867224442422,-1.08451843261591
1684180420558457300,2.240857666015625,-0.26484251015632826,0.753545760926976,-1.0208249092432604
1684180420568498600,2.25089892578125,-0.13864564886341632,0.5533833504493567,-1.2467081546869365
1684180420578540200,2.260940673828125,-0.10143804550811025,1.1493978500478854,-1.2329335214002042
1684180420588581800,2.270982177734375,-0.3218748570493199,1.919191837429422,-1.1676864624066987
1684180420598623200,2.2810234375,-0.5443162917361787,1.7644190788784608,-1.2758736610439396
1684180420608664800,2.291065185546875,-0.6822843550943977,1.1803312302621731,-1.289212226822316
1684180420618706100,2.3011064453125,-0.911334276295077,0.138789176923512,-1.2199428080116994
1684180420628747600,2.311148193359375,-0.9559822081531038,-0.6758880614191255,-1.21218419068369
1684180420638789300,2.321189697265625,-0.8782775402095471,-1.4472227095962868,-1.139364242448973
1684180420648830600,2.33123095703125,-0.7586812972911358,-2.073700905024347,-1.2170455454562028
1684180420658872200,2.341272705078125,-0.4778864384086843,-2.388941764739648,-1.3081426620884182
1684180420668913800,2.351314208984375,0.003284215851325189,-2.2432441710558337,-1.3017053604449333
1684180420678955200,2.36135546875,0.49419498442426535,-1.7797927856826532,-1.2336325645504602
1684180420688996800,2.371397216796875,0.9517462253249839,-1.0113611221586511,-1.1405572891544717
1684180420699038100,2.3814384765625,1.134160995579278,-0.4491577148162998,-1.0556709766031374
1684180420709079700,2.391480224609375,0.9579422474502638,-0.2964429855818701,-1.0374186037784083
1684180420719121300,2.401521728515625,0.5715999603778877,-0.21921539315163097,-0.8083004951129864
1684180420729162600,2.41156298828125,0.21455860122596598,-0.09303379062371726,-0.5840263367136925
1684180420739204300,2.421604736328125,-0.04398846622220011,-0.008456230166191502,-0.39102268226703685
1684180420749245900,2.431646240234375,-0.1586401462968939,-0.0429191588691877,-0.1509130001067991
1684180420759287200,2.4416875,-0.011442184603729389,-0.014272689795592174,-0.07570648191731495
1684180420769328800,2.451729248046875,0.19090437883046574,0.12879371642825685,0.0029020308066171423
1684180420779370200,2.4617705078125,0.4750502108906812,0.506503105130869,0.1584420204129368
1684180420789411800,2.471812255859375,0.570692062319042,0.5270214080344228,0.18619966520086118
1684180420799453400,2.481853759765625,0.649372577740197,0.4874591827892936,0.014493465455556088
1684180420809494600,2.49189501953125,0.7138457298335398,0.2998294830849547,-0.1932005882939988
1684180420819536300,2.501936767578125,0.7790756225691682,0.10144042973970427,-0.4265358447398673
1684180420829577600,2.51197802734375,0.8332407474662575,-0.2862129211427514,-0.7055673599185645
1684180420839619200,2.52201953125,0.8853032589857328,-0.6456756592534223,-0.822574377092098
1684180420849660800,2.532061279296875,0.8638169765415997,-0.4155540466453234,-0.92749357209173
1684180420859702200,2.5421025390625,0.6341154576945693,-0.23125457773201752,-0.7970817088911606
1684180420869743800,2.552144287109375,0.2334094047814206,-0.2797307968992237,-0.719007253716109
1684180420879785100,2.562185546875,-0.3335080146676952,-0.6056118010593329,-0.7828762531267115
1684180420889826700,2.57222705078125,-1.0913386344605538,-1.2534198760914457,-0.8576657772447612
1684180420899868300,2.582268798828125,-1.9175703524452652,-2.0437498092798125,-0.9184610842407662
1684180420909909600,2.59231005859375,-2.8498015403893473,-2.924202918931496,-1.0182008742347142
1684180420919951300,2.6023515625,-4.377873420580056,-3.773755073461551,-1.1342313290966872
1684180420929992600,2.61239306640625,-7.60636997215997,-4.912104606673797,-1.3480581044983586
1684180420940034200,2.6224345703125,-8.866186142056279,-5.005228042631165,-1.8626906871731648
1684180420950075800,2.632476318359375,-4.542278766807435,-1.7402067185486878,-1.9070825576883015
1684180420960117200,2.642517578125,-1.0975172519668754,0.47246456158376604,-1.3977004290224464
1684180420970158800,2.65255908203125,1.1727645398084494,1.8645834921565556,-0.8400539158775773
1684180420980200400,2.662600830078125,2.518630504660477,2.876325607238655,-0.4690966606701071
1684180420990241600,2.67264208984375,3.0173397066000747,3.455124855044082,-0.5348222254717862
1684180421000283300,2.68268359375,2.91933155063366,3.1315288544903903,-0.2681143284136657
1684180421010324600,2.69272509765625,2.7077159880161115,2.420398712124666,0.2515838146113447
1684180421020366300,2.7027666015625,2.7360005377979295,1.710095405760502,0.5304255485129278
1684180421030407900,2.712808349609375,2.7284379005399746,0.9633016585424244,0.505188703641591
1684180421040449200,2.722849609375,2.7887403964514075,0.3535385132899078,0.592049121861652
1684180421050490800,2.73289111328125,2.834067821646634,-0.11302280413499538,0.865184068676484
1684180421060532100,2.7429326171875,2.8129155635034095,-0.364904403663951,1.1246685981068694
1684180421070573700,2.75297412109375,2.599118232788841,-0.3781967161986716,1.4145870209272378
1684180421080615300,2.763015625,2.1770691873414836,-0.3889064788404325,1.6102406978591086
1684180421090656600,2.77305712890625,1.7708446979220587,-0.35688495629272876,1.782793998741892
1684180421100698300,2.7830986328125,1.537658929846945,-0.18259239187843834,1.940565586097813
1684180421110739900,2.793140380859375,1.3732045889288447,-0.020341873305208206,1.8257927894250192
1684180421120781200,2.803181640625,1.2457365989975817,0.08632183074173387,1.623131275256722
1684180421130822800,2.81322314453125,1.0981209278462192,0.176600456204411,1.4588530064670704
1684180421140864200,2.8232646484375,0.8355862498367019,0.20853996279404605,1.4038667678665642
1684180421150905800,2.83330615234375,0.5829089284377633,0.3300275802448622,1.453443288777887
1684180421160947400,2.84334765625,0.37954699999645336,0.5462512968414028,1.5675690173930297
1684180421170988600,2.85338916015625,0.22077953807864098,0.6021909714239005,1.501371860481623
1684180421181030300,2.8634306640625,0.10790437451327851,0.6303911210184368,1.471299886777725
1684180421191071900,2.873472412109375,-0.036973655259968284,0.39919090274140123,1.2902522086214583
1684180421201113300,2.883513671875,-0.3598695397869396,0.11122989639377091,1.0368909835682418
1684180421211154900,2.89355517578125,-0.7012751103014306,-0.11759471897189035,0.9104590416201687
1684180421221196200,2.9035966796875,-0.8167250156495569,-0.20804309842573723,0.699623346238878
1684180421231237800,2.91363818359375,-0.6702005863401057,-0.25317382809465694,0.45611309994628224
1684180421241279400,2.9236796875,-0.33258527528459714,-0.25759601588735753,0.13601493839838016
1684180421251320800,2.93372119140625,0.04587352288148157,-0.26404857647170654,-0.15362048146701635
1684180421261362400,2.9437626953125,0.3440841435939336,-0.32902050026311924,-0.4352853298479073
1684180421271404000,2.953804443359375,0.6365268825688307,-0.4540205002478196,-0.6026655434255461
1684180421281445300,2.963845703125,0.818407058763912,-0.5019760130262931,-1.088024377851027
1684180421291486900,2.97388720703125,0.8774343729383863,-0.7657899857139993,-1.2908937931293187
1684180421301528200,2.9839287109375,1.1408352850438033,-1.0447454453798253,-0.9277911186566055
1684180421311569800,2.99397021484375,1.3492215872634492,-1.1242828367784552,-0.9705801009490879
1684180421321611400,3.00401171875,1.4111932516070376,-0.944802284242128,-1.2130609750443466
1684180421331652800,3.01405322265625,1.411421418148508,-0.6551494598559495,-1.253803014625263
1684180421341694400,3.0240947265625,1.3576667308374217,-0.3660869599468021,-1.219925641920474
1684180421351736000,3.034136474609375,1.283074617481189,-0.15913105000433891,-1.0464490652110605
1684180421361777300,3.044177734375,1.224096536677834,0.06964111323317121,-0.9302027224434952
1684180421371818900,3.05421923828125,1.249221086549947,0.1251382827717274,-0.6033387185570143
1684180421381860300,3.0642607421875,1.2487782241544338,0.1600399018448904,-0.2286067009189129
1684180421391901900,3.07430224609375,1.1886811254793348,0.14528465265400123,0.0606024265090305
1684180421401943600,3.08434375,1.063659310366847,0.13343429564291148,0.2760286330769294
1684180421411984800,3.09438525390625,0.8951920867781036,0.1436567306753147,0.4063405991450443
1684180421422026400,3.1044267578125,0.6981905697632164,0.2759475707226213,0.4609405992836867
1684180421432068000,3.114468505859375,0.43871885544127864,0.27873897555783345,0.3380069732789226
1684180421442109400,3.124509765625,0.21374189852459838,0.19278144832982044,0.023613691305380123
1684180421452151000,3.13455126953125,0.11297148463383073,0.06165027624177004,-0.24591207518834815
1684180421462192300,3.1445927734375,0.21743386997239642,-0.09762287141643099,-0.29070067392999627
1684180421472233900,3.15463427734375,0.4908141791345107,-0.3183002473336416,-0.19003272065621357
1684180421482275600,3.164676025390625,0.8491598367307669,-0.4140348434476916,-0.009121418033309259
1684180421492316800,3.17471728515625,1.1426208019405297,-0.42815589918296687,0.17486262310189854
1684180421502358400,3.1847587890625,1.3571679592178139,-0.2821063995384261,0.31596136094179333
1684180421512399800,3.19480029296875,1.431553721384595,-0.13882160190229517,0.4463410378132622
1684180421522441400,3.204841796875,1.3564577100898685,-0.051230430623392546,0.556708097331332
1684180421532483000,3.21488330078125,1.1900372505967658,0.08096504210097559,0.5513477324264081
1684180421542524300,3.2249248046875,0.9684410095517584,0.16707515711462073,0.5557746887159823
1684180421552565900,3.23496630859375,0.6969757080001375,0.20720195763254123,0.556058406784107
1684180421562607600,3.245008056640625,0.3889762461423088,0.23491382593234722,0.6432003973521989
1684180421572648900,3.25504931640625,0.030797600856789002,0.20017051688869453,0.6453859805911998
1684180421582690600,3.2650908203125,-0.2421130538242893,0.07689952854496039,0.5511381626346297
1684180421592732100,3.275132568359375,-0.42694255695542477,0.01106071488373302,0.2923197746319755
1684180421602773400,3.285173828125,-0.5663467644469903,-0.08077812196443844,0.07603716854563417
1684180421612815000,3.29521533203125,-0.6015217304026744,-0.20303249352892927,-0.07518553739430284
1684180421622856400,3.3052568359375,-0.5134947896283275,-0.2813835144363332,-0.19645452487955878
1684180421632898000,3.31529833984375,-0.28051021694297246,-0.2633085251459953,-0.14905118948066923
1684180421642939600,3.325340087890625,-0.02863129974937921,-0.21591854101753002,-0.012648105602341827
1684180421652980900,3.33538134765625,0.20737385747365789,-0.12501716611329963,0.2524383066318036
1684180421663022600,3.3454228515625,0.3830223978560852,0.021053314316842094,0.5423910619176562
1684180421673064100,3.355464599609375,0.4985272288257144,0.167041778641643,0.8015196323039412
1684180421683105500,3.365505859375,0.6095200777552721,0.28887462612220116,1.0077228547016825
1684180421693147100,3.37554736328125,0.6758050916753574,0.3672876357912626,1.1268761158418008
1684180421703188400,3.3855888671875,0.6850856542920459,0.4117879865886649,1.1704213620585286
1684180421713230000,3.39563037109375,0.636667489986375,0.3674240113084977,1.1879370211359856
1684180421723271600,3.405672119140625,0.5271530152419581,0.32498645770629875,1.1380136014363287
1684180421733312900,3.41571337890625,0.40596103656159904,0.3057641984174572,1.0056581498332766
1684180421743354600,3.4257548828125,0.2721399963060806,0.2616157531158854,0.6898653507994489
1684180421753396100,3.435796630859375,0.12183073162008407,0.14734745022204165,0.23266863823521586
1684180421763437600,3.445837890625,0.022194504587799237,0.042379379212681645,-0.25119090076870304
1684180421773479100,3.45587939453125,-0.11562991141673479,-0.06950950619204659,-0.6857783793248914
1684180421783520600,3.465921142578125,-0.16651615496027858,-0.15684986111072152,-1.029337406281623
1684180421793562000,3.47596240234375,-0.11916193369696504,-0.19553565988447233,-1.2715226411491722
1684180421803603600,3.486004150390625,-0.030855566252532194,-0.21429920202729416,-1.4601117372500318
1684180421813645000,3.49604541015625,0.08427599062403261,-0.1393098830714551,-1.5192635060305648
1684180421823686600,3.5060869140625,0.2119241358346911,-0.08554077132321294,-1.5428688526929413
1684180421833728200,3.516128662109375,0.3564873635389427,-0.04333782199050947,-1.5285315513444089
1684180421843769600,3.526169921875,0.47219055893030765,-0.04602146137119092,-1.4713627100285516
1684180421853811100,3.53621142578125,0.5086390971891998,-0.09597873695315932,-1.3123036624868085
1684180421863852600,3.546253173828125,0.47259196640400314,-0.16214752201024774,-1.190599322284811
1684180421873894100,3.55629443359375,0.35124331711285656,-0.2708082199993708,-1.037314534118635
1684180421883935600,3.566336181640625,0.19899244615883988,-0.3646984100645728,-0.8937809465931438
1684180421893977300,3.576377685546875,0.06387707598939184,-0.35323429115470567,-0.7149361371662996
1684180421904018600,3.5864189453125,-0.049962997429787284,-0.3252372743315791,-0.5801271200857964
1684180421914060200,3.596460693359375,-0.15744829190793655,-0.26658725737407485,-0.4442330598288614
1684180421924101600,3.606501953125,-0.1739776134515907,-0.12490749357397775,-0.38616156569488486
1684180421934143200,3.61654345703125,-0.20958217969716758,-0.06276798252533027,-0.2982678411982491
1684180421944184800,3.626585205078125,-0.18579390634039647,-0.03459072119243388,-0.2332472799660914
1684180421954226100,3.63662646484375,-0.12932410822255588,-0.0665292740129742,-0.16478300103843466
1684180421964267600,3.646668212890625,-0.021550178515923755,-0.05087471015917678,-0.1689023971524476
1684180421974309300,3.656709716796875,0.06012168524944176,0.005241394029792282,-0.21862983697164592
1684180421984350600,3.6667509765625,0.1554450094240755,0.008589744578069856,-0.23043155679702704
1684180421994392200,3.676792724609375,0.18515692641959627,-0.0025177001812145814,-0.26191687583945483
1684180422004433800,3.686834228515625,0.20859058195586333,0.03169631941690564,-0.28904485710134703
1684180422014475200,3.69687548828125,0.17791697392233832,0.00370120995109075,-0.2973866463861741
1684180422024516800,3.706917236328125,0.1365286111623976,-0.0003023145866707998,-0.37018775928924913
1684180422034558100,3.71695849609375,0.09482569998449145,-0.0305938721600594,-0.3427129983935125
1684180422044599600,3.727000244140625,0.06329494722056053,-0.12055778514680257,-0.32027888305780083
1684180422054641300,3.737041748046875,-0.025128781943899267,-0.13863182066161395,-0.3264231683134296
1684180422064682600,3.7470830078125,-0.05844676497829843,-0.13272762293765053,-0.3466528653531858
1684180422074724300,3.757124755859375,-0.08202964072449134,-0.14112281816292377,-0.30932879446105704
1684180422084765900,3.767166259765625,-0.10774752502015242,-0.12082195286338876,-0.2863044739603885
1684180422094807200,3.77720751953125,-0.11870145793420786,-0.13395881643003993,-0.2869820595965699
1684180422104848800,3.787249267578125,-0.09074836982330477,-0.09923267354569232,-0.294399261451911
1684180422114890200,3.79729052734375,-0.038053274144283014,-0.08842468266969676,-0.26085543635933056
1684180422124931800,3.807332275390625,0.01527214051278726,-0.06330204022912655,-0.2558608055591867
1684180422134973400,3.817373779296875,0.044696569422433344,-0.08362483977087175,-0.21985554699178608
1684180422145014600,3.8274150390625,0.06370413296027608,-0.039430618318612665,-0.2342267036135678
1684180422155056300,3.837456787109375,0.045504629592451065,-0.03114700319564111,-0.2605831624381066
1684180422165097900,3.847498291015625,0.01887726783070964,0.029703140108629976,-0.2915930748274058
1684180422175139200,3.85753955078125,-0.017538308976268693,-0.021879196044015517,-0.26304745681149844
1684180422185180800,3.867581298828125,0.025723725576529573,-0.068671226520461,-0.299439787806452
1684180422195222400,3.877622802734375,0.10810147228530752,-0.04616260529785414,-0.3215420246393518
1684180422205263800,3.887664306640625,0.17108233285851976,-0.028083801172015265,-0.31754088389750257
1684180422215305400,3.897705810546875,0.1824795604721374,-0.04325580596284348,-0.33253777015135444
1684180422225346700,3.9077470703125,0.1736545712130023,-0.055814743038363666,-0.33798694621671604
1684180422235388300,3.917788818359375,0.11963325726230985,-0.05877399441734052,-0.3741309643021791
1684180422245429900,3.927830322265625,0.06407299631362769,-0.09471797939398889,-0.37230718151343345
1684180422255471300,3.93787158203125,0.005152344600939617,-0.12542724618451817,-0.40606307975755984
1684180422265512900,3.947913330078125,-0.004843950312123066,-0.16275501236806963,-0.3994091747646954
1684180422275554600,3.957954833984375,-0.013628691426601633,-0.12659549707895032,-0.40497672544219926
1684180422285595800,3.967996337890625,0.04714092611579037,-0.13116741184256328,-0.4154815673060406
1684180422295637400,3.978037841796875,0.12205679713211914,-0.12396621702432528,-0.3765555621296345
1684180422305679000,3.988079345703125,0.14207471896754642,-0.0815925598032738,-0.38067877287033586
1684180422315720400,3.998120849609375,0.16598355761013495,-0.06578445431306564,-0.3257657289395336
1684180422325762000,4.008162353515625,0.1958819479614292,-0.014866828780011094,-0.3327988386067706
1684180422335803600,4.018203857421875,0.1966332645432625,0.028198242261715876,-0.25945568083886644
1684180422345844900,4.028245361328125,0.17816460131408632,0.042328834523902306,-0.25550138958399654
1684180422355886600,4.038286865234375,0.15251053869136638,0.10809898382988327,-0.28894269457894056
1684180422365927900,4.048328369140625,0.15295781206131967,0.019729614290005384,-0.14773070810650857
1684180422375969500,4.058369873046875,0.14128977069787685,-0.027161598342562054,-0.0843119621135127
1684180422386011100,4.068411376953125,0.11709585793896278,-0.012033462388042846,-0.03839850426615475
1684180422396052400,4.078452880859375,0.10398353633243708,0.040520668113047165,-0.014508724237133824
1684180422406094000,4.088494384765625,0.079007640570909,0.04507541659046787,0.006435394203915463
1684180422416135600,4.098535888671875,0.038137108151581764,-0.002281188925454985,0.010377168600734852
1684180422426176900,4.108577392578125,-0.009183928312307485,-0.0088224410617147,-0.03515005124309595
1684180422436218600,4.118618896484375,-0.05119714138455522,-0.01048755643634084,-0.05141019812186046
1684180422446260100,4.12866064453125,-0.002849027577226818,0.0020294189434954895,-0.03427886972188927
1684180422456301600,4.138701904296875,0.03542451548671871,0.011990547117439543,-0.015025854053124302
1684180422466343100,4.148743408203125,0.013892948538869982,0.026564598126096815,-0.06405806549969414
1684180422476384400,4.158784912109375,0.0013045667414240748,0.03153896335292862,-0.09323048601138942
1684180422486426000,4.168826416015625,-0.018447369329581388,-0.024828910966702276,-0.08684468254523997
1684180422496467600,4.178867919921875,-0.058637469890073256,-0.0449695585753294,-0.08061814302699744
1684180422506509000,4.188909423828125,-0.09776495398748743,-0.07888793940048103,-0.08616542816861429
1684180422516550600,4.198950927734375,-0.09564116602552437,-0.08876419080828152,-0.06831502924405322
1684180422526592200,4.20899267578125,-0.09734927120879165,-0.08909893044937188,-0.02731752398303868
1684180422536633600,4.219033935546875,-0.09566889699144514,-0.06122112275287586,-0.012995481500875294
1684180422546675100,4.229075439453125,-0.09112448974457321,0.036742210400797566,-0.032174348909363625
1684180422556716600,4.2391171875,-0.03191395089822165,-0.04368305208863161,0.01876544933403301
1684180422566758100,4.249158447265625,-0.00377617785511414,-0.08286857610822813,0.04714107511384295
1684180422576799600,4.259199951171875,0.03841403117211915,-0.032064437895540074,0.12865829454129854
1684180422586841000,4.269241455078125,0.11314155914907248,0.029560089183936714,0.13773822801075486
1684180422596882600,4.279282958984375,0.1796738804315412,0.050105094952657775,0.14181900016786572
1684180422606924200,4.28932470703125,0.23283919690297714,0.08203220363078705,0.1479356289660662
1684180422616965600,4.299365966796875,0.23201242083746243,0.08985042575198701,0.1442692279977569
1684180422627007200,4.309407470703125,0.16598546507455691,0.08344459535605583,0.11242771160010026
1684180422637048800,4.31944921875,0.09037171291466367,0.04894351961115814,0.041232585739559076
1684180422647090100,4.329490478515625,0.06979323161972921,0.06455612197635076,-0.0165560245225512
1684180422657131600,4.339531982421875,0.05703880646405419,0.07288646705367384,-0.03077340132547902
1684180422667173300,4.34957373046875,0.08751603220287503,0.06933116922378582,-0.056351661811629664
1684180422677214600,4.359614990234375,0.14838251473123648,0.025844573919146255,-0.05074048043530764
1684180422687256200,4.36965673828125,0.20536743104611127,0.049071311879027434,-0.05668640139675303
1684180422697297800,4.3796982421875,0.24886912100521605,0.020140647946152616,0.00580811489631886
1684180422707339200,4.389739501953125,0.25096699594835914,0.005821228039679277,0.0060560702860655985
1684180422717380800,4.39978125,0.19075170154841,0.003551483076095054,-0.014727115552221916
1684180422727422400,4.40982275390625,0.10457736255681038,-0.01984214771846664,-0.03270959863796272
1684180422737463600,4.419864013671875,0.028842788304423713,-0.05695247651429754,-0.06440591820845941
1684180422747505300,4.42990576171875,-0.07342081517420321,-0.0863790512420685,-0.0908041000227154
1684180422757546600,4.439947021484375,-0.12079064542378559,-0.058827400244151715,-0.06260919569206608
1684180422767588300,4.44998876953125,-0.10614150020892077,-0.05063438415437894,-0.08453965184028726
1684180422777629900,4.4600302734375,-0.0234957039044402,-0.04738616953209122,-0.09471893305632148
1684180422787671200,4.470071533203125,0.061469372361151145,-0.060727119339667825,-0.10494756692840264
1684180422797712800,4.48011328125,0.06690955175877779,-0.10448837298535883,-0.15049850927000072
1684180422807754400,4.49015478515625,0.05204002556875769,-0.12635231014739962,-0.1695301531606693
1684180422817795800,4.500196044921875,0.0014438219486327148,-0.15017986308308592,-0.21403729916321923
1684180422827837400,4.51023779296875,-0.016541056436947605,-0.14765834821736104,-0.22925567631127616
1684180422837878600,4.520279052734375,-0.032373581070514176,-0.13808727274583266,-0.2087225914324588
1684180422847920300,4.53032080078125,-0.03712176162713926,-0.0980300902363517,-0.12473332865931179
1684180422857961900,4.5403623046875,0.0013659894373339975,-0.07280826571981648,-0.016426801583539107
1684180422868003200,4.550403564453125,0.051739182353337236,-0.017509460386208535,0.05429029475787823
1684180422878044800,4.5604453125,0.1138523965829298,0.043787956211322136,0.07374835011104885
1684180422888086400,4.57048681640625,0.18738836037100948,0.0732517242366029,0.0848908423911335
1684180422898127800,4.580528076171875,0.2552574275441056,0.09266757966560547,0.06931352604664337
1684180422908169400,4.59056982421875,0.3238070904029519,0.09289169304474101,0.051464557738859766
1684180422918211000,4.600611328125,0.3401752413272545,0.08374309543413544,0.00818395623338733
1684180422928252300,4.61065283203125,0.30943405646131217,0.04188728336129763,-0.008081436099355715
1684180422938293900,4.6206943359375,0.2514946460287772,0.038571357795874985,-0.03980183602582969
1684180422948335600,4.63073583984375,0.1961393654326862,0.05195808392303,-0.030206203447417534
1684180422958376900,4.64077734375,0.15598253912527224,0.0558090210292743,-0.008517503697294157
1684180422968418600,4.65081884765625,0.1473630965056144,0.05261039729476111,0.00846719737840817
1684180422978460100,4.660860595703125,0.1105632482638892,0.044782638485668595,0.048838376909258095
1684180422988501400,4.67090185546875,0.11640758807891657,0.07945060734393208,0.09319281569885006
1684180422998543000,4.680943359375,0.08659949152963424,0.10406112683634088,0.10591506960906848
1684180423008584600,4.690985107421875,0.09734377268851235,0.10930156703627608,0.10607218738159335
1684180423018626000,4.7010263671875,0.06111437839929239,0.08606338487321356,0.07262682897135272
1684180423028667600,4.71106787109375,0.0917404069839862,0.07013511652607918,0.05793213844414161
1684180423038708900,4.721109375,0.11234685024281066,0.03318023693621342,-0.001712799044208426
1684180423048750600,4.73115087890625,0.06614552439869271,-0.015029907191633213,-0.025517463761488907
1684180423058792100,4.741192626953125,-0.005987704806122449,-0.10488891604145835,-0.08459043519452836
1684180423068833500,4.75123388671875,-0.09831611063379794,-0.14620494833150252,-0.16639757163634514
1684180423078875100,4.761275390625,-0.1267031579641289,-0.1962280273960591,-0.22082972533435077
1684180423088916600,4.771317138671875,-0.16174074993688498,-0.2006130219218484,-0.3022571802968045
1684180423098958000,4.7813583984375,-0.13753765829239198,-0.16948699940470538,-0.379391312557868
1684180423108999600,4.79139990234375,-0.08190873274806652,-0.1293144226215175,-0.3933324813702768
1684180423119041200,4.801441650390625,-0.04559097437852632,-0.09204387680216647,-0.3570219279554319
1684180423129082600,4.81148291015625,0.011207964305901427,-0.06467533119247704,-0.33716225625443336
1684180423139124100,4.821524658203125,0.04996126888779464,-0.016513824425173188,-0.2702701091798036
1684180423149165600,4.83156591796875,0.1013853475036716,0.04495811463594,-0.21633470056772197
1684180423159207100,4.841607421875,0.12775692351168297,0.06533527382596276,-0.11174678796453036
1684180423169248600,4.851649169921875,0.14835935837815578,0.05939006812133549,-0.023438453733112236
1684180423179290000,4.8616904296875,0.11382015066119652,0.02287960047992912,0.032501459083220795
1684180423189331600,4.87173193359375,0.05070883030565177,-0.010664939935657114,0.08515262593187366
1684180423199373200,4.881773681640625,0.009017769302184456,-0.0012350083034279784,0.03351664552980855
1684180423209414600,4.89181494140625,-0.015876777518813046,0.04337787634745399,0.029946565572516806
1684180423219456200,4.901856689453125,-0.0495321565278067,0.07547759996987463,0.017028331813008148
1684180423229497800,4.911898193359375,-0.10095346718633409,0.08348941813827697,0.025462150500665446
1684180423239539100,4.921939453125,-0.11111891275110627,0.02541065217656084,0.043002366967936065
1684180423249580600,4.931981201171875,-0.12560027838350912,-0.02701950075119744,0.02952933307757704
1684180423259622300,4.942022705078125,-0.11369246241878828,-0.01969623578047959,0.04229140277565418
1684180423269663600,4.95206396484375,-0.09699021274445681,0.006348609968316451,0.033707857203430475
1684180423279705300,4.962105712890625,-0.07562215617958976,-0.0010261536768711188,0.0086722374725744
1684180423289746900,4.972147216796875,-0.028680157093615544,0.008177757078944642,0.028670072661270182
1684180423299788200,4.982188720703125,-0.020667914327236397,0.0007524490656218044,0.010669231426390506
1684180423309829800,4.992230224609375,-0.06564313159405834,-0.030064582899772166,-0.021042585363296302
1684180423319871200,5.002271484375,-0.14118191608263164,-0.04384613033201619,-0.02380228055977436
1684180423329912800,5.012313232421875,-0.16328486804840867,-0.052664756739869735,-0.0028505325595714346
1684180423339954400,5.022354736328125,-0.15511725848925098,-0.05901241317418048,-0.017660856219288455
1684180423349995600,5.03239599609375,-0.14112536611334422,-0.034654617307782055,-0.02750420572380511
1684180423360037300,5.042437744140625,-0.14125204095326588,-0.010655403283910772,-0.02753520020827003
1684180423370078900,5.052479248046875,-0.1039105803257406,-0.015257835393545643,-0.013214111306467314
1684180423380120200,5.062520751953125,-0.04119183870217565,-0.010391235474225238,0.012523651178433263
1684180423390161800,5.072562255859375,0.0092878789195734,0.0037670135309726092,-0.01883792890537299
1684180423400203400,5.082603759765625,0.059337180209337856,0.027065277103620798,-0.019243717089164836
1684180423410244800,5.092645263671875,0.11303630480067368,0.0004987716978281407,-0.017463684083910348
1684180423420286400,5.102686767578125,0.1437855214222584,0.014391899059229244,-0.011067152050082506
1684180423430328000,5.112728271484375,0.14253023248470434,0.011593818698877545,-0.025909662222809472
1684180423440369300,5.122769775390625,0.10295569152435435,0.034767151015557426,-0.06158256535014289
1684180423450410900,5.132811279296875,0.05444000665378289,0.04579544057193189,-0.05187749861162432
1684180423460452600,5.14285302734375,0.03735766193952493,0.042514800894725,-0.009376525871303295
1684180423470493900,5.152894287109375,0.0369989312256314,0.03458118424085613,0.06302332865156764
1684180423480535600,5.162935791015625,0.04335836306471548,0.04559326179006227,0.110562562877758
1684180423490576800,5.172977294921875,0.025737553730811474,0.03990554810151739,0.12889194477544233
1684180423500618400,5.183018798828125,0.008232679286472552,0.036633491650056076,0.130270242545274
1684180423510660000,5.193060302734375,0.0028708129514252653,0.03807353968594266,0.11963129042946899
1684180423520701400,5.203101806640625,0.004827134464384152,0.03237724307770082,0.08069276814826395
1684180423530743000,5.213143310546875,0.004526674766286709,0.019661903324308522,0.07748484610801774
1684180423540784600,5.22318505859375,-0.02179636055140061,0.02358245842709854,0.03171706209751448
1684180423550825900,5.233226318359375,-0.00038941194259124544,-0.029191970931459813,0.035569906304432124
1684180423560867600,5.243267822265625,-0.014662846818626923,-0.05519294732800893,0.008749961949999168
1684180423570909100,5.2533095703125,-0.024110235357557516,-0.07135772709663783,-0.010623931880139438
1684180423580950400,5.263350830078125,-0.04270668320238834,-0.11316394805757822,-0.010901689520334192
1684180423590992000,5.273392333984375,-0.03465320922619709,-0.128379821645914,-0.053545236679203835
1684180423601033400,5.283433837890625,-0.047149941303280346,-0.10333728780136694,-0.06021332732752501
1684180423611075000,5.293475341796875,-0.027964517377535303,-0.09051322938177872,-0.13514935963680755
1684180423621116600,5.30351708984375,-0.01768466818920096,-0.054344177274082785,-0.19929993167441717
1684180423631157900,5.313558349609375,0.004530362766192129,-0.05639743807716841,-0.2527403832435947
1684180423641199600,5.323599853515625,0.02384231602185105,-0.03243351000389174,-0.2272148131677237
1684180423651241100,5.3336416015625,0.04010092471916119,0.03127861027390095,-0.20626556877021826
1684180423661282600,5.343682861328125,0.06044532744967023,0.0564136504567253,-0.13084006306993692
1684180423671324100,5.353724365234375,0.09198392920973834,0.052970886230201,-0.04449772846019138
1684180423681365600,5.36376611328125,0.1416292786668635,0.08969974505233115,0.04317379005627835
1684180423691407000,5.373807373046875,0.11922105406348181,0.23191738139316634,-0.04177021978981062
1684180423701448600,5.38384912109375,0.1509374678637724,0.09854316698300937,0.14481115353678145
1684180423711490200,5.393890625,0.13728268437977043,0.05922412870077155,0.17769789713096737
1684180423721531600,5.403931884765625,0.11854167278850707,0.025240898077527215,0.21694159514675593
1684180423731573200,5.4139736328125,0.06386908895465669,0.0435104370848357,0.189097642921692
1684180423741614800,5.42401513671875,0.00927402087164814,0.042594909685348195,0.18031764030983338
1684180423751656100,5.434056396484375,-0.023194849565347047,0.051018714936604946,0.105360984793495
1684180423761697600,5.44409814453125,-0.04048036772008637,0.04745101943411738,0.03130769734779348
1684180423771739300,5.4541396484375,-0.040482595481995745,0.0015354157086775427,-0.008670806926920334
1684180423781780600,5.46418115234375,-0.033255092866876265,-0.0529813767148042,-0.04775738712855946
1684180423791822300,5.47422265625,-0.04275736964517051,-0.04530525210355583,-0.10233306884190273
1684180423801863600,5.484263916015625,-0.04300077991980821,-0.049434661965236895,-0.09674406040041998
1684180423811905200,5.4943056640625,-0.059662036565812336,-0.029902458162340904,-0.09337115305390174
1684180423821946800,5.50434716796875,-0.08281186977890014,-0.012999534699455223,-0.049795389108902154
1684180423831988100,5.514388427734375,-0.07708026472689876,0.0060262679551819675,-0.03024768842558997
1684180423842029700,5.52443017578125,-0.10194513947073193,-0.010549545316104641,0.05501651764911795
1684180423852071300,5.5344716796875,-0.07940050970872946,0.008493423465938002,0.08483457557108567
1684180423862112600,5.54451318359375,-0.10214032223479251,0.07197475435392109,0.0742526054366804
1684180423872154300,5.5545546875,-0.1151801126140421,0.037890434326167885,0.05684137358435348
1684180423882195600,5.564595947265625,-0.11617394534549653,0.04444503792047762,0.03994894022862716
1684180423892237200,5.5746376953125,-0.10026041411130569,0.05796337126019789,0.06106185909834194
1684180423902278800,5.58467919921875,-0.05854805559641212,0.04771327966642145,0.05122137085297234
1684180423912320200,5.594720458984375,-0.0293267071130983,0.0446853637807809,0.08622097962367982
1684180423922361800,5.60476220703125,0.01092895113706276,0.020470619136225183,0.09921956074280736
1684180423932403400,5.6148037109375,0.0173126384424665,0.0224552153346109,0.1044800282992965
1684180423942444600,5.62484521484375,0.004611551666882561,-0.018096924006991068,0.12791252140907503
1684180423952486300,5.63488671875,-0.015227191312593792,-0.03453350047707269,0.11282372485727749
1684180423962527900,5.64492822265625,-0.009114161047181013,-0.05550765988708965,0.08574819566447746
1684180423972569300,5.6549697265625,-0.017123177495805154,-0.05028915400680628,0.04241180435223477
1684180423982610900,5.66501123046875,-0.03843888640826152,-0.009903907678138821,-0.00043082236638231265
1684180423992652500,5.675052978515625,-0.03271545477902925,-0.003234863156288662,-0.042902231228072754
1684180424002693800,5.68509423828125,0.001698337506033948,-0.03434848785634952,-0.11526870722233569
1684180424012735400,5.6951357421875,0.005111545370127348,-0.036670684781487474,-0.1439433096803429
1684180424022777000,5.705177490234375,-0.005611092001922415,-0.06480026247730189,-0.20017039769004852
1684180424032818400,5.71521875,-0.009085960835431964,-0.06648826596781374,-0.22452116012491968
1684180424042860000,5.72526025390625,-0.00994227829692706,-0.06572055801171033,-0.23635995381803923
1684180424052901600,5.735302001953125,0.008418485512593249,-0.03901004792410009,-0.25478279584793423
1684180424062942900,5.74534326171875,0.031590390975166416,-0.04566955584094414,-0.23506486422667175
1684180424072984600,5.755385009765625,0.08272757386668422,-0.04513072957602373,-0.1731894015666616
1684180424083025800,5.76542626953125,0.09292493752212644,-0.03038597105967004,-0.15196943280605948
1684180424093067400,5.7754677734375,0.10266794270935986,-0.04408454894322986,-0.11204528817535374
1684180424103109000,5.785509521484375,0.12859947965134153,-0.015151977368331283,-0.05854606635128726
1684180424113150400,5.79555078125,0.13300186397506822,-0.010218620182391835,-0.05761122710567212
1684180424123192000,5.80559228515625,0.13726696382411316,0.03232765211575751,-0.04244875912883005
1684180424133233600,5.815634033203125,0.13403117657034014,0.04591560369635376,-0.044021606274989314
1684180424143274900,5.82567529296875,0.120717376482819,0.06873893735796704,-0.052465438889736135
1684180424153316600,5.835717041015625,0.0929079653572225,0.08414936055997321,-0.03240799889430954
1684180424163357900,5.84575830078125,0.05097338933112594,0.056957244900675316,0.013323307018757702
1684180424173399600,5.8557998046875,0.014131009544058671,0.06083869935914687,0.02539062499641978
1684180424183441100,5.865841552734375,-0.01984587324060739,0.0411262512882572,0.060857295861998326
1684180424193482400,5.8758828125,-0.024895951138039978,0.017022132824028417,0.10038948071251741
1684180424203524000,5.88592431640625,-0.04855868971799909,-0.011411666926545227,0.1226804255024966
1684180424213565600,5.895966064453125,-0.03398993609439985,0.012383460960079225,0.11619210241424204
1684180424223607000,5.90600732421875,-0.036332852966016675,0.014611244255241183,0.11930179596253677
1684180424233648600,5.916049072265625,-0.017824336919889994,-0.006720542944751836,0.08947396273252242
1684180424243690200,5.926090576171875,-0.04476240274492517,-0.011132240327724984,0.062855005245652
1684180424253731600,5.9361318359375,-0.054969511953423596,0.01518726340803824,0.04162788393222122
1684180424263773100,5.946173583984375,-0.06946973519921149,0.0010852813713250174,0.03505730625208872
1684180424273814600,5.956215087890625,-0.09739124774796341,-0.00806331629424401,0.01923727990562145
1684180424283856000,5.96625634765625,-0.06551250069311172,0.015932083003917803,-0.02204704285123306
1684180424293897600,5.976298095703125,-0.05755554887584662,0.0230712891739836,-0.06253409382669223
1684180424303939200,5.986339599609375,-0.04523218428300843,0.016004562330358994,-0.0857059956338943
1684180424313980600,5.996381103515625,-0.04516477130730725,-0.01208305358864813,-0.08237767217475465
1684180424324022200,6.006422607421875,-0.03813432911827509,-0.04437446590669901,-0.07423353188484885
1684180424334063800,6.016464111328125,-0.057182729173390096,-0.052612304694634376,-0.05222749699799132
1684180424344105100,6.026505615234375,-0.04513572166897271,-0.07485580433749359,-0.08951020250250087
1684180424354146700,6.036547119140625,-0.037971697924598515,-0.02848625193744837,-0.0603775977717596
1684180424364188100,6.04658837890625,-0.021496772849931105,-0.037126541064442985,0.005527257791433953
1684180424374229600,6.056630126953125,-0.03350152822760622,-0.012716293401359748,0.04891395577222559
1684180424384271300,6.066671630859375,-0.02891033881090444,-0.01702785491861638,0.06068253512803222
1684180424394312600,6.076713134765625,-0.04573114958138321,0.009286880387727094,0.04612350469351636
1684180424404354200,6.086754638671875,-0.05529882023701507,0.020988464343833113,0.022155284871991997
1684180424414395800,6.096796142578125,-0.07879375676618411,0.027785301273738166,-0.0014119146464692707
1684180424424437200,6.106837646484375,-0.0498417092545942,0.0367965697958746,-0.04352760315146303
1684180424434478800,6.116879150390625,-0.030455224332399434,0.02921485895080296,-0.05415415777916911
1684180424444520100,6.12692041015625,-0.006883218852876987,0.03828144062301275,-0.07855176917144076
1684180424454561600,6.136962158203125,0.003991879514199526,0.026088714544797498,-0.05276226992642003
1684180424464603300,6.147003662109375,-0.00259558868623504,0.016483306858282268,-0.03906869883499023
1684180424474644600,6.157045166015625,-0.019078694373821616,-0.0023641586490840247,-0.025559186950267418
1684180424484686300,6.167086669921875,-0.061424151057813924,-0.011495590244617273,-0.03824138653054513
1684180424494727900,6.177128173828125,-0.11457376187603388,-0.034655570929949864,-0.05566310870160893
1684180424504769200,6.187169677734375,-0.13793411846309117,-0.05275344854638656,-0.04231381427460181
1684180424514810800,6.197211181640625,-0.14372868835764038,-0.05887508389173841,-0.06726431854106109
1684180424524852400,6.207252685546875,-0.13226395842344388,-0.060270309513991524,-0.026230573727636017
1684180424534893700,6.217294189453125,-0.09453435985664335,-0.07582092283331583,-0.00965547561451098
1684180424544935300,6.227335693359375,-0.0573431180486861,-0.06523227689556953,0.020708799424382657
1684180424554976900,6.23737744140625,-0.04684787230919949,-0.05718517291384242,0.015191793429836979
1684180424565018300,6.247418701171875,-0.02030017239652723,-0.013981819229001144,0.04025650021661184
1684180424575059900,6.257460205078125,-0.017489001268881615,-0.0021295547611412087,0.09775400157811165
1684180424585101200,6.267501708984375,-0.014246627737650059,-0.0022602081320431565,0.09774637233018867
1684180424595142800,6.277543212890625,0.00812543936243939,-0.0023269652462486884,0.10039472580632537
1684180424605184400,6.287584716796875,0.04878174894250007,-0.004640579222659949,0.07051277169516776
1684180424615225800,6.297626220703125,0.05283461887466994,0.04027843464784335,0.04866194723143087
1684180424625267400,6.307667724609375,0.05385317657194329,0.056281089914657016,0.025174379448957288
1684180424635309000,6.31770947265625,0.06169775860883372,0.08855152133592023,-0.025934934600306724
1684180424645350300,6.327750732421875,0.045946638966292766,0.08500671385401715,-0.003035068523015843
1684180424655391900,6.337792236328125,0.06369977457714794,0.039134025646275133,0.0005934239602054606
1684180424665433600,6.347833984375,0.09535892310131076,0.03169059749990659,0.032415151519915024
1684180424675474900,6.357875244140625,0.10963124782593803,0.04326057443047872,0.05452275268202446
1684180424685516500,6.367916748046875,0.14657658339163457,0.04056930533474305,0.06943321225582133
1684180424695558100,6.37795849609375,0.137402921826674,0.07800006864590928,0.11964535726092895
1684180424705599400,6.387999755859375,0.1253252773222397,0.10071372983004476,0.1503078938128155
1684180424715641000,6.39804150390625,0.08475919814956062,0.11125469195546116,0.17799639700529124
1684180424725682400,6.408082763671875,0.09860251847880923,0.11450958241695423,0.20264434830561295
1684180424735724000,6.418124267578125,0.08139736220560298,0.09176349640221443,0.15602970118934031
1684180424745765600,6.428166015625,0.038126271256581336,0.055233955422521484,0.11001968378022044
1684180424755806900,6.438207275390625,0.0301633029404433,0.03577899918726222,0.03882002831929181
1684180424765848600,6.448248779296875,0.009957727060204546,0.01664829242717162,0.004115819825004554
1684180424775890100,6.45829052734375,-0.021856360199044363,-0.020989417925899402,-0.022893190363677336
1684180424785931400,6.468331787109375,-0.03387166564638101,-0.043878555166867346,-0.030619859744117232
1684180424795973000,6.47837353515625,-0.049652490780569436,-0.07111072533857063,-0.03592276562833649
1684180424806014400,6.488414794921875,-0.04576825713364297,-0.08612251282099866,-0.07645082475103028
1684180424816056000,6.498456298828125,-0.04406864930075954,-0.09149646763601765,-0.06227445602710582
1684180424826097600,6.508498046875,-0.06361892074605131,-0.08973217015175544,-0.06487464904493066
1684180424836138900,6.518539306640625,-0.106366455708345,-0.08097457894632684,-0.06054496765518966
1684180424846180600,6.528580810546875,-0.1289256363442295,-0.07244110120407106,-0.01190662399655288
1684180424856222100,6.53862255859375,-0.13830876356760133,-0.04529380790935497,-0.05153203006509263
1684180424866263600,6.548663818359375,-0.13241362569858373,-0.05865859990318996,-0.06006574633994795
1684180424876305100,6.55870556640625,-0.08347617840238201,-0.0576877594494265,-0.11559784429052616
1684180424886346600,6.5687470703125,-0.06329653416522557,-0.05668258675781927,-0.13936758040312464
1684180424896388000,6.578788330078125,-0.02710954285702947,-0.04148006437341968,-0.13643884664912187
1684180424906429600,6.588830078125,-0.0057613299609500105,-0.04293441775221819,-0.13556551931124816
1684180424916471200,6.59887158203125,0.01972561703124771,-0.011343955980609348,-0.12264609343404312
1684180424926512600,6.608912841796875,0.03759952251418904,0.02918624866730711,-0.06968903543091434
1684180424936554200,6.61895458984375,0.043080270226173355,0.03609466546247123,-0.02932858468199973
1684180424946595600,6.628995849609375,0.03177458410781049,0.0428619383016984,-0.025070428808707277
1684180424956637100,6.63903759765625,0.060359641939159554,0.06832504269560663,-0.01393795008491359
1684180424966678600,6.6490791015625,0.062228322045633014,0.05799961101316147,0.0014841556818538857
1684180424976720000,6.659120361328125,0.07792128635537118,0.05484485620735177,0.03283619890332032
1684180424986761600,6.669162109375,0.055444628009070795,0.04227638234730647,0.02341032026155656
1684180424996803200,6.67920361328125,0.023448433703226346,0.013408660763379184,-0.0024549961262291388
1684180425006844600,6.689244873046875,0.008082679579748581,-0.017333030628008627,-0.030244588800216105
1684180425016886200,6.69928662109375,-0.05178695542898587,-0.04758834846410158,-0.029437780407055372
1684180425026927800,6.709328125,-0.08192046003387435,-0.053822517339677634,-0.03582406045016345
1684180425036969100,6.71936962890625,-0.08956456181154897,-0.08584785468842403,-0.07271027565272213
1684180425047010700,6.7294111328125,-0.09860809151399517,-0.10560321812058479,-0.06678056727460124
1684180425057052300,6.73945263671875,-0.095197573187735,-0.1062088011958197,-0.07983970642559095
1684180425067093600,6.749494140625,-0.07730722429020201,-0.1115102769110351,-0.10444808015954041
1684180425077135300,6.75953564453125,-0.10630378874574134,-0.09553527823116953,-0.0862679482350732
1684180425087176600,6.769576904296875,-0.05862137315696302,-0.06569766994810432,-0.09428608407694188
1684180425097218200,6.77961865234375,-0.008326595712514633,-0.036372184726924085,-0.06220769881792229
1684180425107259800,6.78966015625,0.0418512932518535,-0.04760646816640222,-0.0662090777680004
1684180425117301200,6.79970166015625,0.09605891254901892,-0.030427932879544595,-0.08909285074978059
1684180425127342800,6.8097431640625,0.1112273856182302,-0.025282859841199042,-0.1444379091421377
1684180425137384400,6.81978466796875,0.1279747336691086,-0.024906158595623867,-0.1540144683041451
1684180425147425600,6.829826171875,0.08310145126551065,-0.01980209336127936,-0.135064721076336
1684180425157467300,6.83986767578125,0.0628008916630379,-0.02416419976042396,-0.14921510224530943
1684180425167508600,6.849908935546875,0.048062920561793315,-0.002519607586922578,-0.13235092159733322
1684180425177550300,6.85995068359375,0.0763047262300438,0.014116287340512321,-0.0683946610593197
1684180425187591900,6.8699921875,0.13703154031376202,0.03525638576089942,-0.04517841341831021
1684180425197633200,6.88003369140625,0.17054314904193937,0.05609416973865273,0.015550374984005208
1684180425207674800,6.8900751953125,0.20279857517452995,0.0765953064288617,0.0635540484774346
1684180425217716400,6.90011669921875,0.20794697095078038,0.07555675508763575,0.08480429643382273
1684180425227757700,6.910158203125,0.20052845783505488,0.0862951278902325,0.10328817356463067
1684180425237799300,6.92019970703125,0.17386044574785464,0.07566452030892586,0.08144283295413551
1684180425247840600,6.930240966796875,0.1257653832782702,0.06994724269957886,0.11893248562593457
1684180425257882300,6.94028271484375,0.08245963601802889,0.04783153531073245,0.160448074188913
1684180425267923900,6.95032421875,0.02740869679640906,0.03787994391371767,0.1919705867748967
1684180425277965200,6.96036572265625,-0.05269597839210078,0.044572830378502216,0.18294620506435655
1684180425288006800,6.9704072265625,-0.10758926719584663,0.06289958962969232,0.19984960558492662
1684180425298048400,6.98044873046875,-0.1348109097054151,0.0691013336863133,0.21858978277503371
1684180425308089800,6.990490234375,-0.14643821130232135,0.037496566887191426,0.19681930531821082
1684180425318131400,7.00053173828125,-0.1335738599476515,0.015811920211532826,0.19412899003128015
1684180425328173000,7.010573486328125,-0.09931460022483157,-0.03377532948024402,0.160823345128332
1684180425338214300,7.02061474609375,-0.07957901062929786,-0.0636739732034446,0.11642169955635943
1684180425348255900,7.03065625,-0.04353012142324438,-0.062433242877098435,0.09177112583335695
1684180425358297300,7.04069775390625,-0.007555050852388032,-0.025889396656774498,0.05817604057826349
1684180425368338900,7.0507392578125,0.06368092447313686,0.04772567756255942,0.0252029895713088
1684180425378380500,7.06078076171875,0.12011434864473618,0.042401313706783884,-0.004978418343184916
1684180425388421800,7.070822265625,0.16611531379702657,0.01830673227760644,-0.008873224259210617
1684180425398463400,7.08086376953125,0.22007761894555186,0.008750915534904062,-0.03147792815243502
1684180425408505000,7.090905517578125,0.21815502645310433,0.013480186507914283,-0.0513544084183709
1684180425418546400,7.10094677734375,0.2321154921352354,0.015776634078146563,-0.023820161944853372
1684180425428588000,7.11098828125,0.19858755173359574,0.020389556835524104,-0.008520603325722177
1684180425438629600,7.121030029296875,0.18468678012176998,0.04846763603570042,0.011229038290222327
1684180425448670900,7.1310712890625,0.17822459352837383,0.07608795157092678,0.00010061264392621993
1684180425458712600,7.14111279296875,0.20458386849790583,0.10322380076793346,0.014935731926638319
1684180425468754100,7.151154541015625,0.241620421493814,0.11338901529021247,0.003451108870067783
1684180425478795400,7.16119580078125,0.2820027768033387,0.10215759274600748,0.02493762958144372
1684180425488837000,7.171237548828125,0.2738793492403435,0.07230186462966229,0.01086115847624641
1684180425498878400,7.18127880859375,0.2628127037793014,0.024144172631630254,-0.024004936081586364
1684180425508920000,7.1913203125,0.21591237188708162,-0.009042739950188347,-0.04865360253203283
1684180425518961600,7.201362060546875,0.16688181446365546,-0.02988624559522828,-0.051600694757356104
1684180425529002900,7.2114033203125,0.11821751299383654,-0.06677055356021411,-0.04462957384356069
1684180425539044600,7.22144482421875,0.04181541506369534,-0.06764602667514574,-0.09152293198913566
1684180425549086100,7.231486572265625,-0.03796933582401892,-0.068448066872429,-0.10909700383072984
1684180425559127600,7.24152783203125,-0.0853038132861945,-0.033873557936486956,-0.12143731122207786
1684180425569169100,7.251569580078125,-0.12139064083505856,-0.07518100731667039,-0.11462152011037105
1684180425579210600,7.261611083984375,-0.11558246617032504,-0.11579132082138853,-0.07260668283208911
1684180425589252000,7.27165234375,-0.0756025387900375,-0.10623359697083393,-0.002809286162434452
1684180425599293600,7.281694091796875,-0.054113261299478944,-0.08740138990679178,-0.009449720340883327
1684180425609335000,7.2917353515625,-0.043994132587473644,-0.10420513139900982,0.04517745964233553
1684180425619376600,7.30177685546875,-0.02152971176328487,-0.06899261487333641,0.042112350523239105
1684180425629418200,7.311818603515625,-0.020008223166657846,-0.0862302779405681,0.06465888025695607
1684180425639459600,7.32185986328125,-0.022859063039693362,-0.039673805341822535,0.07007384300152232
1684180425649501100,7.331901611328125,0.012232018588016426,-0.029253959600760545,0.018675565614772967
1684180425659542400,7.34194287109375,0.020939801013838917,-0.011996269105828416,-0.013259172386940382
1684180425669584000,7.351984375,0.060270883172093725,0.04497241981287302,-4.57763794979396e-05
1684180425679625600,7.362026123046875,0.08019962920217488,0.06801700595720807,-0.02477741239063445
1684180425689667000,7.3720673828125,0.12099042527562721,0.1095094681423689,-0.009074211040991787
1684180425699708600,7.38210888671875,0.1659495085004212,0.08202648162921165,0.039267301600902096
1684180425709750200,7.392150634765625,0.20552383359362436,0.047963142362881156,0.042189359524333586
1684180425719791600,7.40219189453125,0.22537301492981723,0.045046806196990134,0.0567171573219529
1684180425729833100,7.412233642578125,0.23268523811000055,0.042153358393859176,0.05205249787774951
1684180425739874600,7.42227490234375,0.21577459564552848,0.008702277991241344,0.019215345368457308
1684180425749916100,7.43231640625,0.16333548736308703,-0.003003120321479998,0.038718461845082
1684180425759957600,7.442358154296875,0.12111834444759394,-0.030992507904092626,-0.010373354038205173
1684180425769999000,7.4523994140625,0.11982509484053121,-0.025531768904637393,0.0026805400245436223
1684180425780040600,7.46244091796875,0.09539705530989671,0.036352157549955216,-0.05504870422798233
1684180425790082200,7.472482666015625,0.06737911710248742,-0.025228500366682276,-0.050661563989895866
1684180425800123600,7.48252392578125,0.09500598914612808,-0.085806846712138,-0.018209934195670015
1684180425810165200,7.492565673828125,0.11121369139822769,-0.03233718882595024,-0.06145524981341431
1684180425820206600,7.50260693359375,0.14171510941429752,-0.024480819608077922,-0.047416806363075534
1684180425830248100,7.5126484375,0.1531755030111009,0.016201973041116795,-0.05950462823719829
1684180425840289600,7.522690185546875,0.16002476200888086,0.044442176771514116,-0.03366148468547384
1684180425850331100,7.5327314453125,0.16214948879802132,0.05099868782442884,-0.031904459037348884
1684180425860372600,7.54277294921875,0.16177070139814168,0.06680011737924775,-0.011632204204981128
1684180425870414300,7.552814697265625,0.1472156941003822,0.06113433844659657,0.012951850953739335
1684180425880455600,7.56285595703125,0.11191495493178517,0.07202529902386004,0.030004024492911376
1684180425890497200,7.572897705078125,0.10098198801514095,0.052138328431967945,0.053892135688943535
1684180425900538800,7.582939208984375,0.09050698570201278,0.08677196507515836,0.061135411193566615
1684180425910580100,7.59298046875,0.08281591523512247,0.11616230003896033,0.06143033505254751
1684180425920621700,7.603022216796875,0.09664145107423965,0.0650377273395792,0.15130245670212736
1684180425930663100,7.6130634765625,0.08433621384885626,0.06894397752776142,0.17865097524036794
1684180425940704600,7.62310498046875,0.10973945268373388,0.07518672948482182,0.23639452452521992
1684180425950746300,7.633146728515625,0.08986511831832278,0.1119318007490023,0.22963130470251816
1684180425960787600,7.64318798828125,0.0654896348901405,0.11038398739825755,0.26296627525856936
1684180425970829200,7.653229736328125,0.053060766350381504,0.14412784560565542,0.27905368800802494
1684180425980870800,7.663271240234375,0.03587242581699377,0.15844154364994675,0.24292182934370984
1684180425990912200,7.6733125,0.021073587262716145,0.12066459647139874,0.2753839493411906
1684180426000953800,7.683354248046875,0.0206099078766089,0.09755611415459155,0.26689362518298465
1684180426010995400,7.693395751953125,0.006365172430433879,0.10532283783252686,0.2721674443339008
1684180426021036600,7.70343701171875,-8.006393382500018e-05,0.06101512909328852,0.2507817746354913
1684180426031078300,7.713478759765625,-0.024695262325798835,0.0689706802210724,0.25680422779938805
1684180426041119600,7.72352001953125,-0.06246794756118545,0.06244564061409434,0.2052457332243424
1684180426051161300,7.733561767578125,-0.08238071211002486,0.029973983854110358,0.09976601606908246
1684180426061202900,7.743603271484375,-0.07292985903372882,0.037964821007575755,0.06867694845792374
1684180426071244200,7.75364453125,-0.015864178467701814,0.022214889515064146,0.061475753808519794
1684180426081285800,7.763686279296875,0.033949419990565596,0.016117095949109525,0.00025272382384340837
1684180426091327400,7.773727783203125,0.09085404128987733,0.02192020418177245,-0.012562990179490597
1684180426101368800,7.78376904296875,0.1288178862054946,0.03235435477483963,-0.06257760522407774
1684180426111410400,7.793810791015625,0.15967394418532554,0.05443668351857114,-0.07136154175987401
1684180426121451600,7.80385205078125,0.19041213406586274,0.09738922116611659,-0.12200677382838188
1684180426131493300,7.813893798828125,0.22533932327210823,0.08079147337655798,-0.12454199786439168
1684180426141534900,7.823935302734375,0.24076101193396124,0.11635017406121427,-0.14304816717102542
1684180426151576200,7.8339765625,0.2041861564092199,0.13728237144622452,-0.14425551896182243
1684180426161617800,7.844018310546875,0.21545581531604782,0.12489128121804638,-0.10773789870888854
1684180426171659400,7.854059814453125,0.2077729255255606,0.10326099386819967,-0.08835959442342986
1684180426181700800,7.86410107421875,0.18852423131486964,0.060814857507383864,-0.07387053975830705
1684180426191742400,7.874142822265625,0.14842848475678358,0.026202201933024413,-0.08983051788819067
1684180426201783600,7.88418408203125,0.09483918546556469,0.04167079922010444,-0.06511640545539692
1684180426211825300,7.894225830078125,0.042375296406125425,0.05931949619045458,-0.05441308006290003
1684180426221866900,7.904267333984375,0.012474417848461128,0.04371166231518547,0.005728483253233049
1684180426231908300,7.91430859375,0.0005262195897008398,0.06828498837509797,0.05763959892254601
1684180426241949900,7.924350341796875,0.02554112664648426,0.10408782945730162,0.1532075404804426
1684180426251991600,7.934391845703125,0.05675286043720082,0.1179800033396841,0.19063639643217298
1684180426262032800,7.94443310546875,0.12699842452872545,0.11280155187068946,0.22095441820943967
1684180426272074400,7.954474853515625,0.18087401991849192,0.08412075025638732,0.3216614722851627
1684180426282115800,7.96451611328125,0.22496467831361333,0.01567935962012239,0.32586765291594805
1684180426292157400,7.974557861328125,0.2139764725824473,-0.004797935426717992,0.32428646077049755
1684180426302199000,7.984599365234375,0.21397203197213313,-0.00634765625852725,0.274488210686145
1684180426312240300,7.994640625,0.17252761132639563,-0.00808620438754909,0.21968293199369374
1684180426322281900,8.004682373046874,0.09487438193775487,0.008913040291468003,0.09200906759885859
1684180426332323600,8.014723876953125,0.0006843804145924288,-0.04035949696633842,-0.015204429654447368
1684180426342364800,8.02476513671875,-0.08784866334688461,-0.03472805010540389,-0.10444474215395298
1684180426352406400,8.034806884765626,-0.19803321370500257,-0.07405471796581695,-0.20429098617908956
1684180426362448000,8.044848388671875,-0.2650596500907858,-0.06587600712829765,-0.24881362920520927
1684180426372489400,8.054889892578124,-0.34757512797122636,-0.07223892214065464,-0.3164865971519566
1684180426382531000,8.064931396484376,-0.3883278965875181,-0.12345886220369962,-0.3899693489964562
1684180426392572300,8.07497265625,-0.40447664268814687,-0.19285488118997465,-0.4547759293806386
1684180426402613900,8.085014404296874,-0.41299223900388,-0.2093391418337996,-0.5267056227197727
1684180426412655600,8.095055908203125,-0.40944457055717054,-0.25603961947229914,-0.5907619000425512
1684180426422696900,8.10509716796875,-0.4036570191238656,-0.29938125621676964,-0.6088275907969793
1684180426432738600,8.115138916015624,-0.4240370393512576,-0.3441438676433422,-0.6028304101123674
1684180426442780100,8.125180419921875,-0.4161940813246677,-0.33392333996169626,-0.5712903738949099
1684180426452821400,8.135221923828125,-0.3740111589290633,-0.2650794982011234,-0.5530676841477162
1684180426462863000,8.145263427734376,-0.3502355813062983,-0.20948219299960816,-0.4951263665300714
1684180426472904400,8.1553046875,-0.31231796743410023,-0.23058414456253204,-0.493139147794297
1684180426482946000,8.165346435546875,-0.2612205743812395,-0.25640010823641857,-0.4943841695953876
1684180426492987600,8.175387939453126,-0.26117718215269636,-0.2560758590971623,-0.5148034094564168
1684180426503028900,8.18542919921875,-0.23137569444888828,-0.2817878722476345,-0.45034205922744047
1684180426513070600,8.195470947265624,-0.2847324609734344,-0.2625904083150539,-0.4015389679455021
1684180426523112100,8.205512451171876,-0.32516205304734763,-0.2793922425283709,-0.3471752406000393
1684180426533153500,8.215553955078125,-0.3859257697575723,-0.2680320740320008,-0.32036221038279367
1684180426543195100,8.225595458984374,-0.4270418883496288,-0.24297714242764384,-0.3414252996117112
1684180426553236400,8.23563671875,-0.4162098168389823,-0.23967647552214713,-0.3199125528275799
1684180426563278000,8.245678466796875,-0.42176413528487544,-0.21355915071374457,-0.3456598520916694
1684180426573319600,8.255719970703124,-0.4451220036141093,-0.16352462760362743,-0.361333727930308
1684180426583360900,8.26576123046875,-0.41729831703282394,-0.1851463317647462,-0.34096133708722426
1684180426593402600,8.275802978515625,-0.3840131759328746,-0.18985176096179793,-0.29189634315484697
1684180426603444100,8.285844482421876,-0.3316025733168024,-0.22539901735835519,-0.2480579614974955
1684180426613485600,8.295885986328125,-0.288851499541725,-0.236856460597436,-0.2099916935311241
1684180426623527100,8.305927490234374,-0.270252823927068,-0.20045852657101662,-0.17823517309514808
1684180426633568400,8.31596875,-0.24954092496121733,-0.21655654908517408,-0.20753037919040324
1684180426643610000,8.326010498046875,-0.20280718800494976,-0.19658374772527729,-0.20667779452542065
1684180426653651600,8.336052001953124,-0.16569340222991027,-0.17404842373980986,-0.2113628388801525
1684180426663693000,8.34609326171875,-0.09729659539178026,-0.11083698269354003,-0.18123829355710122
1684180426673734600,8.356135009765625,-0.07658255094893669,-0.021420478734914535,-0.18118023866303978
1684180426683776200,8.366176513671874,-0.022641301290506965,0.04896259307810709,-0.22011744976650222
1684180426693817600,8.376218017578125,0.0021638869792634323,0.11993885040975152,-0.2863020897904593
1684180426703859100,8.386259521484375,-0.0019091367934474265,0.12230300898742757,-0.25033211698507923
1684180426713900500,8.39630078125,-0.043825745564923725,0.1275911329995022,-0.23517429837853293
1684180426723942100,8.406342529296875,-0.08933806409821475,0.10455131529468172,-0.21720540517993545
1684180426733983600,8.416384033203125,-0.15458929541388428,0.10083961486443924,-0.18722784515236043
1684180426744025000,8.42642529296875,-0.21037948134508658,0.08999252317573381,-0.19805693622604098
1684180426754066600,8.436467041015625,-0.25509047500560816,0.06148910522135264,-0.17322278020901116
1684180426764108000,8.44650830078125,-0.29179894935836753,0.04747676854234046,-0.17502534390916297
1684180426774149600,8.456550048828126,-0.3272776603941612,0.03352260589693369,-0.16057455538874624
1684180426784191200,8.466591552734375,-0.35196804995167497,-0.02044010163122211,-0.11603856092691402
1684180426794232600,8.4766328125,-0.35881567011392185,0.00406074525158817,-0.10015368466318747
1684180426804274100,8.486674560546875,-0.38367927067909297,0.011765480119265153,-0.12103068833265403
1684180426814315600,8.496716064453125,-0.4096868037546884,0.010301590074379677,-0.14359450333641655
1684180426824357000,8.50675732421875,-0.43444073183115284,-0.023824691698074756,-0.07409882545985315
1684180426834398600,8.516799072265625,-0.4510024787292275,-0.0550022126309831,-0.028386473690595507
1684180426844440000,8.52684033203125,-0.4713146686305097,-0.05518913269316318,-0.013906717201135534
1684180426854481600,8.536882080078126,-0.4622315169670438,-0.10731601711818285,-0.08186852939663837
1684180426864523200,8.546923583984375,-0.4452168941821612,-0.1564121246300569,-0.11786341679939549
1684180426874564600,8.55696484375,-0.41796278952883115,-0.19076728821287325,-0.16471409809540036
1684180426884606100,8.567006591796876,-0.36890888196340865,-0.20113086684794376,-0.2265840767604989
1684180426894647500,8.5770478515625,-0.3433148859958474,-0.19483661641680394,-0.29798591128200175
1684180426904689100,8.58708935546875,-0.30821466440679485,-0.1650724412644512,-0.3696047068176305
1684180426914730600,8.597131103515625,-0.2876520156623325,-0.14046669004674142,-0.4275882244062962
1684180426924772000,8.60717236328125,-0.2887325287129888,-0.12797927858999736,-0.48887586604535416
1684180426934813600,8.617214111328124,-0.2924699782532757,-0.1438808440510768,-0.5347679852542516
1684180426944855200,8.627255615234375,-0.30118155480580155,-0.14293289185811978,-0.5512235164290616
1684180426954896600,8.637296875,-0.29823517793256904,-0.13015270231577156,-0.5670440196572628
1684180426964938200,8.647338623046876,-0.24900317191225266,-0.10570526130691699,-0.5426551103822712
1684180426974979600,8.6573798828125,-0.1900038719283078,-0.029603958226508312,-0.5302271842639825
1684180426985021100,8.66742138671875,-0.11918044079881737,0.06701564786062127,-0.5185432434272005
1684180426995062600,8.677463134765626,-0.03455758099061461,0.10851097099776091,-0.3969807625262196
1684180427005104000,8.68750439453125,0.05418491377185574,0.19218730916033389,-0.22701275355148307
1684180427015145600,8.697546142578124,0.10449814787582289,0.2537059783968067,-0.11128878598232232
1684180427025187200,8.707587646484376,0.17386913304809026,0.3192892074797345,0.02194392674811901
1684180427035228600,8.71762890625,0.23152375215936405,0.346466064363023,0.16064798829741808
1684180427045270200,8.727670654296874,0.28451871882151025,0.38531684879962347,0.28561353682145585
1684180427055311600,8.7377119140625,0.349149703981691,0.4309520720784142,0.39911222454794004
1684180427065353100,8.74775341796875,0.40358245374735935,0.4903612136797147,0.49620532989300264
1684180427075394700,8.757795166015624,0.4243755342337029,0.5444412231000788,0.5697416068372152
1684180427085436100,8.76783642578125,0.42364263533922664,0.5344476700573129,0.6223099232891284
1684180427095477600,8.777878173828125,0.3901849986081888,0.4967088700543057,0.64719641206077
1684180427105519000,8.78791943359375,0.3339715003472877,0.42458057406396144,0.6516994237633247
1684180427115560600,8.7979609375,0.29077684887287825,0.3915348054781234,0.635828733427417
1684180427125602200,8.808002685546874,0.21578466900011528,0.3238649368775639,0.5996979475927086
1684180427135643600,8.8180439453125,0.12394881265257873,0.2809181213579893,0.5294568540165525
1684180427145685200,8.82808544921875,-0.009912252349590185,0.2763013839633906,0.4374642371296549
1684180427155726800,8.838127197265624,-0.13043212897555334,0.26453399665863736,0.3947074413166585
1684180427165768100,8.84816845703125,-0.2538726329686084,0.23855495467290672,0.40498900409697064
1684180427175809600,8.858210205078125,-0.36345028894050896,0.22916316987012406,0.3968707322471632
1684180427185851100,8.86825146484375,-0.4661524297104438,0.1890354157134579,0.4183468817305318
1684180427195892600,8.87829296875,-0.5594499111313356,0.16816139214060064,0.38711810121827644
1684180427205934300,8.888334716796875,-0.5987567900458358,0.123903274598344,0.40092599391507033
1684180427215975600,8.8983759765625,-0.6299924852215737,0.08973121654504525,0.37694203848991925
1684180427226017200,8.90841748046875,-0.6439237595131819,0.060783386312235566,0.33230566995070404
1684180427236058600,8.918458984375,-0.6266756056741201,0.06754302978367666,0.2860167025806416
1684180427246100100,8.92850048828125,-0.6093664170564863,0.0646820068213287,0.2357453107887823
1684180427256141700,8.938542236328125,-0.60572743430362,0.05464744577190478,0.1557593345390042
1684180427266183100,8.94858349609375,-0.6034698486690969,0.05875205982167831,0.12697398666777676
1684180427276224600,8.958625,-0.6235663891416423,0.04846858973960366,0.1179348230507057
1684180427286266300,8.968666748046875,-0.6136407851391934,0.02863216399608968,0.09492599961089855
1684180427296307600,8.9787080078125,-0.6258835792804793,-0.010113716104724094,0.07893729213164673
1684180427306349200,8.98874951171875,-0.6225943565135316,-0.022724151642858664,0.07178354281089956
1684180427316390600,8.998791015625,-0.6397888661253324,-0.04474639897919454,0.03154134742740944
1684180427326432200,9.00883251953125,-0.6564354895133402,-0.10649108875417634,0.015423417049964586
1684180427336473800,9.018874267578123,-0.6725735665753656,-0.1578922270182757,0.006339311468255331
1684180427346515100,9.02891552734375,-0.6671650409409514,-0.1613731384529722,0.002081990088451877
1684180427356556600,9.03895703125,-0.6570355890935268,-0.14130592344663984,0.0259717703434865
1684180427366598300,9.048998779296875,-0.6164224146541017,-0.08156585703132235,0.04235923297345482
1684180427376639600,9.0590400390625,-0.562585115269097,-0.006342887715678999,0.060532212102188024
1684180427386681300,9.06908154296875,-0.5076370240150982,0.05113410958073316,0.10378289218638678
1684180427396722600,9.079123046875,-0.44939351079800893,0.08172798164852596,0.14083015916579653
1684180427406764200,9.08916455078125,-0.4303414820705043,0.15180683132721146,0.1999733447625589
1684180427416805800,9.099206298828124,-0.4098236561121071,0.192413330173751,0.2265354395380379
1684180427426847200,9.10924755859375,-0.38101196290995004,0.17583084122374187,0.23048496262381998
1684180427436888800,9.1192890625,-0.3535599708407519,0.15955257419363095,0.24292576318289164
1684180427446930400,9.129330810546875,-0.2735579015189498,0.11551570881267169,0.1844364404995965
1684180427456971600,9.1393720703125,-0.2222304343408831,0.05609321592376065,0.0731109380463469
1684180427467013300,9.14941357421875,-0.16615509991175223,0.028742790342049383,-0.04717266570355316
1684180427477054600,9.159455078125,-0.1594469546804764,-0.01642227173335128,-0.15679776677623875
1684180427487096200,9.16949658203125,-0.13988637906475004,-0.041339874392049315,-0.29519236092491263
1684180427497137800,9.179538330078126,-0.19434571280661841,-0.06762790685460905,-0.31351721281290307
1684180427507179200,9.18957958984375,-0.27661418917760555,-0.14714813232966847,-0.38583517088151276
1684180427517220800,9.19962109375,-0.3463922738609928,-0.21560287469006736,-0.35216248029675434
1684180427527262400,9.209662841796876,-0.38779270645856456,-0.29213714609464203,-0.3284034727878296
1684180427537303700,9.2197041015625,-0.41138422492206184,-0.37907218944254056,-0.3039410114243075
1684180427547345300,9.229745849609374,-0.3705593346571555,-0.4621925353435686,-0.27000010016108733
1684180427557386600,9.239787109375,-0.3062710761642099,-0.5344877243182412,-0.23587739469811345
1684180427567428300,9.24982861328125,-0.2255524396051778,-0.5701532362493741,-0.19581031805846832
1684180427577469900,9.259870361328124,-0.11647474766435666,-0.6073389052459417,-0.1580200196616767
1684180427587511200,9.26991162109375,-0.04024100320661334,-0.5376939773596823,-0.1381828785584278
1684180427597552800,9.279953125,-0.002615809544924547,-0.4596862793097625,-0.11016201966224655
1684180427607594400,9.289994873046876,0.040029764162151614,-0.30536174783880454,-0.1168454884983504
1684180427617635800,9.3000361328125,0.07828462118390864,-0.08541488634075356,-0.1788139342894302
1684180427627677400,9.310077880859374,0.12180459498837001,0.19434833535567916,-0.2456030844755054
1684180427637718600,9.320119140625,0.1443908214010044,0.44585895541421633,-0.2324274778343071
1684180427647760300,9.33016064453125,0.2351952792937503,0.5471811293953798,-0.190714717002294
1684180427657801900,9.340202392578124,0.32878434665982587,0.6043891907014834,-0.13354480279901357
1684180427667843200,9.35024365234375,0.43592011930450403,0.5546741484349604,-0.05493307119190182
1684180427677884800,9.36028515625,0.5175334213963209,0.4398612975394242,0.043795347278588304
1684180427687926400,9.370326904296874,0.510025262825607,0.352808952428723,0.12175309643467777
1684180427697967800,9.3803681640625,0.40784895432051166,0.28835487376216146,0.11366915706370906
1684180427708009400,9.390409912109376,0.27916634081692615,0.1895751953339953,0.10152363788283722
1684180427718050700,9.400451171875,0.14898788927591125,0.10888481143106402,0.03023707859142824
1684180427728092300,9.41049267578125,0.032744169199090734,0.022450446961494345,-0.043831467558186704
1684180427738133900,9.420534423828125,-0.04307210441622171,-0.013029098635708024,-0.12646389001395855
1684180427748175300,9.43057568359375,-0.05964660649512107,-0.06437110898820236,-0.12553823008290377
1684180427758216900,9.4406171875,-0.01773643493617586,-0.08668041234200755,-0.16771602622591303
1684180427768258200,9.45065869140625,0.10034465789787231,-0.14886474601592928,-0.1521512270540394
1684180427778299800,9.4607001953125,0.30014640090472183,-0.17037963862412198,-0.10927247998927976
1684180427788341400,9.470741943359377,0.50255626439005,-0.21160602567048262,-0.12978613365996686
1684180427798382800,9.480783203125,0.740693449810233,-0.10772037510920099,-0.09608411789062483
1684180427808424400,9.49082470703125,0.9199668765118809,0.1365594864441692,-0.23363876345497633
1684180427818466000,9.500866455078125,1.0348799230252392,0.28966331486079283,-0.31311702725573004
1684180427828507300,9.51090771484375,1.1375343799760826,0.32094860069137887,-0.32674586774558734
1684180427838548900,9.52094921875,1.1607428790157321,0.33100605012395384,-0.3393175602094792
1684180427848590300,9.53099072265625,1.1307410002280596,0.401187896602392,-0.3286737203127101
1684180427858631900,9.5410322265625,1.0171126127878825,0.29947090145067584,-0.21688842776918427
1684180427868673500,9.551073974609375,0.8613698483665349,0.17864227292086893,-0.10919356339101517
1684180427878714800,9.561115234375,0.6546168923051386,0.06963920599248881,-0.018018960908282488
1684180427888756400,9.57115673828125,0.39944881200586585,0.0060625076395797554,0.036495804725380956
1684180427898797700,9.5811982421875,0.1393926738137466,-0.1028718947107693,0.11488270747981114
1684180427908839300,9.59123974609375,-0.09585815664430372,-0.11863327022075106,0.14538550364638883
1684180427918880900,9.60128125,-0.27185404317103057,-0.09644889827118433,0.10902571669540248
1684180427928922300,9.61132275390625,-0.38477915525201656,-0.05326366418833693,0.0629644393340658
1684180427938963900,9.6213642578125,-0.39259725796949557,0.01066017158018768,-0.034277439283740246
1684180427949005600,9.631406005859375,-0.2870157955570958,0.04993820193499511,-0.22272908677650574
1684180427959046800,9.641447265625,-0.10811716309341829,0.005045890752713414,-0.4131832123223803
1684180427969088400,9.65148876953125,0.09282770752998488,0.02675914750077585,-0.6031734943285095
1684180427979129800,9.6615302734375,0.3067656458186749,0.017182350050716232,-0.7541533112702682
1684180427989171400,9.67157177734375,0.4884127079373647,0.031350135850100574,-0.8955023289789386
1684180427999213000,9.68161328125,0.6548764706784644,0.13375663748447048,-0.9390726684456984
1684180428009254300,9.69165478515625,0.7786973118524387,0.19324588771843731,-1.0024430751035118
1684180428019295900,9.7016962890625,0.8572015762907463,0.20052719126891314,-0.9605413674346404
1684180428029337300,9.711737548828124,0.8645310401590494,0.20584297172662083,-0.8232525587899159
1684180428039378900,9.721779296875,0.8734478949610835,0.14463806151172495,-0.6674078107183938
1684180428049420500,9.73182080078125,0.8994925023649709,0.07425117499588839,-0.4744750260626654
1684180428059461800,9.7418623046875,0.935899853690195,-0.0030717850574569433,-0.2717018127116631
1684180428069503400,9.75190380859375,0.9587014317078646,-0.030034065148690465,-0.06411719333928959
1684180428079545000,9.7619453125,0.9651615618187094,0.009901046710844307,0.08335042018500725
1684180428089586400,9.77198681640625,0.9858958124353797,0.059254646335033107,0.21615278715400119
1684180428099628000,9.7820283203125,0.9794244766838587,0.10130405430286901,0.35100865353571753
1684180428109669300,9.792069580078126,0.9379643202075836,0.12405490868053529,0.5065033436618155
1684180428119710900,9.802111328125,0.873458325764261,0.10594463332640737,0.5672829151763288
1684180428129752600,9.81215283203125,0.8052694201123796,0.06841754903918192,0.7023072242117385
1684180428139793800,9.8221943359375,0.7338598966681631,0.05911922465014333,0.7958780527788983
1684180428149835400,9.83223583984375,0.6765651107618967,0.12810516361901517,0.8552105425298571
1684180428159876800,9.842277099609374,0.6530682443996815,0.15098285689219512,0.832628965400142
1684180428169918400,9.85231884765625,0.6611967683871464,0.14937877653351944,0.7905970813087966
1684180428179960000,9.8623603515625,0.6771624682591756,0.15917682650741413,0.6169619561496655
1684180428190001300,9.872401611328126,0.6749373077992248,0.1589488984047836,0.41055011731124724
1684180428200042900,9.882443359375,0.6784042716733679,0.08679103851251177,0.17477619652345286
1684180428210084600,9.89248486328125,0.6583886743221223,0.07677078244649066,-0.07268321508602027
1684180428220125900,9.9025263671875,0.5904491543405359,-0.009650230419278854,-0.17824149132651762
1684180428230167600,9.91256787109375,0.5389522313982449,0.0021600722530671075,-0.24433279029282054
1684180428240208800,9.922609130859374,0.4589552285244592,-0.007369995053854352,-0.294506549773337
1684180428250250400,9.93265087890625,0.4397788940911896,-0.007078170798237123,-0.22826015950221276
1684180428260292000,9.9426923828125,0.4555698335291,-0.03522205339631069,-0.14399015891235517
1684180428270333400,9.952733642578124,0.4990885257186834,-0.008217811540899568,-0.015967130735740503
1684180428280375000,9.962775390625,0.5390563012240617,-0.026549339443080047,0.033639788714042065
1684180428290416300,9.972816650390625,0.5797046423884837,0.0006084441684457278,0.12423014624050643
1684180428300457900,9.9828583984375,0.6233014464918352,0.003856658979829092,0.21013188365806257
1684180428310499600,9.99289990234375,0.643240213547409,-0.009651184077032516,0.26473045347231855
1684180428320540800,10.002941162109376,0.6277585624954121,-0.04706859571540485,0.3165880440531024
1684180428330582400,10.01298291015625,0.6411579847035374,-0.04865264911103956,0.35128223894796695
1684180428340624000,10.0230244140625,0.633016884450987,-0.06945323937441727,0.37347805502504133
1684180428350665400,10.033065673828125,0.5935679674861258,-0.06167602529108849,0.38079690946148076
1684180428360707000,10.043107421875,0.5658994912695438,-0.00864887233072678,0.3543088437830832
1684180428370748300,10.053148681640623,0.5456677079087046,0.013127326938825281,0.2559965847046421
1684180428380789900,10.0631904296875,0.53331351277641,0.03968429582024038,0.17262876043685904
1684180428390831600,10.07323193359375,0.533767819370305,0.04954719555795228,0.15680336948590706
1684180428400872900,10.083273193359377,0.5039055347349283,0.03318977347537275,0.1318571566943745
1684180428410914600,10.09331494140625,0.4962749183508755,-0.011693954455754574,0.1575818062418767
1684180428420956100,10.1033564453125,0.4604381323736935,-0.008708953878392236,0.1450365782309329
1684180428430997400,10.113397705078125,0.4355896414537953,-0.038571357677349594,0.13083541390439302
1684180428441039000,10.123439453125,0.40213531240806205,-0.051423072875298,0.12887072563644258
1684180428451080400,10.133480712890623,0.37913259859799375,-0.06164073948645092,0.10373723508582215
1684180428461122000,10.1435224609375,0.37634700541831834,-0.05045413961468965,0.08856570725543997
1684180428471163600,10.15356396484375,0.37023749954763124,-0.0770730970940639,0.02895772461577736
1684180428481204900,10.163605224609377,0.4079959691472668,-0.074839591937814,-0.022048831009952335
1684180428491246600,10.17364697265625,0.417900055614875,-0.03481769559102824,-0.019808411667449084
1684180428501288100,10.1836884765625,0.44471544025638904,-0.007137298593976656,0.001615524358211061
1684180428511329500,10.193729736328123,0.46670493482830555,-0.015079498228006714,0.009257793344805186
1684180428521371100,10.203771484375,0.4650474487729724,-0.029800415029807802,0.048096060650786886
1684180428531412400,10.213812744140624,0.48008877051339777,0.005275726425805662,0.08446502669235129
1684180428541454000,10.2238544921875,0.48783475157798434,0.023408889673254645,0.09259772293537406
1684180428551495600,10.23389599609375,0.4806705713584348,0.02959918981777727,0.10613942149987175
1684180428561536900,10.243937255859375,0.4839846492327258,0.06637573248993524,0.1626620292375987
1684180428571578600,10.25397900390625,0.4499663113274401,0.10012054433211105,0.21379363525188866
1684180428581620100,10.2640205078125,0.33883535867725845,0.14735126493235476,0.20085906990644845
1684180428591661600,10.274061767578123,0.2342467905348796,0.13490581510634628,0.21465086931392688
1684180428601703100,10.284103515625,0.11015355585249295,0.1178560258176008,0.20969080917442115
1684180428611744400,10.294144775390626,-0.05374515055233474,0.06095027933484156,0.18610203273776268
1684180428621786000,10.3041865234375,-0.225426048191258,0.012033462623526331,0.08794331551351266
1684180428631827600,10.31422802734375,-0.3753388823009278,-0.057153701812324514,-0.012694835793671855
1684180428641869000,10.324269287109376,-0.4863727092206781,-0.10617256158455192,-0.08277869221093757
1684180428651910600,10.33431103515625,-0.5653238297380302,-0.10469150541044835,-0.12755632397042438
1684180428661952200,10.3443525390625,-0.5858165621459084,-0.11004543293595488,-0.10069572939022309
1684180428671993600,10.354393798828124,-0.5668361185672517,-0.07262039173108154,-0.029289722597997343
1684180428682035100,10.364435546875,-0.45977333185655817,-0.06851768487584914,0.04804539694357224
1684180428692076500,10.374476806640626,-0.34774702793956974,-0.0431327819639808,0.14775419240284446
1684180428702118100,10.3845185546875,-0.2462027071977249,-0.029828071652896786,0.21785688405753315
1684180428712159600,10.39456005859375,-0.146022826427613,0.004496574377203425,0.3363727330370596
1684180428722201000,10.404601318359376,-0.05926191798757457,0.009900093160184652,0.38180255887881104
1684180428732242600,10.41464306640625,0.0023262500943794363,0.041040420606329675,0.42147445671065786
1684180428742284200,10.4246845703125,0.06683516485717184,0.05751514445743684,0.43001794815416483
1684180428752325600,10.434725830078126,0.10799324516209227,0.10656356812857871,0.44293928161026885
1684180428762367200,10.444767578125,0.13509172193909644,0.17113494875506735,0.441358447126638
1684180428772408600,10.454808837890624,0.11772388227952472,0.19679546355845307,0.40894567960973655
1684180428782450100,10.4648505859375,0.06158405529177259,0.2502202988977212,0.3866850136703692
1684180428792491600,10.47489208984375,0.03325814002744795,0.24858665461781437,0.39108026038847515
1684180428802533000,10.484933349609374,-0.03328585633085725,0.2352495193531012,0.3912832737005706
1684180428812574600,10.49497509765625,-0.0920858381673799,0.2198743818605573,0.3803566695326641
1684180428822616200,10.5050166015625,-0.12398940328064947,0.18131923678931536,0.3560383319502746
1684180428832657600,10.51505810546875,-0.14574956890367194,0.16707706435641148,0.3633126020320561
1684180428842699200,10.525099609375,-0.12714129675546365,0.1296319959864289,0.3851386309202689
1684180428852740600,10.535140869140625,-0.11609977482681585,0.1069507598882722,0.406776785675332
1684180428862782100,10.5451826171875,-0.0868986845475049,0.11057472230368524,0.397831082312022
1684180428872823600,10.55522412109375,-0.07790976768515712,0.13533973696402937,0.4059535264191601
1684180428882865100,10.565265380859374,-0.11272138350464855,0.18322753920019982,0.3956406115155197
1684180428892906600,10.57530712890625,-0.14571100488912062,0.19740962978072174,0.4027330875128307
1684180428902948300,10.5853486328125,-0.176376402255093,0.20671939848713647,0.4221544265757724
1684180428912989600,10.59539013671875,-0.21368497611988096,0.31488132475261965,0.40200805666226974
1684180428923031200,10.605431640625,-0.20287543531811847,0.22358226770663292,0.441434502592993
1684180428933072600,10.615472900390625,-0.18442648661601127,0.19756603247693189,0.4480019807645692
1684180428943114200,10.6255146484375,-0.15397566543573202,0.1744766236591165,0.49267446999416253
1684180428953155800,10.63555615234375,-0.12831878675219985,0.133040428107693,0.49463570127628564
1684180428963197100,10.645597412109376,-0.09838908910151661,0.13470458989262088,0.4991898536684446
1684180428973238600,10.65563916015625,-0.10040789853437555,0.12450695042231287,0.48027944560149705
1684180428983280300,10.6656806640625,-0.13451820621661176,0.12145233172300994,0.4714533091431224
1684180428993321600,10.67572216796875,-0.15130406622284226,0.18185806270995838,0.41601550588616865
1684180429003363200,10.685763671875,-0.2779689431168696,0.17526054382592265,0.3574401138458754
1684180429013404600,10.695804931640623,-0.394282162339009,0.17818260198500177,0.2982215881764954
1684180429023446200,10.7058466796875,-0.4971598385361299,0.11991024016619796,0.2124055624376552
1684180429033487800,10.71588818359375,-0.5954997538942167,0.013369560200878264,0.11254334450004387
1684180429043529100,10.725929443359377,-0.6135461330639759,-0.01590347288698325,0.03609585777293438
1684180429053570700,10.73597119140625,-0.6136857866963566,-0.025773048334604833,0.005731940359775773
1684180429063612300,10.7460126953125,-0.5704879759507336,0.011679649382204636,-0.012232065138856038
1684180429073653600,10.75605419921875,-0.541400313315042,0.11684608453082435,-0.01793277271362402
1684180429083695300,10.766095703125,-0.5075954794251102,0.12850570678465342,0.0944725275556894
1684180429093736600,10.776136962890623,-0.47879073035143216,0.07889080045086636,0.24107241634898266
1684180429103778200,10.7861787109375,-0.46967279900719916,0.044217109702517465,0.43974137300497096
1684180429113819800,10.79622021484375,-0.4732959271037494,0.11355495453825858,0.597285628351323
1684180429123861200,10.806261474609377,-0.46315687910027836,-0.0514640809111626,0.7895313500440362
1684180429133902800,10.81630322265625,-0.45242267849739387,-0.05361080171426866,0.8796101807283921
1684180429143944100,10.826344482421876,-0.3998728991590881,-0.07211875930744706,0.9723055364183311
1684180429153985600,10.83638623046875,-0.3665954469268396,-0.059601783762912496,0.9918700455436583
1684180429164027300,10.846427734375,-0.32647496464230785,-0.00013256074385310904,0.9581878185263335
1684180429174068600,10.856468994140624,-0.2660197615959496,-0.028742790359498317,0.9285912513176392
1684180429184110300,10.8665107421875,-0.19959872961266018,-0.08507633196337205,0.8513461352476014
1684180429194151900,10.87655224609375,-0.09148067243521106,-0.1049871444957358,0.7817476988625954
1684180429204193200,10.886593505859375,0.09346508981853364,-0.16677570342981604,0.7381706236479584
1684180429214234800,10.89663525390625,0.29481220235944583,-0.22048664094664003,0.6746534109225093
1684180429224276100,10.906676513671876,0.4162549972927536,-0.3112230300330738,0.6054260731054728
1684180429234317700,10.91671826171875,0.5272922515609313,-0.35376548775822597,0.47940671447661465
1684180429244359300,10.926759765625,0.5482637882614335,-0.24304008482987924,0.31493568423506985
1684180429254400600,10.936801025390626,0.5674548147926072,-0.20270156848561457,0.1680775881420888
1684180429264442300,10.9468427734375,0.6099448203637687,-0.2548561096068888,0.07447516931506898
1684180429274483900,10.95688427734375,0.6159855127481505,-0.3224687574776353,0.028344273602896927
1684180429284525200,10.966925537109375,0.666881442109133,-0.38875961302922774,-0.06539928921404714
1684180429294566800,10.97696728515625,0.725934743916372,-0.5549898147336666,-0.13262164587586914
1684180429304608400,10.9870087890625,0.753781676287097,-0.7654800414203127,-0.2157864571627306
1684180429314649800,10.99705029296875,0.737071871732891,-0.8032102584770009,-0.2912921905683758
1684180429324691400,11.007091796875,0.5860261918840215,-0.7702569963207241,-0.2636616228892677
1684180429334732600,11.017133056640626,0.36792480949256195,-0.6847705840629179,-0.27670121191326236
1684180429344774300,11.0271748046875,0.08875715723570986,-0.4683961867627958,-0.3370622397504923
1684180429354815900,11.03721630859375,-0.21079015725864786,-0.41949272158811945,-0.20223188389449293
1684180429364857300,11.047257568359376,-0.4653823970536579,-0.2844476700021205,-0.021054744728303963
1684180429374898900,11.05729931640625,-0.641604006236562,-0.06837749475414917,0.11711168282757603
1684180429384940500,11.0673408203125,-0.8054823876971484,0.03266620639758612,0.2423654794066189
1684180429394981800,11.07738232421875,-0.8649320603296909,0.188602447625635,0.27512681489416946
1684180429405023400,11.087423828125,-0.9386954306726595,0.19150543208955362,0.4342322350173004
1684180429415064800,11.097465087890624,-1.0506656170196438,0.31399822235750974,0.4732782841010578
1684180429425106400,11.1075068359375,-1.2056908608202543,0.40533542619815033,0.6338466405460599
1684180429435148000,11.11754833984375,-1.374533414861217,0.42260932915935207,0.8435571193276935
1684180429445189300,11.127589599609376,-1.5509610176778166,0.43297100071949146,0.9990342857216459
1684180429455230900,11.13763134765625,-1.6538243292841008,0.4174585341914142,1.0874828099848044
1684180429465272200,11.147672607421876,-1.7307546140233943,0.3380422591767997,1.1342772245202064
1684180429475313800,11.15771435546875,-1.8421618938410378,0.185444831913216,1.1159001588694462
1684180429485355400,11.167755859375,-2.1089169980848124,0.043581008919136716,1.0007627009531057
1684180429495396800,11.177797119140624,-2.42035102847595,-0.15917301187869579,0.8482301234801497
1684180429505438400,11.1878388671875,-2.763313054977782,-0.32477283465735285,0.5738130809189343
1684180429515480000,11.19788037109375,-3.042159795857499,-0.4726505279895989,0.3283168077795169
1684180429525521300,11.207921630859374,-3.088581561996707,-0.5340852736237224,0.0917299986175641
1684180429535562900,11.21796337890625,-2.9399003984242085,-0.5650959013456354,-0.19848060623120148
1684180429545604300,11.228004638671877,-2.6268808839960758,-0.47118186951077795,-0.5241686105211939
1684180429555645900,11.23804638671875,-2.305757760972009,-0.37274742126611426,-0.9348474144316856
1684180429565687500,11.248087890625,-2.089390754690867,-0.3589744568227684,-1.0968812705691933
1684180429575728800,11.258129150390625,-1.8468030690213286,-0.5094738006911141,-1.2801798583916453
1684180429585770400,11.2681708984375,-1.8047053813999072,-0.715002060056199,-1.52902472018502
1684180429595812000,11.27821240234375,-1.283128261546068,-0.8982057570619786,-1.422573804928284
1684180429605853400,11.288253662109376,-0.6343753337079082,-1.1277980804738232,-1.07813119900208
1684180429615895000,11.29829541015625,0.28680241099144244,-1.3881349564357561,-0.5932031869707708
1684180429625936300,11.308336669921877,1.1545786857169653,-1.6048107146592925,-0.26505315311534006
1684180429635977900,11.31837841796875,1.9334958790999175,-1.883826255831682,0.047232150951692906
1684180429646019600,11.328419921875,2.5830304622457567,-2.3037157059739206,0.3087905644114087
1684180429656060800,11.338461181640625,3.2325339315492094,-2.6889123917495086,0.5557229518690101
1684180429666102400,11.3485029296875,3.7880945204892265,-2.8928403855925686,0.7442024945866429
1684180429676144000,11.35854443359375,4.288792610342101,-2.8817205429476482,0.8504567145932828
1684180429686185400,11.368585693359377,4.407061576785585,-2.4410352705467604,0.49168920521900644
1684180429696227000,11.37862744140625,4.501835822924271,-1.9536771775050197,0.6283819674870825
1684180429706268300,11.388668701171875,4.58542203897469,-1.2365560531400448,0.85381889348754
1684180429716309900,11.39871044921875,4.5657329560997795,-0.3788156509412028,0.7717113496197968
1684180429726351600,11.408751953125,4.15972805033106,0.3247051238871171,0.405889749486593
1684180429736392900,11.418793212890623,3.9422578811421034,0.4737882612841428,0.38949680336385295
1684180429746434600,11.4288349609375,3.556482076577875,0.30415630334865923,0.042886257204408175
1684180429756476100,11.43887646484375,3.3216583728811866,0.6018600463482059,-0.43739998356725
1684180429766517400,11.448917724609377,2.7869129181433014,1.0652151106973962,-0.8053631783760151
1684180429776559000,11.45895947265625,1.9654883145790962,1.5198311806615612,-0.938300013611759
1684180429786600400,11.469000732421875,1.2901374100890135,1.9018583298404022,-0.8814483881473667
1684180429796642000,11.47904248046875,1.462059736217401,1.991285800955232,-0.9341918229336212
1684180429806683600,11.489083984375,2.315699100486743,1.8469305038087054,-1.5219581128239543
1684180429816724900,11.499125244140624,3.2137429714450705,1.613198280349848,-2.3945512772243487
1684180429826766600,11.5091669921875,3.710627078945833,1.2466979026847569,-3.002679347975246
1684180429836808100,11.51920849609375,3.637548446711056,0.9479598999107219,-3.099814653443897
1684180429846849500,11.529249755859375,2.913274765119958,0.5994243622586881,-2.8408775330401936
1684180429856891100,11.53929150390625,0.9629869461609145,0.459532737821613,-1.8144538402468466
1684180429866932400,11.549332763671876,-2.1549441815780224,0.4290990829231754,0.007822275057342246
1684180429876974000,11.55937451171875,-6.768600463754738,-0.1390008926545275,2.864098071878891
1684180429887015600,11.569416015625,-8.663511276186384,-1.198097228951824,4.831161975816214
1684180429897056900,11.579457275390626,-3.937505722123537,-1.308464050163417,1.962595462765782
1684180429907098600,11.5894990234375,0.00489950166121481,-1.8226871490929095,-0.2613193989900022
1684180429917140100,11.59954052734375,2.85043787972307,-1.9196147918369386,-1.602711200847244
1684180429927181600,11.609581787109375,3.412363052388855,-1.5259027480508953,-1.9744377137290623
1684180429937223100,11.61962353515625,2.4747841357717038,-1.3504590987218041,-1.8234977721654058
1684180429947264400,11.629664794921876,0.6582119465182202,-1.2127866743995006,-1.5234160424075809
1684180429957306000,11.63970654296875,-0.2863171101160598,-0.8374624252254519,-1.9007916450492055
1684180429967347600,11.649748046875,0.1312682628279344,-0.15197181709543392,-3.235778331880295
1684180429977389000,11.659789306640626,0.3842852116896842,0.19011211401114236,-4.460763931173999
1684180429987430600,11.6698310546875,-0.19287109377909045,0.255539894048052,-4.956387519831876
1684180429997472200,11.67987255859375,-1.0899004935951218,0.3262510300215493,-5.275713920574758
1684180430007513600,11.689913818359376,-1.2953124045506732,0.33018970483927595,-5.1147170066243834
1684180430017555100,11.69995556640625,-0.5208299161495568,0.3880329132078093,-4.676863670354659
1684180430027596600,11.7099970703125,0.31986570364718614,0.3569154739058055,-3.993551016000425
1684180430037638100,11.72003857421875,0.8656172753686944,0.2646408082225068,-3.154417276445127
1684180430047679600,11.730080078125,1.1654465198446247,0.3639297486084041,-2.2200930118366498
1684180430057721000,11.740121337890624,1.5788675546898872,0.4865827562016725,-0.9348562957118244
1684180430067762600,11.7501630859375,1.9436031581056068,0.6121749879037822,0.2986512182752319
1684180430077804200,11.76020458984375,2.0534467696469676,0.7105274201476574,1.156751275143076
1684180430087845600,11.770245849609376,2.0542213918371233,0.8285980225269421,1.622156977623779
1684180430097887200,11.78028759765625,2.030668497139542,1.050525665299565,1.7083065509553597
1684180430107928800,11.7903291015625,1.9457993507479885,1.1888675688711832,1.5086673499193513
1684180430117970100,11.80037060546875,1.7382175922347163,1.1306028366231673,1.0797065496301728
1684180430128011600,11.810412109375,1.5772705076699642,0.9035444260062848,0.526113033406977
1684180430138053300,11.82045361328125,1.3876389265693085,0.683140754631296,-0.06312096101753109
1684180430148094600,11.8304951171875,1.1102032661392194,0.5650863646604284,-0.5246353149621352
1684180430158136200,11.84053662109375,0.6490476131767291,0.495977401784015,-0.8621777892443515
1684180430168177600,11.850577880859374,0.17649245264970245,0.48642349258357553,-1.0962808132335675
1684180430178219200,11.86061962890625,-0.4766395091405397,0.4875211716167503,-1.5961039067571328
1684180430188260800,11.8706611328125,-0.6277420521235627,0.1591968535276053,-1.5383251904168407
1684180430198302100,11.88070263671875,-0.6584265232940285,-0.1954555511198629,-1.1923311948570203
1684180430208343700,11.890744140625,-0.7967107295231325,-0.230622291577125,-1.0161292552148016
1684180430218385300,11.90078564453125,-0.8833794594343448,-0.2168903351924536,-0.9827240706419786
1684180430228426600,11.9108271484375,-1.1012113094343525,-0.14486312866699957,-1.0779019595575743
1684180430238468300,11.92086865234375,-1.2446980475741924,-0.1369962690739531,-1.2161450385924777
1684180430248509900,11.93091015625,-1.388829827379158,-0.06963157643426283,-1.433497905717328
1684180430258551200,11.94095166015625,-1.693800330237442,0.01340007766271897,-1.7358989715589466
1684180430268592800,11.9509931640625,-2.0237054826100596,-0.05590724942302663,-1.9011059999759925
1684180430278634200,11.96103466796875,-1.8476462363805983,-0.5379533768728717,-1.6487768889334418
1684180430288675800,11.971076171875,-1.231829881701922,-1.0249423980508738,-1.5772194861631699
1684180430298717400,11.98111767578125,-0.35119128231389773,-1.051821708695144,-1.657666444711406
1684180430308758600,11.9911591796875,0.5815362930440914,-0.7873392105714048,-1.9060578346375134
1684180430318800300,12.00120068359375,1.2397284507817787,-0.5262584686247729,-2.3929877281301946
1684180430328841900,12.0112421875,1.2250480651034203,-0.2812137603299431,-2.902883767938715
1684180430338883200,12.02128369140625,0.8279405831185817,-0.14942455293380857,-3.1914763449865604
1684180430348924800,12.0313251953125,0.220575928743035,-0.3031826018077083,-3.316845655585601
1684180430358966400,12.041366943359376,-0.4296474457180381,-0.6862745283642713,-3.4367418289559764
1684180430369007800,12.051408203125,-0.7811186313809303,-1.1453094483259751,-3.33180904376369
1684180430379049400,12.06144970703125,-0.85866308214746,-1.5582866669158795,-2.750783443477978
1684180430389090700,12.0714912109375,-0.7144775391947259,-1.843337059033469,-1.84255313877138
1684180430399132300,12.08153271484375,-0.30947071326321485,-1.8507289886644556,-0.896613717026858
1684180430409173900,12.09157421875,0.2901969551969317,-1.6402053831445262,0.14130610218490677
1684180430419215300,12.10161572265625,0.9867658018758689,-1.1702919005813865,0.8212463260511491
1684180430429256900,12.1116572265625,1.5993790627738982,-0.5761861802398635,1.3864696026136345
1684180430439298600,12.121698974609377,2.068524599197737,-0.1531171797156103,1.7403998374280052
1684180430449339800,12.131740234375,2.3564167021518805,0.052318573007342016,1.91389846810841
1684180430459381400,12.14178173828125,2.504220485803483,0.20818901069484952,1.7191016673936506
1684180430469422800,12.1518232421875,2.5868787765390904,0.5653629303278835,1.314156174512712
1684180430479464400,12.16186474609375,2.625066518823526,0.8390684127485832,1.2341163158766848
1684180430489506000,12.17190625,2.543207406933174,0.8909826279203377,1.257408142090325
1684180430499547300,12.18194775390625,2.3800926207257223,0.7001152037420731,1.35717260825999
1684180430509588900,12.1919892578125,2.082222700025709,0.3553428650925497,1.6071913241787523
1684180430519630600,12.202031005859377,1.58922863017056,-0.2983999251993804,1.850666284446137
1684180430529671900,12.212072265625,0.6014534234049881,-1.1583499907927477,1.925180911940426
1684180430539713500,12.22211376953125,-0.7192658782354983,-1.494707107523655,1.3550354242392213
1684180430549754800,12.2321552734375,-2.068123817400018,-1.3026723861258376,0.36145529144408
1684180430559796400,12.24219677734375,-3.0401527880340775,-0.9484987258805543,-0.5045515298311746
1684180430569838000,12.25223828125,-3.384206295026641,-0.531499862677966,-0.9240505695964456
1684180430579879300,12.26227978515625,-2.8210158346706704,-0.0650796890978471,-0.8186923266806094
1684180430589920900,12.2723212890625,-1.5845081806085313,0.27400970464669433,-0.5273179411360149
1684180430599962600,12.282363037109375,-0.2475420385715037,0.45458030690987555,-0.255249112939133
1684180430610003900,12.292404296875,0.9314565062176934,0.6080245971564754,0.001229524606331926
1684180430620045600,12.30244580078125,1.805263876992095,0.7678251266771091,0.20933820314611035
1684180430630087100,12.312487548828123,2.308498382623069,0.8935470581262406,0.3204357624998981
1684180430640128400,12.32252880859375,2.549293517988036,0.9545202255505093,0.5189880728581067
1684180430650170000,12.3325703125,2.5785365104300224,0.9010648727957352,0.8047599792906872
1684180430660211600,12.342612060546877,2.5206012726017732,0.7121915817125226,1.1010024547551462
1684180430670253000,12.3526533203125,2.400063753028744,0.5626773833681257,1.360917329790105
1684180430680294600,12.362695068359375,2.2962250709233105,0.5214262008712655,1.3233547212156225
1684180430690336200,12.372736572265625,2.1376829146549294,0.4874668121079132,1.2358226775328796
1684180430700377600,12.38277783203125,1.9862983227516489,0.37469100947499223,1.3628708125477764
