time,seconds_elapsed,z,y,x
1684000041430629600,0.074030029296875,-3.9055186709469075e-11,1.197595991413539e-11,1.2695519476765483e-10
1684000041440671200,0.084071533203125,0.015437126201033264,0.044554472054703136,0.16998386388471687
1684000041450713000,0.094113525390625,-0.08298683174579662,0.13097143183062362,0.22661113729511778
1684000041460754600,0.104155029296875,-0.2533483506145579,0.22212529178939136,0.2236685751954788
1684000041470796200,0.114196533203125,-0.33105945597287,0.3495697975484272,0.32594203961120416
1684000041480837800,0.12423828125,-0.20289754853595304,0.31938219068269513,0.4818458558227414
1684000041490879600,0.134280029296875,0.3959960937423705,0.1583256720380071,0.4221196175137951
1684000041500921300,0.14432177734375,0.9546065329924063,-0.09180688859634642,0.5037674904515221
1684000041510962900,0.15436328125,1.123444080412221,-0.31584238998812586,0.5629677771835557
1684000041521004500,0.16440478515625,1.0017533301972192,-0.9014053344393262,0.751279354074831
1684000041531046100,0.174446533203125,0.8655567170154775,-1.1618847846581706,0.7540292739384478
1684000041541087900,0.18448828125,1.0243501664100396,-0.7039508819211132,0.41609334950200316
1684000041551129600,0.194530029296875,1.1900377274504346,-0.31515312188178657,-0.05875062947148259
1684000041561171100,0.204571533203125,1.0091714857497922,-0.355399608641731,-0.4548196793266267
1684000041571213000,0.21461328125,0.6885404588294105,-0.35224390025590774,-0.829864501826595
1684000041581254600,0.224655029296875,0.4354152679224308,-0.1860828400705036,-1.0622954369172677
1684000041591296200,0.234696533203125,0.4459505082822344,-0.0019409657468591698,-1.1298208237960392
1684000041601337800,0.24473828125,0.7674665450758578,0.23109817501244947,-1.3919701575539645
1684000041611379400,0.25477978515625,1.0799183845294142,0.21018123633391017,-1.8509998320902814
1684000041621421200,0.264821533203125,1.1926145553231497,0.3898558617118824,-2.6388940812152115
1684000041631462800,0.27486328125,1.1224327085701726,-0.22973060621025898,-3.1439635752924113
1684000041641504400,0.28490478515625,1.09327650078755,-1.3515992164628898,-3.0346560478132862
1684000041651546000,0.294946533203125,1.0699148178095204,-1.71919512767316,-2.8442616462866996
1684000041661587900,0.30498828125,1.1612944601963116,-1.2914991379221727,-2.8584358692583227
1684000041671629600,0.31502978515625,0.6029253004486522,-0.8553333282199507,-2.6907644272371622
1684000041681671100,0.325071533203125,-0.0286993981435291,-0.8966810704050858,-2.057484150002446
1684000041691712600,0.335113037109375,-0.75321388235927,-1.0282938480834576,-0.64899396892547
1684000041701754600,0.345155029296875,-1.5173630714007769,-0.5097911358065683,0.4264836312274257
1684000041711796100,0.355196533203125,-11.92725944508901,1.5160734653219488,1.4566345214859437
1684000041721837700,0.365238037109375,-2.1592714787855876,2.7612428665574247,2.289417266741748
1684000041731879300,0.37527978515625,3.922482013775424,2.719614267402881,2.0371832847214666
1684000041741921200,0.385321533203125,-7.207849025763185,-2.141190767204922,4.5178203581086125
1684000041751962800,0.39536328125,2.1990866662549657,-1.2101442813944663,3.205154419095645
1684000041762004400,0.40540478515625,-5.330536842307796,0.6191527843799732,3.367171287522128
1684000041772046000,0.4154462890625,-2.0204083919768023,2.057016849620466,0.7670488357940004
1684000041782087600,0.425488037109375,-1.1478071212447936,-0.5764796734700258,-0.7887754440369229
1684000041792129500,0.43552978515625,-0.054748058220826123,-1.7043340207490736,-1.082005500755776
1684000041802171100,0.445571533203125,-0.3600230218564085,-1.459331512534784,-0.2643437386187224
1684000041812212600,0.455613037109375,-0.7812147141457142,-1.268463611594105,0.38581085196458836
1684000041822254300,0.465654541015625,-0.6937909125093155,-1.034753322755142,-1.0804071427244637
1684000041832295900,0.4756962890625,0.2731037139196188,-1.2399499415482422,-1.053063392797693
1684000041842337600,0.485738037109375,0.825133800359023,-1.7090611457417815,-1.316331863298418
1684000041852379300,0.49577978515625,1.3858346939176682,-1.7433793544176917,-1.2993783950868913
1684000041862420900,0.5058212890625,0.7268781661363671,-1.4660632610031077,-1.4460945129380103
1684000041872462600,0.51586279296875,0.7286510467086263,-1.109302043894802,-1.14083766945886
1684000041882504400,0.52590478515625,0.8115277290071043,-1.08965659152838,-0.9164981842250377
1684000041892546000,0.5359462890625,0.8271007538709401,-1.0489857197167063,-1.0048737525059166
1684000041902587600,0.545988037109375,1.3112339972662896,-1.3162169455702346,-1.154194831852655
1684000041912629200,0.556029541015625,1.5946798324778573,-1.425452470685445,-0.9125618934980035
1684000041922670800,0.5660712890625,1.4768185614498452,-0.6767125130677207,-3.30559682845179
1684000041932712600,0.576113037109375,1.9216608999662337,-1.1852180957500773,-1.2882523536496775
1684000041942754200,0.586154541015625,0.2882151604140038,-0.45013260847765735,-0.4985179901272602
1684000041952795800,0.5961962890625,0.5432906150235759,-0.33155202865609373,-0.8036565781063477
1684000041962837400,0.60623779296875,0.07229328165709456,-0.5748960971269456,-0.32289123540076303
1684000041972879300,0.61627978515625,-0.3426256179782897,-0.2806811331755048,-0.4086027145408298
1684000041982920900,0.6263212890625,-0.8687608241245677,-0.17252135278022074,-0.4721822739035956
1684000041992962600,0.63636279296875,0.07670021040054228,-0.3883743286430957,-0.2059879301510172
1684000042003004100,0.646404541015625,-2.126549482251445,-1.3305912017902932,1.1607036590837263
1684000042013045900,0.6564462890625,-5.090844154277938,-0.9899804592743252,1.3185920715025283
1684000042023087600,0.666488037109375,-4.426753997761339,0.09191346173556966,0.5502872466856287
1684000042033129100,0.676529541015625,-2.819751262593145,-0.04755425449754519,0.35435199733152706
1684000042043170700,0.686571044921875,-1.803978681570269,-1.0146279334148816,0.971414566027531
1684000042053212300,0.69661279296875,-1.5415618420872605,-1.2037243842007508,1.42428493499821
1684000042063254200,0.706654541015625,-1.883406639195967,-1.1719505786279598,2.214993476917205
1684000042073295800,0.7166962890625,-1.474287271401144,-0.3232142924325298,2.0109910965426123
1684000042083337400,0.72673779296875,-0.6312737465949121,-0.7492029666085829,1.0244302750838226
1684000042093379000,0.736779296875,1.1768479347947922,-1.4475462436961097,0.6767740250480981
1684000042103420800,0.7468212890625,2.26708602913413,-0.582273960205591,-0.03453159341579734
1684000042113462400,0.75686279296875,3.9176917076556093,0.03433632837691226,-1.4165163040127027
1684000042123504000,0.766904541015625,5.016108989632552,-0.7582247256745515,-1.1395740508669205
1684000042133545600,0.776946044921875,2.548007249867258,-1.8129777906931428,-0.22528743750669908
1684000042143587200,0.786987548828125,-0.6995072365874119,-0.9892225265552673,-1.7580714226234129
1684000042153629100,0.797029541015625,-0.09181571021167738,0.3435280323572497,-0.06313705450956307
1684000042163670600,0.807071044921875,-0.20466423031718906,1.145955681798054,0.6077518463955696
1684000042173712300,0.81711279296875,-2.556585550276245,1.5636849403706885,0.5988807678349453
1684000042183753900,0.827154296875,-3.9583640097500825,2.286506175908006,0.3291530610383249
1684000042193795600,0.83719580078125,-4.495878219721394,2.9565215109553233,-0.2003135680971259
1684000042203837400,0.84723779296875,-3.741233110365008,3.2567338943093995,-0.5930528639413273
1684000042213879000,0.857279296875,-2.914588212994187,3.175816059131912,-0.5825910569099022
1684000042223920600,0.867321044921875,-2.2739784717239275,3.0189394951839694,-0.30418014522234565
1684000042233962200,0.877362548828125,-2.0857448578331543,2.9504947662006047,0.13621997829747537
1684000042244004000,0.887404296875,-2.0504853726579606,2.9090299606380836,0.4950933456986195
1684000042254045600,0.897446044921875,-1.9280959367435557,2.825009346117408,0.6984176636477936
1684000042264087200,0.907487548828125,-1.653203248939263,2.5782613753327306,1.0172176361320482
1684000042274128800,0.917529296875,-1.5130252836783895,2.3370189665634022,0.9935598372220682
1684000042284170600,0.927571044921875,-1.3061277864750866,2.0298020839168234,0.95265007035396
1684000042294212300,0.93761279296875,-1.458804488119452,1.462584972426183,0.9902000428701792
1684000042304253900,0.947654296875,-1.7439329623516377,1.209265470500598,0.8008832930601749
1684000042314295500,0.95769580078125,-1.6373767854214811,1.1953582763309276,0.33643341077956906
1684000042324337100,0.967737548828125,-1.353160619745107,1.0320932865157904,-0.19892311085324943
1684000042334378600,0.977779052734375,-1.294202089288312,0.43137931817780595,-0.7715597153223801
1684000042344420600,0.987821044921875,-1.446531653260361,0.33357071864926674,-0.9635562896767778
1684000042354462100,0.997862548828125,-1.4030122756684607,0.1873388292234022,-1.1268043518864257
1684000042364503700,1.007904052734375,-1.3263671397375862,-0.11558294297240986,-1.1946592331553838
1684000042374545600,1.017946044921875,-1.2725720406884835,-0.48797941218728474,-1.3064422607599808
1684000042384587200,1.027987548828125,-0.7080805301992885,-0.42378842830660607,-1.879876136780615
1684000042394628800,1.038029296875,-0.3305779697147819,-0.6381484269159039,-2.0293922423916424
1684000042404670400,1.04807080078125,0.07628627882202449,-0.8769313097147539,-1.8677797317924552
1684000042414712000,1.0581123046875,0.5344976781338648,-1.134760975774012,-1.3347177504723222
1684000042424753800,1.068154296875,0.4838080405116524,-1.1625053881546392,-1.0269155501715799
1684000042434795400,1.07819580078125,0.262235462759934,-0.9318908453422216,-1.1627264022499217
1684000042444837000,1.088237548828125,0.24557539817818907,-1.119550228143866,-0.7307443620093038
1684000042454878600,1.098279052734375,-0.055037081210887476,-0.9024630784222427,-1.0168418883555428
1684000042464920200,1.108320556640625,-1.597299337437523,-1.366005420665648,-0.9457263945937445
1684000042474962100,1.118362548828125,-1.7541126012947692,-1.1517440080335004,0.09591770184782504
1684000042485003600,1.128404052734375,-3.3667609691541323,-0.4922692775132972,0.24403285980509126
1684000042495045300,1.13844580078125,-4.4055695534237165,-0.15810620781959694,0.3333473205742134
1684000042505086900,1.1484873046875,-3.4071333408520577,-0.18087244031878277,0.206361770694695
1684000042515128800,1.158529052734375,-2.3670346736588823,-0.39224982243821577,-0.6266164779934316
1684000042525170400,1.16857080078125,-1.2749904394040095,-0.7829355002026926,-0.8499088286805823
1684000042535212000,1.1786123046875,-0.20099818708633008,-1.0052417518110162,-0.7465877532169874
1684000042545253600,1.188654052734375,0.6353673936598194,-0.9529876707720261,-0.7196474074483479
1684000042555295200,1.198695556640625,0.9878192544962526,-0.8398876190740033,-0.482729911831628
1684000042565336800,1.208737060546875,1.0233199596108056,-0.7633486987100276,-0.33481216438943046
1684000042575378600,1.218779052734375,0.8756969570420678,-0.6652865409448353,-0.1772422790617269
1684000042585420200,1.228820556640625,0.811246275761343,-0.3419771193070574,-0.5712881089049681
1684000042595461800,1.2388623046875,0.6350967884474862,-0.2726626395092389,-0.6192646026724242
1684000042605503400,1.24890380859375,0.6441165208494667,-0.3722376823394978,-0.04856681826467326
1684000042615545300,1.258945556640625,0.615378141544437,-0.2375154495706934,0.3326148986952333
1684000042625586900,1.2689873046875,0.5044488906671488,-0.13367986690544686,0.6139831543283458
1684000042635628500,1.27902880859375,0.5335253476654183,-0.06896591175179011,0.6200218201170712
1684000042645670100,1.289070556640625,-0.024164557363818586,-0.3861076830530485,0.8433227539351617
1684000042655711600,1.299112060546875,-0.015285253500772174,-0.4352381230354738,0.7435455323626748
1684000042665753600,1.30915380859375,-0.2861165999417301,-0.3322265149798029,0.368589401254401
1684000042675795100,1.319195556640625,-0.9388370512525667,-0.36830496770823107,0.1198349000811143
1684000042685836600,1.329237060546875,-1.3986439705295175,-0.15053105356532687,-0.40035057067944546
1684000042695878300,1.33927880859375,-1.4222403764491225,-0.07381606092216698,-0.7137079238719608
1684000042705919900,1.3493203125,-1.1325929165191595,-0.03679871569835058,-0.7956066130486751
1684000042715961800,1.359362060546875,-0.8138176203016817,-0.056527137650673624,-0.8331737517179922
1684000042726003400,1.36940380859375,0.10989403711835574,-0.2109661102800172,-0.8535556793070151
1684000042736045000,1.3794453125,0.88694787034865,-0.11537361154535641,-0.5830421446699686
1684000042746086600,1.389487060546875,0.9788627027985887,-0.9220135210840102,0.11048316956296168
1684000042756128400,1.39952880859375,0.8921718598223505,-1.0590872765543293,0.49716091162233883
1684000042766170000,1.4095703125,0.8787983655737723,-0.2526450156012552,0.5545997618748557
1684000042776211600,1.419612060546875,0.11149537571101051,0.1620001793234899,0.4132661819113923
1684000042786253200,1.429653564453125,-0.7171744108151654,0.07327222831116514,0.33995437618709146
1684000042796294800,1.4396953125,-1.2312450409848044,0.14283132556575104,0.28353214262222476
1684000042806336600,1.449737060546875,-1.5930602550869855,0.38884258281238465,0.2541427613111884
1684000042816378300,1.45977880859375,-1.3689513206220443,0.39852714528584415,0.09714031214718133
1684000042826419900,1.4698203125,-0.8221957682074477,0.7735774515846288,-0.11194133768021451
1684000042836461600,1.47986181640625,-0.03673732271619658,0.8004665374706232,-0.31077575678241404
1684000042846503300,1.48990380859375,1.9666504858930733,2.203098058704988,-0.3467502593838569
1684000042856544900,1.4999453125,1.4069793225692753,0.8634164334989128,0.34704112998472786
1684000042866586600,1.509987060546875,0.07581734642723725,-1.0003466605935336,1.5124702453490175
1684000042876628100,1.520028564453125,-1.1090633870929323,-1.5201654435579788,1.6388273239372135
1684000042886669700,1.530070068359375,-1.048537254337806,-1.5072250366243405,0.5657691956831398
1684000042896711600,1.540112060546875,-0.8208672999199977,-0.22825050345492492,-0.15810203551407656
1684000042906753200,1.550153564453125,-0.7815564870809854,0.22077655793386294,-0.04559326179646548
1684000042916794800,1.5601953125,-1.0236353874039632,0.02096796049971545,0.6037044524572481
1684000042926836400,1.57023681640625,-1.3361599445720547,-0.4940843582750154,0.8550825118053809
1684000042936878000,1.5802783203125,-1.6446485520950163,-1.1114335059862246,1.0595350265558112
1684000042946919900,1.5903203125,-1.4867720603700945,-1.167534351355819,1.0249691008768944
1684000042956961500,1.60036181640625,-0.11593961714874092,-0.040209293253188644,0.8678269386461762
1684000042967003100,1.610403564453125,0.1526298521245453,0.42827033995873504,0.39659690848896884
1684000042977044600,1.620445068359375,-0.618536830026273,-0.09213399882538782,0.4862098692938338
1684000042987086600,1.63048681640625,-1.0122772454358562,-0.1918807030250031,0.7053170203487993
1684000042997128100,1.640528564453125,-1.0989159344566701,0.546935558378449,0.6372389793767271
1684000043007169600,1.650570068359375,-1.7533547877289588,1.2887172699537954,0.05009555805908017
1684000043017211300,1.66061181640625,-2.1185140609385527,1.7527904509892767,0.5228366851130158
1684000043027252900,1.6706533203125,-1.8858842849982826,3.6049795149654065,1.2097053529085815
1684000043037294600,1.68069482421875,-1.6371177436424524,4.001937389429818,2.324170112718499
1684000043047336400,1.69073681640625,-0.6583164931782528,4.1274938583046685,1.9851312638317529
1684000043057378000,1.7007783203125,-0.2625164986401169,2.3933954239128066,-0.8953828812478727
1684000043067419600,1.710820068359375,-0.6569130420137175,1.1386327744112248,-0.5690555573570629
1684000043077461200,1.720861572265625,-0.6991958618464194,0.8849024773504429,0.6244773863190388
1684000043087503000,1.7309033203125,-0.28990566719098126,1.1257610319653526,0.23862838749078166
1684000043097544600,1.740945068359375,0.040089726463862524,0.987361430985029,-0.23094558713299118
1684000043107586200,1.750986572265625,0.4302722217076369,0.322388648956594,-0.4999051094081375
1684000043117627800,1.7610283203125,1.0349514484060691,-0.5771918297597725,-0.6521253584484092
1684000043127669400,1.77106982421875,0.8121687173312662,-1.581408500676669,-0.540307521773736
1684000043137711300,1.781111572265625,0.2420676946518829,-2.200129032009237,-0.057798385577806755
1684000043147752900,1.7911533203125,-0.20076358324846444,-2.0090909004159903,0.6526923179490406
1684000043157794600,1.80119482421875,-0.1268829107396107,-1.1690902708842206,0.6346998214537107
1684000043167836100,1.811236572265625,-0.5435745716550495,-0.5632815360643318,1.0717329978630885
1684000043177877600,1.821278076171875,-0.47262012970506045,-0.2423000335782883,0.39594268809694716
1684000043187919600,1.83131982421875,-0.08321058751687908,-0.2751803398656682,-0.08347702034986204
1684000043197961100,1.841361572265625,0.40062814953115133,-0.24330615990438204,-0.25874185576503445
1684000043208002700,1.851403076171875,0.9589635133462022,-0.9158654213922606,-0.7620582579003765
1684000043218044300,1.86144482421875,1.3807530404501351,-0.825893879065765,-0.9818797112043922
1684000043228086200,1.871486572265625,1.3747661113080094,-0.7387914658281218,-1.2000193595810915
1684000043238127800,1.881528076171875,0.963763594739175,-0.722413063031123,-1.229849338511137
1684000043248169400,1.89156982421875,0.45417416101336966,0.34139919280526687,-0.6894021034290962
1684000043258211000,1.901611328125,-0.044982850605907156,0.10925436013742142,-0.7610630988020314
1684000043268252600,1.911653076171875,0.14425289617957415,0.307685851927531,-0.4872236251162702
1684000043278294200,1.921694580078125,0.21967422968993283,0.2640790940107972,-0.41316843030656636
1684000043288336000,1.931736328125,0.24617296450492365,-0.11014175419071114,-0.40877962100592474
1684000043298377600,1.941778076171875,-0.016204834114513816,-1.3048315049461492,-0.8450074195544633
1684000043308419200,1.951819580078125,-0.11390233039166492,-1.947117805462261,-1.8752131461067172
1684000043318460800,1.961861328125,0.3485050201716049,-1.6421136856165508,-2.808756351441692
1684000043328502600,1.971903076171875,0.7482641339102317,-2.1330127717310936,-3.189997911367548
1684000043338544300,1.98194482421875,0.9988858699291485,-2.2066383361436173,-2.917637586592953
1684000043348585900,1.991986328125,1.0528591870666666,-1.0934181214668883,-1.8708326815766145
1684000043358627600,2.00202783203125,0.003399789239496733,-0.5292854309630479,-1.4867231844455686
1684000043368669100,2.012069580078125,-0.8940579891417622,-0.2469930647106314,-0.6973786353636331
1684000043378711000,2.022111328125,-1.1063734293457377,0.6532421112508581,0.08994054804817976
1684000043388752600,2.032153076171875,-0.7435267567755699,1.0797820091008152,0.2099227906874145
1684000043398794200,2.042194580078125,-0.027765676266184987,0.7845692633911211,-0.2775664328380387
1684000043408835800,2.052236083984375,0.6823463439662744,0.36070871347068756,-0.7435574531564977
1684000043418877600,2.062278076171875,1.2298457623298884,-0.5095930100913654,-0.7599706649982917
1684000043428919200,2.072319580078125,1.5912859441316065,-1.3457918165537026,-0.7502799034407888
1684000043438960800,2.082361328125,1.9178124665875445,-1.3701171875938447,-0.8422865868697863
1684000043449002400,2.09240283203125,2.092828512129443,-1.1449108124112088,-0.8688540457875213
1684000043459044000,2.1024443359375,2.0471775532477823,-1.086693763612262,-0.6971406936961608
1684000043469085900,2.112486328125,2.092524528449778,-1.0567455290983778,-0.41442155824973403
1684000043479127600,2.12252783203125,1.598569989107084,-1.1862621305698793,-0.36712980279132085
1684000043489169100,2.132569580078125,1.08153939250562,-0.5556602478785047,-0.6397962569601335
1684000043499210600,2.142611083984375,0.7517108321777711,0.12538719168727253,-0.6232895851417238
1684000043509252300,2.152652587890625,0.4900069236733705,0.49304676064556185,-0.9846706391149883
1684000043519294100,2.162694580078125,0.42867204542719706,0.16100025175757585,-1.249158859253146
1684000043529335600,2.172736083984375,0.18036414686275248,-0.6686105728315004,-1.431178808078273
1684000043539377300,2.18277783203125,0.3146851359395933,-0.8700990676806365,-1.016330719107498
1684000043549418900,2.1928193359375,0.6168027519534107,-1.9455442428127554,-0.5821681022461193
1684000043559460800,2.202861083984375,0.8349155187706079,-1.4086780546784896,0.09002923979693626
1684000043569502400,2.21290283203125,0.6963957548495143,-0.6468486786543586,0.4247660637209667
1684000043579544000,2.2229443359375,0.3252088724797054,1.2227158546700079,0.2224955558951976
1684000043589585600,2.232986083984375,0.22710561741683058,0.05116653442965226,-0.12688255308948318
1684000043599627200,2.243027587890625,0.036141067660950876,-0.5118389128877706,-0.3079361916023069
1684000043609668800,2.253069091796875,0.37156957405931884,0.06341171262185517,0.2915520667526454
1684000043619710600,2.263111083984375,0.37198391551655724,-0.010592460562880445,0.3725614548991225
1684000043629752200,2.273152587890625,0.45186725260736343,0.12456226348733655,0.6371111870372079
1684000043639793800,2.2831943359375,0.2760293782467222,0.834957122958056,0.9414377212948711
1684000043649835400,2.29323583984375,0.41863843812594015,-0.6286449431862371,0.7721314430455137
1684000043659877300,2.303277587890625,0.43883728983043263,-0.06318569190296751,1.0287823678227956
1684000043669918900,2.3133193359375,0.3860873876961104,-0.07229614260609687,0.8527841568413865
1684000043679960600,2.32336083984375,0.33544957642306233,0.6165471076404583,1.1396002770105
1684000043690002100,2.333402587890625,0.030369728829933124,0.6767611504057028,1.3255815504402542
1684000043700043600,2.343444091796875,0.3564269541971761,0.8306050299862873,1.6650495529790834
1684000043710085600,2.35348583984375,0.5124315023953241,0.36404037479729645,1.6656322480894703
1684000043720127200,2.363527587890625,0.3484489619974199,0.6644959450156847,1.3021841047779446
1684000043730168800,2.373569091796875,0.19539365157435876,0.8802766799101562,1.0193710325664773
1684000043740210400,2.38361083984375,0.18126568188216433,0.3261518478216685,0.6635994910756056
1684000043750252000,2.39365234375,0.05915489784952143,0.5295553207251757,0.5095372199920966
1684000043760293800,2.403694091796875,-0.0353623031340249,0.5144472123096622,0.6191592216617235
1684000043770335400,2.41373583984375,0.2867859900766426,0.32681846631413675,1.005075931692325
1684000043780377000,2.42377734375,0.23390826564315303,1.0291957855484912,1.1407270431368217
1684000043790418600,2.433819091796875,0.1895712913070382,0.7187347412183461,0.3760633470268412
1684000043800460500,2.44386083984375,0.2659570872135488,0.7854433059441844,0.4879803657313037
1684000043810502100,2.45390234375,0.35032257436899683,0.7848997116900092,0.5955991746001337
1684000043820543600,2.463944091796875,0.3405072688850225,0.7020635604450746,0.22585201252623574
1684000043830585300,2.473985595703125,0.37116581192228504,0.8121638297745224,-0.08513927466651766
1684000043840626900,2.48402734375,0.2246194481754603,0.9828820228533948,-0.12175941469493097
1684000043850668600,2.494069091796875,0.14882734429998745,1.1697254180324703,-0.16141080851747955
1684000043860710300,2.50411083984375,0.05693355206723395,1.3857202530204742,-0.33695173270228496
1684000043870751900,2.51415234375,0.2584770023550915,1.8268299103370413,-0.5060606004355279
1684000043880793600,2.52419384765625,0.2492463290145278,1.4350681305704867,-1.3144454955845175
1684000043890835400,2.53423583984375,0.4085780083977567,1.633479118257354,-1.0195388795009266
1684000043900877000,2.54427734375,0.4757433236065161,1.6263470650482228,-0.8557896615200618
1684000043910918600,2.554319091796875,0.38364508753240595,1.413679599716331,-0.8212113380325122
1684000043920960200,2.564360595703125,0.41739591961743816,1.276147842358729,-0.5410566329274457
1684000043931001800,2.574402099609375,0.4789265094392479,1.0730066299491272,-0.2032890319658516
1684000043941043600,2.584444091796875,0.4619066119149368,0.8261852262560825,0.1647758484523748
1684000043951085200,2.594485595703125,0.4489467443518484,0.5464239120870343,0.4371390341536132
1684000043961126800,2.60452734375,0.42431497574558324,1.2285523413586255,0.41698122017705536
1684000043971168400,2.61456884765625,0.13562390191212495,0.8187050821023828,0.12075710302879475
1684000043981210000,2.6246103515625,0.13023567190955432,0.5508584975016646,-0.27040433885255766
1684000043991251900,2.63465234375,0.23951427632725814,0.24202537544521482,-0.47163629529722445
1684000044001293600,2.64469384765625,0.3806638420479602,0.0961322784284693,-0.4401597976531525
1684000044011335100,2.654735595703125,0.33092254392390197,-0.36839199053599714,-0.5014224052447791
1684000044021376600,2.664777099609375,0.32948392619643313,-1.2116184236102028,-0.6647319793331506
1684000044031418600,2.67481884765625,0.6106575129926017,-2.3126916885651965,-0.5152339935986545
1684000044041460100,2.684860595703125,1.3264781237432088,-1.6879510879745738,1.2447655201454453
1684000044051501700,2.694902099609375,1.6251385211406715,-3.246817588840938,1.969614028856009
1684000044061543300,2.70494384765625,1.3681026697064864,-2.685158729550281,3.3091347216379647
1684000044071584900,2.7149853515625,0.7951877117979552,-3.8287601469678316,3.423998117457739
1684000044081626800,2.725027099609375,0.245811626303283,-3.3570938108609294,4.010693550157357
1684000044091668400,2.73506884765625,-0.5179666279997965,-3.1814947128013804,3.480276346342933
1684000044101710000,2.7451103515625,-1.6893668175136034,-2.7700757980894855,1.7944929599258752
1684000044111751600,2.755152099609375,-1.0736086369224511,-2.1673269272914966,1.3592000005999225
1684000044121793200,2.765193603515625,-0.9148291349142676,-1.5499343871312665,1.5305652619395107
1684000044131835100,2.7752353515625,-1.2196103334724342,-1.6057252884395872,1.6317787169821154
1684000044141876600,2.785277099609375,-1.2666012047305062,-0.5911560057986532,1.6898186204890695
1684000044151918300,2.795318603515625,-1.837679863030853,0.11831188197627732,0.45852422711807217
1684000044161959900,2.8053603515625,-1.3204700946114332,0.4894466398688977,-0.7637162208477705
1684000044172001600,2.815402099609375,-0.32281821967429497,1.0029544831735304,-0.23363518727223595
1684000044182043300,2.825443603515625,-0.08017683028572424,0.4347772599260697,0.0809915065503596
1684000044192084900,2.8354853515625,0.09047281745927992,0.5420780182830178,0.4813516140316144
1684000044202126600,2.84552685546875,0.120223879924964,0.3831167221782079,0.6900827885225148
1684000044212168100,2.855568603515625,-0.09860122200626395,0.31276035321269724,0.5903611182433104
1684000044222210000,2.8656103515625,-0.2533844113340487,0.5202627181443654,-0.19723010078611705
1684000044232251600,2.87565185546875,-0.33557832236278906,0.4956207274434697,-1.1721320151594135
1684000044242293200,2.885693603515625,-0.8579694034085927,1.4238634109480817,-1.570301771158337
1684000044252334800,2.895735107421875,-0.5629832743746842,0.8570337296109956,-2.8427851200463183
1684000044262376600,2.905777099609375,-0.11736416822990861,0.48696708674485545,-2.8947510719346874
1684000044272418200,2.915818603515625,0.2234609128145321,1.287460327044897,-2.8006269931529246
1684000044282459800,2.925860107421875,0.286346197159588,0.6383943556136059,-2.6728615761017296
1684000044292501400,2.93590185546875,0.2564450503922109,0.4643802643162843,-2.460516929651252
1684000044302543300,2.945943603515625,0.23566317553317156,0.36538505562191015,-1.978623866989778
1684000044312584900,2.9559853515625,0.15266525743452775,0.0822324751762977,-1.5512670277891503
1684000044322626600,2.96602685546875,0.0548200606537406,-0.22851943982141898,-0.9496710299862146
1684000044332668100,2.976068359375,0.14456009864774336,-0.5295572281169021,-0.18034267421286146
1684000044342709600,2.986110107421875,0.1085770129323534,-0.7227640151760556,0.5926291941958739
1684000044352751600,2.99615185546875,-0.32896900166296933,-1.191246986345609,1.1623234748551223
1684000044362793100,3.006193603515625,-0.7335822583412017,-1.4753780365785356,1.6154799462167484
1684000044372834700,3.016235107421875,-0.9665110111040766,-1.7387371062014922,1.7602686883043175
1684000044382876300,3.02627685546875,-0.9782047271285863,-2.018208503678488,1.6493020056244243
1684000044392917900,3.036318359375,-0.8571507930938349,-2.436520576451916,1.1538562772862209
1684000044402959800,3.046360107421875,-0.45027494434871457,-1.5384693146064683,1.0664806366144501
1684000044413001400,3.05640185546875,-0.22024464609488234,-1.2092781067200287,0.992928504908505
1684000044423043000,3.066443359375,-0.1198458670746312,-1.2851362228338765,0.6031889915779935
1684000044433084600,3.076485107421875,0.3196227550907729,-0.36352920536480954,-0.3415002821887558
1684000044443126400,3.08652685546875,0.3915777205325938,-0.7497577665892708,-1.57282471660621
1684000044453168000,3.096568359375,0.8795416355909867,-0.3731698990862493,-2.2079496385044663
1684000044463209600,3.106610107421875,1.3556165694237061,0.22031307219438956,-2.7731087209463907
1684000044473251200,3.116651611328125,1.4431419374142664,-0.5429124832422281,-3.036690950327663
1684000044483292800,3.126693359375,1.8823518754037296,-0.10313415527695442,-2.5452213288168095
1684000044493334600,3.136735107421875,2.0730583667211024,-0.13144397734640995,-1.9572952985939194
1684000044503376300,3.146776611328125,2.0580966472717686,-0.23906421664558802,-1.6514625548225614
1684000044513417900,3.156818359375,1.8707841634321671,-0.004642486553540828,-1.5046274662338934
1684000044523459600,3.16685986328125,1.4666366578772028,0.07780551910821037,-1.4046339988956216
1684000044533501400,3.17690185546875,0.9704589843970772,0.07244396213072993,-1.5630037783250261
1684000044543543000,3.186943359375,0.5991222858419063,-0.1180696488003858,-1.554129123566002
1684000044553584600,3.19698486328125,0.33176660545834075,-0.07363128663404074,-1.5790505410538431
1684000044563626200,3.207026611328125,0.25793385497957644,-0.1968479157549326,-1.4400367735516708
1684000044573668000,3.217068359375,0.3318493365390108,-0.26741313934698036,-1.4327721594898235
1684000044583709600,3.227110107421875,0.6372110843547548,0.502406120169584,-1.2713987826630972
1684000044593751200,3.237151611328125,0.8142178059188969,0.18123912827096467,-0.8916666507818041
1684000044603792800,3.247193115234375,0.7046627998250289,-0.20219993596118666,-0.8655076026190446
1684000044613834400,3.25723486328125,0.43684196463406444,-0.4942960738344468,-1.13423013691769
1684000044623876300,3.267276611328125,0.30067873000282447,-0.3690328598118162,-1.3006682395900935
1684000044633917900,3.277318359375,0.14927506443957894,-0.09643936151456665,-1.318197965560813
1684000044643959500,3.28735986328125,0.09393310560035685,0.23111248025348208,-1.4066673517359065
1684000044654001100,3.2974013671875,-0.13182997703484609,0.45902442921056497,-1.1959104538220362
1684000044664042900,3.307443359375,-0.27944684034973355,0.40655422219477955,-0.9461498261260208
1684000044674084600,3.31748486328125,-0.37751197819834853,0.3144311905471956,-0.7095203399821424
1684000044684126100,3.327526611328125,-0.4303476811676238,0.37013816848863973,-0.5581355094559753
1684000044694167700,3.337568115234375,-0.6689567564054271,0.3838319778447268,-0.4007003308636038
1684000044704209600,3.34760986328125,-0.9272363185250295,0.48422718059523917,-0.12542057039068905
1684000044714251200,3.357651611328125,-1.0601921080923966,0.6656560898794875,0.11838340756882632
1684000044724292800,3.367693115234375,-1.0521538257289687,0.738669395474753,0.2822446824615115
1684000044734334400,3.37773486328125,-0.982797622672909,0.5534954071611485,0.3761219978196314
1684000044744376000,3.3877763671875,-0.8898739814055406,0.2797470094740413,0.4014062880818283
1684000044754417800,3.397818359375,-0.7147109509234272,-0.02058696760769552,0.4566338063364548
1684000044764459400,3.40785986328125,-0.44981861117423405,-0.17973327643323955,0.5486829280170811
1684000044774501000,3.4179013671875,-0.3088717460164429,-0.13477611534935302,0.5914826394211632
1684000044784542600,3.427943115234375,-0.3903777598474581,-0.2407741545746201,0.46549582464309885
1684000044794584600,3.43798486328125,-0.6476089955128853,-0.28479576124610406,0.4177849293964711
1684000044804626100,3.448026611328125,-0.7882907390326709,-0.38156986243511565,0.5107729434841595
1684000044814667600,3.458068115234375,-0.7701649665195214,-0.18543910986916215,0.8878734112370054
1684000044824709300,3.468109619140625,-0.6065225602313143,0.08273982983335589,1.1721529960499857
1684000044834751200,3.478151611328125,-0.29336404806332633,0.5124969482295408,1.476272821475914
1684000044844792800,3.488193115234375,0.1027410030355752,0.8549156190437244,1.1754179001636897
1684000044854834400,3.49823486328125,0.45607972141248376,1.0648956299496652,1.021937608673877
1684000044864876000,3.5082763671875,0.6347398756589143,1.0771894455347235,0.5640079974615875
1684000044874917800,3.518318115234375,0.6172413826476026,1.006268501287313,0.10688734042578063
1684000044884959400,3.52835986328125,0.5838186740521236,0.8997535703970052,-0.28422164912715997
1684000044895001000,3.5384013671875,0.527497291519735,0.6667642593322385,-0.5158958434158762
1684000044905042600,3.548443115234375,0.4213004112326404,0.46676635743515416,-0.5856289863494366
1684000044915084200,3.558484619140625,0.22074413304420523,0.3188533783538768,-0.5408272743953483
1684000044925126100,3.5685263671875,-0.2205798625936834,-0.023786544846147083,-0.4219281673449485
1684000044935167600,3.578568115234375,-0.4803845882670857,0.3877954481433855,-0.49005532249781936
1684000044945209300,3.588609619140625,-0.559505939448994,0.7436995506132013,-0.48097658152820877
1684000044955250900,3.5986513671875,-0.5415763856033695,0.8038282393328012,-0.37030243875491387
1684000044965292600,3.608693115234375,-0.5260262490104531,0.6546263696064786,-0.26976513864006363
1684000044975334300,3.618734619140625,-0.4395704270035713,0.5658140183167607,-0.2006642819350944
1684000044985375900,3.6287763671875,-0.16804862015607544,0.6172752379448587,-0.1324768065594191
1684000044995417600,3.63881787109375,0.21096301067090187,0.6002416611410158,-0.0867173673408329
1684000045005459400,3.64885986328125,0.5561904906549219,0.559896469080587,-0.050423145458409056
1684000045015501000,3.6589013671875,0.8715008497351134,0.5009574889206568,-0.032390832980358886
1684000045025542600,3.66894287109375,1.0568549634150595,0.37624645231256915,-0.1483128072081558
1684000045035584200,3.678984619140625,1.1622897387115543,0.25578498846399833,-0.3251795767947953
1684000045045626000,3.6890263671875,1.2393041849025836,0.22527694700566472,-0.40664505968164577
1684000045055667600,3.699068115234375,1.2135858535105515,0.31968307495107895,-0.5323216914867747
1684000045065709200,3.709109619140625,1.1652621030449852,0.4040603637424217,-0.6564857960620558
1684000045075750800,3.719151123046875,1.0539296865410681,0.34654998784464996,-0.8287305831317838
1684000045085792400,3.72919287109375,0.8293113709519534,0.10196208955479841,-1.0673425196314739
1684000045095834300,3.739234619140625,0.5521652699329896,-0.25930118549200654,-1.4026844501541296
1684000045105875900,3.7492763671875,0.27970933912297746,-0.6219301223859605,-1.6246030332481716
1684000045115917600,3.75931787109375,-0.05588603020330667,-0.9737691879813354,-1.8290518521973669
1684000045125959100,3.769359375,-0.5153073071867006,-1.2621164321914178,-2.1197400093847794
1684000045136000900,3.7794013671875,-1.1377843617568706,-1.525023460488488,-2.392755746714596
1684000045146042600,3.78944287109375,-1.8705067635217316,-1.8620786665849662,-2.7306158544167287
1684000045156084100,3.799484619140625,-2.7386157512603426,-2.2128849029534092,-2.9673235416998653
1684000045166126000,3.8095263671875,-3.3705799580316023,-2.634396553129346,-3.0314550399888183
1684000045176167600,3.819568115234375,-3.2798762321813726,-3.076760292031765,-2.4489331246128754
1684000045186209200,3.829609619140625,-2.485458135710913,-3.5052862167561343,-1.5365512371195766
1684000045196250800,3.839651123046875,-1.4964703321011619,-3.656180381721361,-0.7419712542520231
1684000045206292400,3.84969287109375,-0.7364788055306349,-3.5025348662438556,-0.30253911005249057
1684000045216334300,3.859734619140625,-0.3946720359961368,-2.941131591743462,-0.22914528846353202
1684000045226375900,3.8697763671875,-0.36353671548066857,-2.0886430741685897,-0.16508007047387388
1684000045236417500,3.87981787109375,-0.4466439487158788,-0.7343950270725232,-0.14578533177503322
1684000045246459100,3.889859375,-0.3751134870906712,0.5635318756317441,-0.182960510213274
1684000045256500900,3.8999013671875,-0.22735703006799837,1.6651725769470755,-0.4375078679379725
1684000045266542600,3.90994287109375,-0.016035199186199244,2.1443843841642756,-0.39824223517708757
1684000045276584100,3.919984619140625,0.23569482558908303,2.2473483086027244,-0.2995967864672855
1684000045286625600,3.930026123046875,0.4181910157543109,2.0550193785598676,-0.19551849350627012
1684000045296667600,3.94006787109375,0.6036415696272265,1.480890274105131,0.14028358464682467
1684000045306709200,3.950109619140625,0.8294037580395854,0.8419342040562429,0.5382111072815324
1684000045316750800,3.960151123046875,0.9766861200858895,0.2314615249835498,0.9340014458043578
1684000045326792400,3.97019287109375,1.0608615874967693,-0.17860317230342787,1.089401721878175
1684000045336834200,3.980234619140625,0.9576387406636726,-0.3502092360959741,1.1405363081743445
1684000045346875800,3.990276123046875,0.9064624310231556,-0.3795166016834784,1.0955832003266852
1684000045356917400,4.00031787109375,1.0434041022082887,-0.30311679834464633,1.0801477433798035
1684000045366959300,4.010359619140625,1.262901544571336,-0.02133941654531556,0.8535039424414859
1684000045377000900,4.0204013671875,1.634479761211309,0.281283378694342,0.575174331815352
1684000045387042600,4.03044287109375,1.9738075733726999,0.4016494751718366,0.3334257603763571
1684000045397084100,4.040484375,2.116723060711498,0.521625518619073,0.06524825103131213
1684000045407125600,4.050526123046875,1.8837497233720517,0.38332939131057664,0.03178834914537325
1684000045417167600,4.06056787109375,1.4397063255649256,0.25499820707986265,-0.03849172590558173
1684000045427209100,4.070609619140625,0.9098576903133484,0.1460227966634338,-0.2128162383610966
1684000045437250700,4.080651123046875,0.4357659816311456,-0.22116279599671915,-0.2879741191815423
1684000045447292300,4.090692626953125,0.07731175416251695,-0.5002870559461378,-0.3979947568575683
1684000045457334200,4.100734619140625,-0.18374383444159306,-0.6176910401532635,-0.610821008598607
1684000045467375800,4.110776123046875,-0.33497005693899456,-0.6427621840392229,-0.8502700330103639
1684000045477417400,4.12081787109375,-0.37258607143581474,-0.6112689971709532,-1.1174173354653363
1684000045487459000,4.130859375,-0.3255791665153596,-0.549487113959769,-1.3522311450525784
1684000045497500800,4.1409013671875,-0.20898774266817488,-0.42165946954749467,-1.490832686291005
1684000045507542400,4.15094287109375,-0.13344267004212873,-0.5337953567390861,-1.5968059301942987
1684000045517584000,4.160984375,-0.04231730095610137,-0.4580640793043253,-1.5786544084973633
1684000045527625600,4.171026123046875,0.08344298607784492,-0.43537425980074207,-1.5901613235668426
1684000045537667600,4.18106787109375,0.16172701120736727,-0.3109436034119216,-1.5563334226122176
1684000045547709100,4.191109619140625,0.21770215039852814,-0.2061252593293514,-1.1905124188006522
1684000045557750600,4.201151123046875,0.23626796902767946,-0.13160228719542186,-0.7046411036267191
1684000045567792600,4.21119287109375,0.3111835121995124,-0.1002798080426037,-0.3410947322735805
1684000045577834200,4.221234619140625,0.4267908930981605,-0.07650089268880954,-0.09103703496578165
1684000045587875800,4.231276123046875,0.6076769232106963,0.02128219591804867,0.0227694511838685
1684000045597917400,4.24131787109375,0.8640937208500131,0.12140655534955576,0.1371846199102409
1684000045607959200,4.251359619140625,1.1012817622152724,0.1498498916623506,0.21395683282630545
1684000045618000800,4.261401123046875,1.272255539783726,0.06110763548334407,0.35482358940285924
1684000045628042400,4.27144287109375,1.3533822299216116,0.07036590581852524,0.3969721793360146
1684000045638084000,4.281484375,1.3830306528259058,0.012606620896451455,0.48855543146390623
1684000045648125900,4.2915263671875,1.3428456783551415,0.04575824746442295,0.4172437190096209
1684000045658167500,4.30156787109375,1.1970819234238106,0.1481418608266295,0.33164238940429497
1684000045668209100,4.311609375,1.1047754286895481,0.05634498579813167,0.38546657574431015
1684000045678250600,4.321651123046875,0.9932436347542277,0.028403282274374376,0.2883989810698782
1684000045688292600,4.33169287109375,0.9828664064886706,0.043063163705935326,0.14003992083309905
1684000045698334100,4.341734619140625,1.021020054807127,0.05997085574086681,0.05865621564555888
1684000045708375700,4.351776123046875,0.9807771443108203,0.0384044646450682,0.03896570219022621
1684000045718417300,4.361817626953125,0.8864094018738456,0.03356361400295802,-0.0953154565194679
1684000045728459200,4.371859619140625,0.7564232945610487,0.03596115111026153,-0.16679930674492002
1684000045738500800,4.381901123046875,0.6024181247813841,0.11962223049984994,-0.2496254444992289
1684000045748542400,4.39194287109375,0.4528796970710946,-0.05259990691514794,-0.2226936818382094
1684000045758584000,4.401984375,0.3903405072183058,-0.145697593572866,-0.19372606268513695
1684000045768625800,4.412026123046875,0.39039084322500234,-0.13112640380306143,-0.16492199891638828
1684000045778667400,4.42206787109375,0.4683505892984083,-0.12619400033605563,-0.05038881312837427
1684000045788709000,4.432109375,0.5799155235748089,-0.1835088730892137,0.04667425149962786
1684000045798750900,4.4421513671875,0.6593065858030357,-0.19769382484714307,0.12915587433669373
1684000045808792600,4.45219287109375,0.7580021618459952,-0.22619247432097936,0.1755435467706388
1684000045818834100,4.462234375,0.8279480339541081,-0.20204544065873092,0.231475591660802
1684000045828876000,4.4722763671875,0.8522579670486478,-0.14699077604779218,0.22972011582835164
1684000045838917600,4.48231787109375,0.8621888755652676,-0.08974266057760842,0.21346497532784794
1684000045848959200,4.492359619140625,0.8653665183926924,-0.006498336756508771,0.1562492846728209
1684000045859000800,4.502401123046875,0.8681613207368126,0.03584575635630327,0.10605764390378897
1684000045869042600,4.512443115234375,0.8509949446237787,0.018266677839413978,0.03893589960441249
1684000045879084200,4.522484619140625,0.8021454809914308,-0.01602268225448632,0.007695674942041348
1684000045889125800,4.532526123046875,0.7463306785229008,-0.012071609604011862,-0.023634910652435216
1684000045899167400,4.54256787109375,0.6939736604750001,-0.005816459770090021,-0.06705760962700326
1684000045909209300,4.552609619140625,0.6672972441564505,-0.01627254490827358,-0.06016993539346658
1684000045919250900,4.5626513671875,0.6709912419994166,-0.07444858548592322,-0.07713341713203126
1684000045929292500,4.57269287109375,0.66169100997284,-0.08710765825871217,-0.12510800370208194
1684000045939334100,4.582734375,0.6111959218379149,-0.09723854053814933,-0.2156116963375382
1684000045949375900,4.5927763671875,0.6207492352297821,-0.10005760194541546,-0.2147452830971519
1684000045959417600,4.60281787109375,0.6594025492505472,-0.12908077243042695,-0.21843004223056725
1684000045969459100,4.612859619140625,0.7144564389945253,-0.1509084701882262,-0.21499347669459298
1684000045979501000,4.6229013671875,0.7945460678955993,-0.14873409256253906,-0.17544698728203753
1684000045989542600,4.63294287109375,0.8519236445382106,-0.11789989479017544,-0.09765815749252223
1684000045999584200,4.642984619140625,0.9217029213334379,-0.09794330590485599,-0.013369083490219022
1684000046009625800,4.653026123046875,0.9520094394085744,-0.08807373047443916,0.02149057385565397
1684000046019667600,4.663068115234375,1.001794695883063,-0.08093070992662885,0.02697134019342868
1684000046029709200,4.673109619140625,1.0081920625301641,-0.1117019653035632,0.03437757490536981
1684000046039750800,4.683151123046875,0.9824950695938967,-0.11852455137576494,0.04841518416219232
1684000046049792400,4.69319287109375,0.9364624022862871,-0.08284282672544935,-0.0013320446546886608
1684000046059834300,4.703234619140625,0.8825185895375968,-0.05255031592930836,0.013034582123406349
1684000046069875900,4.7132763671875,0.8262885807651866,-0.013716697665803914,-0.009270906445922095
1684000046079917600,4.72331787109375,0.7660893796943224,-0.006513595460215798,-0.06291627884674833
1684000046089959100,4.733359375,0.7042616604147836,-0.004404067889267705,-0.10936999317971241
1684000046100000900,4.7434013671875,0.6288304329560185,-0.009698867822470474,-0.13239431400987947
1684000046110042600,4.75344287109375,0.5636897683229627,-0.036424636779167414,-0.16775655738658568
1684000046120084100,4.763484619140625,0.48785185804666537,-0.041838645765662735,-0.191656827741334
1684000046130126000,4.7735263671875,0.43505081520741173,-0.016854286032196998,-0.22536087043120348
1684000046140167600,4.783568115234375,0.3794158398728895,0.0050878523650688965,-0.2709462642161154
1684000046150209200,4.793609619140625,0.3490125836005646,-0.025426864797901204,-0.278841018649397
1684000046160251100,4.8036513671875,0.27468413116155177,-0.06046390550949351,-0.30390310298894735
1684000046170292600,4.813693115234375,0.22050610201927262,-0.11865806576950327,-0.33841872206459356
1684000046180334300,4.823734619140625,0.18124352402837143,-0.11007213599863498,-0.40314936646248334
1684000046190375900,4.8337763671875,0.140441074882189,-0.061674118064848606,-0.38681578629312685
1684000046200417600,4.843818115234375,0.09858508406795519,0.011739730830786036,-0.4108018876131587
1684000046210459300,4.853859619140625,0.07497295730784664,0.0838527678187343,-0.40848088268233784
1684000046220500900,4.8639013671875,0.06948080655459977,0.0934753417117559,-0.35907006266204283
1684000046230542800,4.873943115234375,0.027769595445457828,0.10063838952737579,-0.3217766284072845
1684000046240584400,4.88398486328125,0.04239019748767721,0.14320850369247384,-0.3029692173586126
1684000046250626000,4.8940263671875,0.05822509528142585,0.17587757100883014,-0.20340895663447592
1684000046260667600,4.90406787109375,0.06344503175616831,0.2175951005015609,-0.12343454354082041
1684000046270709400,4.91410986328125,0.08858287344993411,0.23285007472527122,-0.0604925157069609
1684000046280751000,4.9241513671875,0.13966712358350758,0.20555973056722976,0.0043330193678007105
1684000046290792600,4.934193115234375,0.13985610007931357,0.12223148337810022,0.07535219192810406
1684000046300834600,4.94423486328125,0.1528503896157731,0.06140804295086574,0.11445069305301235
1684000046310876100,4.9542763671875,0.11675268402541428,0.006264686684984115,0.12449336062333267
1684000046320917600,4.964318115234375,0.06775861977445401,-0.024539947523515505,0.1245560646291547
1684000046330959300,4.974359619140625,-0.002695202853194153,0.0038089751944548147,0.03222608559116104
1684000046341001100,4.984401611328125,-0.05136781941821663,0.05972957625734423,-0.05668187139546781
1684000046351042700,4.994443115234375,-0.09219402062727387,0.0697956085131557,-0.13503432285418004
1684000046361084300,5.004484619140625,-0.08290094152850651,0.14555168145287828,-0.24971961984579427
1684000046371126200,5.014526611328125,-0.12075477844442974,0.12098884574620088,-0.26154875755556056
1684000046381167800,5.024568115234375,-0.11554110053074297,0.12243175524762928,-0.35853981977951216
1684000046391209400,5.03460986328125,-0.1313537954729722,0.1141386033192247,-0.37677550319213604
1684000046401251000,5.0446513671875,-0.1393269897169652,0.06810092935119327,-0.41852211962155267
1684000046411292800,5.054693359375,-0.16039866203246972,-0.019616126938224447,-0.40286159505134655
1684000046421334400,5.06473486328125,-0.2195445299442806,-0.06349182125964166,-0.43629932407709476
1684000046431376000,5.0747763671875,-0.31768929950480607,-0.10900402068621709,-0.4660487175796901
1684000046441417900,5.084818359375,-0.40271008012376747,-0.08933639523319926,-0.439895868247513
1684000046451459600,5.09485986328125,-0.4664076566687512,-0.06060695649870186,-0.3585815429064341
1684000046461501100,5.104901611328125,-0.44571161267522247,-0.02780342088332181,-0.31785750384181666
1684000046471542600,5.114943115234375,-0.33323067427770064,0.013783454781378083,-0.25774574293841207
1684000046481584600,5.12498486328125,-0.1207650899817102,0.023679733246017555,-0.24486684800299524
1684000046491626200,5.135026611328125,0.10331809524453961,0.011424064729545247,-0.20100188264508087
1684000046501667800,5.145068115234375,0.26992928976509023,-0.020510673644648557,-0.21751618385725488
1684000046511709600,5.155110107421875,0.3700342773270667,-0.06473827359090224,-0.2681875229471354
1684000046521751200,5.165151611328125,0.4168345928181121,-0.15201377861080748,-0.3241395950309658
1684000046531792800,5.175193115234375,0.39450538164613186,-0.23820781712148334,-0.36615705502251156
1684000046541834400,5.18523486328125,0.32599502796739405,-0.3371791839096655,-0.43225765233564384
1684000046551876300,5.195276611328125,0.16473257547780704,-0.40635681161861026,-0.524655818848967
1684000046561917900,5.205318359375,-0.016916871203590138,-0.48849201215860394,-0.6449911596127683
1684000046571959500,5.21535986328125,-0.26094961165424746,-0.6019058228496235,-0.7803347110106488
1684000046582001300,5.225401611328125,-0.5400258301267721,-0.7811517716237516,-0.8920931816162041
1684000046592042900,5.235443359375,-0.8914624452520999,-1.0873174667203382,-0.9483244419972529
1684000046602084600,5.24548486328125,-1.3492859600887979,-1.4607915877419446,-1.0020925998237336
1684000046612126400,5.25552685546875,-1.955639243287313,-1.8176689147972978,-1.0074701310865313
1684000046622168000,5.265568359375,-2.6824305057237208,-2.010374069156187,-0.9269118309436843
1684000046632209600,5.27560986328125,-3.4598517417652523,-1.9237060547712965,-0.7214009760727446
1684000046642251200,5.285651611328125,-3.9268267154506504,-1.5910177231316345,-0.385715007683252
1684000046652293000,5.295693359375,-3.4137396812442447,-1.1943101882999376,-0.03560614592864833
1684000046662334600,5.305735107421875,-2.476449489530105,-0.9137887955888427,0.2365720273554925
1684000046672376200,5.315776611328125,-1.7019661663872665,-0.7485141754452098,0.5098538397228031
1684000046682418100,5.325818603515625,-1.2256257534423207,-0.6629419326608168,0.8999245167196173
1684000046692459600,5.335860107421875,-1.0166025161433168,-0.5651750564675834,1.2411952020197055
1684000046702501300,5.345901611328125,-1.0583243369700404,-0.42322444921898333,1.3783490658265005
1684000046712542900,5.355943359375,-1.4049539564936577,-0.3148546219094214,1.327152013753602
1684000046722584800,5.365985107421875,-1.6494781971453296,-0.20487689965788722,0.9831187725363516
1684000046732626400,5.37602685546875,-1.446709632894285,0.02716827399088108,0.32702684402402266
1684000046742668000,5.386068359375,-0.8633656500526242,0.2137432098547591,-0.18126869189459713
1684000046752709800,5.396110107421875,-0.4100601673144631,0.36714363108417875,-0.599835634168393
1684000046762751400,5.40615185546875,-0.015700101941716525,0.47537517562636133,-0.8540849685493351
1684000046772793000,5.416193359375,0.3525855539997547,0.6168146131731107,-0.8850884438673127
1684000046782834900,5.4262353515625,0.6559408903004448,0.711334228474276,-0.4781475067061944
1684000046792876500,5.43627685546875,0.9975959062275355,0.8474068641704108,0.2135505676124926
1684000046802918100,5.446318359375,1.5001980066213885,1.00726652146674,1.0775718688032858
1684000046812959600,5.456360107421875,2.1990284920391963,1.1971192360320877,1.7974057197681004
1684000046823001600,5.46640185546875,2.7560634613408133,1.361318111487086,2.363291978869078
1684000046833043100,5.476443603515625,2.8097620009974245,1.4918880461196706,2.6367146968693826
1684000046843084600,5.486485107421875,2.0831217767254833,1.5209650992653496,2.737897872910618
1684000046853126600,5.49652685546875,1.0913611649581316,1.6031479835995412,2.6421797275518695
1684000046863168200,5.506568603515625,0.07370972628541639,1.6559400557563662,2.47775006296098
1684000046873209800,5.516610107421875,-0.7490661143174139,1.5704698563230695,2.0172724723158013
1684000046883251600,5.526652099609375,-1.2156691551915673,1.5092105864165544,1.0647971629570863
1684000046893293200,5.536693603515625,-1.1922483444890704,1.3651938438088398,0.15315866464446926
1684000046903334800,5.5467353515625,-0.7439336777736214,1.1372957228357596,-0.5356447697821559
1684000046913376400,5.55677685546875,-0.22736287113819362,0.9445743561303082,-1.1164731979077716
1684000046923418300,5.566818603515625,0.2484717370973892,0.7029848100171925,-1.5581347941286496
1684000046933459900,5.5768603515625,0.574562072851829,0.5026216506318159,-1.850262880207588
1684000046943501600,5.58690185546875,0.7550820111786221,0.33205986014298594,-1.94737780092588
1684000046953543300,5.59694384765625,0.8788563013847817,0.2481174468227345,-1.8551393748404763
1684000046963584900,5.6069853515625,0.817240715026641,0.28973484032370433,-1.6432116031349904
1684000046973626600,5.61702685546875,0.5244939326502068,0.28020477293864693,-1.2938337325259628
1684000046983668400,5.62706884765625,0.19182920458189961,0.19143867484217586,-0.9290454388836583
1684000046993710000,5.6371103515625,-0.10181879997852494,0.07522010796314822,-0.6140623092402016
1684000047003751600,5.647152099609375,-0.21433377269209908,-0.039728164726053256,-0.3878569603655387
1684000047013793500,5.65719384765625,-0.18843126302185934,-0.11218547817161968,-0.25706434252403904
1684000047023835100,5.6672353515625,-0.09719705570480298,-0.11988830573756896,-0.167480707207549
1684000047033876600,5.677277099609375,-0.08449697488619044,-0.11722183241705786,-0.12460899353230162
1684000047043918600,5.68731884765625,-0.20186853406922067,-0.16387557995694516,-0.09891533850732191
1684000047053960100,5.697360595703125,-0.39438557619522685,-0.14322090146262545,-0.11881566055501501
1684000047064001600,5.707402099609375,-0.6166410446758014,-0.11096954357595464,-0.16989517193437514
1684000047074043300,5.717443603515625,-0.7211797237032682,-0.02235507961093534,-0.1425843238137351
1684000047084085200,5.727485595703125,-0.6724343299687178,-0.028072357228945168,-0.15913510316172882
1684000047094126800,5.737527099609375,-0.5408329962594481,-0.010677337599901724,-0.15260767934618233
1684000047104168400,5.74756884765625,-0.39976382245606246,-0.053544998051439946,-0.11862158781738083
1684000047114210200,5.757610595703125,-0.2987539768566883,-0.017654419032874635,-0.08612179764421805
1684000047124251800,5.76765234375,-0.22240638742682406,0.017998695306740486,0.03462719915352237
1684000047134293400,5.77769384765625,-0.11625099186063075,0.08183193203275199,0.17300128930639466
1684000047144335300,5.787735595703125,-0.046972513282160136,0.12106132498084438,0.31423330310039527
1684000047154376900,5.79777734375,0.10331773754777203,0.06136226659481485,0.48878073706768654
1684000047164418600,5.80781884765625,0.2102811336983227,0.1393709182069067,0.6104080677003748
1684000047174460300,5.81786083984375,0.354693532127882,0.2546815870998752,0.6866445540430927
1684000047184501900,5.82790234375,0.4593130351310868,0.3215351104669984,0.7728383542176064
1684000047194543600,5.83794384765625,0.4515253304269598,0.47436332698967293,0.7481393813287293
1684000047204585400,5.84798583984375,0.32361400127986145,0.3885068893053595,0.7995409965348148
1684000047214627000,5.85802734375,0.0910165309218082,0.27431297309399943,0.8497679232824006
1684000047224668600,5.868069091796875,-0.14352798467939698,0.2220525741687772,0.767410755218873
1684000047234710400,5.87811083984375,-0.3799440861916005,0.10700702658057167,0.5773668290111131
1684000047244752000,5.88815234375,-0.5257108212154389,0.0008192061933475753,0.41930580129945333
1684000047254793600,5.898194091796875,-0.5163583754661629,-0.041459083636268504,0.28429245945059983
1684000047264835200,5.908235595703125,-0.33707761772994466,-0.05548954013329067,0.20794844626232709
1684000047274877100,5.918277587890625,-0.08336615568096564,-0.06982517252408484,0.15089583387068597
1684000047284918600,5.928319091796875,0.13042688375394149,-0.007774352843865173,0.10520958913715943
1684000047294960300,5.938360595703125,0.2599751949030214,0.05921936033679752,-0.014949560241385124
1684000047305002200,5.948402587890625,0.2142256497334318,0.047699928462576036,-0.12574625025544955
1684000047315043800,5.958444091796875,0.0775744915096178,0.06750392920591067,-0.19901633254710221
1684000047325085400,5.96848583984375,-0.16768360124538426,0.060738563375516426,-0.24052143099546022
1684000047335127200,5.978527587890625,-0.4992520809540111,0.03627395621868663,-0.26978802688441533
1684000047345168800,5.9885693359375,-0.7893788813974651,0.02206611630190607,-0.3250290154743485
1684000047355210400,5.99861083984375,-0.9523661137360983,-0.03755092615029353,-0.25665736189866517
1684000047365252300,6.008652587890625,-0.8308534621780496,-0.00173377981933781,-0.15883374217646073
1684000047375293900,6.0186943359375,-0.41913080197544433,0.12278556825475706,0.04212594019058926
1684000047385335500,6.02873583984375,0.007855892051065414,0.23662662498243534,0.25325298314753386
1684000047395377300,6.03877783203125,0.29602301117244756,0.3933429716871645,0.4272336959611179
1684000047405418900,6.0488193359375,0.44415855406983445,0.5456066130516952,0.6316900252794272
1684000047415460600,6.05886083984375,0.45069122309561427,0.6695594788411767,0.7619357108817157
1684000047425502400,6.06890283203125,0.3031425474777675,0.7888078690099767,0.8898484706570785
1684000047435544000,6.0789443359375,0.21108818045485583,0.879085540711951,0.9889457225231086
1684000047445585600,6.088986083984375,0.23413753501913562,0.9714879989948125,1.0568954943579327
1684000047455627400,6.09902783203125,0.25143206124381606,1.0328435897911339,1.0914175512076605
1684000047465669000,6.1090693359375,0.2736998794747497,1.0533189773072087,1.126632690268508
1684000047475710600,6.119111083984375,0.342544317253163,1.0950679780999808,1.1267349720942281
1684000047485752600,6.12915283203125,0.4798243046784394,1.0261058808147008,1.1744430065757983
1684000047495794100,6.139194580078125,0.6020302773843227,1.04747962945846,1.2135887146594033
1684000047505835600,6.149236083984375,0.6142185926715558,1.1087045669181788,1.1586878299323526
1684000047515877600,6.15927783203125,0.6710022687619336,1.0540628432641996,1.213471651039569
1684000047525919200,6.169319580078125,0.7687828541341435,0.931210518010022,1.2110145091420488
1684000047535960800,6.179361083984375,0.8449070452011526,0.7857027053457147,1.0684018135807394
1684000047546002600,6.189403076171875,0.7877898215423741,0.7154808044498745,0.8445739746100902
1684000047556044200,6.199444580078125,0.6656416654448918,0.5000572203657139,0.7325041293181053
1684000047566085800,6.209486328125,0.30439925206167556,0.42568778975060906,0.44039607040753287
1684000047576127600,6.219528076171875,-0.23477530488017787,0.44136810296105083,0.09586453448227558
1684000047586169300,6.229569580078125,-0.7639961241385396,0.38405513763414184,-0.2503285409149227
1684000047596210900,6.239611328125,-1.2067409752038118,0.07658386229235223,-0.33328557026106453
1684000047606252600,6.249653076171875,-1.5836486817193773,-0.10084533693617931,-0.6274063587697992
1684000047616294300,6.25969482421875,-1.786377430096219,-0.1864309311872954,-0.8105462789826117
1684000047626335900,6.269736328125,-1.5282670259865292,-0.1846361160426717,-0.9450066090497776
1684000047636377800,6.279778076171875,-0.9752109051912197,-0.08757209788019911,-0.9211896659271688
1684000047646419400,6.28981982421875,-0.39188253880600554,0.04329681408450366,-0.8353524207379248
1684000047656461000,6.299861328125,0.05120891324414745,-0.08322525019780672,-0.5908269883120008
1684000047666502800,6.3099033203125,0.20020192850739021,-0.531292915271744,-0.3396558761752488
1684000047676544400,6.31994482421875,-0.019147336372148032,-1.106853485264341,-0.05517315864203996
1684000047686586000,6.329986328125,-0.5647919179059145,-1.74753475193321,0.22563266755362302
1684000047696627900,6.3400283203125,-1.1394976378252588,-2.436331748859448,0.7264297008226239
1684000047706669600,6.35006982421875,-1.6234347818993744,-3.0465621948934416,1.220537185680721
1684000047716711100,6.360111572265625,-1.8330399989490436,-3.5332498550670537,1.7391200066718495
1684000047726752900,6.3701533203125,-1.8496685027097914,-3.9280099868698475,2.1789679527971257
1684000047736794600,6.38019482421875,-1.5882408618176889,-3.4928607938981884,2.321778297355127
1684000047746836100,6.390236572265625,-1.303502559615046,-1.4681892393775546,1.8521900178014097
1684000047756878000,6.4002783203125,-0.9530967472806869,-0.06615829484558917,1.7862489223880638
1684000047766919600,6.410320068359375,-0.39712759858031416,0.9166030883824609,1.7420437334745684
1684000047776961200,6.420361572265625,0.23482492560746976,1.3737096786195688,1.7381777762361432
1684000047787003100,6.430403564453125,0.8564654588191214,1.67460775378722,1.6135919092497941
1684000047797044600,6.440445068359375,1.2202856540860645,1.9035720825496778,1.3556938172460562
1684000047807086300,6.450486572265625,1.3116170168432342,2.1425681113248336,0.9862351417829681
1684000047817128100,6.460528564453125,1.181758403744628,2.3424329757243854,0.614015817720246
1684000047827169600,6.470570068359375,0.9252582788321743,2.2607126236083297,0.5020565986505755
1684000047837211300,6.48061181640625,0.5809392929406786,1.6741447449520137,0.6050570011112494
1684000047847253200,6.490653564453125,0.3282179834015521,0.7936353682882638,0.7989871502116126
1684000047857294800,6.500695068359375,0.1010371595592082,0.0754079818335764,0.6628205775985326
1684000047867336400,6.51073681640625,-0.04152019322522081,-0.20360469808193682,0.28405404091892406
1684000047877378200,6.520778564453125,-0.039245680048813875,-0.24435520173376102,-0.053930282589317716
1684000047887419800,6.5308203125,0.14104324573711746,-0.15231513989656492,-0.22437500934612398
1684000047897461600,6.540862060546875,0.46488142031441443,0.09557914723751505,-0.26358914374438513
1684000047907503300,6.550903564453125,0.8199849129626441,0.30999469745827274,-0.21160721791053722
1684000047917544900,6.5609453125,1.1331462859421715,0.32143974297869565,-0.009322643182682028
1684000047927586600,6.57098681640625,1.351889610169528,0.18058681502489848,0.29251265509955654
1684000047937628300,6.58102880859375,1.466500043819477,-0.04535579668266517,0.7266585826358598
1684000047947669900,6.5910703125,1.4872924088674335,-0.2584152222432651,1.1202034950388786
1684000047957711600,6.60111181640625,1.3942315578480848,-0.1986064910245063,1.436507225057015
1684000047967753400,6.61115380859375,1.2343543767606593,-0.060639381377795655,1.6235909460509939
1684000047977795000,6.6211953125,1.0751595497459694,0.0879831314284419,1.6396415233642523
1684000047987836600,6.631237060546875,0.9705072641538824,0.24229621882783317,1.536956787123874
1684000047997878400,6.64127880859375,0.8595560192678176,0.3569040298325858,1.3777678014447576
1684000048007920000,6.651320556640625,0.8255417944176457,0.2767868041637751,1.3106071948415228
1684000048017961900,6.6613623046875,0.8593670130391708,0.29165172575807297,1.169068336418791
1684000048028003600,6.67140380859375,0.9248495103196489,0.31558418267315785,1.085861206016053
1684000048038045100,6.681445556640625,1.022041559054076,0.3081970213873903,1.047461509614059
1684000048048087000,6.6914873046875,1.1446310281159375,0.27908706676903905,1.032168626703093
1684000048058128600,6.701529052734375,1.1786519287822135,0.25930309302786925,1.039768218962033
1684000048068170200,6.711570556640625,1.1707658766812752,0.25377464296715,0.9634382724825327
1684000048078212000,6.7216123046875,1.176665544471649,0.2362842559516986,0.8467054367132986
1684000048088253600,6.731654052734375,1.1506732701019025,0.23304557799991563,0.6583201884721824
1684000048098295200,6.741695556640625,1.064054966039419,0.23478507983583763,0.4426679611120355
1684000048108337100,6.751737548828125,0.9480215907268452,0.1676807402479384,0.27706909170224603
1684000048118378600,6.761779052734375,0.7909762860186288,0.08194923409025826,0.19679903986974526
1684000048128420600,6.771821044921875,0.628991007871921,-0.060760497952440304,0.20094442360997755
1684000048138462100,6.781862548828125,0.48871862890904405,-0.2029905320153844,0.1818091868965579
1684000048148503700,6.791904052734375,0.37490540741990136,-0.270652770968772,0.1945760249947232
1684000048158545600,6.801946044921875,0.2943693399343306,-0.28773403151830984,0.2012958526363575
1684000048168587200,6.811987548828125,0.2021118401592551,-0.23032379158162014,0.2932658196121262
1684000048178628800,6.822029296875,0.15697336201735843,-0.13928031921348644,0.46027660380274776
1684000048188670600,6.832071044921875,0.11942195898231378,-0.0795154570760501,0.6218767166270791
1684000048198712200,6.842112548828125,0.10404109967752269,0.046880722000069285,0.7012875079589083
1684000048208753800,6.852154296875,0.12939813746612977,0.1417856216617134,0.7988715171551914
1684000048218795600,6.862196044921875,0.1471611560729043,0.25058174150147267,0.8259978293683448
1684000048228837300,6.87223779296875,0.16455981141535614,0.2777376173910759,0.8521838186936993
1684000048238878900,6.882279296875,0.19856965557088083,0.27367687228972737,0.8394386768474876
1684000048248920800,6.892321044921875,0.23700684307628817,0.2862167359192523,0.8546695708737891
1684000048258962400,6.90236279296875,0.28422456997124745,0.2747936249180235,0.7811222076732038
1684000048269004000,6.912404296875,0.3562414648005016,0.19659137729190454,0.7723493575176822
1684000048279045800,6.9224462890625,0.42095148566643925,0.1376581192279761,0.7897603511196876
1684000048289087400,6.93248779296875,0.46583947525721564,0.15299415579132328,0.7573862076600618
1684000048299129300,6.94252978515625,0.49765309688882226,0.1327123641948583,0.7308845521449574
1684000048309170900,6.9525712890625,0.49735900774659014,0.15809154507545226,0.7173652648860757
1684000048319212500,6.96261279296875,0.48666080821426916,0.20041656509303235,0.685937404563616
1684000048329254300,6.97265478515625,0.46352845443890517,0.23103523261529613,0.6940917968709464
1684000048339295900,6.9826962890625,0.42957761888859536,0.24882316595225165,0.6959667204479562
1684000048349337600,6.992738037109375,0.37083193641434276,0.21953392036917127,0.7741727828425929
1684000048359379400,7.00277978515625,0.35643476254240525,0.2474441528596129,0.8046171664286953
1684000048369421000,7.0128212890625,0.37431234126510365,0.26558303836308406,0.8135673999596321
1684000048379462600,7.022863037109375,0.41686227920262037,0.2529497147770584,0.8155951499094768
1684000048389504400,7.03290478515625,0.504382133430203,0.24523735052130552,0.8033411502753783
1684000048399546000,7.042946533203125,0.5531544686540643,0.22825050352454457,0.7324113844861492
1684000048409587900,7.05298828125,0.5819717644614495,0.20220279695465831,0.688833236731656
1684000048419629600,7.06302978515625,0.5815036297380316,0.18595981609788687,0.6482191084654513
1684000048429671100,7.073071533203125,0.5759845375068914,0.14185237884795332,0.5898833275229038
1684000048439712900,7.08311328125,0.5517059564602436,0.09379482267362278,0.5843739508849947
1684000048449754600,7.093155029296875,0.5254664420156431,0.0514230727756871,0.5724914073499906
1684000048459796400,7.10319677734375,0.47860220073827997,0.05698490135682567,0.5471570490192532
1684000048469838000,7.11323828125,0.44938519589588327,0.08614063258907774,0.4685404300784952
1684000048479879600,7.123280029296875,0.4097858666075102,0.07491493216512948,0.3868210315967628
1684000048489921500,7.13332177734375,0.357738494882724,0.031007766721698332,0.28781151753086937
1684000048499963100,7.143363525390625,0.3192425965531494,-0.012038230827248706,0.2402212620011868
1684000048510004600,7.153405029296875,0.28441330784239044,-0.04249000552164633,0.19843864452833526
1684000048520046600,7.163447021484375,0.2765727640286125,-0.011153221130094367,0.15990304951907952
1684000048530088100,7.173488525390625,0.28156471246890186,0.026850700367134404,0.18357729913245857
1684000048540129600,7.183530029296875,0.3302029967649152,-0.006252288919628838,0.26609826079556687
1684000048550171600,7.193572021484375,0.37930032602054553,0.029532432545255522,0.3473560810422532
1684000048560213200,7.203613525390625,0.4193466901611818,0.04353332514036546,0.42714285852809886
1684000048570255000,7.213655517578125,0.4573742747867644,0.09724998464626967,0.4746620655126157
1684000048580296600,7.223697021484375,0.4910517335673015,0.1522722244864328,0.5443103313248402
1684000048590338200,7.233738525390625,0.5298268794864438,0.19200038895030783,0.5694611073578144
1684000048600380100,7.243780517578125,0.5660395621988856,0.20256519321345462,0.5674095155029254
1684000048610421600,7.253822021484375,0.5752308369444463,0.19860839848886713,0.5835452079765381
1684000048620463600,7.263864013671875,0.5639048815300174,0.19917297366396503,0.5751814841976531
1684000048630505100,7.273905517578125,0.5365157722814001,0.1689205169730685,0.5311715604399359
1684000048640546700,7.283947021484375,0.4744219779318812,0.1484069824231066,0.4804408550090702
1684000048650588600,7.293989013671875,0.4089831412143777,0.13517665868982767,0.4044435024896833
1684000048660630200,7.304030517578125,0.34060281511317125,0.11505794529466189,0.3509171009943952
1684000048670671800,7.314072265625,0.2928375899413983,0.0952625274084317,0.23014473917574438
1684000048680713600,7.324114013671875,0.20868116610303097,0.052236557037132786,0.15859675409935095
1684000048690755200,7.33415576171875,0.1451216638091492,0.059305190929492095,0.0858843326562725
1684000048700796800,7.344197265625,0.06900662179918586,0.023768425108343757,0.014195919009862099
1684000048710838600,7.354239013671875,-0.01621612899896404,0.012207984878286247,-0.040266752290368656
1684000048720880300,7.36428076171875,-0.07625892750531284,-0.0017499923514526336,-0.08759117127549292
1684000048730922200,7.374322509765625,-0.13401420417293042,-0.015785217124460203,-0.12827539442688074
1684000048740963800,7.3843642578125,-0.1698634327884534,-0.04642200472996274,-0.17209601392150936
1684000048751005400,7.39440576171875,-0.19384267937502367,-0.060462951507877075,-0.26148056983273643
1684000048761047200,7.404447509765625,-0.2066256105486349,-0.09573078171265414,-0.28217196471330175
1684000048771088800,7.4144892578125,-0.22756925233788844,-0.09768867495776244,-0.35286951057813265
1684000048781130600,7.424531005859375,-0.2428065389398011,-0.13755607610814055,-0.399836301718419
1684000048791172300,7.43457275390625,-0.2547557057521622,-0.19347381603222605,-0.4680588245523329
1684000048801214100,7.444614501953125,-0.27976447329177734,-0.19923114781948706,-0.5194377900083512
1684000048811255600,7.45465625,-0.3104061186927986,-0.20750522617189948,-0.5685451030650266
1684000048821297300,7.46469775390625,-0.29444295163348194,-0.17345714562683273,-0.6434528827337804
1684000048831338900,7.4747392578125,-0.2912676632811963,-0.18002128606516327,-0.6984019279613807
1684000048841380800,7.48478125,-0.2724767924937432,-0.16753101340624887,-0.7238219975903052
1684000048851422400,7.49482275390625,-0.23836569477500955,-0.16200542442748161,-0.7406791448505184
1684000048861464200,7.50486474609375,-0.2106475234815886,-0.16326236712289396,-0.7300182580835243
1684000048871505800,7.51490625,-0.20818926402810853,-0.16883182526298796,-0.7087326051179574
1684000048881547600,7.524947998046875,-0.1976051628648701,-0.17859172825510494,-0.6438288688650537
1684000048891589300,7.53498974609375,-0.17883244151240377,-0.17595386501903498,-0.580604314781712
1684000048901630900,7.54503125,-0.15924897787361192,-0.19656658176258499,-0.4558694361195975
1684000048911672800,7.5550732421875,-0.1272244453790316,-0.19543170940050916,-0.3346095084285525
1684000048921714400,7.56511474609375,-0.1231926306353203,-0.1847372054855876,-0.19809436801926836
1684000048931756200,7.575156494140625,-0.07136936481200658,-0.1412124634593411,-0.06343841559721068
1684000048941797800,7.5851982421875,-0.055093414967215405,-0.08905506131119484,0.024286270108052524
1684000048951839400,7.59523974609375,-0.05043464158565701,-0.019047737080156505,0.04682731621665617
1684000048961881300,7.60528173828125,-0.050263762460734544,0.08263874050042846,0.05944132822433472
1684000048971922900,7.6153232421875,-0.04047991322283854,0.14258289344329042,0.05788612349419804
1684000048981964500,7.62536474609375,-0.02148556710443474,0.16616058340044626,0.04935288443545581
1684000048992006300,7.63540673828125,-0.04332067068510462,0.193909645061687,0.07126569744229241
1684000049002047900,7.6454482421875,-0.05390696213769122,0.18093681332458064,0.05916643144100532
1684000049012089800,7.655490234375,-0.1172513365430157,0.16086196896386126,0.037052631389059364
1684000049022131400,7.66553173828125,-0.187750816368747,0.13383960739549539,-0.011277675680073344
1684000049032173000,7.675573486328125,-0.25059691059060885,0.06708526624500288,-0.05923438064580047
1684000049042214800,7.685615234375,-0.29333364975333726,0.03902149191484258,-0.07822680470625644
1684000049052256400,7.69565673828125,-0.3127954305692723,-0.005156517112686389,-0.09216451643729744
1684000049062298300,7.70569873046875,-0.3297005594139018,-0.025280952589174295,-0.12021422392787706
1684000049072339900,7.715740234375,-0.32009235032272676,-0.04048824314650986,-0.16165232656029377
1684000049082381600,7.725781982421875,-0.26074638955217555,-0.05309104917076113,-0.12859654437305768
1684000049092423300,7.73582373046875,-0.18146169167565723,-0.053737640283778816,-0.1259763240882694
1684000049102464900,7.745865234375,-0.07631170752730343,-0.0449886321789651,-0.05923938750526664
1684000049112506800,7.7559072265625,0.013524532352799996,-0.034010887131770945,0.009395599352315185
1684000049122548400,7.76594873046875,0.08039921519497785,-0.06546592694017832,0.01652026185120141
1684000049132590000,7.775990478515625,0.14736145728858513,-0.02547550189375097,0.10713958744952602
1684000049142631900,7.7860322265625,0.187709182379217,0.05421924580923782,0.16208767892780693
1684000049152673500,7.796073974609375,0.19201731683091444,0.12807655351506547,0.254206657434322
1684000049162715300,7.80611572265625,0.1821696161047688,0.2196044923207613,0.328201293851838
1684000049172756900,7.8161572265625,0.137579083501619,0.27654838561389106,0.38145804408314493
1684000049182798600,7.826198974609375,0.08032113314672266,0.3440427781405924,0.4419994355045638
1684000049192840400,7.83624072265625,0.036524951583712315,0.33936595921987056,0.518561601600542
1684000049202882000,7.846282470703125,-0.03168863053415006,0.3201189041086523,0.5634062291001465
1684000049212923800,7.85632421875,-0.051043569993798665,0.2817535400369907,0.6214647291838736
1684000049222965400,7.86636572265625,-0.1184340119546393,0.16817283625257282,0.6435084341463021
1684000049233007000,7.876407470703125,-0.17862224584140365,0.08216190328835091,0.6383590699375014
1684000049243048900,7.88644921875,-0.2456101775177995,0.03970527651600763,0.6605849267405426
1684000049253090600,7.896490966796875,-0.34884607795681205,-0.047256469768628274,0.6692545414117014
1684000049263132300,7.90653271484375,-0.44170647864693235,-0.09097003930286125,0.584708929065953
1684000049273173900,7.91657421875,-0.5115451813434536,-0.1932868957564626,0.5010802745215831
1684000049283215800,7.9266162109375,-0.5322980881626254,-0.24484539043283993,0.36948800098217266
1684000049293257400,7.93665771484375,-0.5306178331507512,-0.25581359854414115,0.19352865210657955
1684000049303299000,7.946699462890625,-0.5377626419468516,-0.27140617367845415,0.009873628568187525
1684000049313340800,7.9567412109375,-0.4649467469972606,-0.23489570612035096,-0.16694760315188495
1684000049323382400,7.966782958984375,-0.3595520258160476,-0.22939777375662576,-0.256985425933792
1684000049333424300,7.97682470703125,-0.25618958478936027,-0.2119607925876662,-0.349043369176078
1684000049343465900,7.9868662109375,-0.19847619538556693,-0.21332550053298624,-0.41520667069845746
1684000049353507600,7.996907958984375,-0.1604448556473718,-0.21919441229394593,-0.4284982682656728
1684000049363549400,8.00694970703125,-0.15866172322624159,-0.2719278334500225,-0.4373431204593905
1684000049373591000,8.016991455078125,-0.17361521720756712,-0.33533859252675385,-0.4462602137896092
1684000049383632800,8.027033203125,-0.23515367515745703,-0.37852001187733675,-0.5017642974607236
1684000049393674400,8.03707470703125,-0.2850177287895933,-0.4559354783209513,-0.454281330056952
1684000049403716000,8.047116455078125,-0.37185287480811635,-0.5176191330146054,-0.46293950079899204
1684000049413757900,8.057158203125,-0.416184306147743,-0.5923128127940502,-0.40691661843923055
1684000049423799500,8.067199951171874,-0.46988213052949596,-0.5856819151440138,-0.36479854584022786
1684000049433841300,8.07724169921875,-0.48538887493674276,-0.46614933016458976,-0.3103184699304105
1684000049443882900,8.087283447265625,-0.44275391104563505,-0.25193691255723893,-0.26228332523480835
1684000049453924800,8.0973251953125,-0.4023883341895658,-0.08363628383949327,-0.11296081528092343
1684000049463966400,8.10736669921875,-0.3527001143493674,-0.014945983937695457,-0.05591225608898676
1684000049474008200,8.11740869140625,-0.26967179783827144,0.06432056421962781,-0.002669572884739564
1684000049484049800,8.1274501953125,-0.23060679419645327,0.06731224062837432,0.11805939673158615
1684000049494091400,8.137491943359375,-0.23690617068710504,0.006912231408370701,0.19634890563359247
1684000049504133300,8.14753369140625,-0.22069644916186465,0.03231430044927674,0.2635681629249579
1684000049514174900,8.1575751953125,-0.22336399554812106,0.00996971130411387,0.3056142330379754
1684000049524216600,8.167616943359375,-0.19864141937387444,0.01341056824977776,0.33461093900825806
1684000049534258400,8.17765869140625,-0.19303059583272178,-0.016868591312992513,0.3389399051367854
1684000049544300000,8.187700439453126,-0.19838666900868615,-0.12995433813043458,0.3188564777264401
1684000049554341800,8.1977421875,-0.23583841317706472,-0.1925926208923551,0.28200626377132115
1684000049564383400,8.20778369140625,-0.2936737536771412,-0.23357295996631766,0.2105586529114162
1684000049574425300,8.21782568359375,-0.3457860946914679,-0.23667812355706827,0.10545825952129446
1684000049584466900,8.2278671875,-0.42177200327849523,-0.19592762008868367,0.05043721193114214
1684000049594508500,8.237908935546875,-0.44539642325051615,-0.17703151703571182,-0.032010078572501266
1684000049604550300,8.24795068359375,-0.43630766862770237,-0.10816192625300626,-0.17262101159835208
1684000049614591900,8.257992431640625,-0.41192150107698844,-0.058471679559498946,-0.28489589683655736
1684000049624633800,8.2680341796875,-0.34897828103341666,0.0008840561342996995,-0.3855352400088152
1684000049634675400,8.27807568359375,-0.257560253047619,0.01263809192011627,-0.41970849043942987
1684000049644717200,8.28811767578125,-0.2111694812882818,0.022127151420419496,-0.4520988464063421
1684000049654758800,8.2981591796875,-0.3162717820259237,-0.03499984737291809,-0.4456105231921041
1684000049664800600,8.308201171875,-0.3276479243751319,-0.042218208360054625,-0.4825851917468796
1684000049674842300,8.31824267578125,-0.23259115213903012,-0.0403947831051589,-0.5526313782332982
1684000049684883900,8.3282841796875,-0.15196514128699018,-0.06708335865472123,-0.5611696242370278
1684000049694925700,8.338326171875,-0.11061358443116646,-0.015626907254883977,-0.5073478223011166
1684000049704967300,8.34836767578125,-0.1575083732680104,0.03225135800822148,-0.31368088715102954
1684000049715009200,8.35840966796875,-0.20877981173449772,0.05464744586211124,-0.07946920385643554
1684000049725050800,8.368451171875,-0.1962783337171231,0.15278720857253475,0.12454152099964529
1684000049735092600,8.3784931640625,0.05300021169557933,0.33484554271059,0.2798919676449023
1684000049745134300,8.38853466796875,0.570611715353561,0.5552816389516206,0.40606665628308797
1684000049755175900,8.398576171875,1.0792825222243014,0.614348411503046,0.533127069316858
1684000049765217600,8.4086181640625,1.3096399307059727,0.5062522888271827,0.6982648371180068
1684000049775259300,8.41865966796875,1.3006907701685997,0.37047386184108033,0.8176593778915319
1684000049785301200,8.42870166015625,1.2042700053289244,0.3133010863686972,0.8296573160968697
1684000049795342800,8.4387431640625,0.9863299131390344,0.23925971982795904,0.7216236591425754
1684000049805384600,8.448784912109375,0.8325334787031231,0.27775287631257567,0.6474535464892414
1684000049815426200,8.45882666015625,0.6115720272545548,0.4306240082446942,0.5791237354709696
1684000049825467800,8.4688681640625,0.4369661808177372,0.6479845045588547,0.47432875647053474
1684000049835509600,8.47891015625,0.37845659260467823,0.7921609879798263,0.468162775143601
1684000049845551300,8.48895166015625,0.4684648513889622,0.8544511794749555,0.47584176060663863
1684000049855593100,8.49899365234375,0.5410795212125684,0.7953500748203409,0.5590624810538284
1684000049865634700,8.50903515625,0.5832612513244181,0.8806009293012799,0.6316537858199198
1684000049875676600,8.519076904296876,0.6666707990986799,0.9834527969361567,0.6129939555984056
1684000049885718200,8.52911865234375,0.7777538299809619,1.0514736175053112,0.5835218429310806
1684000049895760000,8.539160400390625,0.8934555054153344,1.0562100410233457,0.5182998179844793
1684000049905801600,8.5492021484375,0.9669104814431545,1.0265388487638254,0.44478178033832383
1684000049915843200,8.55924365234375,0.9465290306789539,0.864689826898176,0.43561410896610864
1684000049925885100,8.569285400390624,0.8447058202390443,0.7263231277820033,0.41709709158208547
1684000049935926600,8.5793271484375,0.7594654559777869,0.556626319817292,0.37771797182504485
1684000049945968600,8.589368896484375,0.6164352894086128,0.42052459724007674,0.30877614025851574
1684000049956010200,8.59941064453125,0.4725828171123842,0.3777513502394408,0.1935348511589708
1684000049966052000,8.609452392578126,0.32540225982622667,0.3801841737206484,0.0746648311169364
1684000049976093600,8.619493896484375,0.18030881878160282,0.38900566109874596,-0.11071920400413734
1684000049986135600,8.629535888671874,0.009698152442191018,0.3820257185676047,-0.29180574398589687
1684000049996177100,8.639577392578126,-0.15622901920753732,0.39201545723944903,-0.46933627129789735
1684000050006218600,8.649619140625,-0.2589743137850439,0.36368465420273577,-0.6360886097587748
1684000050016260600,8.659660888671874,-0.3341128825606417,0.36897373208096135,-0.7840523718763576
1684000050026302100,8.66970263671875,-0.44196057329418825,0.2959556578901171,-0.8457283973260759
1684000050036344000,8.679744384765625,-0.46389436727130545,0.24313545209789447,-0.7993807792299702
1684000050046385600,8.689785888671874,-0.5098657607700048,0.17243671411902903,-0.7114982606624012
1684000050056427400,8.699827880859376,-0.5289669037152966,0.02403163908948279,-0.5725491045937635
1684000050066469000,8.709869384765625,-0.5373594759161702,-0.13545703887010768,-0.3906149863900167
1684000050076510900,8.719911376953124,-0.5566494466151526,-0.23234271996755124,-0.20757746703303437
1684000050086552600,8.729952880859376,-0.516148328868748,-0.34576606764099377,-0.005600452376955703
1684000050096594100,8.739994384765625,-0.48105096821859983,-0.4281940459837005,0.1734321117199766
1684000050106636000,8.750036376953124,-0.46762323380243087,-0.47508716575146515,0.27448844914664955
1684000050116677600,8.760077880859376,-0.46225023280126115,-0.43879604355857177,0.33468866343077774
1684000050126719400,8.770119873046875,-0.43780541421361874,-0.35051918022557527,0.3046970365842535
1684000050136761000,8.780161376953124,-0.45209288591813956,-0.2962675094018489,0.25150251393113315
1684000050146802900,8.790203369140626,-0.4294853211235767,-0.24952697759603185,0.12482500060316348
1684000050156844500,8.800244873046875,-0.4181749821201878,-0.1552257538343634,0.02049612988300523
1684000050166886100,8.810286376953124,-0.4630711078501187,-0.05642986295476683,-0.09216046325443943
1684000050176927900,8.820328369140626,-0.5703244209129104,-0.04880332931205733,-0.1794993878703089
1684000050186969600,8.830369873046875,-0.7223298549467807,-0.06790161128624496,-0.2753682136058945
1684000050197011400,8.840411865234374,-0.8372595308810036,-0.0660696027759042,-0.35610437387821786
1684000050207053000,8.850453369140626,-0.8888685703871584,-0.07442283633882503,-0.4623956679208194
1684000050217094800,8.8604951171875,-0.8889163734256924,-0.15245628361192168,-0.5504040719258856
1684000050227136400,8.870536865234374,-0.8137406110454537,-0.1924238205349909,-0.6222808361269481
1684000050237178300,8.88057861328125,-0.690129637719667,-0.19209480286221653,-0.6378901006137188
1684000050247219900,8.890620361328125,-0.5832490922027983,-0.18023490892150373,-0.6646630763301163
1684000050257261700,8.900662109375,-0.4010909794065096,-0.11136627188948867,-0.7124807834961202
1684000050267303300,8.910703857421876,-0.25710344313113026,-0.02130794522706844,-0.7194602489119261
1684000050277345200,8.92074560546875,-0.17103934281004993,0.046866416955464896,-0.7102351188933647
1684000050287386800,8.930787109375,-0.1380279063015641,0.12187385553839683,-0.6872773170247021
1684000050297428600,8.9408291015625,-0.1314959525225832,0.12498378744758704,-0.6382384300167948
1684000050307470300,8.95087060546875,-0.20880794523816587,0.17123222358774354,-0.6054663659059091
1684000050317511900,8.960912353515624,-0.3478922842724857,0.16017436977867994,-0.6078577042250635
1684000050327553600,8.9709541015625,-0.4526898860127766,0.18499946583881852,-0.5975770949687262
1684000050337595300,8.98099560546875,-0.4484634398948685,0.18320655815421935,-0.5894935130977389
1684000050347637200,8.99103759765625,-0.41887521744475925,0.17376232145817952,-0.5603069067351822
1684000050357678800,9.0010791015625,-0.3428714273734778,0.15906620020766427,-0.527111530309293
1684000050367720600,9.01112109375,-0.24522137632530577,0.16791343691931124,-0.5498019456287015
1684000050377762200,9.02116259765625,-0.1362788677013938,0.202854156359048,-0.5564112663503132
1684000050387804100,9.03120458984375,-0.04581427566521958,0.2975616454200902,-0.5109255313733359
1684000050397845600,9.04124609375,-0.027063846494394403,0.3564949035723121,-0.44703412061782016
1684000050407887600,9.051287841796874,-0.018134117220381513,0.37021446223989474,-0.32445263862317547
1684000050417929100,9.06132958984375,-0.07459592832906184,0.3479537962176679,-0.2545001506734857
1684000050427971000,9.071371337890625,-0.16159486755203822,0.33994007118288944,-0.11193728443649198
1684000050438012600,9.0814130859375,-0.18793845165203393,0.32213974004253176,-0.05335903177700977
1684000050448054200,9.09145458984375,-0.168153047550222,0.31579399101752087,-0.0019674299719602407
1684000050458096000,9.101496337890625,-0.15052556986124155,0.35594654092599026,0.06518006330104316
1684000050468137600,9.1115380859375,-0.1847569942419327,0.3053445816131945,0.07245373718022256
1684000050478179600,9.121579833984375,-0.1924724578577767,0.2879943846469165,0.10101461413701399
1684000050488221100,9.13162158203125,-0.2330815792494378,0.26110649112804385,0.10857725148809962
1684000050498263000,9.141663330078124,-0.26155591012376206,0.30501556411424785,0.1570060252877718
1684000050508304600,9.151705078125,-0.25277113910488475,0.3079442977616831,0.2594404220753834
1684000050518346400,9.161746826171877,-0.1942129135052234,0.35774421680643015,0.317841530032919
1684000050528388000,9.171788330078124,-0.13217830647378595,0.37134742732975967,0.41986846908291153
1684000050538429900,9.181830322265624,-0.08180713664203629,0.3778038026335743,0.49414563181817955
1684000050548471500,9.191871826171877,-0.08367347715911928,0.3633327482300814,0.5391163826253397
1684000050558513300,9.201913818359374,-0.10691571245197769,0.3330221175258493,0.6185626983818429
1684000050568554900,9.211955322265624,-0.1163176297798239,0.38606071472073006,0.8331103324071762
1684000050578596800,9.2219970703125,-0.1311535836456005,0.5494556428216469,1.046960353807204
1684000050588638400,9.232038818359374,-0.21445965772757491,0.6448593140023458,1.3174426555321908
1684000050598680000,9.242080322265624,-0.27213251581665476,0.6779947281616575,1.5100963113949275
1684000050608721800,9.252122314453125,-0.3347859382066134,0.654541015608431,1.5087587834914606
1684000050618763400,9.262163818359374,-0.386727094470814,0.6194429397122698,1.4929561614747657
1684000050628805300,9.272205810546875,-0.5257705448722936,0.5465993880589973,1.4173772334026824
1684000050638846900,9.282247314453125,-0.6987981796445247,0.419277191228845,1.3610491753450216
1684000050648888800,9.2922890625,-0.8883146046565978,0.3066968918344442,1.254678726153158
1684000050658930400,9.302330810546875,-1.1543190478076308,0.1369094849827133,1.0677890776458776
1684000050668972200,9.31237255859375,-1.4462550879276836,-0.11386680618775114,0.9022064209377723
1684000050679013800,9.322414306640624,-1.7477570771588584,-0.4262886048581747,0.7589066029482157
1684000050689055600,9.3324560546875,-1.98652732355956,-0.7975730894804525,0.6578049659858485
1684000050699097300,9.34249755859375,-2.1088895798016476,-1.1243667602565972,0.504200935367197
1684000050709139100,9.35253955078125,-2.0475261209833335,-1.3251152039853193,0.3609168530005559
1684000050719180600,9.3625810546875,-1.8763777017626657,-1.4836301803700893,0.2392015456383905
1684000050729222600,9.372623046875,-1.5921152830115772,-1.5669946670086963,0.2349898815577724
1684000050739264200,9.38266455078125,-1.2560720444474078,-1.4948482512834456,0.2879219056429807
1684000050749306000,9.39270654296875,-0.9694783687911785,-1.258627891583672,0.2809228897027953
1684000050759347600,9.402748046875,-0.7334541082741025,-0.9355916976539356,0.12733578687516628
1684000050769389600,9.412789794921874,-0.5329952240633178,-0.5766029358311084,-0.034374713832374344
1684000050779431100,9.42283154296875,-0.3383591174809208,-0.32070636758483073,-0.13280534743231895
1684000050789472600,9.432873046875,-0.13070988665400252,-0.03179168718088991,-0.22097015381967908
1684000050799514600,9.4429150390625,0.11881613734848556,0.23028278355669415,-0.2754185199716906
1684000050809556400,9.452956787109375,0.39596980816546473,0.4490938185528873,-0.27010607720989727
1684000050819598000,9.462998291015625,0.5886194706703557,0.6638927458992664,-0.3874921797929264
1684000050829639900,9.473040283203124,0.6917966603733848,0.7780303954613108,-0.576883554557137
1684000050839681500,9.483081787109375,0.6357151270053276,0.5972385406699904,-0.7103254796452008
1684000050849723100,9.49312353515625,0.5369282960747767,0.45498275746959416,-0.837839365026967
1684000050859764900,9.503165283203124,0.4615084230484466,0.2653188705752004,-0.9176062345931055
1684000050869806600,9.51320703125,0.340295076425908,0.1661367416932657,-1.0084365607501389
1684000050879848400,9.523248779296877,0.28526979700011706,0.15146636963759003,-1.1126966477002027
1684000050889890000,9.533290283203126,0.2570160627326954,0.17540168764624042,-1.1091232301196658
1684000050899931800,9.543332275390624,0.2229990363537869,0.17370033262126858,-1.1585551500442393
1684000050909973400,9.553373779296876,0.10601082436116832,0.17479324328354187,-1.1395322083629134
1684000050920015300,9.563415771484374,0.08429628599183107,0.08494091048105248,-1.066043853813719
1684000050930056900,9.573457275390624,0.10361135001409617,-0.06697654728539314,-1.0625896453194559
1684000050940098700,9.5834990234375,0.25392517438214884,-0.21156883240594285,-0.9837603569200919
1684000050950140300,9.593540771484374,0.5400087833303164,-0.4065361022765682,-0.7241480350172764
1684000050960182200,9.60358251953125,1.0159167051171558,-0.5684270859624806,-0.3264162541420532
1684000050970223800,9.613624267578125,1.4070688485703178,-0.6231241225768281,-0.07756924623751323
1684000050980265600,9.623666015625,1.6466479301162655,-0.5610656738936216,0.1307780741440137
1684000050990307200,9.633707763671875,1.611281514259918,-0.48298740386675737,0.2742841244161966
1684000051000349100,9.64374951171875,1.429680824238826,-0.36291694637226474,0.3094639778204861
1684000051010390600,9.653791015625,1.2031561136161193,-0.16525745390672167,0.3224394321401279
1684000051020432600,9.6638330078125,1.0223873854123542,0.042925834523708024,0.19637274756675974
1684000051030474200,9.67387451171875,0.9602159262274923,0.30230045306149395,0.13496327407308154
1684000051040516000,9.68391650390625,0.9410650729933365,0.3429975509338571,0.0930647850132118
1684000051050557600,9.6939580078125,0.9725418089524305,0.3806161880712064,0.061454296085998165
1684000051060599500,9.703999755859376,0.9848340152589574,0.2984476087670827,0.09840726859899057
1684000051070641100,9.71404150390625,1.0457723141056776,0.1615753173847913,0.16656637208688746
1684000051080682900,9.724083251953124,1.1271600723823973,0.07785224919598747,0.20227360715872164
1684000051090724600,9.734125,1.204202771300699,-0.026940345929819,0.2675464154438617
1684000051100766400,9.744166748046876,1.236962437513122,-0.15772151942527474,0.32822966565914313
1684000051110808000,9.75420849609375,1.2387553452547915,-0.1327619553882504,0.26784467686084595
1684000051120849800,9.764250244140625,1.2347872258027728,-0.13882350925528833,0.2940366269416468
1684000051130891400,9.774291748046876,1.2778980731354805,-0.12575435640039004,0.2987973689457753
1684000051140933300,9.784333740234375,1.2907991408251904,-0.11508560177945724,0.33238077165601954
1684000051150974900,9.794375244140625,1.2459937332949047,-0.09726810462523951,0.33985090248744315
1684000051161016800,9.804417236328124,1.116338253062217,-0.11290931694421905,0.39067006111362135
1684000051171058400,9.814458740234375,0.9781118632384664,-0.051924705511677965,0.43991708754213704
1684000051181100200,9.82450048828125,0.7861354946347371,-0.03620338442803125,0.459291696527784
1684000051191141800,9.834542236328126,0.6027840972741838,0.060874938950012766,0.4844911098852749
1684000051201183600,9.844583984375,0.4330550730839229,0.09811687461549312,0.4578819275514262
1684000051211225300,9.854625732421876,0.27714174986784146,0.17117023477158996,0.4129371643133346
1684000051221267100,9.86466748046875,0.20256283881851744,0.1629419325651109,0.4165270328387488
1684000051231308600,9.874709228515623,0.15703916560159395,0.09506702422766157,0.37512111662396946
1684000051241350600,9.8847509765625,0.10214030726535789,0.0800027849169789,0.3463971615040169
1684000051251392200,9.89479248046875,0.0922023056901199,0.1749086379537305,0.28975176815627157
1684000051261434000,9.90483447265625,0.0793401003351241,-0.014738082790347629,0.36457610129763557
1684000051271475600,9.9148759765625,0.03298819064674374,0.04213523864474254,0.3227732179909274
1684000051281517600,9.92491796875,-0.08803701410755962,0.048731804020213904,0.31451916684804354
1684000051291559100,9.93495947265625,-0.22844284778537435,-0.018755912663995417,0.3221874237494813
1684000051301600900,9.94500146484375,-0.3194459976045049,-0.03321361546639354,0.2652077676144039
1684000051311642600,9.95504296875,-0.311306029674572,-0.12130260468268243,0.28473329546882536
1684000051321684400,9.965084716796875,-0.2772136926842678,-0.14193820942933594,0.23037695881154785
1684000051331726000,9.97512646484375,-0.17757150535267233,-0.12147998809403862,0.18399572382998755
1684000051341767900,9.985168212890626,-0.05839955807169722,-0.045604705636415194,0.20570707328653295
1684000051351809500,9.9952099609375,0.08663690096191137,0.16185760500523166,0.20201754574083944
1684000051361851300,10.005251708984376,0.22599804385678138,0.21385383607738337,0.2514057158417925
1684000051371892900,10.015293212890626,0.2970626948978015,0.2706499099712792,0.2388067246079679
1684000051381934800,10.025335205078123,0.3705853818779383,0.26777076711252656,0.2530672551594505
1684000051391976400,10.035376708984376,0.4578041435384199,0.26987266555656286,0.2919964790519141
1684000051402018200,10.045418701171876,0.5077598095025261,0.2825231551634435,0.37923359870815704
1684000051412059800,10.055460205078123,0.5504570008178381,0.13516902925839092,0.5724043846013205
1684000051422101600,10.065502197265625,0.5496389271231572,0.1272277830673297,0.6750407219452286
1684000051432143300,10.075543701171876,0.48432368034275014,0.10117721564344438,0.7883253097578307
1684000051442185100,10.08558544921875,0.36988449086381064,0.08552074417257222,0.8154036999469849
1684000051452226700,10.095627197265625,0.23635125164443824,0.15058898924658265,0.8018100260984596
1684000051462268600,10.1056689453125,0.10665756459504586,0.13022327421840135,0.750167370004163
1684000051472310200,10.115710693359375,0.0007832645751736808,0.1269807815135064,0.676944971158335
1684000051482352000,10.12575244140625,-0.03224635110718165,0.1993989945163438,0.582415103907315
1684000051492393600,10.1357939453125,-0.024803042430041597,0.2497425079095924,0.5190885066664345
1684000051502435600,10.1458359375,-0.043127715481693495,0.30435752875515465,0.48432970050415963
1684000051512477100,10.15587744140625,-0.024043321597927853,0.21005916598730434,0.5639996529212508
1684000051522519000,10.16591943359375,0.0018982886819207355,0.2565727234359704,0.6219217776240665
1684000051532560600,10.1759609375,0.04792547231310557,0.23913574214088765,0.7130069732935829
1684000051542602400,10.1860029296875,0.1128174066185324,0.2881879807853638,0.7965793609267136
1684000051552644000,10.19604443359375,0.16088521472268136,0.32477283470471907,0.8392198084697385
1684000051562685900,10.206086181640623,0.17122381930760572,0.3395318984838377,0.8951787949288273
1684000051572727500,10.2161279296875,0.150912940525715,0.2595520019414375,0.8549928664987473
1684000051582769300,10.226169677734376,0.08351725341624185,0.16164112083017892,0.8094460964637669
1684000051592810900,10.23621142578125,0.00038671480066398116,0.0061645509278627645,0.7189395427594996
1684000051602852800,10.246253173828125,-0.09095871451330706,-0.07155132297771763,0.5683739185743456
1684000051612894600,10.256294921875,-0.14801311479563814,-0.07250308990691456,0.397634983104727
1684000051622936200,10.266336669921875,-0.1593560577119524,-0.06586742407611032,0.3003633021265271
1684000051632977800,10.276378173828125,-0.14639955750870903,0.014087676860571068,0.28444075573611993
1684000051643019600,10.286420166015626,-0.10435438165599813,0.04587459577989378,0.37348222729330777
1684000051653061600,10.2964619140625,-0.11209988576837808,0.05605411528917991,0.46420693385056305
1684000051663103200,10.306503662109376,-0.1255016327072818,0.11575317387906556,0.536535024645164
1684000051673145000,10.31654541015625,-0.09585791819418665,0.1653165816564366,0.6595032215561107
1684000051683186600,10.3265869140625,-0.09444719559200868,0.12939167029118517,0.8550679682912502
1684000051693228500,10.33662890625,-0.11037892089662903,0.09417057023592555,1.013423919504112
1684000051703270100,10.34667041015625,-0.16169095025885552,0.07153320312298413,1.1911554337132757
1684000051713311900,10.35671240234375,-0.16623997695070136,-0.028126716766665127,1.4220016002815283
1684000051723353600,10.36675390625,-0.0933100579968977,-0.3734436034706403,1.7969253063735224
1684000051733395400,10.376795654296876,0.1002349258397869,-0.7021923066822368,2.2352616788335746
1684000051743437000,10.38683740234375,0.3226233124054461,-0.904653549319415,2.524238824952435
1684000051753478800,10.396879150390625,0.5638920067988634,-0.9665851593239565,2.653898239099202
1684000051763520400,10.4069208984375,0.7297923565809412,-0.8428592681522573,2.532083034464233
1684000051773562300,10.416962646484375,0.7516275643122337,-0.6992082596414446,2.461817026053371
1684000051783603900,10.42700439453125,0.6533123254776408,-0.622159004266467,2.4559431074786664
1684000051793645700,10.437046142578126,0.3484226465999576,-0.6939506531423449,2.1971011160936675
1684000051803687300,10.447087646484375,-0.16562277084008117,-0.6793298720733716,1.4042220114855855
1684000051813729200,10.457129638671876,-0.565370202086561,-0.6101236343310665,0.7074093819201759
1684000051823771100,10.46717138671875,-0.8616965411581677,-0.4376897812138264,0.19468331350510065
1684000051833812600,10.477213134765623,-1.02090740211729,-0.19323825836769443,-0.20668029785998002
1684000051843854600,10.4872548828125,-1.0920181273749192,0.2062139510308295,-0.5938545465036345
1684000051853896100,10.497296630859376,-1.0886301993110241,0.5951366424788133,-1.0242896078799943
1684000051863938000,10.50733837890625,-1.0267267227836505,0.8562984466072513,-1.390110254350234
1684000051873979600,10.5173798828125,-0.9704266785816374,0.9303255081690157,-1.676507711352959
1684000051884021400,10.527421875,-0.8837456704509187,0.8296108245763996,-1.7882918119510742
1684000051894063000,10.53746337890625,-0.7779175042352477,0.585357666047782,-1.818005800215904
1684000051904104900,10.54750537109375,-0.7023616432550671,0.3336687087420275,-1.7985937595235792
1684000051914146600,10.557546875,-0.6614929436371573,0.04302310941966214,-1.7398234605902887
1684000051924188300,10.567588623046875,-0.6642945407713507,-0.1983232498699766,-1.7097548246293648
1684000051934229900,10.57763037109375,-0.7387932538505226,-0.2699079514993281,-1.8870985508326583
1684000051944271800,10.587672119140626,-0.9032127857268183,-0.5723333358648599,-1.879777193080674
1684000051954313400,10.5977138671875,-1.1983718870652798,-1.0144395827456616,-1.6790639163585794
1684000051964355200,10.607755615234376,-1.5460122824321962,-1.3816919328451445,-1.3195307255623225
1684000051974396800,10.61779736328125,-1.7671145201281704,-1.6941843033599138,-0.9764335155510431
1684000051984438600,10.627839111328123,-1.67119586478476,-1.8933143614832397,-0.7712854147667604
1684000051994480600,10.637880859375,-1.1182497739330772,-1.7530784607013987,-0.731920123149549
1684000052004522200,10.647922607421876,-0.4106573462115201,-1.601490020897352,-0.8103069066435359
1684000052014564000,10.65796435546875,0.04655008015344232,-1.4785013199225505,-0.9719775913590624
1684000052024605600,10.668006103515625,0.2378832101453273,-1.3186779022553945,-1.0877662897117089
1684000052034647600,10.6780478515625,0.29307475687006357,-1.1264839173111694,-1.1435822249992884
1684000052044689100,10.68808935546875,0.2939484119408389,-0.9257020949343626,-1.1620844601924771
1684000052054730900,10.69813134765625,0.17320314038794535,-0.8906059266517687,-1.1850411891229629
1684000052064772600,10.7081728515625,0.14856046454562433,-0.7893486021118088,-1.1711652278627074
1684000052074814400,10.71821484375,0.045097768296229836,-0.7154798506668848,-1.2911548614238093
1684000052084856000,10.72825634765625,-0.23605144014924126,-0.6351690293717266,-1.495395421917012
1684000052094897800,10.73829833984375,-0.4631555080396619,-0.4523057937248923,-1.7688933609430981
1684000052104939600,10.748340087890623,-0.5389170646939253,-0.22136783602664867,-2.0508732795206934
1684000052114981300,10.758381591796876,-0.4440181255253256,0.06296157850345732,-2.276326417878159
1684000052125022900,10.76842333984375,-0.2092039585368414,0.319757461622488,-2.341159820670943
1684000052135064800,10.778465087890623,0.14017164720033976,0.5539979934831674,-2.2527575493726295
1684000052145106600,10.788507080078125,0.4632842541501004,0.7560853958511259,-2.0649185180557077
1684000052155148200,10.798548583984376,0.6053074598467281,0.8829936981060188,-1.7813392876562002
1684000052165190100,10.808590576171875,0.5168120862258029,0.8511238098007219,-1.4204471111000687
1684000052175231600,10.818632080078125,0.499491333973173,0.7150926590561373,-0.9354515074875559
1684000052185273600,10.828673828125,0.4890934230245866,0.6247053146346444,-0.3806908130116223
1684000052195315100,10.838715576171875,0.5676656961786873,0.5506649017179105,0.18838262564408148
1684000052205357000,10.84875732421875,0.7414786815288438,0.5668334960651763,0.6678388118010757
1684000052215398600,10.858799072265626,0.6893535850588904,0.5434827804196876,1.1331303119366736
1684000052225440400,10.8688408203125,0.5386383533823339,0.5013818742641173,1.5330450534758282
1684000052235482000,10.87888232421875,0.49641549585971556,0.44745731351250667,1.7913639544813473
1684000052245523900,10.88892431640625,0.7971440552713048,0.471230506867798,1.8485927581426929
1684000052255565700,10.898966064453123,1.2887437343257249,0.5889339447411067,1.764069080279332
1684000052265607300,10.9090078125,1.60287380218028,0.7422990799583488,1.6030638217684263
1684000052275649200,10.919049560546876,1.6516513823978602,0.7238759993662311,1.404770135926786
1684000052285690800,10.92909130859375,1.4947237967752027,0.6884040832654221,1.1794965266893471
1684000052295732600,10.939133056640625,1.2123953103397689,0.749732971306594,0.5783827304090562
1684000052305774300,10.949174560546876,0.9513130187136115,0.7930908203035923,-0.2140274047888605
1684000052315816100,10.959216552734375,0.7505365609611764,0.713146209682088,-0.70320987697158
1684000052325857600,10.969258056640625,0.44700062268701907,0.6023883819157327,-1.1173408030455647
1684000052335899600,10.979300048828126,0.118686199169721,0.42941284190727175,-1.5205510853178192
1684000052345941200,10.989341552734375,-0.061142682967299924,0.22351360328539713,-1.8191620111086588
1684000052355983000,10.999383544921876,0.005854606560037662,0.054948806753634276,-1.9546697140004743
1684000052366024900,11.00942529296875,0.22435009488818738,-0.0824632645204288,-1.9495153426161285
1684000052376066600,11.019466796875,0.4669455289373671,-0.10900592800132597,-1.8590261935936434
1684000052386108300,11.0295087890625,0.6138719320216371,-0.10333538058414898,-1.6212413310054614
1684000052396149900,11.03955029296875,0.6973392962629565,-0.08071136492739725,-1.2151794433423213
1684000052406191800,11.04959228515625,0.7577859163558799,-0.10961437243873966,-0.8518919945336081
1684000052416233400,11.0596337890625,0.8272236585422085,-0.1267566681758501,-0.6058804987646601
1684000052426275200,11.069675537109376,0.9145857095815657,-0.08023166647902297,-0.4478194711776765
1684000052436316800,11.07971728515625,0.9010936022068863,-0.08262443542282584,-0.32175755482292145
1684000052446358600,11.089759033203125,0.7941356896241647,-0.14350128176475044,-0.23422670368379833
1684000052456400600,11.099801025390626,0.5484645365294588,-0.31082057958007603,-0.19945931433851763
1684000052466442200,11.109842529296875,0.24676501750248098,-0.4721260071291482,-0.3661277294589422
1684000052476484000,11.119884521484376,0.039862155975679825,-0.4903993607005475,-0.7213573456380505
1684000052486525600,11.129926025390626,-0.054231047547285756,-0.46948146822980075,-1.1542572973294656
1684000052496567500,11.1399677734375,-0.1692867279857331,-0.463477134770245,-1.5029903650585599
1684000052506609100,11.150009521484376,-0.3528373242708908,-0.512907028248659,-1.809261917983188
1684000052516650900,11.16005126953125,-0.4240317344671066,-0.548935890193608,-2.0094189643959335
1684000052526692600,11.170093017578123,-0.4144043921208628,-0.48138237010411716,-2.16978073119846
1684000052536734400,11.180134765625,-0.4687989950522443,-0.5664501190813453,-2.3543901444915956
1684000052546776200,11.1901767578125,-0.43258154409435173,-0.5963792800383096,-2.4451920986383255
1684000052556817800,11.20021826171875,-0.3222804069772418,-0.5709867477931221,-2.544034004316614
1684000052566859600,11.210260009765625,-0.16058468813599855,-0.47275543207943715,-2.604709386768191
1684000052576901300,11.2203017578125,-0.01810288420615229,-0.4685096742268705,-2.4366488456025803
1684000052586943200,11.230343505859375,0.011451721310789255,-0.5271739959408538,-2.1964612006001314
1684000052596984800,11.24038525390625,0.01979529863049368,-0.4841051101142265,-1.9360069037957073
1684000052607026600,11.250427001953126,0.14215791227521327,-0.4255790710625591,-1.6319191457192332
1684000052617068200,11.260468505859375,0.28891146168035203,-0.3256998062783948,-1.3155366182242023
1684000052627110100,11.270510498046876,0.4088436364743647,-0.2425470352183101,-1.0143330097101997
1684000052637151900,11.28055224609375,0.3545198440007747,-0.0929193497290609,-0.7589693070687065
1684000052647193600,11.290593994140623,0.36055159568887046,0.0011501311326507341,-0.5779163837602558
1684000052657235400,11.3006357421875,0.46460288765874524,0.22397518154475632,-0.4986076355439202
1684000052667277000,11.310677490234376,0.3137933016113735,0.5464591979668186,-0.3639428616464507
1684000052677318800,11.32071923828125,-0.10968720902499357,0.7042570112785802,0.20925235732550948
1684000052687360400,11.3307607421875,-1.096063137068605,0.5706672669972374,1.2850759028166883
1684000052697402300,11.340802734375,-2.358041286501165,0.2912940978380757,2.6134026051497243
1684000052707443900,11.35084423828125,-1.6849421263234714,-0.13567161565316763,3.2131879330079047
1684000052717485700,11.36088623046875,-1.1281006337427018,-0.3741655350884904,2.6555826663631645
1684000052727527600,11.370927978515626,-0.8004535437262527,-0.4492197036864567,1.6584150791703298
1684000052737569200,11.380969482421875,-0.4237083196803751,-0.4103927612974094,1.0089075563652414
1684000052747611100,11.391011474609376,-0.15449130535343938,-0.39146041863508907,-0.015550136514070322
1684000052757652600,11.401052978515626,-0.03779530519094573,-0.4033985138473182,-1.3421614171166485
1684000052767694600,11.411094970703124,-0.06995058055383677,-0.44594097132803845,-2.6963887215606728
1684000052777736400,11.42113671875,-0.11558699606222748,-0.5141286849876706,-3.5943946836952065
1684000052787778000,11.431178466796876,-0.10059237479648098,-0.535676956043519,-3.914726495856759
1684000052797819800,11.44122021484375,-0.05224597460367367,-0.44360923774720834,-3.7720770835926483
1684000052807861400,11.45126171875,-0.07673621190476547,-0.4038867951396133,-3.170899868039387
1684000052817903300,11.4613037109375,-0.10960793492732146,-0.3555688858237349,-2.284623622893427
1684000052827944900,11.47134521484375,-0.1367107630030662,-0.457815170170679,-0.9514358042754034
1684000052837986700,11.48138720703125,-0.21285796178708005,-0.4207191467439318,0.10535192492193932
1684000052848028300,11.4914287109375,-0.24403274048355217,-0.245497703619662,0.8096516132803759
1684000052858070200,11.501470703125,-0.3347142935217173,-0.04714298241537328,1.2816984653284895
1684000052868112000,11.511512451171876,-0.4792609215431463,0.15581798558993698,1.4526064394541682
1684000052878153600,11.521553955078126,-0.3777573109682765,0.29530143737502923,1.2629675866259955
1684000052888195600,11.531595947265624,-0.0770732162646249,0.28070640563178106,0.8694875239414533
1684000052898237100,11.541637451171876,0.09815406796593673,0.23349380500433456,0.2109048365926631
1684000052908279000,11.551679443359374,0.18047559259219068,0.10708904264817888,-0.570492267568473
1684000052918320600,11.561720947265623,0.24611485015917658,-0.06853866575540435,-1.0826699732360845
1684000052928362400,11.5717626953125,0.31279957280770626,-0.17836380020044057,-1.3222924470781947
1684000052938404300,11.5818046875,0.38405805812477134,-0.2891550065122637,-1.3099220991555527
1684000052948445900,11.59184619140625,0.39628434186750533,-0.33160591125643424,-1.2615998982552334
1684000052958487700,11.60188818359375,0.3317158222191494,-0.2845802307297528,-1.0938472747671615
1684000052968529300,11.6119296875,0.20543968664955797,-0.2633552552713123,-0.8260635136895944
1684000052978571200,11.6219716796875,0.07046568397460719,-0.182389259309198,-0.5401012897426885
1684000052988612800,11.63201318359375,0.02091467377861238,-0.06840991973620408,-0.23900961880128277
1684000052998654600,11.642054931640626,-0.08662104603046179,-0.012372970595338697,-0.028296232099538934
1684000053008696600,11.652096923828124,-0.21727204308258388,0.04781627659398713,0.01828432075813968
1684000053018738100,11.662138427734376,-0.2929515838108477,0.10017108915343469,-0.002829790065420984
1684000053028780000,11.672180419921874,-0.34441399564200104,0.10650634753187174,-0.014921903559475046
1684000053038821600,11.682221923828124,-0.34031438815676196,0.1337060929123725,0.00798940659429336
1684000053048863400,11.692263916015625,-0.2794197798126296,0.183876991358827,0.02729225149663928
1684000053058905300,11.7023056640625,-0.25043392187391994,0.18523216248247656,0.052108287750582134
1684000053068946900,11.71234716796875,-0.20570850366900498,0.12113857265442225,0.14572596550755187
1684000053078988600,11.72238916015625,-0.25164401522859636,0.08230686181972115,0.19929170605845462
1684000053089030300,11.7324306640625,-0.31364035602403,0.023230552546625257,0.21042537687274598
1684000053099072200,11.74247265625,-0.3122936486565408,-0.06552696225329027,0.2059662341904863
1684000053109113800,11.75251416015625,-0.311310410405917,-0.14803886419174073,0.20557522779171283
1684000053119155600,11.76255615234375,-0.4024997948683487,-0.2743854522983368,0.08589267722065552
1684000053129197600,11.772597900390624,-0.5490938425239318,-0.4012222289773987,-0.06802797308647796
1684000053139239100,11.782639404296877,-0.6894655229212034,-0.5448017120069103,-0.35979485514433596
1684000053149280900,11.792681396484374,-0.7812089919564419,-0.5662631989206925,-0.6234319210736071
1684000053159322600,11.802722900390624,-0.7811213732694294,-0.5254344941571196,-0.872587680751879
1684000053169364400,11.812764892578125,-0.6414544582857602,-0.4032030105091291,-1.0445566175675902
1684000053179406300,11.822806640625,-0.38756263254804935,-0.25944995891193434,-1.1088070868499396
1684000053189447900,11.83284814453125,-0.2051964998430194,-0.19460201258236204,-1.0903363228308982
1684000053199489600,11.84289013671875,-0.026693701881924766,-0.1846637724914937,-0.9091634751091413
1684000053209531300,11.852931640625,0.07214951508143107,-0.2607269285586936,-0.7031815053238336
1684000053219573200,11.8629736328125,0.08892869956306157,-0.26518726338146487,-0.45184302328309583
1684000053229614800,11.87301513671875,0.017980694779155315,-0.1672153472803519,-0.2193286420319898
1684000053239656600,11.88305712890625,-0.005639314675144578,0.01623725892781197,-0.07670855531725711
1684000053249698600,11.893098876953124,-0.0576671361246049,0.14851474773139023,0.1785619260340681
1684000053259740100,11.903140380859377,-0.1610456704904582,0.17196559907918615,0.38987565053573736
1684000053269781900,11.913182373046874,-0.3000553846617755,0.15347862244365132,0.5046408175637546
1684000053279823600,11.923223876953124,-0.3614847660502878,0.14577198034013247,0.528608083726726
1684000053289865400,11.933265869140625,-0.3667204380673568,0.09667873396964223,0.4635050296141646
1684000053299907200,11.9433076171875,-0.38338327415488654,0.1571531295648334,0.37749004366815647
1684000053309948800,11.953349365234375,-0.29792904843401247,0.25318241108354034,0.28780078888913874
1684000053319990600,11.96339111328125,-0.18835294242189535,0.3013229369052006,0.2494859694603855
1684000053330032300,11.9734326171875,-0.050612568978599316,0.2634620666527057,0.2906925677560755
1684000053340074200,11.983474609375,0.05529367930398389,0.19707107553913877,0.34882760030508164
1684000053350115800,11.99351611328125,0.08836424334807153,0.1737213134973467,0.3945136070122907
1684000053360157600,12.00355810546875,0.17693793766546598,0.1861686705354438,0.39164090154854175
1684000053370199600,12.013599853515624,0.22713434680359415,0.1533393858615135,0.37406969082974356
1684000053380241100,12.023641357421877,0.20284068579669695,0.12319087982059652,0.351395845332366
1684000053390282900,12.033683349609374,0.16664218918977267,0.12667942042362149,0.316335439782082
1684000053400324600,12.043724853515624,0.07639956469083689,0.1254596710274598,0.3169100283746769
1684000053410366400,12.053766845703125,0.03383910659588399,0.11703586589987816,0.3294177056624541
1684000053420408200,12.06380859375,-0.00098550310034431,0.1373472215351872,0.3544845581067081
1684000053430449800,12.073850341796875,0.026850223446786902,0.14118194569198422,0.34257745727847794
1684000053440491600,12.08389208984375,0.06873595719841549,0.1862440108459391,0.3254430294748196
1684000053450533600,12.093933837890624,0.1334222554635483,0.15332603469157133,0.2652876376443642
1684000053460575200,12.1039755859375,0.160709977134292,0.1740827559518312,0.22912168500500635
1684000053470617000,12.114017333984377,0.12489306924735033,0.22610950473555344,0.07268786422873946
1684000053480658600,12.12405908203125,0.12561714653290731,0.31375789645936725,-0.04811358449337239
1684000053490700500,12.134100830078124,0.09153890601159533,0.3893966673623034,-0.13385176669290427
1684000053500742100,12.144142578125,0.07249367247393357,0.4390068055165269,-0.24669361113734847
1684000053510783900,12.154184326171874,0.07820785041428796,0.4673004149879467,-0.2631096840504742
1684000053520825800,12.16422607421875,0.07388353347593919,0.4822721480492336,-0.2589077949177751
1684000053530867400,12.174267822265625,0.0058411358556610055,0.4360351562431433,-0.1742479799438968
1684000053540909200,12.1843095703125,-0.0023952722701497476,0.46245765693392366,-0.1494987011851613
1684000053550950800,12.194351318359375,0.030137181268950926,0.4921722411389672,-0.1268868447702032
1684000053560992600,12.20439306640625,0.06952905647650914,0.48216152175960086,-0.12813568123057412
1684000053571034600,12.21443505859375,0.10075545310970409,0.4993696212288573,-0.16312718390390393
1684000053581076100,12.2244765625,0.12329041957186318,0.46963500972974387,-0.1366615294444081
1684000053591118000,12.234518310546877,0.11764156801781459,0.4049701689852994,-0.09219503408333606
1684000053601159900,12.244560302734374,0.029461741412159733,0.31957435608901474,-0.001420736229920553
1684000053611201500,12.254601806640624,-0.12333023544937777,0.36342525487931643,0.15611267076548568
1684000053621243300,12.264643798828123,-0.16798710824677876,0.4089965820260311,0.3979015349406551
1684000053631284900,12.274685302734374,-0.21392893795703397,0.4127616882117208,0.5983872413186023
1684000053641326800,12.28472705078125,-0.2552822828425419,0.3670177459080572,0.7516169548314837
1684000053651368400,12.294768798828123,-0.36714386931584053,0.2904481886508629,0.8305625916901536
1684000053661410200,12.304810546875,-0.4983137844953315,0.14944839484800593,0.7873897552634759
1684000053671452100,12.3148525390625,-0.5463415384320597,0.06065654767268978,0.6493349076476604
1684000053681493600,12.32489404296875,-0.3933621643244758,0.05000209818271318,0.39786934838828336
1684000053691535600,12.33493603515625,-0.058875203144729014,0.12238025655899148,0.04852890969821474
1684000053701577400,12.344977783203126,0.3694078923352247,0.2518253325822341,-0.339333057413276
1684000053711619000,12.355019287109377,0.7041767240087526,0.32025527951119087,-0.6538705826150925
1684000053721660800,12.365061279296874,0.7012606857702259,0.2531242371775165,-0.8371236323966691
1684000053731702400,12.375102783203126,0.31661689292564976,0.0004968642760235205,-0.9794266225017154
1684000053741744300,12.385144775390623,-0.3248105050652109,-0.2534971236027981,-1.1923997401648694
1684000053751786200,12.3951865234375,-0.9134953021820874,-0.3656206131317637,-1.3988618850106407
1684000053761827800,12.405228271484376,-1.157912612080858,-0.4679689407631319,-1.425245523545943
1684000053771869600,12.41527001953125,-1.1710219383646596,-0.5423221589092615,-1.359717369083353
1684000053781911200,12.4253115234375,-1.0745089055408499,-0.48385715472417534,-1.2584294079795855
1684000053791953100,12.435353515625,-0.9879635572411425,-0.45039272305095585,-1.136428594501695
1684000053801994900,12.445395263671877,-0.9280519486357346,-0.3510208128607352,-1.0875980853904037
1684000053812036600,12.45543701171875,-0.8803746700670073,-0.21222877514426436,-0.9804170130442457
1684000053822078400,12.465478759765626,-0.8376926184627674,-0.1373548507337883,-0.7389464379415824
1684000053832120000,12.475520263671877,-0.8496173620007286,-0.16036605824241185,-0.43580222126765655
1684000053842161800,12.485562255859374,-0.8976349831298585,-0.2722339629533036,-0.053589582522583
1684000053852203600,12.49560400390625,-0.8453929425941038,-0.41142845148733065,0.4528183938039946
1684000053862245300,12.505645751953123,-0.6349592208210538,-0.5353183746287007,0.9925663471154463
1684000053872287200,12.5156875,-0.147043108958124,-0.5675497055110091,1.6096735000810065
1684000053882329000,12.5257294921875,0.47997361432815777,-0.4722146988486806,2.1703231333077486
