time,seconds_elapsed,z,y,x
1684006910179353000,0.03275341796875,-1.382785752968658e-10,-2.2655019206035255e-11,-7.251640328153429e-11
1684006910189394100,0.04279443359375,0.06186246864045914,-0.030799865686270154,-0.04678022856593994
1684006910199435200,0.052835693359375,0.036156654378121864,0.10514307016746824,0.19063830385049585
1684006910209476600,0.062876953125,-0.25829267503662845,-0.19249629985027286,-0.15171229849719997
1684006910219517600,0.07291796875,-0.4656720161615988,-0.030958175514433486,-0.27075362213949933
1684006910229559000,0.08295947265625,-0.025511264758178415,-0.446901798251429,-0.5861827135448826
1684006910239600000,0.09300048828125,1.1067452431109444,-0.6405854224233052,-0.33761215210358697
1684006910249641400,0.103041748046875,1.2923536301025513,-0.6111073495342106,-0.605018019667102
1684006910259682600,0.113082763671875,0.6147670744750411,-0.890424728426687,-1.0081268548306999
1684006910269723600,0.1231240234375,0.33333587658814967,-0.7750353813130236,-0.5917872189965511
1684006910279764900,0.133165283203125,0.8707323073109473,1.025852203207606,0.1434767246643752
1684006910289806000,0.143206298828125,0.24741935718670777,-0.5994091034781798,0.8282668590999512
1684006910299847300,0.153247802734375,0.335432052688745,0.06574821460650876,1.0055744648071108
1684006910309888400,0.163288818359375,0.27152824394216946,0.31817245471649785,0.9024522304869541
1684006910319929600,0.173329833984375,0.004926681537295946,-0.07133817681458357,0.7344572544563703
1684006910329970900,0.183371337890625,-0.561711311301047,0.6910319330146665,0.43776941297092475
1684006910340012000,0.193412353515625,-1.0779681205335454,0.252196788909706,0.21019935607033666
1684006910350053300,0.20345361328125,-1.6135902404998708,0.22798299799555266,0.35269284266373846
1684006910360094400,0.213494873046875,-1.2832388877666483,0.4031538962696408,-0.051093578291169006
1684006910370135700,0.2235361328125,-1.4032468796228472,-0.5401964187718862,0.09227013589806446
1684006910380176800,0.2335771484375,-2.6339826584957984,0.08616304384706994,-0.18852472306439141
1684006910390217900,0.243618408203125,-5.706448554924898,0.332025051223347,0.8928077220038637
1684006910400259200,0.25365966796875,-1.3696422576904383,0.4637517928437136,1.5567398072161984
1684006910410300300,0.26370068359375,0.3293485641340571,0.15164756762995749,1.1062932014013802
1684006910420341600,0.2737421875,-0.2272300719950698,1.0457453727947221,-0.1886878014340639
1684006910430382800,0.283783203125,-1.4333443642900976,-0.0007104874003970755,0.10227584841537173
1684006910440424100,0.293824462890625,-0.9011235235926606,0.3651814459954886,-0.026729583708993657
1684006910450465200,0.303865478515625,-0.4550552368008409,0.2573080063863269,-1.0796029567800818
1684006910460506300,0.31390673828125,-0.09872436516100164,0.050354003996961424,-1.120249271246095
1684006910470547600,0.323947998046875,0.6397819520552215,-0.24262905128530793,-1.1026482582668022
1684006910480588600,0.333989013671875,0.9957103727910556,-0.4948215486006948,-1.0481958387360915
1684006910490630100,0.344030517578125,1.2322077751294667,-0.49788188935447686,-1.047392845188607
1684006910500671200,0.354071533203125,1.7464704515467604,-0.7193212509206505,-1.1539511680743473
1684006910510712600,0.36411279296875,1.6893587112454151,-0.2503647803856526,-1.104645729007139
1684006910520753600,0.374154052734375,-2.419788837477278,0.4531755447813173,0.524828433991848
1684006910530794600,0.384195068359375,-0.5046143532064106,1.0953044891465442,0.4620227813755867
1684006910540836000,0.394236328125,1.9530234337594978,0.7468190194312464,0.09670972834516599
1684006910550877100,0.404277587890625,2.9274697303938204,0.3535776138453217,-0.39503383647254464
1684006910560918400,0.41431884765625,1.65278387072062,0.28909111016858435,-0.7816171646692164
1684006910570959600,0.42435986328125,0.7149410247594465,0.338394641947542,-1.2239108085417603
1684006910581000900,0.4344013671875,3.888483047584785,0.32610845567713986,-1.5396099090575726
1684006910591042000,0.4444423828125,-0.9147553442703726,-0.5822052955172418,-2.4041228293882697
1684006910601083100,0.4544833984375,2.023452282009758,0.7284145354879126,-2.711367130330788
1684006910611124400,0.46452490234375,1.997373104009541,0.23246669757117122,-0.03623008731121842
1684006910621165600,0.47456591796875,4.640902995969216,1.330363273639268,2.518108367980833
1684006910631206800,0.484607177734375,3.8707485200526235,1.1067831515527211,4.069913864238929
1684006910641247900,0.4946484375,-2.3078727720413075,1.0626044271796427,1.0301699638072974
1684006910651289300,0.504689697265625,-5.964859485785079,1.4485666750693702,-0.8094506264174769
1684006910661330400,0.514730712890625,-7.551754951461615,1.715846061720048,-0.9556455611511514
1684006910671371400,0.524771728515625,-6.147672653165998,1.8859689234604022,0.3807601928875165
1684006910681412800,0.534813232421875,-3.830311298488395,1.6394755840622453,1.204228401307594
1684006910691453900,0.544854248046875,-2.030474662802482,1.179491043188453,1.3436698912258085
1684006910701495200,0.5548955078125,-0.5624113084363692,0.657705306915963,0.47553253165279386
1684006910711536300,0.564936767578125,0.866556644333563,-0.19876694682521,-0.5398912431376561
1684006910721577600,0.57497802734375,1.3722264765470422,-0.154843330237305,-1.3064503669945309
1684006910731618700,0.58501904296875,1.2240879536398448,-0.2221150398481571,-2.046531677168985
1684006910741659800,0.595060302734375,0.8939020634275311,0.21282410629360574,-2.1290969849215826
1684006910751701200,0.6051015625,0.5372002124362494,0.33374738690897093,-2.0672388076343924
1684006910761742300,0.615142578125,0.21991062173616233,0.475903272494342,-1.7563548089779932
1684006910771783600,0.62518408203125,0.3749387264917615,0.24513936051600907,-1.6701307298389947
1684006910781824600,0.63522509765625,0.5679957866124652,-0.21712970740817028,-1.2013769150479465
1684006910791866000,0.645266357421875,0.03104698664119249,-0.11724567415969353,-1.2693452835026808
1684006910801907100,0.6553076171875,-0.8192536235743394,-0.04154586796075042,-1.1523442270212543
1684006910811948200,0.6653486328125,-0.9342370032635208,0.024975061443293433,-1.875816345161858
1684006910821989600,0.675389892578125,-0.7055276633404433,-0.2339878081118708,-1.81031179429722
1684006910832030600,0.68543115234375,-0.5144985318908587,0.0850749014334323,-1.842122554776709
1684006910842072000,0.695472412109375,-0.027313590051717213,-0.07341122628610654,-1.7477560044800382
1684006910852113100,0.705513427734375,0.780441761013713,0.01662874217300158,-1.4159922601388542
1684006910862154400,0.715554931640625,1.1636391878585524,0.2071480750827832,-1.222702026358908
1684006910872195600,0.725595947265625,1.153274178460905,0.23872208582267163,-1.5285043714716264
1684006910882236800,0.73563720703125,0.5683922172289826,0.212348222559492,-1.646336555414773
1684006910892277900,0.74567822265625,0.36834573746444066,0.4711039064845802,-1.6361408233950334
1684006910902319000,0.755719482421875,-0.4391292930881515,0.4869327543911943,-1.5365781784109571
1684006910912360400,0.7657607421875,-1.2218608855965265,0.35947680481803607,-1.374728202847051
1684006910922401500,0.7758017578125,-0.8908522129413612,0.2171380520674714,-1.028037548025751
1684006910932442800,0.78584326171875,0.021934539217670468,0.10919904715088874,-0.29981803891466874
1684006910942483900,0.79588427734375,0.8919960261927944,-0.41654443734439117,0.676473617565068
1684006910952525200,0.805925537109375,1.3195983171038885,-0.8865299225218501,1.360299110303657
1684006910962566300,0.815966796875,1.918162584285845,-0.8147673606460493,2.6728639601685966
1684006910972607400,0.8260078125,2.3544209003505707,-0.3949227332907784,3.2633943557733756
1684006910982648800,0.836049072265625,3.011189937585768,-0.8159012794548627,3.4626388549432905
1684006910992689800,0.84609033203125,2.4499318600911595,-0.8679952621657155,3.7050857542820554
1684006911002731200,0.856131591796875,0.8828015326903172,-0.6143708228963147,4.1152496337559805
1684006911012772300,0.866172607421875,-0.7287846207985351,-0.28954410559051674,3.573803901828437
1684006911022813600,0.876214111328125,-5.485221386018518,-0.5662059784052567,2.3832025528059417
1684006911032854600,0.886255126953125,-4.867168903448351,0.03102397909109325,0.3022441862739217
1684006911042895800,0.896296142578125,-2.0437228681204203,-0.41351652151711693,0.21541214000643996
1684006911052937100,0.906337646484375,-0.044244527763272326,-0.7492127419182726,0.8173589706189507
1684006911062978600,0.91637890625,0.7776052952914163,-0.5201010704464332,1.2539887428728491
1684006911073019600,0.926419921875,0.8773674368789043,0.05968189236394715,1.0080180169350599
1684006911083060600,0.9364609375,0.45286822331846105,0.46859025942843124,0.7444610594131539
1684006911093102000,0.94650244140625,-0.021940708113240965,0.2498588562699895,0.2073054314176156
1684006911103143100,0.95654345703125,-0.1350667476978403,0.5260310173771806,-1.1763038636770433
1684006911113184400,0.966584716796875,-0.7053472996043239,-0.03022527694666358,-0.5169429779953533
1684006911123225600,0.9766259765625,-0.9732052087654798,0.8941073418728811,-0.8218121528666522
1684006911133266900,0.986667236328125,-2.1037533283580934,0.8041915893984116,1.4474587441571258
1684006911143308000,0.996708251953125,-0.2699055074469018,-0.7256369590163054,0.3240246771625163
1684006911153349000,1.00674951171875,0.40533906212562953,0.05131626142827423,0.8229165078647183
1684006911163390400,1.016790771484375,0.8786876202335475,0.250769138249087,1.416998386349337
1684006911173431500,1.026831787109375,1.2568128109264554,0.10904550566767046,1.8548231124476227
1684006911183472800,1.036873291015625,1.1093583108202694,-0.19952917097750458,1.6496438980643524
1684006911193513900,1.046914306640625,0.8687380550840521,-0.17173767102177298,1.7885961532675094
1684006911203555200,1.05695556640625,1.1966304779005794,0.4712743758270917,1.1296558379832353
1684006911213596300,1.066996826171875,0.16304035487253482,-0.7439661025623641,0.6572623252507732
1684006911223637400,1.077037841796875,-1.2155982255720668,-1.0497207643355828,-0.09845733635474224
1684006911233678800,1.0870791015625,-1.3735983371118385,-0.7451105116842596,-0.5557112692413146
1684006911243719900,1.097120361328125,-0.6864471435232239,-0.724552154512124,-0.22529411327531293
1684006911253761200,1.10716162109375,-0.10298223049787075,-0.9927983284345473,0.2410430908904734
1684006911263802300,1.11720263671875,0.4101420642303175,-1.5876245498200205,0.3626632690175742
1684006911273843600,1.127244140625,0.02642951900356467,-1.8741645812106615,-0.04381132110410454
1684006911283884600,1.13728515625,-0.2198303638760292,-1.855741977702473,-0.8656320572251833
1684006911293926100,1.147326416015625,-0.6812400818819654,-1.509755611434221,-1.229558944603085
1684006911303967200,1.157367431640625,-0.1999635696268845,-1.327578067698199,-0.8726487159662367
1684006911314008200,1.16740869140625,0.021138966085879486,-1.6069469451273,-0.2870163918558204
1684006911324049600,1.177449951171875,0.47233819969226515,-1.4541287423398668,-0.1395349501163852
1684006911334090600,1.187490966796875,0.1675257979587722,-1.2228584288492381,-0.42593622214205334
1684006911344132000,1.197532470703125,0.015934318285483293,-0.9174485207690053,-0.04261255255427982
1684006911354173100,1.207573486328125,-0.1195065081690537,-0.8042211532536174,0.17192554470407148
1684006911364214400,1.21761474609375,-0.09818181403730378,-0.6066093445457538,0.3042044639059378
1684006911374255600,1.227656005859375,-0.009000033047629315,-0.3755154609365024,0.4585556984280012
1684006911384296600,1.237697021484375,-0.10211217404178292,0.06233263015998376,0.3262124061603771
1684006911394338000,1.24773828125,-0.17939484111149154,0.18304586417879687,0.3870887756509665
1684006911404379100,1.257779541015625,0.0575289726470719,0.8857669830472205,0.9881253241277576
1684006911414420400,1.26782080078125,-0.17442965494571877,1.2651767730948755,0.5520191194210841
1684006911424461600,1.27786181640625,-0.3324292898083593,0.9385886192332666,0.5013122558663679
1684006911434502800,1.2879033203125,-0.4107680915716511,1.042171955097111,0.6450753211488857
1684006911444543900,1.2979443359375,-0.1050339936696921,1.6575026512012703,1.569607734596029
1684006911454585300,1.307985595703125,0.06368777167812928,1.4831047058692155,0.8285107612210999
1684006911464626400,1.31802685546875,-0.007990121864197817,1.094509124652422,0.6089172364153325
1684006911474667600,1.328068115234375,-0.29040247213666204,0.917574882425418,1.3080859184313418
1684006911484708800,1.338109130859375,-0.498113453376208,0.816586971341406,1.0606031418159696
1684006911494749900,1.348150390625,-0.3887150883057568,0.7966709136658445,1.0338053702818153
1684006911504791200,1.358191650390625,-0.1657897233698441,1.1935529709445534,1.2398910522218507
1684006911514832300,1.368232666015625,-0.045890152475617674,1.5239720343398526,0.992816924977603
1684006911524873600,1.378274169921875,-0.15516173831485588,1.6704001425910207,-0.05890130984652148
1684006911534914700,1.388315185546875,-0.22759377966550604,0.9175963401915079,-0.8088340759116314
1684006911544956100,1.3983564453125,-0.5216149686439934,0.4206452370573082,-1.6594686508881904
1684006911554997200,1.4083974609375,-0.9614074229962988,-0.31463956826073586,-2.2909274100573613
1684006911565038600,1.41843896484375,-0.7436243296800934,0.2829957009526462,-2.2183890343320685
1684006911575079600,1.42847998046875,0.7507638932294284,0.44112873073845577,-1.48033380505894
1684006911585120600,1.43852099609375,0.9432634114315968,-0.5973920822185882,-1.7988867758960143
1684006911595162000,1.4485625,0.7632648945812669,-1.8380570411559645,-2.439569473335902
1684006911605203100,1.458603515625,-0.044420123068264546,-3.0212769508988813,-1.9359469413898587
1684006911615244500,1.468644775390625,-0.6774901150409581,-3.7702946663042405,-1.498019695224725
1684006911625285600,1.47868603515625,-0.5892750024606556,-3.3990082740881262,-1.460532188247155
1684006911635326900,1.488727294921875,-0.21959853174255023,-2.379140853783398,-2.1467075348037223
1684006911645368000,1.498768310546875,-0.17994701863529,-3.3275976181402713,-1.9768137930054588
1684006911655409300,1.508809814453125,0.129287600614457,-4.711755752499366,-0.15567636487848854
1684006911665450400,1.518850830078125,1.3792121409955114,-2.464782238069652,-1.063823223117309
1684006911675491800,1.52889208984375,1.843546986516183,-0.28404903399150927,-2.358781814652789
1684006911685532800,1.538933349609375,1.1203112600907226,-0.35637760167695165,-2.209550380790572
1684006911695573900,1.548974365234375,0.6295980215212162,-0.5732650756667378,-0.7426319122513741
1684006911705615300,1.559015625,0.11169171333464406,-1.1258239746156036,-0.18971443183652206
1684006911715656400,1.569056884765625,-0.4626828433015482,-1.1268248557436453,-0.8612031936873786
1684006911725697600,1.57909814453125,-0.7635134458360809,-1.4104318617938252,-1.1996426582861879
1684006911735738800,1.58913916015625,-0.006606102153591345,-0.8678879738623589,-0.8089671136096248
1684006911745780100,1.5991806640625,1.7365720270628875,-0.4955663681029975,-0.531724452880536
1684006911755821200,1.6092216796875,2.549708127995404,0.3716626166383775,-1.4186048506083078
1684006911765862600,1.619262939453125,2.103598594667381,-0.2576942443783479,-1.7702064513666955
1684006911775903600,1.629303955078125,1.8452494144205887,-0.7947983742791176,-1.5344362259739874
1684006911785944800,1.63934521484375,1.1767199037880989,-1.059110641425863,-1.1762123107712634
1684006911795986100,1.649386474609375,-2.4000368117882416,-0.5763168334189385,0.12073659900649673
1684006911806027200,1.659427490234375,-3.8493394851715284,-0.3760204316575091,0.2527527808827578
1684006911816068600,1.669468994140625,-4.06483840947719,2.7885901929293975,0.2647433280779386
1684006911826109600,1.679510009765625,-2.453454732924663,0.3282384872648028,1.2896032333246983
1684006911836151000,1.68955126953125,-1.0075907707142424,-1.1107783317363098,0.1938648224193819
1684006911846192000,1.699592529296875,-0.24850833415219473,-1.932277202496107,-0.7359886168312533
1684006911856233400,1.7096337890625,-0.0845031738988409,-1.7839269639420627,-1.7405600546604478
1684006911866274600,1.7196748046875,-0.1961412430846316,-2.9140067101148728,-1.4685764312887526
1684006911876315800,1.72971630859375,-0.0955702066220749,-1.551835060151994,-0.8435101508880225
1684006911886356900,1.73975732421875,0.5746726392858158,0.48962926863618644,-0.0800251961298235
1684006911896398000,1.74979833984375,-0.04359948621886374,0.41730117795008553,-0.110723495467011
1684006911906439300,1.75983984375,-0.7607711554807125,0.1193795203280102,-0.6823902130216096
1684006911916480400,1.769880859375,-0.7575287818959529,0.05021333684928541,-0.8674201964995493
1684006911926521800,1.779922119140625,-0.450276374893823,0.1929874418868329,-0.7275710106039392
1684006911936562900,1.78996337890625,-0.1724417210559186,0.3310999870289869,-0.3748888970880584
1684006911946604200,1.800004638671875,-0.09041154394189797,0.35503149044002574,0.042288780111035054
1684006911956645300,1.810045654296875,-0.12306928647587331,0.6701474189677372,0.6509742737008507
1684006911966686600,1.820087158203125,0.10900008692372914,1.426323413911461,-0.06809282307413102
1684006911976727700,1.830128173828125,-0.9383965730055401,1.5278921129198773,0.19566869742664625
1684006911986768800,1.840169189453125,-1.3441379069199115,2.3331212997727073,0.25237703329164674
1684006911996810200,1.85021044921875,-0.9827766418277496,1.6072502134554045,-1.086193084657965
1684006912006851200,1.860251708984375,-0.6246188879059139,1.3886437416984003,-1.6927709579144603
1684006912016892600,1.87029296875,-0.6417490244272784,1.2376871108785648,-1.637673377931497
1684006912026933600,1.880333984375,-0.8749258518427719,0.7234749793192651,-1.7994675637619544
1684006912036975000,1.89037548828125,-0.0028539895881092765,0.8831081390526382,-1.741720199474132
1684006912047016100,1.90041650390625,0.22641456140752492,-0.332994937711278,-1.9813141824565124
1684006912057057500,1.910457763671875,0.2380019427603176,-0.9729347229320793,-1.2685003279917277
1684006912067098600,1.9204990234375,0.10097467907931046,-0.7621192930567533,-0.5840787887605364
1684006912077139900,1.930540283203125,-0.42908048635030116,-0.7656874656347967,0.9489016534358227
1684006912087181000,1.940581298828125,-0.7915595770505147,-1.2257766723558423,2.0268936156621176
1684006912097222300,1.950622802734375,-0.6189578771854902,-1.5272889136562258,2.0291318892831183
1684006912107263400,1.960663818359375,0.021879315517101382,-0.7953405381208924,1.5320520400412838
1684006912117304600,1.970704833984375,0.9956539868441936,-0.3846960068543444,0.4546890257923746
1684006912127345800,1.980746337890625,1.597255587434183,-0.25833129893779055,-0.3362488746364725
1684006912137386900,1.990787353515625,1.6365010739244028,-0.6604390143866624,-0.49687480917490107
1684006912147428300,2.00082861328125,0.9531707763586389,-0.8074645995953281,-0.2119030951872403
1684006912157469400,2.010869873046875,0.07767474652797003,-0.13314342509188445,0.28352499010326804
1684006912167510600,2.0209111328125,-0.7753622531556698,0.060773849352887425,0.5475816727138016
1684006912177551800,2.0309521484375,-1.3541084528367782,0.0688624382625186,-0.045480728186446405
1684006912187593100,2.04099365234375,-1.1068507432214914,0.27302074436775653,-0.3546586038193324
1684006912197634200,2.05103466796875,-0.5204098225666841,0.37872219081800146,-0.34057235716854567
1684006912207675600,2.061075927734375,0.16265487677993917,0.15635108937624323,-0.3600716591509315
1684006912217716600,2.071116943359375,0.5008674859626818,0.060409545926850994,-0.19895696640865781
1684006912227757700,2.081158203125,0.8908392189998026,0.29892396926245673,0.07008600237897085
1684006912237799100,2.091199462890625,0.9608702063398203,-0.42383813859670644,-0.7848644258325834
1684006912247840200,2.101240478515625,0.8515462280370866,0.2521739007386697,-0.1095175743712915
1684006912257881600,2.111281982421875,0.07951319213731338,0.13451051705965716,-0.08347988128907526
1684006912267922600,2.121322998046875,-0.042607545932095196,0.09420871741153983,-0.19876241683511542
1684006912277964000,2.1313642578125,0.17934298507779636,0.381282329527937,0.08206176763711655
1684006912288005000,2.141405517578125,0.42506879551153637,1.2590603828271296,-0.057276248873855205
1684006912298046400,2.15144677734375,-0.10873985295182687,1.6544728279001073,-0.6394009589982244
1684006912308087500,2.16148779296875,-0.7003785371521557,1.6778497695873054,-0.16085147841239333
1684006912318128800,2.171529296875,-1.0365555286388999,1.0204143525038052,0.06313800817158281
1684006912328169900,2.1815703125,-1.1511205436271463,0.0568156240966369,-0.1567311286769516
1684006912338211200,2.191611572265625,-1.1823800802466558,-0.10078287128976365,-0.0760402680039015
1684006912348252300,2.20165283203125,-0.838690042579393,-0.4269018173824943,-1.2044167517260365
1684006912358293400,2.21169384765625,-0.6181140542270375,0.163603305748752,-1.3196277617402554
1684006912368334800,2.221735107421875,-0.5944229960637228,0.1422295570458617,-0.7545027733526569
1684006912378375900,2.2317763671875,-0.6438029408899281,0.8600955010035463,-0.013949394140087234
1684006912388417200,2.241817626953125,0.18336451045823454,-0.7163844108746984,0.5570049287077846
1684006912398458300,2.251858642578125,-0.027985155676383204,0.15142202367830865,0.9033203124572364
1684006912408499600,2.261900146484375,-0.6387150287392417,0.3021469116025265,1.2963747979297393
1684006912418540600,2.271941162109375,-0.829039335427353,0.2697710990712017,0.8422303199680277
1684006912428582100,2.281982421875,-0.8169710635653168,0.28900289532224427,0.03415489194150376
1684006912438623200,2.2920234375,-0.7999798656419472,0.2519745826832442,-0.37403059002965683
1684006912448664600,2.30206494140625,-0.9074531196072362,0.6278114319839438,0.5800337791595163
1684006912458705600,2.31210595703125,-0.7924029827389273,-0.0025296211833828134,1.045358657943893
1684006912468746900,2.322147216796875,-0.8648896217488133,0.23944330232531122,1.3257460594459891
1684006912478788000,2.3321884765625,-0.06170088063187506,0.7382020948927812,1.6161289216397265
1684006912488829100,2.3422294921875,0.08069685106497299,0.3647055627678786,2.2749681472677623
1684006912498870400,2.352270751953125,-0.6024821401312841,-0.476085185948896,2.411591053019745
1684006912508911600,2.36231201171875,-1.0491030216457295,0.9621949194756635,2.181166172025215
1684006912518952900,2.372353271484375,-2.3621327877039935,0.3658456802502476,1.6095037459790278
1684006912528994000,2.382394287109375,-3.1804342269634036,0.022848129315830787,1.336479663792972
1684006912539035300,2.392435791015625,-2.8639519214469007,-0.21657657622497067,1.2009592054822886
1684006912549076400,2.402476806640625,-1.5516914130318704,-0.6298723220888357,0.6682605743931638
1684006912559117700,2.41251806640625,-0.11049765348328722,-0.9923882484296992,-0.32098770141643856
1684006912569158800,2.422559326171875,1.2804915905423555,-0.9499120712964279,-0.43453407278067413
1684006912579200200,2.4326005859375,2.310883045236902,-0.7871732712170164,-1.4802842140771917
1684006912589241300,2.4426416015625,1.9992489813957302,-1.006992340037582,-2.2620372771039756
1684006912599282400,2.452682861328125,1.655622839786508,-0.29153203968060615,-2.5562958718194277
1684006912609323600,2.46272412109375,0.7779533862323945,0.06846189510915288,-2.173585414826115
1684006912619364800,2.47276513671875,-0.28423950085781813,0.33854675278434737,-2.035144329084259
1684006912629406100,2.482806640625,1.0180506705869412,0.8063049316263373,-0.8450226784656317
1684006912639447200,2.49284765625,1.8067271710296808,1.3560514450829233,0.2209000588848996
1684006912649488600,2.502888916015625,1.7771859168364912,0.5743904113285259,0.49950981128265975
1684006912659529600,2.512929931640625,0.9803141355083456,-0.7607455253864694,0.4330348967618726
1684006912669571000,2.522971435546875,-1.6174094677442579,-2.7965192792987783,0.08800792700590572
1684006912679612100,2.533012451171875,-2.2287955284676753,-1.0373506546218048,-0.5622129440465231
1684006912689653400,2.5430537109375,-1.0393350125608096,0.6965384483487865,0.5984354019762014
1684006912699694600,2.553094970703125,0.05617129807940544,0.03303527829243268,0.794006824663842
1684006912709735900,2.56313623046875,0.42843341831459136,-1.336169242788864,0.6512622831708977
1684006912719776900,2.57317724609375,0.9956337214427634,0.6414203644271939,-0.5588049888768273
1684006912729818000,2.583218505859375,1.7928004265094297,0.7781567574370871,-0.5506415366424683
1684006912739859400,2.593259765625,1.7313965559917774,0.17685174946302065,-0.6421294214043041
1684006912749900600,2.603301025390625,1.0221769809612662,0.1448411941388792,-0.8496928215554157
1684006912759941800,2.61334228515625,0.8537248372954432,0.33724546432051555,-0.339561939151705
1684006912769982900,2.62338330078125,0.7789734006396325,0.0518312455763127,0.3696808814302391
1684006912780024200,2.633424560546875,0.44005087020107664,-0.3617196082398019,-0.39728832254525337
1684006912790065300,2.6434658203125,0.5693451762186323,-0.3605213164470047,-0.0462293625372375
1684006912800106600,2.653507080078125,0.3342496752051792,-0.8217196464456997,0.3537855147908924
1684006912810147800,2.663548095703125,-1.1250329017575147,-3.6459183691548054,0.19918060307840868
1684006912820189100,2.673589599609375,-0.6692796946231713,-0.07552003868070846,-1.0572400093218752
1684006912830230200,2.683630615234375,0.3194033801520908,1.4377684593914297,-0.3354701995752035
1684006912840271600,2.693671875,0.350476265112203,2.85315895081146,-1.6310486794655832
1684006912850312600,2.703713134765625,0.46401160946204434,1.07286834727167,-0.5072817802382737
1684006912860354000,2.71375439453125,0.8316496014527264,-0.3536624908893698,0.2945566177249638
1684006912870395100,2.72379541015625,0.8130245209781093,-1.3210430144260648,0.6523556709906002
1684006912880436400,2.7338369140625,0.6332926749491121,-1.1936182973837919,0.3754386902809397
1684006912890477600,2.7438779296875,0.2780650555261628,-0.5022001265622532,-0.2529945374109233
1684006912900518600,2.7539189453125,0.16853308680829218,-0.08794784537103441,-1.065535068599198
1684006912910559900,2.763960205078125,-0.04133296010902095,0.14162969587822194,-1.560257435010711
1684006912920601000,2.77400146484375,-0.41556218276600304,-0.11613988869323931,-1.8728561402395094
1684006912930642400,2.784042724609375,-0.13426947591286442,-0.043849945090248796,-1.377414226536704
1684006912940683400,2.794083740234375,0.18793034556580102,-0.21222019188059618,-1.10681867601829
1684006912950724800,2.804125244140625,0.4678099154447561,-0.5426721573951966,-0.6563644409180136
1684006912960765900,2.814166259765625,0.7605392931478024,-0.7381467817550563,-0.14688587179489293
1684006912970807200,2.82420751953125,0.5715453028239098,-1.5619559287850497,0.4671640396278364
1684006912980848300,2.834248779296875,0.6271453499590696,-0.4649963379441198,1.1414399145836815
1684006912990889600,2.8442900390625,1.0856895447439134,-0.004686355601659891,0.370100498179458
1684006913000930700,2.8543310546875,1.2549017667358215,0.32471656787248054,-0.6848034859388521
1684006913010972100,2.86437255859375,1.5033161641508135,0.6591739655108122,-1.2748794557043603
1684006913021013200,2.87441357421875,1.1655220985165575,0.12684202193685098,-1.6833353042286359
1684006913031054600,2.884454833984375,0.42675060039128615,0.03185033785771551,-1.3699426650119972
1684006913041095600,2.89449609375,0.2181216479229294,-0.286311626393099,-0.6612849236360826
1684006913051136600,2.904537109375,0.25555545104219535,-0.5093283654035242,-0.34719562527627224
1684006913061178000,2.914578369140625,0.2513341308813227,-0.2415914536129136,-0.6910133361989295
1684006913071219400,2.924619873046875,-0.05715930456537726,-0.09675407405763899,-0.9477686881494113
1684006913081260500,2.934660888671875,-0.20457094897974606,-0.6656885147255102,-0.23525810245181025
1684006913091301600,2.944701904296875,0.25187218187787713,-0.7498569489471284,0.34671354297671
1684006913101342900,2.954743408203125,0.8032993673496951,-0.9058933258321086,0.7397694586399729
1684006913111384000,2.964784423828125,1.303905010213822,-0.6289653777268568,-0.04558324819324194
1684006913121425300,2.97482568359375,0.6508167981972826,-1.3303337098600423,1.5240893362900565
1684006913131466400,2.98486669921875,0.411524355405946,-0.3612756729315301,0.9043626785803236
1684006913141507800,2.994908203125,0.5162957312317438,0.30504417401287093,0.4316372871967349
1684006913151548800,3.00494921875,0.029199242668676042,0.039642333841061854,-0.2609744070762631
1684006913161590200,3.014990478515625,-0.43527302144065055,-0.7312622069637605,-0.709702015000105
1684006913171631300,3.02503173828125,-0.43748584381649086,0.2759332658269903,-1.2655410766493305
1684006913181672600,3.035072998046875,-0.5255509616077696,0.4920029640743991,-0.5760231017904132
1684006913191713600,3.045114013671875,-0.43109816318831606,0.32186698925178664,-0.5886664390046638
1684006913201755100,3.055155517578125,-0.250281989517492,0.344085693234499,-0.5114264487995445
1684006913211796100,3.065196533203125,-0.18248677242219172,0.41401481625110503,0.006528854359655571
1684006913221837600,3.07523779296875,-0.28413110957549453,2.102669715778986,-2.2741584778576813
1684006913231878600,3.085279052734375,0.02762103082948599,0.237012863314127,-0.5249457360611153
1684006913241919600,3.095320068359375,0.09279167639138522,0.30339241033157216,1.075142383532084
1684006913251961000,3.105361328125,0.25934809431177397,-0.3052930831150428,2.347216129257757
1684006913262002100,3.115402587890625,0.5734798311596888,-0.6013154982951615,3.3240184783932367
1684006913272043400,3.12544384765625,1.0298943518559,-1.1135978699367814,3.3474555014728646
1684006913282084600,3.13548486328125,1.3404901027456604,0.39108371726541197,1.758361339625277
1684006913292125900,3.1455263671875,1.1379365920925408,-0.4287557600767856,1.1870036126361396
1684006913302167000,3.1555673828125,0.6664530634630722,-0.42314052599357466,1.4145641326383651
1684006913312208300,3.165608642578125,-0.0784622430293444,-0.3820257186459787,1.1913361549973143
1684006913322249400,3.17564990234375,-0.7142256499941071,0.05458545693594866,0.5790586471481003
1684006913332290700,3.185691162109375,-1.4914722442971577,0.34530258170180406,0.05863189701601597
1684006913342331800,3.195732177734375,-2.0858521462136865,0.5578794479026898,-0.029623508376574882
1684006913352373200,3.205773681640625,-2.0099523066562295,0.345472335705282,0.19185495380340978
1684006913362414300,3.215814697265625,-1.4361524582193999,0.41248321528428367,0.5096764565307965
1684006913372455600,3.22585595703125,-0.7183169125366918,0.5957059860448046,0.5843563079689649
1684006913382496600,3.23589697265625,-0.15653300276140433,0.6238079071181784,0.5171785354834895
1684006913392538000,3.2459384765625,0.2952139378320359,0.7075204849575857,0.31025409685504113
1684006913402579100,3.2559794921875,0.7412165404549232,0.8503484726150067,0.46452331539075686
1684006913412620500,3.266020751953125,1.0073906183024666,0.955843925477102,0.6603250503300234
1684006913422661600,3.27606201171875,1.2346723079595727,0.6584491729434847,0.8269939421450822
1684006913432702900,3.286103271484375,1.4087671041196852,0.8858470916694646,1.180426120633206
1684006913442744000,3.296144287109375,1.4935600756507026,0.8582763671028592,1.5244750977185275
1684006913452785100,3.306185546875,1.2885384560196693,0.5161581039439593,1.5043640137341303
1684006913462826400,3.316226806640625,0.9579932689104746,0.6545209885866619,1.6395361424155337
1684006913472867600,3.326267822265625,0.6339673995437088,0.8144845963163779,1.8540406225753097
1684006913482908800,3.336309326171875,0.17768049245085304,1.0640282630616438,1.7330698965544518
1684006913492949900,3.346350341796875,-0.23107838629823665,-0.1600465774861182,1.7224287985940423
1684006913502991300,3.3563916015625,-0.23415553552391827,-0.6791248321517825,2.26904463761473
1684006913513032400,3.366432861328125,0.01867192970834367,0.10659885411035258,1.0896778106445275
1684006913523073600,3.37647412109375,-0.18178629888417655,0.2674951554550321,-0.06924867630533262
1684006913533114800,3.38651513671875,-0.26528543240159386,0.522907256954129,-1.1561527251550177
1684006913543156100,3.396556640625,-0.36077302689997875,0.6647844313249425,-1.9641430377324105
1684006913553197200,3.40659765625,-0.321774423173069,0.8042726518253346,-1.8187777997177015
1684006913563238600,3.416638916015625,1.3363168239378087,0.789103508081412,-0.12569093703363213
1684006913573279600,3.42668017578125,0.32579374311337006,1.0063772201421033,-0.9974315166119131
1684006913583321000,3.436721435546875,0.653248548386185,1.2559924125424515,-0.4792075156352876
1684006913593362100,3.446762451171875,1.0143046377429754,1.1260437964697632,-0.3295981884797783
1684006913603403400,3.456803955078125,1.5968260765624571,0.6345415115809178,0.08600497237008352
1684006913613444600,3.466844970703125,2.4873266220048027,0.6072149276670396,0.5276262759323814
1684006913623485900,3.47688623046875,3.5310811996192233,0.8080625534128323,0.9606111048316776
1684006913633527000,3.48692724609375,3.7979373930496587,0.3503227234857345,1.1349785328565234
1684006913643568000,3.496968505859375,3.3128027914933704,0.12903976438312836,1.1400542260055928
1684006913653609400,3.507009765625,2.726620912623283,0.5192651748530843,0.30704426769361703
1684006913663650600,3.51705078125,1.586210846890252,1.7420487405222078,-1.7244402170257958
1684006913673691800,3.52709228515625,1.060229063045634,1.2500162124238579,-1.7602419852490219
1684006913683732900,3.53713330078125,0.15784388779109293,0.5131578444200537,-1.9872052669614417
1684006913693774300,3.547174560546875,-1.035694837632683,-0.2481737137058873,-1.5365219116558666
1684006913703815300,3.5572158203125,-2.094507455717924,-0.281520843461382,-1.4401073456249736
1684006913713856600,3.567257080078125,-3.0489375590806262,-1.3384933472414735,-0.8355631828541962
1684006913723897800,3.577298095703125,-3.7847483158334887,-2.0352230072147606,-0.16977167123374412
1684006913733939100,3.587339599609375,-3.424523830336596,-2.3648681640601557,0.8157815933974258
1684006913743980200,3.597380615234375,-2.798196792553495,-2.500446319636963,2.770318985026814
1684006913754021600,3.607421875,-1.680231094413772,-1.9104948042912562,3.5140128136227005
1684006913764062600,3.617463134765625,-0.8003930448756704,-1.6084871291221066,4.331765651688586
1684006913774104000,3.62750439453125,0.008302912032417571,-1.2052755357236522,4.849020004111835
1684006913784145100,3.63754541015625,0.18689517690032334,-1.0326089858129528,4.193871498109922
1684006913794186400,3.6475869140625,-0.00951725994135513,-0.6382570267561024,3.25235080721692
1684006913804227600,3.6576279296875,-0.26326102017542763,0.6547098161011141,2.2498803139144323
1684006913814268800,3.667669189453125,-0.5615399479937312,0.5160989761264506,0.8504985571775828
1684006913824309900,3.67771044921875,-0.9688555598531917,1.7818098067841042,0.5586730240813986
1684006913834351300,3.687751708984375,-1.2720881699728772,1.6492328644808036,0.15767467029760762
1684006913844392400,3.697792724609375,-1.2222237586939853,1.7043933868930865,0.2788428067880195
1684006913854433600,3.707834228515625,-0.8824888466950214,1.6714725493348646,0.5807121991235454
1684006913864474800,3.717875244140625,-0.3731922207658481,0.901086807208882,0.85552906989288
1684006913874516100,3.72791650390625,0.15181294095107634,1.0115280151899242,0.8783625363223614
1684006913884557200,3.73795751953125,0.33625712986121015,1.088881492592469,0.8077325821261974
1684006913894598300,3.747998779296875,0.19487214089550922,-0.15086174005447944,1.3460173608035022
1684006913904639600,3.7580400390625,0.2014855743535808,-0.08604812609846661,1.8032749890898767
1684006913914680800,3.7680810546875,0.1407587528599261,0.6728858946439078,1.7138786316336445
1684006913924722100,3.77812255859375,-0.11169600488758562,0.6479558944202495,1.2235078811387285
1684006913934763200,3.78816357421875,-0.1051564216171077,0.03616046913397706,0.6451464889700942
1684006913944804600,3.798204833984375,0.1392793655431626,-0.4942712783130182,-0.060662031289262563
1684006913954845600,3.80824609375,0.3990262747099624,-0.9064340591410419,-0.6127645373513622
1684006913964887000,3.818287353515625,0.6901106238978597,-1.1129360198163232,-1.096806764672852
1684006913974928000,3.828328369140625,0.9783892034269608,-1.2247209548557134,-1.256504774199163
1684006913984969400,3.838369873046875,1.1486456393567535,-1.1263237000590616,-1.2239463329426217
1684006913995010600,3.848410888671875,1.124874591908794,-1.0714721680255703,-1.1366850139247027
1684006914005051800,3.8584521484375,1.1345852614274141,-1.2155132294287991,-0.8550101519762214
1684006914015092900,3.868493408203125,1.0672729015356694,-1.2164945602906552,-0.6872963906680778
1684006914025134300,3.87853466796875,0.9763845204969704,-1.3786096572909676,-0.34726297851375676
1684006914035175300,3.88857568359375,0.8341537713573866,-1.6145792008134272,-0.4509067536708537
1684006914045216600,3.8986171875,0.6642791033445385,-1.356258392288268,-0.2877589464901015
1684006914055257800,3.908658203125,0.36612129214784883,-1.613223075842111,0.30640745152565785
1684006914065299100,3.918699462890625,0.45323526859081503,-0.23042583467796646,0.22231793414031417
1684006914075340200,3.92874072265625,0.377712964954889,-0.09883117677740787,-0.8135756253871261
1684006914085381600,3.938781982421875,0.3709323407760457,-0.09982299810816452,-1.396845102307287
1684006914095422600,3.948822998046875,0.35850548754352324,-0.3970994950400649,-1.953851461395191
1684006914105464000,3.958864501953125,0.5947163104488381,-0.7446365356132164,-2.050921201796934
1684006914115505100,3.968905517578125,0.9425541163174918,0.0031118394480108796,-1.4929087161462287
1684006914125546200,3.978946533203125,1.036962389860098,0.342707634087591,-1.2231440543504704
1684006914135587600,3.98898779296875,0.9448763133305174,0.38482284539693684,-1.2161570787275942
1684006914145628800,3.999029296875,0.7893098592790125,0.35451316844920977,-1.1681554317233358
1684006914155669900,4.0090703125,0.5403144359947248,0.41873931887733706,-1.0537158251029417
1684006914165711000,4.019111328125,0.2480725050365013,0.388074874910219,-0.9854288101391315
1684006914175752400,4.02915283203125,-0.009324788997485225,0.42238903038856623,-0.9130532741555266
1684006914185793500,4.03919384765625,-0.12148714051003752,0.3658981322750342,-0.7371989487854302
1684006914195834800,4.049235107421875,-0.2155461310151755,0.26741886144841315,-0.5834808348990638
1684006914205875900,4.0592763671875,-0.12486457817544916,0.08654403690963353,-0.4351408481322367
1684006914215917200,4.069317626953125,0.08329772950794209,-0.04727554307197492,-0.22859597207555932
1684006914225958300,4.079358642578125,0.23468327531015074,-0.1285095214783909,-0.10795736294953877
1684006914235999600,4.089400146484375,0.3090782165117738,-0.068465232677763,0.004220724065901809
1684006914246040800,4.099441162109375,0.09282875066968557,-0.3267126083569052,0.008502960158400158
1684006914256082100,4.109482421875,-0.15327882782600327,-0.42626285558131355,-0.07912445067895855
1684006914266123200,4.119523681640625,-0.226105689915889,-0.4319200516354649,-0.12915277493020533
1684006914276164600,4.12956494140625,-0.26727271082635573,-0.3864231110103534,-0.25495505348628816
1684006914286205600,4.13960595703125,-0.28897094720337596,-0.30112648016155785,-0.38502550124157425
1684006914296247000,4.1496474609375,-0.1432836055701513,-0.007330894573224482,-0.4610278606978736
1684006914306288000,4.1596884765625,-0.09711623182222018,-0.05269813540570227,-0.4280345438716033
1684006914316329400,4.169729736328125,0.05376839629554379,-0.05470752707001833,-0.37018799784718665
1684006914326370600,4.17977099609375,0.2799990177688489,0.05376338962462143,-0.27444338801193296
1684006914336411800,4.189812255859375,0.41440069681127395,0.33026409147133906,-0.23662424098645246
1684006914346452900,4.199853271484375,0.3594332933466363,0.5362768173970859,-0.32585072516798474
1684006914356494300,4.209894775390625,0.17629909514724898,0.6271028520561491,-0.4104893208501058
1684006914366535300,4.219935791015625,0.06608963023538823,0.65970897682477,-0.4022390843565069
1684006914376576600,4.22997705078125,-0.07302975658215853,0.7382278440940975,-0.48835730549033346
1684006914386617800,4.24001806640625,-0.040862321705289056,0.8716030120863406,-0.47525787338430614
1684006914396658900,4.250059326171875,0.07512879377251995,0.7366857528036744,-0.4667730331459048
1684006914406700200,4.2601005859375,0.2480483055404326,0.49874877927294076,-0.42078781123922604
1684006914416741600,4.270141845703125,0.47699940198127255,0.23768138887826518,-0.4591038225955779
1684006914426782600,4.28018310546875,0.6169085502212848,0.2079715729807628,-0.3801469804037009
1684006914436823700,4.29022412109375,0.7130267621030375,0.21408748634237995,-0.34135460854126976
1684006914446865100,4.300265380859375,0.6815109252711642,0.2007131577049306,-0.25074076657874544
1684006914456906200,4.310306640625,0.4395412207374818,0.21528816223293973,-0.19518661490401226
1684006914466947600,4.320347900390625,-0.014614105173335164,0.25442409519155096,-0.07708477985270705
1684006914476988600,4.330388916015625,-0.5273091793180413,0.1114978790962937,0.15727305395748117
1684006914487029900,4.340430419921875,-0.5365231037428819,-0.16110324867747708,0.16003203388738174
1684006914497071000,4.350471435546875,-0.509222269085709,-0.18077754971493643,0.17074513453115825
1684006914507112400,4.3605126953125,-0.5266029835255721,-0.0861511231368181,0.006719589347294704
1684006914517153500,4.370553955078125,-0.3236136437468451,0.02738475817264519,-0.06351685534019798
1684006914527194800,4.38059521484375,-0.1770823003046479,0.20265865322973425,0.05546021459179576
1684006914537235900,4.39063623046875,-0.12269663810690096,0.2655162812572661,0.06381845482314297
1684006914547277200,4.400677734375,-0.1346523760538687,0.25013542169033903,0.11615729314572415
1684006914557318300,4.41071875,-0.21343779569977575,0.2168016434279948,0.0919246672721871
1684006914567359600,4.420760009765625,-0.3775358199401451,0.12681865699237857,0.1907021999184014
1684006914577400800,4.43080126953125,-0.5619025230987156,0.012793540927514517,0.3874249457307711
1684006914587442100,4.440842529296875,-0.6371495724990169,-0.03531932834796333,0.5045239926136226
1684006914597483200,4.450883544921875,-0.7111027241323296,-0.0496559142531458,0.7344458103976784
1684006914607524600,4.460925048828125,-0.7204363346228925,-0.1451749800858526,0.8453555105938855
1684006914617565600,4.470966064453125,-0.5080626010019864,-0.15577316296428453,0.8533813953578225
1684006914627607000,4.48100732421875,-0.19190692888223318,0.3815774917599833,0.6643743516760108
1684006914637648000,4.49104833984375,0.07555699351242343,0.7245826721046209,0.5838396549750617
1684006914647689400,4.50108984375,0.30705487723253816,0.7364244462710982,0.6204266548973336
1684006914657730600,4.511130859375,0.5067167282325525,0.7253046035029199,0.3454830646692409
1684006914667771800,4.521172119140625,0.5929325818077791,0.9648265838306987,-0.13396978361237935
1684006914677812900,4.53121337890625,0.5242409705937205,1.028355598425952,-0.5773477553910855
1684006914687854300,4.541254638671875,0.547631859919522,1.0788469313723774,-0.6470704077389076
1684006914697895300,4.551295654296875,0.5648248194036704,0.47701454160003226,-0.9005937575450634
1684006914707936400,4.5613369140625,0.3668485879480725,0.0717182160623582,-0.7804765701118482
1684006914717977800,4.571378173828125,-0.19072997574417946,-0.2725591659096467,-0.5880081653529594
1684006914728018900,4.581419189453125,-0.8966128824772115,-1.1326885222278569,-0.30822801585522136
1684006914738060200,4.591460693359375,-1.64618980872553,-1.5753335954299497,0.31359601034861745
1684006914748101300,4.601501708984375,-2.112712860144458,-2.1528215408748985,1.129896640834061
1684006914758142600,4.61154296875,-2.092005252750728,-2.3930273055384856,2.0390238762733426
1684006914768183600,4.621584228515625,-1.533105850116243,-1.9730691911185687,2.402880907073317
1684006914778225100,4.63162548828125,-0.6623917816540351,-1.4350461958701863,2.314699888220315
1684006914788266200,4.64166650390625,-0.0908980369718291,-1.3571720123234499,1.804735660468007
1684006914798307600,4.6517080078125,0.09582853322835103,-1.359913825853023,0.757895469716375
1684006914808348600,4.6617490234375,0.1756442783859169,-1.2215814590345586,-0.33406138419658815
1684006914818389900,4.671790283203125,0.3212618827345306,-0.5358371735678777,-0.8810957671398696
1684006914828431000,4.68183154296875,0.5654684305662223,-0.19644546513796757,-1.4830011130305678
1684006914838472400,4.691872802734375,0.7095448970864491,0.24471378328116752,-1.7314769031381558
1684006914848513500,4.701913818359375,0.732225954593229,0.46439933789959215,-1.787932872866082
1684006914858554800,4.711955078125,0.7859834433891064,0.5945434570678441,-1.772345900539616
1684006914868595900,4.721996337890625,0.8934062720520598,0.7554283142887327,-1.5923408270091626
1684006914878637200,4.73203759765625,1.0224627256181107,0.7894935607988245,-1.2503582239403572
1684006914888678300,4.74207861328125,1.1396210195014762,0.8260478972746651,-0.874172925864198
1684006914898719600,4.7521201171875,1.338685751116716,1.2134180067620635,-0.3294172285629367
1684006914908760800,4.7621611328125,1.3882366419180656,0.3551034925945539,0.7000110150216198
1684006914918802100,4.772202392578125,1.4268549680240858,0.3225488663256096,1.0832211972473589
1684006914928843200,4.78224365234375,1.447235345736053,0.4782295226950285,1.0629596711590128
1684006914938884600,4.792284912109375,1.3774796723723033,0.5956878662045366,0.7543857097735531
1684006914948925600,4.802325927734375,1.324274301569501,0.5565834045768113,0.39664101597185436
1684006914958967000,4.812367431640625,1.3657442330238487,0.42419528953457686,0.07377314568582644
1684006914969008000,4.822408447265625,1.5029947758151179,0.3563070296654947,-0.16976523402146437
1684006914979049400,4.83244970703125,1.709865093215325,0.4516315460546078,-0.14410352708793178
1684006914989090600,4.842490966796875,1.8418211937159628,0.1648645400632308,-0.3239754437527949
1684006914999131800,4.8525322265625,2.0176703929055986,-0.0027904511258697614,-0.6569451094620642
1684006915009172900,4.8625732421875,2.222437620171639,0.2056255340547748,-0.7929315567353817
1684006915019214300,4.87261474609375,2.2954988479533567,0.2568283081018258,-0.7508010865059209
1684006915029255300,4.88265576171875,2.3347096442622,0.19124031049507098,-0.680421352476343
1684006915039296400,4.89269677734375,2.3603072166177173,0.14665698999010227,-0.6348475218249517
1684006915049337800,4.90273828125,2.3102190495925443,0.211436271727165,-0.6390085220497734
1684006915059378900,4.912779296875,2.288441896331844,0.34929370867061693,-0.613758683300021
1684006915069420200,4.922820556640625,2.325779437954714,0.14573669427806593,-0.6936607361823025
1684006915079461600,4.932862060546875,2.44961166381624,-0.37252521526649757,-0.6616854667574615
1684006915089502600,4.942903076171875,2.603486537924671,-0.9695892334617972,-0.5525295733510357
1684006915099543700,4.952944091796875,2.7539007665220074,-0.9400644303293906,-0.49060535439139447
1684006915109585100,4.9629853515625,2.6950972080079025,-0.6911029815867188,-0.43869864927502217
1684006915119626200,4.973026611328125,2.6202828885805367,-0.6485757828283111,-0.5273945332369526
1684006915129667600,4.98306787109375,2.5185348987787415,-0.4598979950696643,-0.34771418561203105
1684006915139708600,4.99310888671875,2.3070390224301422,-0.3414926528354737,-0.3221080301657573
1684006915149749900,5.003150390625,1.8423862457097275,-0.31242656715594697,-0.5059752463551339
1684006915159791000,5.01319140625,1.1761159896713311,-0.2861232757051436,-0.6690152885141725
1684006915169832400,5.023232666015625,0.7945969105014627,-0.2694969177256991,-0.8009002209447985
1684006915179873500,5.03327392578125,0.7755048274839362,-0.2097358704391839,-0.8379217386943262
1684006915189914800,5.043315185546875,0.9341411590883879,-0.1145725251472102,-0.7626634836528056
1684006915199955900,5.053356201171875,1.0544438362164381,-0.11879444119420227,-0.6295831202832165
1684006915209997200,5.063397705078125,1.0631780625867866,-0.42948150626631176,-1.01048505303758
1684006915220038300,5.073438720703125,1.008364558293425,-0.30750846864583553,-1.2601457835112044
1684006915230079600,5.08347998046875,0.9483647347048209,-0.4627790450668176,-1.4199818373096107
1684006915240120800,5.093521240234375,0.9355840682998321,-0.4975128172939432,-1.5637294054127406
1684006915250162100,5.1035625,0.8799322844224698,-0.5574283599594746,-1.6564985513961286
1684006915260203200,5.113603515625,0.6273671388250188,-0.36123180389708853,-1.5880427361411538
1684006915270244600,5.12364501953125,0.2344497739271038,-0.25880813599213737,-1.4563446043504016
1684006915280285600,5.13368603515625,-0.0265982261414157,-0.23312282570348494,-1.490341544138328
1684006915290327000,5.143727294921875,-0.12701803455460553,-0.16854476932987436,-1.5906047821529394
1684006915300368000,5.1537685546875,-0.17564673736486253,0.21816635139604273,-1.3033638000228331
1684006915310409400,5.163809814453125,-0.2814830243885825,-0.01621818540868105,-0.7302490472685452
1684006915320450600,5.173850830078125,-0.263234823829005,-0.15760803218023195,-0.47475981706813736
1684006915330491800,5.183892333984375,-0.060532227130226254,0.029672622773653377,-0.2933127879670304
1684006915340532900,5.193933349609375,0.1872492433372839,0.3040103913562144,-0.21935832489891172
1684006915350574300,5.203974609375,0.42492032046641215,0.42447757732827207,-0.09159064285091555
1684006915360615300,5.214015625,0.5303821563763014,0.39885234835185174,0.13018262386492016
1684006915370656600,5.22405712890625,0.4938974975395923,0.25119400017350635,0.29233896725572917
1684006915380697800,5.23409814453125,0.4161769151744889,0.21052742006948358,0.48516535764786073
1684006915390738900,5.24413916015625,0.3967039882358129,0.22595787056597225,0.5834453104096213
1684006915400780200,5.2541806640625,0.4240433574516813,0.29993820186486275,0.48020577428105404
1684006915410821600,5.264221923828125,0.4768359064721639,0.2940769195297954,0.5274971724867904
1684006915420862600,5.274262939453125,0.4970881938565612,0.06769752511675926,0.5610924958930366
1684006915430903600,5.28430419921875,0.5306643248792068,-0.0631170273967414,0.49781847007098196
1684006915440945100,5.294345458984375,0.6847028732176514,-0.11027431490889772,0.4300202131193855
1684006915450986200,5.304386474609375,0.8878440857404102,-0.014472007709024563,0.42958259575642005
1684006915461027600,5.314427978515625,1.0913672447065417,0.11591529846576755,0.34480130669866793
1684006915471068800,5.32446923828125,1.1712458134158406,0.0800352095517045,0.22436976450232254
1684006915481109900,5.33451025390625,1.253279686077501,0.1391038894569773,0.029281020199794033
1684006915491151000,5.344551513671875,1.3468708990812714,0.2383298874503951,-0.020065069180374796
1684006915501192400,5.3545927734375,1.3572204112336081,0.21511554720759726,-0.0010039806147246115
1684006915511233500,5.3646337890625,1.3774124384520199,0.19604682921466468,0.06296205522874919
1684006915521274800,5.37467529296875,1.4221298695691535,0.24765491492325242,0.15994846831575582
1684006915531315900,5.38471630859375,1.4990539551763438,0.17847919461795764,0.30228340614192184
1684006915541357200,5.394757568359375,1.5187571048750554,0.07267570495904525,0.35144531717736677
1684006915551398300,5.404798828125,1.4957344532809782,-0.030390739565520613,0.2988898752923548
1684006915561439600,5.414840087890625,1.4287438392886287,-0.21008396142228314,0.1746351717555279
1684006915571480800,5.424881103515625,1.4460093974313937,-0.37389659888697896,-0.00318813323265844
1684006915581522100,5.434922607421875,1.6106138227452271,-0.39806747443340446,-0.009728908377641506
1684006915591563200,5.444963623046875,1.6858274937979167,-0.23068237297798763,0.1174330710831314
1684006915601604600,5.4550048828125,1.517739891960569,-0.09370613097721082,-0.060001134741408654
1684006915611645600,5.4650458984375,1.2899177075258903,0.002944946396648002,-0.3436610697411033
1684006915621687000,5.47508740234375,1.0502427816695972,0.15026760097214611,-0.5580184459728073
1684006915631728000,5.48512841796875,0.7569043039831952,0.18424034123209843,-0.6502975225501116
1684006915641769400,5.495169677734375,0.466232538211464,0.153890609775556,-0.6140455007656029
1684006915651810600,5.5052109375,0.3099674583229693,0.05053615576395796,-0.5036879778695056
1684006915661851800,5.515252197265625,-0.002186655973885983,-0.19889068592205184,-0.5829710961343356
1684006915671892900,5.525293212890625,-0.31438905008685886,-0.2613553999241063,-0.6275268792258528
1684006915681934300,5.535334716796875,-0.43411272760150277,-0.0905618667837605,-0.42756962763212963
1684006915691975300,5.545375732421875,-0.6016169787210658,-0.3232288361149865,-0.23059070115231028
1684006915702016600,5.5554169921875,-0.7117755413062532,-0.46879863743367484,-0.30034112938680024
1684006915712057800,5.565458251953125,-0.7634776832312112,-0.3186979295381387,-0.4866137503527973
1684006915722098900,5.575499267578125,-0.6692844629254949,-0.4162616728450789,-0.04947113984053446
1684006915732140200,5.58554052734375,-0.22370982161925684,0.39437580102351777,0.500616312033551
1684006915742181600,5.59558203125,0.3590524792703424,2.984829902619574,1.2205758095836483
1684006915752222600,5.605623046875,1.1236394643472498,3.884821891707887,1.8484139443821344
1684006915762264000,5.615664306640625,1.8480565548195922,1.051064491145029,2.889954090173364
1684006915772305100,5.62570556640625,2.0951364038975164,-2.0700578689878717,3.23341298103914
1684006915782346200,5.63574658203125,1.9166506528912408,-2.5629243851018195,2.1917650701435196
1684006915792387600,5.645787841796875,1.289257288007899,-1.3008432389126607,0.5746250153042408
1684006915802428800,5.655829345703125,0.5480211973608348,-0.20554065712396197,-0.6107211113483029
1684006915812469900,5.665870361328125,0.17281144857255254,0.2851190567544309,-1.0390869379239664
1684006915822511000,5.675911376953125,0.056112766188076556,0.2697439192800389,-0.5175791979487591
1684006915832552400,5.685952880859375,-0.1357885898621728,-0.05460929883572367,-0.09538197503015747
1684006915842593500,5.695993896484375,-0.0353216528086769,-0.2461309433443826,-0.18578195570334036
1684006915852634800,5.70603515625,0.38404089209085657,-0.23207092292479842,-0.2730543613568498
1684006915862675900,5.716076171875,0.8363415001282177,-0.17847156524659535,-0.36410427090524555
1684006915872717200,5.72611767578125,1.121609568619256,0.06451892858135351,-0.3182466030863754
1684006915882758300,5.73615869140625,1.1710171700117566,-0.005899429252457205,-0.3932616709599134
1684006915892799600,5.746199951171875,0.9316147566544466,-0.023965835492221036,-0.5783088207107288
1684006915902840800,5.7562412109375,0.6024506090604849,-0.17923164368114966,-0.877949714717954
1684006915912882100,5.766282470703125,0.5078542827859063,-0.1552648544750006,-0.7639868258902255
1684006915922923200,5.776323486328125,0.6761673093711943,0.044186592137069026,-0.38792228694873226
1684006915932964600,5.786364990234375,0.828691899723848,0.1950750350604394,0.05963182445265765
1684006915943005600,5.796406005859375,0.8984921574733268,0.4063634874308164,0.5501101018101455
1684006915953047000,5.806447265625,0.9283376930922996,0.29357147218699997,0.8455152511751857
1684006915963088000,5.816488525390625,0.9436545967971789,0.11690044409285866,0.9767992496994536
1684006915973129400,5.82652978515625,1.0970008374237155,0.06813430781553087,1.0857005118264833
1684006915983170600,5.83657080078125,1.2568206787363978,0.23615360261890805,1.1132516860728747
1684006915993211800,5.8466123046875,1.1796157358186117,0.22059726700521567,0.6313314438772266
1684006916003252900,5.8566533203125,1.0756210089301943,0.011041641091474985,0.14706873880712829
1684006916013294300,5.866694580078125,0.9642862082403257,-0.4573736191936407,-0.3363234996791464
1684006916023335300,5.87673583984375,0.8042852877864453,-1.0521402359033403,-0.7880473137469631
1684006916033376600,5.886777099609375,0.6646834612364461,-0.9856643677436024,-0.8997483252106812
1684006916043417800,5.896818115234375,0.4311264157522811,-1.1233119964870724,-1.497798085231563
1684006916053459100,5.906859619140625,0.41190725566787323,-1.155953407237148,-1.6239416598509646
1684006916063500200,5.916900634765625,0.3704327942179179,-1.220256805482028,-1.6004418133283451
1684006916073541600,5.92694189453125,0.41263753178155427,-1.318587303186138,-1.6166299580256827
1684006916083582600,5.936983154296875,0.590939164336334,-1.343146324200972,-1.426022648751041
1684006916093624000,5.9470244140625,0.8368630410074637,-1.313036918727598,-1.175351023689532
1684006916103665100,5.9570654296875,1.0693879127447912,-1.2019062043280273,-0.8849203585982309
1684006916113706200,5.9671064453125,1.2392368316666622,-0.909140586948644,-0.6646878719118241
1684006916123747600,5.97714794921875,1.3907072544079426,0.16372680655430463,-0.5517160893493582
1684006916133788800,5.987189208984375,1.2410191296040032,1.7542910575532586,0.2242536544803719
1684006916143829900,5.997230224609375,1.1815773248385872,2.0340147017658947,0.8779160977702045
1684006916153871000,6.007271484375,0.9725636244124565,2.1156320572777862,1.5803835393142633
1684006916163912400,6.017312744140625,0.4477663636176991,2.1383781433377074,2.1742832661148745
1684006916173953500,6.027353759765625,-0.03923451901342077,1.990077972352569,2.3634772300586673
1684006916183994800,6.037395263671875,-0.18444997070026722,1.581675529441711,1.9127910136619386
1684006916194036100,6.0474365234375,-0.1203016639434707,1.1723613739268695,1.2980170249478573
1684006916204077200,6.0574775390625,-0.019397795155467034,0.7089061735270115,0.9318163394947687
1684006916214118300,6.067518798828125,0.08836346868788271,0.1626110077398971,0.9546344281634599
1684006916224159600,6.07756005859375,0.12096172582556577,-0.1763563155096379,1.0927753447430162
1684006916234200800,6.08760107421875,0.0041508674844702356,-0.29733467095830524,1.2049283982365095
1684006916244242100,6.097642578125,-0.6864004134140239,-0.4898843765522378,1.2973234652093752
1684006916254283200,6.10768359375,-2.0900096891784834,-1.1031875609265953,0.9738121033518974
1684006916264324600,6.117724853515625,-3.322031974852774,-1.5612850188078295,0.649198055265692
1684006916274365600,6.12776611328125,-3.7728385924426946,-1.8473634719382406,0.501843691036246
1684006916284407000,6.137807373046875,-3.340640783270667,-1.8440866470682467,0.6461155413084034
1684006916294448000,6.147848388671875,-2.3243379591879165,-1.613965988098597,0.8756775855225618
1684006916304489400,6.157889892578125,-1.0864934922192293,-1.0769042967425388,1.0457160472346336
1684006916314530600,6.167930908203125,-0.06963682163019409,-0.39931297305491814,1.032883167198031
1684006916324571800,6.17797216796875,0.6103165150688252,0.09630966192866343,1.0844187736665234
1684006916334612900,6.188013427734375,0.9896353483012595,0.2851400374467796,1.1351494790056147
1684006916344654300,6.1980546875,1.0637582540640924,0.2873954773659755,1.027330398490967
1684006916354695300,6.208095703125,1.114258527715486,0.15297222142566264,0.8483321667417372
1684006916364736600,6.21813720703125,1.2854584454472249,-0.05791187275804716,0.7170815467488922
1684006916374777800,6.22817822265625,1.3256591558207265,-0.1632194519073425,0.6653852463573904
1684006916384819100,6.238219482421875,1.2202805280252198,-0.1407823562586338,0.5095129012441919
1684006916394860200,6.248260498046875,1.1161462068363421,-0.04263687131384198,0.4919645786304527
1684006916404901600,6.258302001953125,1.1203817129639517,0.10755729680103403,0.5726554395025885
1684006916414942600,6.268343017578125,1.271115660770569,0.33623600006274973,0.5804154872995503
1684006916424984000,6.27838427734375,1.4973037244373817,0.5480241774761576,0.5626428126361694
1684006916435025100,6.288425537109375,1.7709777355152676,0.6354761122500534,0.5487644673552707
1684006916445066200,6.298466552734375,2.1087799072335107,0.6445636748683968,0.451417446197164
1684006916455107600,6.3085078125,2.390686035206992,0.6930103302036721,0.26259493829274266
1684006916465148800,6.31854931640625,2.4432711601667867,0.8188199996363714,0.15498733532066494
1684006916475189900,6.32859033203125,2.2478535174563454,0.9015150069549637,0.1254105567855398
1684006916485231300,6.338631591796875,1.8298271894580307,0.9972982406286628,0.09628963474938997
1684006916495272400,6.3486728515625,1.265339374517986,1.0379610062456115,0.10483145705150426
1684006916505313500,6.3587138671875,0.8799178601121378,0.9082126618005675,0.05720448495867538
1684006916515354800,6.368755126953125,0.6715302467089898,0.7323846818585952,0.05097150798074148
1684006916525396100,6.378796630859375,0.6606465578200268,0.5800914763695476,-0.045205593195824935
1684006916535437200,6.388837646484375,0.7666692733901103,0.30123329155425377,-0.10429835325825453
1684006916545478300,6.398878662109375,0.8910381198581862,0.03694057468053844,-0.23918509474505922
1684006916555519600,6.408920166015625,1.0007945299514351,-0.1820106507400778,-0.371295690394259
1684006916565560800,6.418961181640625,1.0728394984853193,-0.28680896776638304,-0.47020554528963976
1684006916575602100,6.42900244140625,1.1104520559222735,-0.31155300136465974,-0.5653774736464184
1684006916585643200,6.439043701171875,1.0017521382129058,-0.24716663350100798,-0.5476875305688625
1684006916595684600,6.4490849609375,0.9019309877994973,-0.23002433769588282,-0.48226046560084546
1684006916605725600,6.4591259765625,0.7932805417936268,-0.17620086672030452,-0.3691325186774096
1684006916615767000,6.46916748046875,0.6956633926929852,-0.18349456787111343,-0.23015236862378802
1684006916625808000,6.47920849609375,0.5933666824661397,-0.18011760708295568,-0.07554054266971519
1684006916635849400,6.489249755859375,0.49755835530124454,-0.18519592281130154,-0.05364966392965891
1684006916645890600,6.499290771484375,0.38943970203924994,-0.2064018247834381,0.009079456316624917
1684006916655931800,6.509332275390625,0.17922449109933902,-0.28744983675617036,-0.18158316606918942
1684006916665972900,6.519373291015625,0.03959763050975368,-0.3396434784839528,-0.5850245953984592
1684006916676014300,6.52941455078125,0.11454963677897524,-0.6463966369426747,-0.959401130717413
1684006916686055300,6.539455810546875,0.304385662010385,-0.8452901840335909,-1.2331833839173458
1684006916696096600,6.5494970703125,0.5356017351509565,-0.9113397597374482,-1.33330559725887
1684006916706137800,6.5595380859375,0.6839556693089716,-0.9156646727874812,-1.2816116809108582
1684006916716179100,6.56957958984375,0.6873313785011087,-0.784347534234311,-1.1606800555296637
1684006916726220200,6.57962060546875,0.5928897857332166,-0.5494251250194497,-0.9096050261305717
1684006916736261600,6.589661865234375,0.47125488514184455,-0.34805297852100153,-0.6844229699024298
1684006916746302600,6.599703125,0.41679322710809613,-0.2450466157092943,-0.506252765705579
1684006916756344000,6.609744384765625,0.3762663602287657,-0.10668849946157875,-0.36781549447251904
1684006916766385100,6.619785400390625,0.3374378680588574,0.08611202227493489,-0.3167548178070581
1684006916776426200,6.62982666015625,0.2572427988188806,0.11547470088888385,-0.14134597762446688
1684006916786467600,6.639867919921875,0.10412752643055082,0.19128799449094638,-0.1031005382978005
1684006916796508800,6.6499091796875,0.1221882104489501,0.3184547423200332,-0.1365146635631256
1684006916806549900,6.659950439453125,0.2111753225438794,0.306186675870077,-0.20056915283653945
1684006916816591000,6.669991455078125,0.34369719023598316,0.362822532751031,-0.2671608923601458
1684006916826632400,6.68003271484375,0.4818559289570761,0.35470104221706816,-0.4056775568451718
1684006916836673500,6.690073974609375,0.5482964516737621,0.24158668520480783,-0.46693730354635865
1684006916846714800,6.700115234375,0.6126231550185196,0.149784088136297,-0.4689314365697749
1684006916856755900,6.71015625,0.7102472184785291,0.05549049368906385,-0.5653257369894076
1684006916866797200,6.72019775390625,0.8600279091560846,0.0050611495253258705,-0.6830821038055166
1684006916876838300,6.73023876953125,0.9465323685764321,-0.015739440954304594,-0.743167638842533
1684006916886879600,6.740280029296875,0.8689009545672989,-0.12406349177220884,-0.7675995826736695
1684006916896920800,6.750321044921875,0.7158770561732525,-0.2676124573532146,-0.7311162948125148
1684006916906962100,6.760362548828125,0.5062668322241536,-0.32937145228086956,-0.8100636005172273
1684006916917003200,6.770403564453125,0.4027640819398933,-0.34510135656829577,-0.9167683124671896
1684006916927044600,6.78044482421875,0.43012720364524654,-0.2999000550434955,-1.0852341651001876
1684006916937085600,6.790486083984375,0.5563745497950273,-0.2506065368408905,-1.1948823929483008
1684006916947127000,6.80052734375,0.6742303966828499,-0.15842914580173104,-1.314577102697826
1684006916957168000,6.810568359375,0.7595527171704692,-0.015756607047396055,-1.3604044915165965
1684006916967209400,6.82060986328125,0.708230495307413,0.19866943363864437,-1.2636375427554152
1684006916977250600,6.83065087890625,0.3940040468757136,0.005854606690585121,-1.1434502601570358
1684006916987291800,6.840692138671875,0.14583384987789716,0.000495910582507489,-1.007871866254509
1684006916997332900,6.8507333984375,0.08989083764897955,-0.07244968417356465,-0.8894085884527219
1684006917007374300,6.860774658203125,0.016511440279124157,0.09644412993203966,-0.8018288611346284
1684006917017415300,6.870815673828125,-0.06947386260654176,0.10459327694954218,-0.6706542968995013
1684006917027456600,6.880857177734375,-0.1512703299968224,0.10004806513438123,-0.4906454086974366
1684006917037497800,6.890898193359375,-0.06113785503186809,0.2559471130638299,-0.25331616399918994
1684006917047538900,6.900939208984375,0.03342342371290104,0.46046829224642777,0.015065193156521467
1684006917057580200,6.910980712890625,0.02408647538196299,0.5129480363539772,0.18026256565807225
1684006917067621600,6.92102197265625,0.11547833691100359,0.4917621611778868,0.3651628493818871
1684006917077662600,6.93106298828125,0.39447703959117036,0.4374361038465718,0.70934295641811
1684006917087704000,6.9411044921875,0.8533436060585115,0.6611242295558822,0.8738260269820277
1684006917097745100,6.9511455078125,1.2789225579343384,0.9406423568803529,0.9817733764968543
1684006917107786200,6.9611865234375,1.4482855796993248,1.273693084717645,1.105066776347219
1684006917117827600,6.971227783203125,1.251407384932921,1.5951147078226042,1.1825194360296818
1684006917127868800,6.981269287109375,0.853773951642152,1.4738402366671084,1.3434679508945666
1684006917137909900,6.991310302734375,0.5357902644510665,1.3318963050960122,1.4314031602280515
1684006917147951000,7.001351318359375,0.38120883707109926,0.8974256514448319,1.3708872795002756
1684006917157992400,7.011392822265625,0.14059707539634794,0.672470092779981,1.179498434056491
1684006917168033500,7.021433837890625,-0.010566979659379005,0.30160236349868613,1.2804224491085816
1684006917178074800,7.03147509765625,-0.17178633809700497,-0.3681554794772433,1.3854553699156529
1684006917188115900,7.041516357421875,-0.1501396298734712,-0.8928499222316773,1.3895695208117795
1684006917198157200,7.0515576171875,0.04172095646141064,-1.1251058579597324,1.2944140434789684
1684006917208198300,7.0615986328125,0.5284646749767421,-1.1442241668402455,1.102864026993799
1684006917218239600,7.07164013671875,0.9868744612665888,-1.280509948627724,0.9982905388004475
1684006917228280800,7.08168115234375,1.0455585718543037,-1.7761297225555008,1.2017455100855639
1684006917238322100,7.091722412109375,0.21333982048238564,-2.5523328781209846,1.5594413279782884
1684006917248363200,7.101763671875,-1.863636136229413,-3.531833648735352,2.092735290573678
1684006917258404600,7.111804931640625,-4.981560230278446,-4.290822029028436,2.3847112655918346
1684006917268445600,7.121845947265625,-6.460844516819645,-4.9574060440426235,2.9400353431132698
1684006917278487000,7.131887451171875,-4.010755539026058,-3.754705429110649,2.6122870446159108
1684006917288528000,7.141928466796875,-0.42853173614058,-1.9608535767570812,1.5749130248475067
1684006917298569400,7.1519697265625,1.7067490816588193,-0.8998289107968027,0.6400985717457666
1684006917308610600,7.162010986328125,1.5617648363255283,-0.3694744110723438,0.08660888668363292
1684006917318651800,7.17205224609375,1.3022071124012566,0.23235034944867622,-0.3920960427053796
1684006917328692900,7.18209326171875,1.4013595580968434,0.928745269793242,-0.9886829852987138
1684006917338734300,7.192134765625,1.3779592515077697,1.4776010514778595,-1.5519855022670128
1684006917348775300,7.20217578125,1.256538152714049,1.8261938093605445,-1.955097317758488
1684006917358816400,7.212216796875,1.183995485371595,1.9415140152599264,-2.161053180660665
1684006917368857800,7.222258056640625,1.166910886817501,1.829224109692391,-2.225085735364078
1684006917378898900,7.23229931640625,1.1634023189395817,1.545138359008737,-2.042021036136299
1684006917388940200,7.242340576171875,1.2476837634625224,1.2239284514707651,-1.8786396980837903
1684006917398981300,7.252381591796875,1.3707135914564224,0.9165096282421816,-1.6993368863885805
1684006917409022600,7.262423095703125,1.42496132839964,0.5129985807826722,-1.5180399418115123
1684006917419063600,7.272464111328125,1.5471997259814847,-0.008370399483898719,-1.2330842017330454
1684006917429105100,7.28250537109375,1.5987999439370038,-0.42083644875479503,-0.9482457638401198
1684006917439146200,7.292546630859375,1.6098833085789717,-0.6508264541117257,-0.7570035457704034
1684006917449187600,7.302587890625,1.606437921617692,-0.7298440933865605,-0.7116324901924768
1684006917459228600,7.31262890625,1.5103578566605622,-0.7203531265632601,-0.7520606518224514
1684006917469269900,7.32267041015625,1.4270465373615597,-0.6537904738693909,-0.7448191641943271
1684006917479311000,7.33271142578125,1.3545535802172475,-0.5114078520415262,-0.7860081195357014
1684006917489352400,7.342752685546875,1.2754517794503224,-0.35308265697566765,-0.8630893230145484
1684006917499393500,7.3527939453125,1.1498457192641474,-0.2649364471317039,-0.9781451225383985
1684006917509434800,7.362835205078125,0.8918108938677359,-0.22540664672115177,-1.104657173233851
1684006917519475900,7.372876220703125,0.28526371708782133,-0.20790386210192283,-1.2657406330550867
1684006917529517200,7.382917724609375,-1.0664062500259943,-0.1568155288228624,-1.5652763844075819
1684006917539558300,7.392958740234375,-2.583820342972048,-0.186381340040739,-1.8170745371815367
1684006917549599600,7.403,-2.5938482284643722,-0.28009128568950037,-1.7467594147375824
1684006917559640800,7.413041259765625,-1.3618094920871222,-0.3145952226294748,-1.3267842531809588
1684006917569682100,7.42308251953125,-0.2095922528660137,-0.2688550949274454,-0.9903309344193509
1684006917579723200,7.43312353515625,0.5222330689217757,-0.3029594422545812,-0.7053270340012581
1684006917589764600,7.4431650390625,0.9106836319120948,-0.29958152777042835,-0.5596104859810003
1684006917599805600,7.4532060546875,1.0930788516489836,-0.30649375912616406,-0.42365026480053014
1684006917609847000,7.463247314453125,1.154080629292623,-0.2401161194532867,-0.3310706614209142
1684006917619888000,7.473288330078125,1.1905009747976019,-0.15063858042572287,-0.3578078746400129
1684006917629929100,7.48332958984375,1.2151082755088263,-0.02353858949071776,-0.3045566082639303
1684006917639970600,7.493370849609375,1.2545943259021715,0.017041206421147745,-0.3143560886398795
1684006917650011800,7.503412109375,1.2869244813665164,0.007065772952167538,-0.28937458986301645
1684006917660052900,7.513453369140625,1.315748334059042,0.01106262204149843,-0.31576800334427646
1684006917670094000,7.523494384765625,1.3086231948290308,0.0386695862259892,-0.39983057978559894
1684006917680135300,7.53353564453125,1.2694822551050022,0.0780706406814916,-0.48314714423880506
1684006917690176400,7.543576904296875,1.212248802006512,0.12935924529792608,-0.545930981603647
1684006917700217800,7.5536181640625,1.1085710526478871,0.17823696143378498,-0.5879222154857385
1684006917710258900,7.5636591796875,0.9925944805903224,0.23189449320500216,-0.6258065699876552
1684006917720300200,7.57370068359375,0.8745868205397764,0.2378358840536706,-0.6641680003848551
1684006917730341300,7.58374169921875,0.7386099099739222,0.1986598966648864,-0.6549677849279395
1684006917740382600,7.593782958984375,0.6379751561617933,0.12415885924824863,-0.6265671254125821
1684006917750423700,7.60382421875,0.5585971475407313,0.01684570314880737,-0.5430319308754212
1684006917760465100,7.613865478515625,0.46709615003370203,-0.08264350887478292,-0.43328893175086675
1684006917770506200,7.623906494140625,0.37585598228175043,-0.172010421626484,-0.28101885324422615
1684006917780547600,7.633947998046875,0.2876432537315203,-0.23457717879294335,-0.1843678951941897
1684006917790588600,7.643989013671875,0.17456740129380335,-0.25600719443128384,-0.05476498601857496
1684006917800629900,7.6540302734375,0.0022107362740316663,-0.19573116296206944,0.05975723253991156
1684006917810671000,7.664071533203125,-0.22239083045706606,-0.11591053013972406,0.13260436052928726
1684006917820712400,7.67411279296875,-0.3732117415267955,-0.06196498874305303,0.22751212111432945
1684006917830753500,7.68415380859375,-0.4478510618053465,-0.022075652969439197,0.4197254179148417
1684006917840794600,7.69419482421875,-0.39527899023001756,0.008258819767918797,0.6148924828472796
1684006917850835900,7.704236328125,-0.256752848648659,0.10274505616256156,0.8220745324640243
1684006917860877200,7.714277587890625,-0.08066803212372874,0.1273050308587912,0.9580413102914708
1684006917870918300,7.724318603515625,0.06458425520200788,0.1443653106414345,1.069802403456055
1684006917880959400,7.73435986328125,0.16470646858318505,0.12527656566118975,1.166942596409352
1684006917891000800,7.744401123046875,0.1802781820746117,0.1536216734957546,1.2198371888591033
1684006917901041800,7.754442138671875,0.19636464121064398,0.2295560835924743,1.1456907987069156
1684006917911083200,7.764483642578125,0.2021312713069997,0.2647838592710586,1.1362010239761215
1684006917921124300,7.774524658203125,0.2247267961174791,0.27374362953605674,1.1286214589838892
1684006917931165600,7.78456591796875,0.21680831912691034,0.29231166840132633,1.1393252610585236
1684006917941206600,7.794607177734375,0.23562979700449224,0.2608375549190145,1.1304736137532598
1684006917951248000,7.8046484375,0.2520405054421944,0.27261829369665924,1.138390064203818
1684006917961289100,7.814689453125,0.3083328009302037,0.28456783296717725,1.1826096774030592
1684006917971330600,7.82473095703125,0.33923125265074827,0.3037633894944389,1.222403764773501
1684006917981371600,7.83477197265625,0.4137145281691108,0.38273239131323183,1.238962054217994
1684006917991412900,7.844813232421875,0.49814510346132324,0.4639711380634575,1.2966953515914321
1684006918001454000,7.8548544921875,0.6112672090781777,0.461326599012905,1.3851203919048503
1684006918011495300,7.864895751953125,0.7240429522137061,0.4919710159510302,1.4681979417893245
1684006918021536400,7.874936767578125,0.8088621497421562,0.5130567550275513,1.5322930813641988
1684006918031577800,7.884978271484375,0.8732174038452075,0.5076694489520769,1.688162922839048
1684006918041618900,7.895019287109375,0.9857643843089239,0.5472145080125624,1.8360444307217012
1684006918051660200,7.905060546875,1.0272618531788946,0.5741510391135899,1.9701551200093834
1684006918061701300,7.915101806640625,1.0591030120518834,0.5455760955491662,2.0650212764979448
1684006918071742600,7.92514306640625,0.9958457350690619,0.5238580704337763,2.1785364149963278
1684006918081783600,7.93518408203125,0.8996233939173574,0.4656505583965043,2.284558772880489
1684006918091824800,7.94522509765625,0.7654399871788529,0.4352474213842567,2.159294843728158
1684006918101866200,7.9552666015625,0.5864172578197023,0.43986606588987753,1.9186439513475353
1684006918111907200,7.9653076171875,0.4254933595926127,0.45344066633173863,1.6718544959982846
1684006918121948600,7.975348876953125,0.28818160294531636,0.45933818808998994,1.4908983707690753
1684006918131989600,7.98539013671875,0.21330213545594884,0.4145612716515519,1.3703961373143034
1684006918142031000,7.995431396484375,0.19392132764863992,0.3382663727139333,1.3097332715430159
1684006918152072100,8.005472412109375,0.23740911491577107,0.20172405246276162,1.2219660283256788
1684006918162113500,8.015513916015625,0.329682707767921,-0.011833190920514101,1.1658428905607099
1684006918172154600,8.025554931640626,0.480853498116653,-0.3214197158199312,1.2054307462031941
1684006918182195900,8.03559619140625,0.645779013752789,-0.8224172592694724,1.3190095425399107
1684006918192237000,8.045637451171874,0.7978079318330351,-1.5191192628474013,1.46204531201827
1684006918202278300,8.0556787109375,1.0164813994565167,-2.1770772934835367,1.6546372173497237
1684006918212319400,8.0657197265625,1.167058706265309,-2.4526853560227586,1.6920720338950805
1684006918222360800,8.07576123046875,1.1813461779964696,-3.0826492309530376,1.765595913050272
1684006918232401800,8.08580224609375,1.027459144580379,-3.155316352871285,1.3946285246150683
1684006918242443200,8.095843505859374,0.766236961011401,-2.763671874934719,0.754386901911571
1684006918252484300,8.105884765625,0.5890437960997978,-2.1806030273457235,0.2771120072024153
1684006918262525600,8.115926025390625,0.3693938851980889,-1.3953390122489147,-0.103474855232811
1684006918272566600,8.125967041015626,0.0701068937266678,-0.45686626449186857,-0.5631613730721344
1684006918282608000,8.136008544921875,-0.32880491000090545,0.3782615662057263,-0.84204328057562
1684006918292649100,8.146049560546874,-1.9417524336602026,1.040115356495939,-1.1841496229174515
1684006918302690200,8.156090576171875,-5.8133273125873,1.6259751320374551,-1.62161529060536
1684006918312731600,8.166132080078125,-4.989206790875663,1.6039094925943858,-1.2175068855676476
1684006918322772900,8.17617333984375,-3.3104445934885325,1.531394958516505,-1.0535844563371062
1684006918332814000,8.18621435546875,-1.8731396198921684,1.3243541717282845,-0.6573153733940069
1684006918342855100,8.19625537109375,-0.7919282912913551,1.0837125777000305,-0.32948422435693575
1684006918352896400,8.206296875,-0.05743306862060206,0.946887969960638,-0.23873329162248702
1684006918362937600,8.216337890625,0.44489100587035213,0.8301219939201389,-0.3165304660301399
1684006918372978900,8.226379150390626,0.7578279971280764,0.6146507264289056,-0.3566684723124426
1684006918383020000,8.23642041015625,0.8441503047951218,0.2230615614897823,-0.37950611123318184
1684006918393061300,8.246461669921874,0.5751462578560125,-0.3144502638445815,-0.2845809458823352
1684006918403102400,8.256502685546875,0.17242795214090256,-0.9132871626368189,-0.19058966642359193
1684006918413143700,8.266544189453125,0.07253080609473822,-1.3936128617777521,-0.37792205819038993
1684006918423184800,8.276585205078124,0.3835446835099391,-1.6660814286316812,-0.8664567470554176
1684006918433226200,8.28662646484375,0.7697884440445797,-1.8469295502875938,-1.2444524764946154
1684006918443267200,8.296667724609375,1.0079840420534543,-2.012117385890566,-1.4542856216122608
1684006918453308600,8.306708984375,1.0980088710198255,-2.0563373566777305,-1.5571906568042926
1684006918463349600,8.31675,1.0660673379018673,-1.8031930924317152,-1.5440895556120278
1684006918473391000,8.32679150390625,0.8789207936549266,-1.3708639144271888,-1.3661155700322796
1684006918483432100,8.33683251953125,0.5846162438059727,-0.9418411253092472,-1.2117187976094261
1684006918493473500,8.346873779296875,0.31971490380693773,-0.5309543608314727,-1.0661997793722162
1684006918503514600,8.3569150390625,0.23989987371456176,-0.17661571512733543,-1.0494139194326104
1684006918513555900,8.366956298828125,0.3226012587248083,0.0977649689151798,-1.1248145102044567
1684006918523597000,8.376997314453124,0.4418434500291103,0.3309822082781599,-1.230700492878631
1684006918533638300,8.387038818359375,0.4870210289219539,0.4108448029289064,-1.2498290537477041
1684006918543679400,8.397079833984375,0.39288336038360616,0.4372406004252419,-1.153074264554566
1684006918553720800,8.40712109375,0.17180502411006032,0.4717082977449527,-1.0284287929952611
1684006918563761800,8.417162353515625,-0.060734152774877946,0.6452512740512476,-0.8773100376047277
1684006918573802900,8.427203369140624,-0.14870309816466382,0.7851676941170866,-0.7489898206706792
1684006918583844300,8.43724462890625,-0.09402835361364906,0.857590675338005,-0.5901703834039038
1684006918593885400,8.44728564453125,-0.016876935983182493,0.85987758644268,-0.5429534912035644
1684006918603926600,8.4573271484375,0.028311371750127625,0.7468795775889442,-0.5446753501097044
1684006918613967800,8.4673681640625,0.0464290380367285,0.5956468581375035,-0.5418338775017693
1684006918624009100,8.477409423828124,0.09483444679438674,0.4732866287154406,-0.5460155011132128
1684006918634050200,8.48745068359375,0.016440272448168813,0.3770561217857284,-0.476490020657896
1684006918644091600,8.497491943359375,-0.10649752613344707,0.32342052466667937,-0.30974841115534546
1684006918654132600,8.507532958984376,-0.18784117698743935,0.2646646499192577,-0.23903870577083774
1684006918664174000,8.517574462890625,-0.21900367748429603,0.16022109982423693,-0.04697680462332724
1684006918674215100,8.527615478515624,-0.23051452631304156,0.09838962560477116,0.11953878413624293
1684006918684256400,8.53765673828125,-0.23125517362766113,0.09104156494127252,0.22670006754076338
1684006918694297600,8.547697998046875,-0.17011499405115116,0.018893241852933475,0.3058462143325291
1684006918704338900,8.5577392578125,-0.038144707698706426,-0.007715225147741929,0.30987334243875614
1684006918714380000,8.5677802734375,0.0912830829561248,-0.034047126730155086,0.22540903092027445
1684006918724421300,8.57782177734375,0.1194765568952315,-0.08868026746607965,0.1321794987547017
1684006918734462400,8.58786279296875,0.16632485406047484,-0.06382942197063521,-0.062286853833944375
1684006918744503600,8.597904052734375,0.19029831897746824,-0.07639789590808242,-0.28091573697922834
1684006918754544800,8.6079453125,0.16305840019743412,-0.07597541800955535,-0.46670413028188884
1684006918764585900,8.617986328125,0.1855406761685231,-0.004726409839117417,-0.7266118528176427
1684006918774627200,8.628027587890625,0.17808186999522627,0.10698127753731529,-0.9847333432861667
1684006918784668600,8.638069091796876,0.12250041955253115,0.14469718931318187,-1.108777999929364
1684006918794709600,8.648110107421875,0.08981180194837791,0.2970314027258631,-1.0011103152343124
1684006918804750800,8.658151123046874,0.022597074434701877,0.40316295616708336,-0.8489494323269097
1684006918814792100,8.668192626953125,-0.03535580628716263,0.5105686188275266,-0.6713485716696883
1684006918824833200,8.678233642578125,-0.058204889400797384,0.6189479827465642,-0.5161190032748562
1684006918834874600,8.68827490234375,-0.014909267380379303,0.7019395829702212,-0.3570544719805922
1684006918844915600,8.69831591796875,0.014305233918813493,0.7548303603304894,-0.2566070556685675
1684006918854957000,8.708357421875,-0.013385057359859372,0.808599471897599,-0.11296272284116476
1684006918864998100,8.7183984375,-0.11018061655122138,0.8890857697727117,0.16496705999647623
1684006918875039400,8.728439697265625,-0.2685563563880762,0.9380073546276246,0.571505308069181
1684006918885080600,8.73848095703125,-0.5074306726251115,0.8183736799658489,0.996484756416952
1684006918895121800,8.748522216796875,-0.758424520384218,0.5561218261866832,1.3890440462871128
1684006918905162900,8.758563232421874,-0.8750255107774604,0.18906784067151547,1.8256566524507363
1684006918915204300,8.768604736328125,-0.7776119707710522,-0.01794147498793263,2.0935637951745187
1684006918925245400,8.778645751953125,-0.4916061163152738,0.016138076888544458,2.021496772844269
1684006918935286600,8.78868701171875,-0.1587114332983095,0.24120712278052786,1.767797231731512
1684006918945327800,8.798728271484375,0.22532188882824528,0.46183776854819897,1.471789359937558
1684006918955369100,8.80876953125,0.6619216204487832,0.677000999286713,1.085646629355628
1684006918965410200,8.818810546875,1.0303320883663727,0.9214019774686795,0.7484049797062506
1684006918975451300,8.828851806640625,1.0343778134574786,0.9326448441204047,0.5826065538822462
1684006918985492600,8.83889306640625,0.6316562295470993,0.7181968690118741,0.529789447922706
1684006918995534000,8.848934326171875,-0.04166412345619201,0.4934701920143094,0.5009138584125112
1684006919005575100,8.8589755859375,-0.6409932374510654,0.41671180716744577,0.5064103603587746
1684006919015616200,8.8690166015625,-0.9053323269396395,0.4936971665084863,0.492126941825022
1684006919025657600,8.879057861328125,-1.0670208931957688,0.3978528977902489,0.5883839130095244
1684006919035698600,8.88909912109375,-1.3480007648078476,0.2868261338046077,0.777458429317927
1684006919045740000,8.899140380859375,-1.422808170449307,0.21232318876004527,0.870522260647577
1684006919055781000,8.909181396484374,-1.2483322620679513,0.037071227945230704,0.9900629518962004
1684006919065822400,8.919222900390626,-1.0767951012883263,-0.21793460847326593,1.0621490479581475
1684006919075863600,8.929263916015625,-0.9299378990068817,-0.54550170890554,1.0356254578174429
1684006919085904800,8.93930517578125,-0.9684806466121817,-0.9094448090986642,1.0041983126760923
1684006919095945900,8.94934619140625,-1.3703168629566598,-1.3529472349911045,0.9129583835874563
1684006919105987200,8.9593876953125,-2.18919324876935,-2.05145263661796,1.029982090001265
1684006919116028300,8.9694287109375,-2.902236700133026,-2.672464370643333,1.4112141132650209
1684006919126069600,8.979469970703125,-2.6184244155527994,-2.9362878799927787,2.143236160273552
1684006919136110800,8.98951123046875,-1.0749824046799135,-2.528440475448996,2.830440282966584
1684006919146152100,8.999552490234375,0.6886823175375895,-1.8783121108225995,2.916387557876766
1684006919156193200,9.009593505859376,1.9727846384722738,-1.2969503401984541,2.4939966201657575
1684006919166234600,9.019635009765626,2.441072463913813,-1.0153799057546076,1.9751749039971422
1684006919176275600,9.029676025390623,2.6217789650724788,-0.8777904510618236,1.2847235202541165
1684006919186317000,9.03971728515625,2.626362562161681,-0.5467491148925635,0.40343260763465727
1684006919196358100,9.049758544921875,2.3150379656829823,0.1611118315639782,-0.6251187323869581
1684006919206399400,9.0597998046875,1.8299899099733659,0.8699111937661463,-1.5955985784160376
1684006919216440600,9.0698408203125,1.3255791664939292,1.362477302588914,-2.3221602438689484
1684006919226481600,9.079882080078123,0.7830966710543026,1.6418251990749966,-2.8512892722240957
1684006919236522900,9.08992333984375,0.11968606693556004,1.730431079889684,-3.335373401534403
1684006919246564000,9.09996435546875,-0.684317469674198,1.4903135300230252,-3.6543700695424515
1684006919256605400,9.110005859375,-1.5024290084676384,0.7807731627374144,-3.6939659119112003
1684006919266646400,9.120046875,-1.9694980382480993,-0.10082817073337842,-3.4379129409772844
1684006919276687800,9.130088134765623,-1.6582586764624507,-0.6349353791376853,-2.8975360392909977
1684006919286728900,9.14012939453125,-0.6511675715474822,-0.7363948822834144,-2.1000499725608504
1684006919296770200,9.150170654296875,0.4213429688485542,-0.6606855390723894,-1.2396297454997223
1684006919306811300,9.160211669921877,1.1031702756112227,-0.49279499066563376,-0.7383434772662714
1684006919316852600,9.170253173828126,1.5017336607612262,-0.2686262131021878,-0.6097598075458118
1684006919326893700,9.180294189453123,1.7546937466242185,-0.16490364073505748,-0.549449443844669
1684006919336935100,9.19033544921875,1.6987537145863938,-0.06452655793745238,-0.5172901153058845
1684006919346976200,9.20037646484375,1.4745354651935423,-0.03960227967613592,-0.43816399569644193
1684006919357017600,9.21041796875,1.202143669062475,-0.05702304846492069,-0.36396384232854484
1684006919367058600,9.220458984375,0.9588223695539637,-0.11199092857957116,-0.3332180975887237
1684006919377100000,9.230500244140623,0.7841228246691436,-0.09647941599847312,-0.40640044226002114
1684006919387141000,9.24054150390625,0.777419149818838,-0.012486457795685753,-0.502480983858719
1684006919397182400,9.250582763671876,0.8409311174050483,0.08998870846224066,-0.5580582618122909
1684006919407223500,9.260623779296877,0.9067094922079215,0.1775217055394288,-0.5609161852166852
1684006919417264800,9.270665283203124,0.9302060604987119,0.20233631129496293,-0.49700283996240774
1684006919427305900,9.280706298828123,0.9185407162361803,0.1381893158174322,-0.45554375637519207
1684006919437347000,9.290747314453125,0.9362202286227029,0.1382217407167229,-0.44139289856794156
1684006919447388300,9.300788818359376,0.984266161980195,0.20474815377048702,-0.4999184609136932
1684006919457429400,9.310829833984377,1.0798162221588645,0.1536931991435482,-0.4976617098856199
1684006919467470800,9.32087109375,1.1097667218534855,0.03777599341058754,-0.5021922588135452
1684006919477511900,9.330912353515624,1.0905781984518057,-0.08563137046617199,-0.5522503854044507
1684006919487553200,9.34095361328125,1.0281106233522685,-0.15441513059128645,-0.652325749471736
1684006919497594300,9.35099462890625,0.9498506783380866,-0.25209522241301924,-0.753519296601632
1684006919507635600,9.3610361328125,0.8571640252650045,-0.28762626630088306,-0.845127701778573
1684006919517676600,9.3710771484375,0.7640341521606414,-0.30170154560950696,-0.9029269218957282
1684006919527718100,9.381118408203124,0.7041013240270992,-0.2584505081327191,-0.9481229782349804
1684006919537759200,9.39115966796875,0.6894711852255899,-0.23660564417735994,-0.9441031217383237
1684006919547800600,9.401200927734376,0.6419446468514005,-0.13791847224975565,-0.9186927079731236
1684006919557841600,9.411241943359377,0.6170713304976111,-0.10100460035280483,-0.838338613449915
1684006919567882900,9.421283447265624,0.5914552211394004,0.000892639159990192,-0.7199652195175925
1684006919577924000,9.431324462890624,0.5676626563827247,0.07198905939708482,-0.521157980114577
1684006919587965400,9.44136572265625,0.5336971878275504,0.17908477781143697,-0.29049265395592827
1684006919598006400,9.45140673828125,0.517632067146931,0.2598581314078129,-0.09051585182723422
1684006919608047800,9.4614482421875,0.5160594581842362,0.2234144211198173,0.15954494485938697
1684006919618088900,9.4714892578125,0.5290627480794667,0.22543048869082039,0.3622713089623681
1684006919628130200,9.481530517578124,0.5257867574196239,0.1678171156381064,0.5579388141001967
1684006919638171300,9.49157177734375,0.5322605370616331,0.20576667772974455,0.7506656647024702
1684006919648212600,9.501613037109376,0.48638069621040503,0.22186279288132638,0.8847823143683795
1684006919658253700,9.511654052734375,0.4253470896206046,0.2903194426647879,0.9460258484084092
1684006919668295100,9.521695556640625,0.3385541438428654,0.3226661682451254,1.0270612240868595
1684006919678336200,9.531736572265626,0.30280244353233765,0.29005813601751285,1.023576974897804
1684006919688377300,9.541777587890625,0.2789965869581387,0.2879524230496521,0.9135081766948212
1684006919698418600,9.551819091796874,0.30878448484152504,0.2945966721196852,0.8258485794652255
1684006919708459600,9.561860107421875,0.285285711393225,0.12838649758334997,0.6965548991948813
1684006919718501000,9.5719013671875,0.2569491861560558,-0.00011730208393111314,0.5744092464615781
1684006919728542100,9.581942626953126,0.18959522231645065,-0.059835433864031076,0.36018490787923685
1684006919738583600,9.59198388671875,0.08352792276584708,-0.07223892223138005,0.1504938600819809
1684006919748624600,9.60202490234375,-0.021061658771004018,-0.0895357133013147,-0.07274019729360871
1684006919758665900,9.61206640625,-0.07607364655220668,-0.12554264061125145,-0.20373153689025558
1684006919768707000,9.622107421875,-0.09561538683551746,-0.14871788030923985,-0.27104043957923923
1684006919778748300,9.632148681640626,-0.07594120503390694,-0.16363048561939278,-0.2747230529347354
1684006919788789400,9.64218994140625,-0.03611755364888628,-0.16787910470593229,-0.2776556016204535
1684006919798830800,9.652231201171874,0.034497499508660316,-0.11926650994595124,-0.3461649416980784
1684006919808871900,9.662272216796875,0.12304878240635023,-0.07531356823885434,-0.4331749678006304
1684006919818913200,9.672313720703125,0.19384920593728233,-0.03383636465736949,-0.44606208793089985
1684006919828954300,9.682354736328126,0.24640512467407324,-0.051516532948797995,-0.33229982846574213
1684006919838995600,9.69239599609375,0.2252770662596203,-0.0002613068286765671,-0.2756979465743148
1684006919849036600,9.70243701171875,0.15680873388785468,0.008199691823812335,-0.20527100564647482
1684006919859078100,9.712478515625,0.11880922306403946,-0.008887290873354681,-0.08911252016182511
1684006919869119200,9.72251953125,0.09939849383107073,-0.046510696386898094,0.0005379916382795876
1684006919879160600,9.732560791015626,0.08144378662434079,-0.010231018078832775,0.09698629380831754
1684006919889201600,9.74260205078125,0.019081473462813574,-0.01173114772596176,0.21434926978247174
1684006919899242600,9.75264306640625,0.006334066263050805,0.0015649796531681292,0.36609673488986105
1684006919909284000,9.762684326171875,0.01969158654649911,0.015495300230965936,0.5003412963039943
1684006919919325100,9.7727255859375,0.10116851319921046,0.0769605635930912,0.7035347222377137
1684006919929366400,9.782766845703126,0.18541061888114108,0.0953445434448542,0.907098174212916
1684006919939407600,9.792807861328123,0.2949817179163469,0.20306777960148445,0.9744195937778429
1684006919949448900,9.802849365234374,0.40990614890034716,0.16778659819317787,1.119383573411094
1684006919959490000,9.812890380859375,0.475340366238557,0.16597747807902882,1.1945118904357794
1684006919969531300,9.822931640625,0.5500108002375671,0.22768306721218404,1.201644062920622
1684006919979572400,9.832972900390626,0.620954752075635,0.3022947311171543,1.2480165958262064
1684006919989613700,9.84301416015625,0.6960003374608906,0.455218315178713,1.3230345250561866
1684006919999654800,9.85305517578125,0.7404828070397967,0.5835704803008994,1.4347441196128456
1684006920009696200,9.8630966796875,0.7293565272571774,0.6714134215389028,1.4557834862894863
1684006920019737300,9.8731376953125,0.6540824174770508,0.7614841462436962,1.541147589599488
1684006920029778600,9.883178955078124,0.5524342059090835,0.8045349120972627,1.468668818555204
1684006920039819600,9.89322021484375,0.39255177986209294,0.6652402877973835,1.4483659267771907
1684006920049861000,9.903261474609376,0.279237747266486,0.499804496613492,1.492332458453986
1684006920059902100,9.913302490234376,0.22516214849153474,0.3912649155697243,1.4112375974065074
1684006920069943500,9.92334375,0.22471177579617296,0.2940635681172841,1.3021825552287483
1684006920079984600,9.933385009765624,0.287595748793403,0.20081138612790236,1.231943726534803
1684006920090025900,9.94342626953125,0.3804218769153165,-0.01373004909285109,1.156742930316437
1684006920100067000,9.95346728515625,0.46600818646335623,-0.20663642879618863,1.0876699686125955
1684006920110108100,9.963508544921876,0.5267939567617933,-0.3382339477646532,0.842033505290339
1684006920120149400,9.9735498046875,0.5862525701078899,-0.6094999311936674,0.7629410028084536
1684006920130190800,9.983591064453124,0.6394208669224809,-0.9216871260960378,0.809640646150369
1684006920140231900,9.99363232421875,0.7128306628347536,-1.1636705398575968,0.85979175571431
1684006920150272900,10.00367333984375,0.7592656612538913,-1.2509708404341109,0.9767884014518464
1684006920160314300,10.013714599609376,0.8672330379359005,-1.425636291554271,1.1870203016545595
1684006920170355400,10.023755859375,0.9386384487830342,-1.7020750045797095,1.3220007418873805
1684006920180396600,10.033797119140624,0.9619272351228358,-1.943983077977859,1.2720906735850033
1684006920190437800,10.043838134765624,0.8651871086057052,-2.0462770462031155,1.0508375167545683
1684006920200479200,10.053879638671877,0.6104372739865469,-2.0733861921646026,0.6657412053228565
1684006920210520200,10.063920654296876,0.2900257111537754,-1.9557533263451576,0.24573707585583415
1684006920220561600,10.0739619140625,-0.045643329509602294,-1.7961730956255848,-0.17766761774799944
1684006920230602600,10.084003173828124,-0.37687346337059496,-1.5396442414393499,-0.6330929994241871
1684006920240644000,10.09404443359375,-0.6942600013166949,-1.1527357100923736,-1.1866332292445025
1684006920250685100,10.10408544921875,-1.8174195291202466,-0.6983966826384035,-1.95877051355774
1684006920260726400,10.114126953125,-5.721690177942616,-0.49505615238405914,-3.9044594764050755
1684006920270767600,10.12416796875,-5.925778865749509,-0.25424575797832927,-5.172937393052026
1684006920280808900,10.134209228515624,-4.082209110187656,0.2718420029220447,-5.219145297962897
1684006920290850000,10.14425048828125,-2.2724318505023233,0.6435308455655487,-4.398020744406949
1684006920300891300,10.154291748046877,-0.7301112412540983,0.9167613982178194,-3.323532819884478
1684006920310932400,10.164332763671876,0.2980169655852861,1.2206678389248589,-2.549440383948283
1684006920320973700,10.1743740234375,0.9475204943697241,1.505054473753754,-2.21391510964742
1684006920331014800,10.184415283203125,1.3859454391587305,1.5245146750717298,-2.1822161673599827
1684006920341056200,10.19445654296875,1.6395056246897104,1.3343896866617895,-2.0872635840255658
1684006920351097300,10.20449755859375,1.8185231685195375,0.9392766952240019,-1.836293697304397
1684006920361138400,10.214538818359374,1.8602463007520822,0.5293359756441416,-1.5057920218867777
1684006920371179600,10.224580078125,1.7072429656008286,-0.014274597269791692,-1.3331955671089548
1684006920381221000,10.234621337890625,1.2712719440817235,-0.7412662506677432,-1.1835858821933805
1684006920391262100,10.24466259765625,0.5591864586274818,-1.3981866837096422,-1.1662021875031519
1684006920401303200,10.25470361328125,-0.32426804295653017,-1.7845935820111807,-1.298568368015314
1684006920411344600,10.264744873046874,-1.033785820112976,-1.9923448563942285,-1.4161777496845847
1684006920421385600,10.2747861328125,-1.4015531538646862,-1.9226293563617927,-1.4268149137417419
1684006920431427000,10.284827392578125,-1.5736422538858537,-1.670136451741593,-1.4126478432517011
1684006920441468100,10.294868408203126,-1.6892515421544303,-1.3431854247690842,-1.4354597330272751
1684006920451509400,10.304909912109377,-1.6226854324904132,-1.0278854370626656,-1.4746168850616868
1684006920461550600,10.314950927734374,-1.3858879805749242,-0.8119525908937255,-1.5646936893753065
1684006920471591900,10.3249921875,-1.0783150196912306,-0.6966142655215659,-1.7263910768817667
1684006920481632900,10.335033447265625,-0.7896283269186185,-0.5685396195100942,-1.9228346347701175
1684006920491674300,10.34507470703125,-0.4739192724045389,-0.32713699338655483,-2.023494243670058
1684006920501715400,10.35511572265625,-0.22917115674795413,-0.016065597659971516,-1.96261620523881
1684006920511756600,10.3651572265625,-0.07055127621418188,0.1611604689889892,-1.9253656864849231
1684006920521797800,10.3751982421875,-0.0017215014828229817,0.32398796077480396,-1.8957190514129012
1684006920531839200,10.385239501953125,-0.008026719040379469,0.2830028534630529,-1.7233073710300177
1684006920541880200,10.39528076171875,-0.1503183246297563,0.13131237028133874,-1.6158245800981448
1684006920551921600,10.405322021484375,-0.2705653309802176,-0.05202388762901972,-1.6357398033519253
1684006920561962600,10.415363037109374,-0.38005924225090054,-0.23325824733906303,-1.7942717076264554
1684006920572003800,10.425404052734375,-0.5124158860290733,-0.3903322219905307,-1.9674752951361147
1684006920582045100,10.435445556640625,-0.5210718511329392,-0.4654703140182868,-2.088960409134689
1684006920592086400,10.44548681640625,-0.455662012068399,-0.49181365973018437,-2.0495951175339173
1684006920602127600,10.45552783203125,-0.31209152926644634,-0.5240316390454371,-1.9513888358656433
1684006920612168600,10.465569091796874,-0.1273621320665775,-0.5142221451409736,-1.7656921149080442
1684006920622210000,10.4756103515625,0.023602843203045173,-0.4578819274334279,-1.5030592680615176
1684006920632251100,10.4856513671875,0.10745239259902034,-0.39340877549100756,-1.2785636186129095
1684006920642292400,10.49569287109375,0.14416813855259383,-0.3304347991420403,-1.0658390520340026
1684006920652333600,10.50573388671875,0.104633033241426,-0.22855758669210877,-0.9007666111055662
1684006920662374800,10.515775146484376,-0.013662874868155738,-0.15975284574891227,-0.7427411078180376
1684006920672415900,10.52581640625,-0.17046082023123185,-0.17426681517956838,-0.6895678043345609
1684006920682457300,10.535857666015623,-0.30075454726274187,-0.17406463630773722,-0.6693375109615628
1684006920692498400,10.545898681640624,-0.32231760030943857,-0.14746570594102465,-0.6996812820692017
1684006920702539600,10.555940185546875,-0.16188210250070068,-0.10181331629520991,-0.745892524539669
1684006920712580800,10.565981201171876,0.0714396834198672,0.05118560778290914,-0.7830117939995249
1684006920722622100,10.5760224609375,0.34388083229836386,0.24204063426797678,-0.7953169343977159
1684006920732663200,10.586063720703123,0.5818818807506028,0.4421253205139973,-0.7594044210045212
1684006920742704600,10.59610498046875,0.7106840610829938,0.6038284301527884,-0.6107646226928951
1684006920752745600,10.60614599609375,0.6977034808175198,0.6795253752692401,-0.43533730493014744
1684006920762787000,10.6161875,0.5834395288119056,0.6979637146922402,-0.1851177215587787
1684006920772828100,10.626228515625,0.3878047467749284,0.7067966462828248,0.13037943852247313
1684006920782869400,10.636269775390623,0.24516022202494747,0.7011022568022226,0.36818623554544033
1684006920792910600,10.646310791015624,0.23976457114978214,0.7094717026592994,0.6215300560022424
1684006920802951900,10.656352294921875,0.3763976692095656,0.7464399338543464,0.7686922550734668
1684006920812992900,10.666393310546876,0.5394237041023561,0.7954406738256993,0.8860914707795747
1684006920823034300,10.6764345703125,0.5314708948375406,0.8374967575361862,1.0264811514292524
1684006920833075400,10.686475830078123,0.3224414587351239,0.8605165481945187,1.2181565761544388
1684006920843116600,10.69651708984375,0.08406901356916018,0.9333753587561611,1.319194316911783
1684006920853157800,10.70655810546875,-0.11011117694150409,0.9696712493232905,1.3389003277562284
1684006920863199200,10.716599609375,-0.20676612856026141,0.9860696793499661,1.2485883235897333
1684006920873240200,10.726640625,-0.3087938426268234,0.9132900238026102,1.1318740845827708
1684006920883281300,10.736681640625,-0.3339785934831433,0.7730093002109517,1.1339759826456774
1684006920893322600,10.74672314453125,-0.3766090870444381,0.6178140641544175,1.2157709598651296
1684006920903363800,10.75676416015625,-0.3657188414799589,0.5338134765105307,1.20310974109887
1684006920913405100,10.766805419921877,-0.24486732500205896,0.5689830778318256,1.1001930235808608
1684006920923446200,10.7768466796875,-0.05725449320899325,0.5416126251827074,1.0296747683459617
1684006920933487600,10.786887939453123,-0.05727466938182964,0.4922523499512195,0.9649968145517347
1684006920943528600,10.796928955078124,-0.22466403246316025,0.41143417350125794,0.9117512702465828
1684006920953570000,10.806970458984376,-0.6266705989609044,0.15810585022664264,1.1131870746430315
1684006920963611100,10.817011474609377,-1.0996183157255845,-0.18352222434651222,1.2805416583318252
1684006920973652400,10.827052734375,-1.490518569881729,-0.5100193023552938,1.3939404487409088
1684006920983693600,10.837093994140623,-1.7211256025872281,-0.5750837326094173,1.368288517034775
1684006920993734800,10.84713525390625,-1.813092470004431,-0.5276937484310734,1.2790465354693472
1684006921003775900,10.85717626953125,-1.7713725567072438,-0.3518867492260434,1.093542814272877
1684006921013817300,10.8672177734375,-1.6029050351079976,-0.19600868214532305,0.8025844096675927
1684006921023858400,10.8772587890625,-1.3198540212105447,-0.10484981551201256,0.4536459444922188
1684006921033899600,10.887300048828124,-1.0850386621076502,-0.03491878506964548,0.2462322713144247
1684006921043940800,10.897341064453125,-1.0490462780270084,0.002114295911623472,0.120960950979886
1684006921053982100,10.907382568359376,-1.16888344295053,0.08047580717771421,-0.008028268809153498
1684006921064023200,10.917423583984377,-1.310952544376275,0.1690931319454585,-0.17633152004418845
1684006921074064600,10.92746484375,-1.3301023245724442,0.22477722158959915,-0.43943667403514014
1684006921084105600,10.937506103515624,-1.2818850280042366,0.20919227597722836,-0.6927754878476939
1684006921094147000,10.94754736328125,-1.1905695201313098,0.25613117227086063,-0.8794811965617478
1684006921104188100,10.95758837890625,-0.9734625219219534,0.2793855667060044,-1.0071588754955336
1684006921114229400,10.9676298828125,-0.7225337624665749,0.3360881807091032,-1.0791715383614302
1684006921124270600,10.9776708984375,-0.4608031510949122,0.4260435102733068,-1.1103317737376595
1684006921134311900,10.987712158203124,-0.2184842229026159,0.5013628007320462,-1.110330343341389
1684006921144352900,10.99775341796875,-0.06577624386520801,0.5359210967117265,-1.033304452835897
1684006921154394000,11.00779443359375,0.04754368962732171,0.31263351429836966,-0.7712697983769032
1684006921164435400,11.017835693359377,0.1998523771132428,-0.21322250357119713,-0.3195900918616551
1684006921174476600,11.027877197265624,0.294497072672605,-0.7401361464793915,0.017864703996358054
1684006921184517800,11.037918212890624,0.2096968292592171,-0.8619518279028694,0.15892004962134165
1684006921194558900,11.047959228515625,0.06618112325141681,-0.756273269562654,0.20768785492940414
1684006921204600200,11.058000732421876,-0.12139719715968995,-0.6126089097537254,0.3592791557588062
1684006921214641300,11.068041748046875,-0.30117869381421775,-0.41944789897795265,0.3514187336817861
1684006921224682600,11.0780830078125,-0.4445717930380334,-0.3032341004253239,0.37304830556100194
1684006921234723800,11.088124267578126,-0.6152924895120172,-0.20374393462618914,0.37882423404533017
1684006921244765100,11.09816552734375,-0.6944085360169264,-0.17837047594887442,0.4921059608984901
1684006921254806200,11.10820654296875,-0.6776422858646631,-0.1293735503035514,0.5013597011780048
1684006921264847600,11.118248046875,-0.6405642629231796,-0.1841039657310516,0.5019249915835166
1684006921274888600,11.1282890625,-0.6000853775536868,-0.08405971507556315,0.3062732220911974
1684006921284930000,11.138330322265626,-0.5035470725176632,-0.06348037718094869,0.19718170161840876
1684006921294971100,11.148371337890625,-0.361315995409141,-0.007514953780908174,0.0623517035703315
1684006921305012400,11.158412841796874,-0.28271460544728666,0.01920127859402756,0.042963981515449216
1684006921315053600,11.168453857421875,-0.31815409667704153,0.0547819138000417,0.13187718381070065
1684006921325094800,11.1784951171875,-0.510791301647647,0.10861206055011936,0.32699370395630434
1684006921335135900,11.188536376953126,-0.7025166750482219,0.10897254938639292,0.5898530482361156
1684006921345177300,11.19857763671875,-0.7291146516062298,-0.04902839658684646,0.8591456413945185
1684006921355218400,11.20861865234375,-0.4834738373938861,0.0030279160673160454,0.7898297310924534
1684006921365259600,11.21866015625,-0.18916851286444275,0.07395744332916426,0.5328276156602048
1684006921375300800,11.228701171875,0.08075892939218585,0.24792289742125959,0.13823366160685452
1684006921385342100,11.238742431640626,0.3013058901744873,0.3790779115074827,-0.08846807478339345
1684006921395383200,11.24878369140625,0.45270550240721225,0.4098320007458246,-0.15867948532918036
1684006921405424600,11.258824951171874,0.5426836014202273,0.39021492009924136,-0.1630268096532892
1684006921415465600,11.268865966796875,0.5455459357987008,0.2628755569580453,-0.06550908082410305
1684006921425506700,11.2789072265625,0.5075674056548831,0.11158561709273698,0.06619596473610381
1684006921435548100,11.288948486328126,0.4270062447080942,-0.013279914998317382,0.1549482344832345
1684006921445589400,11.29898974609375,0.3856341839383816,-0.037500381381242474,0.16706681248770902
1684006921455630600,11.309031005859374,0.35621011244913353,-0.006628036523932305,0.13088512418150988
1684006921465671900,11.319072265625,0.36759531491447994,0.014702796900096059,0.0677440166795834
1684006921475712900,11.32911328125,0.3926619290429425,0.03836631780426705,0.027822494447411382
1684006921485754000,11.339154541015626,0.4378682376074866,0.03571701049177644,-0.026720523835423202
1684006921495795400,11.34919580078125,0.45279538633483646,0.002085685691491866,-0.021552562832806623
1684006921505836600,11.359237060546874,0.4590495824826397,0.006983757092743173,-0.020604133590794875
1684006921515877800,11.3692783203125,0.4567139150236253,0.0217752456075723,-0.06402182578389001
1684006921525918900,11.3793193359375,0.47201669211234737,0.03446102131452615,-0.03718543064676317
1684006921535960200,11.389360595703126,0.45482909686723766,0.07612133022655627,-0.06917357431228814
1684006921546001300,11.399401611328123,0.45558822154483575,0.08948326100873844,-0.06157684321297019
1684006921556042600,11.409443115234374,0.5031129122618438,0.09123420711381541,-0.05564045896036426
1684006921566083800,11.419484130859376,0.5399246215892397,0.09812641141884462,-0.032227754595163416
1684006921576125100,11.429525390625,0.6065093278474385,0.05994224555048308,0.013253212052780785
1684006921586166200,11.439566650390624,0.6712472437032376,0.01970195758808967,0.08070588112129579
1684006921596207600,11.44960791015625,0.7074748276109235,-0.01792526261067131,0.1674582958272793
1684006921606248600,11.45964892578125,0.7604198455136766,0.023506164585675046,0.21403598787555406
1684006921616290000,11.4696904296875,0.7656052113677333,0.014726638876642125,0.3155496121130239
1684006921626331100,11.4797314453125,0.773820877033519,0.020300865058891695,0.3424115182280616
1684006921636372400,11.489772705078124,0.7592822313639047,0.009190559404706412,0.41885828976357337
1684006921646413600,11.49981396484375,0.7747453451327698,0.043502807568326224,0.4370796680362444
1684006921656454800,11.509855224609376,0.8077894450732176,-0.0059442520016389595,0.5163969992361526
1684006921666495900,11.519896240234376,0.8386383056457353,-0.005356788813314909,0.5537319183193319
1684006921676537300,11.529937744140623,0.8597807884974442,0.011719703581360713,0.6091587542273005
1684006921686578400,11.539978759765624,0.8972806931226103,-0.00018882763738535364,0.6443245410106628
1684006921696619600,11.55002001953125,0.8864023686465488,0.03299999252882262,0.6927552222448518
1684006921706660800,11.560061279296876,0.8418984413164815,0.07786655437592688,0.6592473984922763
1684006921716702100,11.5701025390625,0.7877871988511398,0.1200408935634962,0.649002313658635
1684006921726743200,11.5801435546875,0.7005882263508342,0.1714620590017905,0.5733182430022796
1684006921736784600,11.59018505859375,0.5906196832629321,0.17488193503286956,0.482457399286219
1684006921746825600,11.60022607421875,0.44418835641161875,0.1473312377825581,0.3410904407265391
1684006921756867000,11.610267333984376,0.3881491422329684,0.06512355794680558,0.21897912028808098
1684006921766908100,11.62030859375,0.3312001228971186,0.0071878432133547845,0.17591404927379883
1684006921776949400,11.630349853515623,0.3439320325934758,-0.03790283211130512,0.06340980524101035
1684006921786990600,11.640390869140624,0.3676954508215968,-0.020865440224699217,0.04563283933900262
1684006921797031900,11.650432373046876,0.37787055959906435,-0.05575561514302201,0.017911434153378866
1684006921807072900,11.660473388671877,0.36951744550770804,-0.026319503895484923,0.01614427565321517
1684006921817114000,11.670514404296876,0.34519934662551893,-0.01835155485335918,0.06363749500279933
1684006921827155400,11.6805556640625,0.29857039469717694,0.013271331919966023,0.0958952903534357
1684006921837196600,11.69059716796875,0.2353068589968231,0.05884170512571526,0.1720905304359775
1684006921847237800,11.70063818359375,0.19646167748970522,0.07813644417699005,0.2581803798733215
1684006921857278900,11.71067919921875,0.1630928515535219,0.11166954052520774,0.3846626280740833
1684006921867320200,11.720720703125,0.13750171648942658,0.16632747655358493,0.4992973803524806
1684006921877361300,11.73076171875,0.14549398405292596,0.18277740470499781,0.6464576719772067
1684006921887402600,11.740802978515624,0.13031613823852836,0.20630741121298918,0.7473831177418709
1684006921897443800,11.75084423828125,0.12774419784474988,0.2509279249830586,0.8851835726219963
1684006921907485100,11.760885498046877,0.1214513777937699,0.2385149001414939,1.01154422766179
1684006921917526200,11.770926513671874,0.1254999638327395,0.31345653528101697,1.1048142909820338
1684006921927567600,11.780968017578124,0.09513068188632506,0.3401126862187811,1.1654441357750798
1684006921937608600,11.791009033203125,0.08285188677993675,0.3664207458893101,1.1964418887566597
1684006921947650000,11.80105029296875,0.05111241338581766,0.39008140554876797,1.2264661787613111
1684006921957691100,11.811091552734377,0.05477738385682196,0.3663272858062422,1.2855267524598566
1684006921967732400,11.8211328125,0.058120846634483206,0.38777446746105665,1.3000946043700772
1684006921977773600,11.831173828125,0.0753374100484382,0.333688735964229,1.2830018995960977
1684006921987814800,11.84121533203125,0.1271589994628779,0.3277730940740704,1.2491967678993032
1684006921997855900,11.85125634765625,0.19132542617602918,0.3762550354304382,1.199162483209857
1684006922007897300,11.861297607421877,0.231870174215748,0.3698530197478245,1.1378481388505126
1684006922017938400,11.8713388671875,0.27468240246473674,0.3918037414518578,1.0395050049013783
1684006922027979600,11.881380126953124,0.28645765798228245,0.33329582210734005,1.0177783965038387
1684006922038020800,11.891421142578125,0.2673187256136418,0.3321981428856952,0.9044239520387264
1684006922048062100,11.901462646484376,0.23876357080874047,0.3310689927759402,0.7953360081944856
1684006922058103200,11.911503662109377,0.18453347682445545,0.3112068176657051,0.6485762594577676
1684006922068144600,11.921544921875,0.1662508248907669,0.31539154054907015,0.5593318937516353
1684006922078185600,11.9315859375,0.1527076959314698,0.2703456879376969,0.46117782602087765
1684006922088227000,11.94162744140625,0.17877256870501423,0.28524398802824624,0.3453254700199427
1684006922098268100,11.95166845703125,0.2194995879964608,0.335625648628662,0.3023340701981296
1684006922108309400,11.961709716796875,0.2575107812796853,0.43035125736312085,0.28212928775949525
1684006922118350600,11.9717509765625,0.30901312817367593,0.46018409735136223,0.36611533157732584
1684006922128391900,11.981792236328126,0.35536086559703406,0.36466789242219994,0.5132954120358564
1684006922138432900,11.991833251953125,0.30062746993042705,0.296464920083622,0.632436513857042
1684006922148474300,12.001874755859374,0.23209011568127919,0.2434854508584189,0.7264041902175702
1684006922158515400,12.011915771484375,0.181628584749371,0.13016700759435382,0.813899993868222
1684006922168556600,12.02195703125,0.11479771125856084,0.042274475076368674,0.9202105998088035
1684006922178597800,12.031998291015626,0.04003465170873118,-0.06991577157920595,0.9389598370723794
1684006922188639200,12.04203955078125,-0.02498817440483159,-0.21535205832098522,0.9065709113980609
1684006922198680200,12.05208056640625,-0.10370087621873605,-0.29692649843376373,0.8215324879023924
1684006922208721600,12.0621220703125,-0.11148488523898198,-0.3227882385113945,0.673199653614904
1684006922218762600,12.0721630859375,-0.06936275957109707,-0.232697487057211,0.5879299640557749
1684006922228803800,12.0822041015625,0.02059900753218939,-0.12523937229350204,0.6190629005252904
1684006922238845100,12.09224560546875,0.13318204889712543,-0.047961235085780506,0.7149698734483828
1684006922248886400,12.102286865234374,0.2514038085831964,0.006682395954893251,0.9169042109437555
1684006922258927600,12.112327880859375,0.39809000499011554,-0.017705917235960485,1.17745423324646
1684006922268968900,12.122369384765625,0.5676593780846856,-0.019377708469233222,1.4723834992392684
1684006922279010000,12.132410400390626,0.7027356624553424,0.0456619263175447,1.6338543892623907
1684006922289051100,12.142451416015623,0.7843264341727987,0.08257579807246666,1.7228655816534277
1684006922299092400,12.152492919921874,0.853366136474697,-0.03753852835652192,1.9247343541424264
1684006922309133700,12.1625341796875,0.880044698729376,-0.16860771172459751,2.154303073843108
1684006922319174800,12.1725751953125,0.836607932894531,-0.2583847044839588,2.2817337512862825
1684006922329215900,12.1826162109375,0.756227493234733,-0.30969142895867974,2.3595120905675504
1684006922339257300,12.19265771484375,0.615850448684542,-0.2461051940714839,2.2741796972004336
1684006922349298400,12.20269873046875,0.3790414334501803,-0.15188884745323963,1.9144983293121807
1684006922359339600,12.212739990234375,0.10057854650008448,-0.12089920043066983,1.4866147042106117
1684006922369381000,12.222781494140625,-0.11767733094603217,-0.051007270642238395,1.087960720182423
1684006922379422100,12.232822509765626,-0.2994861603101234,0.01923847192832303,0.6595139503819982
1684006922389463200,12.242863525390623,-0.42857581381774235,0.06382751468866783,0.254510164261808
1684006922399504600,12.252905029296874,-0.548150718245877,0.0030698775459990757,-0.056977033693809055
1684006922409545600,12.262946044921875,-0.6461512445646905,-0.0037641525192919616,-0.35002779950082774
1684006922419587000,12.2729873046875,-0.7398959398611062,-0.014090538055839904,-0.6455650329081205
1684006922429628300,12.28302880859375,-0.8347452877693973,0.02701282515820453,-0.9097384213385188
1684006922439669400,12.29306982421875,-0.9266536237254835,0.10727024077664156,-1.1643478869466255
1684006922449710600,12.30311083984375,-0.9838600755902867,0.24050903322213862,-1.3359217644205843
1684006922459751900,12.31315234375,-1.1053552627844139,0.39793872840379196,-1.5507501363147678
1684006922469792900,12.323193359375,-2.5728268624510737,0.4842185974949183,-1.6341533660725138
1684006922479834300,12.333234619140624,-7.255732536262369,0.3591003417020727,-0.32059550280407906
1684006922489875400,12.34327587890625,-5.243703842313547,0.5644187927616848,-0.14004135125195225
1684006922499916600,12.353317138671876,-2.6447050572031725,0.7022905349998657,-0.9140625001334874
1684006922509957800,12.363358154296876,-0.8934892416539808,0.5559482575095525,-1.46153342728443
1684006922519999200,12.373399658203123,0.11342436074647992,0.25953197489279517,-1.5209081173067838
1684006922530040200,12.383440673828124,0.6073492765422412,-0.01641750346007197,-1.3163404464521113
1684006922540081600,12.39348193359375,0.680289566423905,-0.2228899002163962,-1.164210319605894
1684006922550122600,12.403523193359376,0.515879035050172,-0.5129594802431406,-1.0332314967886638
1684006922560164000,12.413564453125,0.27992644901882935,-0.7445678711866476,-1.059260845087356
1684006922570205100,12.42360546875,0.13237614924919786,-1.0338678359117819,-1.0841960907181523
1684006922580246400,12.433646728515624,0.07308475657915775,-1.2372732162482885,-1.0003714562907888
1684006922590287600,12.44368798828125,0.1460611821114774,-1.3192138671763072,-0.8848454953259709
1684006922600328900,12.453729248046876,0.234225392279121,-1.2899456023853648,-0.6053192616054921
1684006922610370000,12.463770263671876,0.14884112769626875,-1.1958112715656974,-0.30743193622318604
1684006922620411300,12.473811767578123,-0.04732953750673275,-0.9922552108325682,-0.08837676052699966
1684006922630452400,12.483852783203124,-0.33749288314215253,-0.6195478438604369,-0.15265440933079993
1684006922640493700,12.49389404296875,-0.3867844939417978,-0.5402631758776724,0.13011217122559957
1684006922650534800,12.503935302734376,-0.3080296813735182,-0.28176307687281826,0.10930156712139566
1684006922660576200,12.5139765625,-0.07631956045079544,0.02465724946378157,-0.09651231757241106
1684006922670617300,12.524017578125,0.1749792397136642,0.3277997970298325,-0.4837791918970496
1684006922680658600,12.53405908203125,0.36815440654195475,0.589947700399515,-0.7095127106513204
1684006922690699600,12.54410009765625,0.4126053750286268,0.7319107054250029,-0.8992319106414646
