time,seconds_elapsed,z,y,x
1683919017013156000,0.036156005859375,0,0,0
1683919017023196400,0.046196533203125,0.16527891159057617,0.047031402587890625,0.05687284469604492
1683919017033236500,0.056236572265625,0.26765918731689453,0.1103668212890625,0.08661127090454102
1683919017043276500,0.066276611328125,0.270388126373291,0.10398197174072266,0.04774332046508789
1683919017053316600,0.076316650390625,0.26035356521606445,0.18375444412231445,0.12795662879943848
1683919017063356700,0.086356689453125,0.17468976974487305,0.1900191307067871,0.04832792282104492
1683919017073396700,0.096396728515625,-0.009506702423095703,0.12510299682617188,-0.09149837493896484
1683919017083436800,0.106436767578125,-0.05647087097167969,0.19376564025878906,0.0541834831237793
1683919017093476900,0.116476806640625,-0.22142553329467773,0.2415785789489746,-0.03306269645690918
1683919017103517000,0.126516845703125,-0.2930459976196289,0.3551187515258789,0.1608715057373047
1683919017113557200,0.13655712890625,-0.36035776138305664,0.40613412857055664,0.21453022956848145
1683919017123597000,0.14659716796875,-0.09202861785888672,0.2989072799682617,-0.24498796463012695
1683919017133637400,0.156637451171875,0.7417163848876953,0.5105142593383789,-1.078155279159546
1683919017143677400,0.166677490234375,1.275193691253662,0.6759147644042969,-0.7910070419311523
1683919017153717500,0.176717529296875,1.7406067848205566,0.41687607765197754,-0.060347557067871094
1683919017163757600,0.186757568359375,2.6802425384521484,1.190420389175415,0.09957599639892578
1683919017173797600,0.196797607421875,1.2190227508544922,-0.31479859352111816,0.18455934524536133
1683919017183837700,0.206837646484375,0.8050379753112793,-1.0675206184387207,0.38766908645629883
1683919017193877800,0.216877685546875,-0.45921993255615234,-0.6241908073425293,-0.16316795349121094
1683919017203917800,0.226917724609375,-0.5250787734985352,-0.2646322250366211,-0.5945062637329102
1683919017213958100,0.236958251953125,-0.9202699661254883,-0.02109551429748535,-0.45468807220458984
1683919017223998200,0.246998291015625,-1.1363039016723633,-0.10425877571105957,-0.2566218376159668
1683919017234038300,0.257038330078125,-1.1627459526062012,-0.24058318138122559,0.2594032287597656
1683919017244078300,0.267078369140625,-1.1284747123718262,-0.16083669662475586,0.7045822143554688
1683919017254118400,0.277118408203125,-1.0491437911987305,0.01883387565612793,0.770230770111084
1683919017264158500,0.287158447265625,-0.5085415840148926,0.12020206451416016,0.7841649055480957
1683919017274198500,0.297198486328125,0.063323974609375,0.03169989585876465,0.7862768173217773
1683919017284238600,0.307238525390625,0.3854250907897949,-0.06011199951171875,0.6822795867919922
1683919017294278700,0.317278564453125,0.5715880393981934,-0.16548657417297363,0.5428814888000488
1683919017304318700,0.327318603515625,0.7232718467712402,-0.27907299995422363,0.2851686477661133
1683919017314358800,0.33735888671875,0.8500542640686035,-0.33379197120666504,-0.06066465377807617
1683919017324399000,0.347399169921875,0.8988394737243652,-0.49651098251342773,-0.3629145622253418
1683919017334439200,0.357439208984375,0.5784053802490234,-0.630805253982544,-0.5071449279785156
1683919017344479200,0.367479248046875,0.316617488861084,-0.5464398860931396,-0.6678986549377441
1683919017354519300,0.377519287109375,0.2910442352294922,-0.5900452136993408,-0.6672558784484863
1683919017364559400,0.387559326171875,0.40611886978149414,-0.7075998783111572,-0.6113729476928711
1683919017374599400,0.397599365234375,0.6785340309143066,-0.5925564765930176,-0.6321172714233398
1683919017384639500,0.407639404296875,1.085195541381836,-0.40155529975891113,-0.5174546241760254
1683919017394679600,0.417679443359375,1.047511100769043,-0.30963826179504395,-0.36147022247314453
1683919017404719600,0.4277197265625,0.9048466682434082,-0.12343049049377441,-0.4623274803161621
1683919017414759700,0.437759765625,0.4537467956542969,-0.054381608963012695,-0.42970895767211914
1683919017424800000,0.447800048828125,-0.31560707092285156,-0.07677507400512695,-0.4076366424560547
1683919017434840000,0.457840087890625,-0.43724679946899414,-0.15039539337158203,-0.42812633514404297
1683919017444880100,0.467880126953125,-0.4033055305480957,-0.21095538139343262,-0.4037446975708008
1683919017454920200,0.477920166015625,-0.48781871795654297,-0.2345414161682129,-0.3631620407104492
1683919017464960300,0.487960205078125,-0.5667827129364014,-0.1671152114868164,-0.33557605743408203
1683919017475000300,0.498000244140625,-0.5640168190002441,-0.056050777435302734,-0.4160957336425781
1683919017485040400,0.508040283203125,-0.48006153106689453,-0.10442590713500977,-0.2302999496459961
1683919017495080400,0.51808056640625,-0.12082576751708984,-0.14414405822753906,0.08030414581298828
1683919017505120500,0.52812060546875,0.2297203540802002,-0.06264352798461914,0.13537216186523438
1683919017515160800,0.538160888671875,0.44760584831237793,-0.07167887687683105,0.12249469757080078
1683919017525201000,0.548200927734375,0.5003817081451416,-0.14230632781982422,0.1351461410522461
1683919017535241000,0.558240966796875,0.05303692817687988,-0.12362337112426758,-0.22252845764160156
1683919017545281000,0.568281005859375,0.33289599418640137,-0.06866312026977539,-0.19206619262695312
1683919017555321000,0.578321044921875,-0.3039224147796631,-0.15428924560546875,-0.023520469665527344
1683919017565361200,0.588361083984375,-0.8317866325378418,-0.09823131561279297,-0.1239461898803711
1683919017575401200,0.598401123046875,-0.9188370704650879,0.11751222610473633,0.000560760498046875
1683919017585441300,0.608441162109375,-0.9028455018997192,0.17127132415771484,0.4200000762939453
1683919017595481300,0.6184814453125,-0.9028899669647217,0.29084956645965576,0.4779977798461914
1683919017605521400,0.628521484375,-0.4894900321960449,0.471221923828125,0.35793209075927734
1683919017615561700,0.638561767578125,-0.3155663013458252,0.5741907358169556,0.3031749725341797
1683919017625601800,0.648601806640625,-0.2516052722930908,0.8920643925666809,0.16234588623046875
1683919017635641900,0.658641845703125,-0.20923113822937012,1.3901759386062622,0.3359813690185547
1683919017645682000,0.668681884765625,-0.817359209060669,1.4749289751052856,0.14109230041503906
1683919017655722000,0.678721923828125,-1.2890169620513916,1.2074030637741089,-0.3110675811767578
1683919017665762000,0.688761962890625,-1.166712760925293,0.8097171187400818,-0.38664722442626953
1683919017675802000,0.698802001953125,-0.8689327239990234,0.5555658340454102,-0.21818256378173828
1683919017685842200,0.70884228515625,-0.5005177855491638,0.5123268365859985,-0.10248661041259766
1683919017695882200,0.71888232421875,-0.05657017230987549,0.42814767360687256,-0.011435508728027344
1683919017705922300,0.72892236328125,-0.22219806909561157,0.3970189094543457,0.16988468170166016
1683919017715962400,0.73896240234375,-0.42881840467453003,0.5418974161148071,0.02198314666748047
1683919017726002700,0.749002685546875,-0.4673904776573181,0.4821881055831909,-0.09735298156738281
1683919017736042800,0.759042724609375,-0.6022974252700806,0.4088168144226074,-0.2284412384033203
1683919017746082800,0.769082763671875,-0.8547371625900269,0.07743978500366211,-0.5499296188354492
1683919017756123000,0.779122802734375,-1.0211496353149414,-0.6831645965576172,-0.4825019836425781
1683919017766163000,0.789162841796875,-1.0885250568389893,-0.7605270147323608,-0.4769744873046875
1683919017776203000,0.799203125,-0.7860313653945923,-0.5354745388031006,-0.6150264739990234
1683919017786243000,0.8092431640625,0.03326556086540222,-0.8582799434661865,-0.548828125
1683919017796283100,0.819283203125,0.5214699506759644,-0.6999349594116211,-0.13184547424316406
1683919017806323200,0.8293232421875,0.2438315451145172,-0.25559282302856445,-0.13972091674804688
1683919017816363300,0.83936328125,-0.5001521110534668,0.2530803680419922,0.026970863342285156
1683919017826403600,0.849403564453125,-0.8264878392219543,0.1404937505722046,0.3557252883911133
1683919017836443600,0.859443603515625,-0.5107110738754272,-1.1339266300201416,0.49129199981689453
1683919017846483700,0.869483642578125,-0.268335223197937,1.0750645399093628,0.5943508148193359
1683919017856523800,0.879523681640625,0.09870624542236328,-0.3344440460205078,0.8630571365356445
1683919017866563800,0.889563720703125,0.42921483516693115,-0.8214199542999268,0.9075593948364258
1683919017876604000,0.89960400390625,0.7190070152282715,-0.5156291723251343,0.44917774200439453
1683919017886644000,0.90964404296875,0.49991220235824585,-0.15542817115783691,-0.09367942810058594
1683919017896684000,0.91968408203125,0.02359294891357422,-0.13928282260894775,-0.18477821350097656
1683919017906724000,0.92972412109375,-0.26219475269317627,-0.0030945539474487305,-0.5201349258422852
1683919017916764400,0.939764404296875,-0.24599570035934448,0.17599868774414062,-1.2530908584594727
1683919017926804500,0.949804443359375,-0.4831196069717407,0.22780919075012207,-0.8654041290283203
1683919017936844500,0.959844482421875,-0.08665263652801514,0.39127159118652344,1.0075883865356445
1683919017946884600,0.969884521484375,0.7166035175323486,-0.14187073707580566,-2.8013010025024414
1683919017956924700,0.979924560546875,0.9461284279823303,-0.9748671054840088,-0.28995227813720703
1683919017966964700,0.98996484375,1.5037775039672852,-1.2978301048278809,-0.8947467803955078
1683919017977004800,1.0000048828125,1.6183669567108154,-1.8734982013702393,-1.888343334197998
1683919017987044900,1.010044921875,1.4339299201965332,-1.9412353038787842,-1.6891937255859375
1683919017997085000,1.0200849609375,2.199155807495117,-2.284152030944824,-0.52862548828125
1683919018007125200,1.030125244140625,1.6550121307373047,-1.2543177604675293,-0.6002273559570312
1683919018017165300,1.040165283203125,1.553438425064087,-0.4080617427825928,-0.6686105728149414
1683919018027205400,1.050205322265625,1.5159556865692139,-0.2816493511199951,-1.363138198852539
1683919018037245400,1.060245361328125,0.1676234006881714,-0.525292158126831,0.2707710266113281
1683919018047285500,1.070285400390625,-0.32557135820388794,-0.9695141315460205,0.8255319595336914
1683919018057325600,1.08032568359375,-0.9283859729766846,-1.6688206195831299,1.019073486328125
1683919018067365600,1.09036572265625,-1.4487208127975464,-1.689452886581421,0.6481237411499023
1683919018077405700,1.10040576171875,-1.3502373695373535,-1.7236669063568115,0.06486988067626953
1683919018087445800,1.11044580078125,-0.8978997468948364,-1.9264674186706543,-0.41766357421875
1683919018097485800,1.12048583984375,-0.603696346282959,-2.148280620574951,-0.8742923736572266
1683919018107526100,1.130526123046875,-0.557876467704773,-1.9737839698791504,-0.834467887878418
1683919018117566200,1.140566162109375,-0.47175660729408264,-1.4494004249572754,-0.4477834701538086
1683919018127606300,1.150606201171875,0.07840952277183533,-0.820411205291748,0.5929622650146484
1683919018137646300,1.160646240234375,0.9607522487640381,-0.052533626556396484,0.8875436782836914
1683919018147686400,1.170686279296875,1.101400375366211,0.2822999954223633,0.6037654876708984
1683919018157726500,1.1807265625,0.4772627651691437,0.04178047180175781,0.9348163604736328
1683919018167766500,1.1907666015625,-0.323110431432724,-0.37955379486083984,1.2113847732543945
1683919018177806600,1.200806640625,-0.37335288524627686,-0.09642267227172852,0.6801939010620117
1683919018187846700,1.2108466796875,-0.37532803416252136,0.18113279342651367,0.6567258834838867
1683919018197887000,1.220886962890625,-0.9800987839698792,0.1459493637084961,1.369673728942871
1683919018207927000,1.230927001953125,-1.6284642219543457,0.04729509353637695,1.8004283905029297
1683919018217967000,1.240967041015625,-1.7656868696212769,-0.10393238067626953,1.1124916076660156
1683919018228007200,1.251007080078125,-1.0644985437393188,-0.500493049621582,0.1499776840209961
1683919018238047200,1.261047119140625,0.4269315004348755,-0.47424840927124023,0.10480976104736328
1683919018248087300,1.27108740234375,1.7195696830749512,-0.16388654708862305,0.683384895324707
1683919018258127400,1.28112744140625,1.657497763633728,-0.03308439254760742,1.080739974975586
1683919018268167400,1.29116748046875,0.9686717987060547,-0.27576351165771484,0.6699924468994141
1683919018278207500,1.30120751953125,0.2840651273727417,0.2777280807495117,-0.6630783081054688
1683919018288247600,1.31124755859375,-0.5715740323066711,-0.2660961151123047,-0.18354129791259766
1683919018298287900,1.321287841796875,-0.5989115238189697,-0.7776021957397461,0.16042327880859375
1683919018308328000,1.331327880859375,-0.31514012813568115,-0.647552490234375,-0.08196735382080078
1683919018318368000,1.341367919921875,0.10759919881820679,-0.5113658905029297,-0.23884963989257812
1683919018328408000,1.351407958984375,0.7166430950164795,-0.29775142669677734,-0.1067361831665039
1683919018338448100,1.3614482421875,0.06977641582489014,-1.0933246612548828,0.25790882110595703
1683919018348488200,1.37148828125,-0.8268396258354187,-1.3705720901489258,-0.19027280807495117
1683919018358528300,1.3815283203125,-0.8179797530174255,-0.9789180755615234,-0.5449128150939941
1683919018368568300,1.391568359375,-0.5701927542686462,-0.16578340530395508,-0.23184490203857422
1683919018378608400,1.4016083984375,-1.1873213052749634,0.1288008689880371,0.22983360290527344
1683919018388648700,1.411648681640625,-1.440366268157959,0.2880110740661621,0.6476020812988281
1683919018398688800,1.421688720703125,-0.6291828155517578,0.7965178489685059,-1.1415481567382812
1683919018408728800,1.431728759765625,-0.5261943936347961,0.220458984375,0.07567119598388672
1683919018418769000,1.441768798828125,-0.354175329208374,0.21647262573242188,1.2141799926757812
1683919018428809000,1.45180908203125,0.6615795493125916,0.3705940246582031,-0.046512603759765625
1683919018438849000,1.46184912109375,0.4126405119895935,0.3541884422302246,-0.2294154167175293
1683919018448889000,1.47188916015625,0.6165766716003418,0.5130658149719238,-0.2934141159057617
1683919018458929200,1.48192919921875,0.8363100290298462,0.6996912956237793,-0.47788238525390625
1683919018468969200,1.49196923828125,0.8388528823852539,1.0926856994628906,-0.16555023193359375
1683919018479009500,1.502009521484375,0.7837952375411987,0.41419124603271484,-0.029148101806640625
1683919018489049600,1.512049560546875,-0.09390801191329956,-0.5517301559448242,-0.17006349563598633
1683919018499089700,1.522089599609375,0.055647850036621094,-0.8202023506164551,-0.3338756561279297
1683919018509129700,1.532129638671875,0.654451310634613,-0.4715080261230469,-0.6418566703796387
1683919018519169800,1.542169677734375,1.3756377696990967,-0.12172412872314453,-1.094994068145752
1683919018529209900,1.5522099609375,1.3638818264007568,0.9369335174560547,-1.5614514350891113
1683919018539250000,1.56225,1.1463102102279663,1.852736473083496,-2.0183258056640625
1683919018549290000,1.5722900390625,0.476238489151001,2.255641460418701,-2.2779579162597656
1683919018559330000,1.582330078125,-0.6065500974655151,2.3215317726135254,-2.6336145401000977
1683919018569370400,1.592370361328125,-1.7649227380752563,1.4639668464660645,-2.3281359672546387
1683919018579410400,1.602410400390625,-2.2487874031066895,0.576880931854248,-1.8811025619506836
1683919018589450500,1.612450439453125,-1.7697982788085938,-0.38556957244873047,-1.0024218559265137
1683919018599490600,1.622490478515625,-0.9401476979255676,-1.6121726036071777,0.5431723594665527
1683919018609530600,1.632530517578125,0.7519587278366089,-1.897104263305664,1.7559423446655273
1683919018619570700,1.64257080078125,1.7479400634765625,-2.007880687713623,3.342984199523926
1683919018629610800,1.65261083984375,2.6351418495178223,-1.5411243438720703,3.8678102493286133
1683919018639650800,1.66265087890625,2.8516223430633545,-0.8909673690795898,3.479979991912842
1683919018649691000,1.67269091796875,2.367051362991333,-0.24997711181640625,2.803938388824463
1683919018659731000,1.68273095703125,1.093471884727478,0.7245922088623047,1.739734172821045
1683919018669771300,1.692771240234375,-1.0554771423339844,1.0818157196044922,0.38425445556640625
1683919018679811300,1.702811279296875,-3.7216293811798096,0.8660531044006348,-0.9966650009155273
1683919018689851400,1.712851318359375,-5.684863567352295,0.29643917083740234,-1.194035530090332
1683919018699891500,1.722891357421875,-5.14370059967041,-0.6136856079101562,-0.6943273544311523
1683919018709931500,1.732931640625,-2.1668145656585693,-0.9967555999755859,-0.5030994415283203
1683919018719971600,1.7429716796875,0.2856111228466034,-1.3315515518188477,-0.6297893524169922
1683919018730011600,1.75301171875,1.842399001121521,-1.2169170379638672,-0.0072689056396484375
1683919018740051700,1.7630517578125,2.356174945831299,0.14031982421875,0.6187877655029297
1683919018750091800,1.773091796875,1.8702701330184937,0.8937139511108398,1.2328038215637207
1683919018760132000,1.783132080078125,1.0103471279144287,1.5863037109375,0.975621223449707
1683919018770172200,1.793172119140625,0.9800683259963989,1.705411434173584,0.8860287666320801
1683919018780212200,1.803212158203125,0.29730796813964844,1.518770694732666,1.080101490020752
1683919018790252300,1.813252197265625,-0.1847335249185562,0.5970382690429688,0.6081719398498535
1683919018800292400,1.823292236328125,-0.029255032539367676,-0.3758735656738281,0.20025873184204102
1683919018810332400,1.83333251953125,-0.007752180099487305,-1.0212249755859375,-0.21717357635498047
1683919018820372500,1.84337255859375,-0.1523956060409546,-1.8998937606811523,-0.35878753662109375
1683919018830412500,1.85341259765625,-0.4210940897464752,-1.5912971496582031,0.32178354263305664
1683919018840452600,1.86345263671875,-0.7089927196502686,-1.2238311767578125,-0.17700624465942383
1683919018850493000,1.873492919921875,-0.2580074965953827,-0.42884063720703125,-0.8522143363952637
1683919018860533000,1.883532958984375,0.3144715428352356,-0.09308910369873047,-0.4883413314819336
1683919018870573000,1.893572998046875,0.44384127855300903,-0.4696006774902344,-0.08503961563110352
1683919018880613000,1.903613037109375,0.4681609272956848,-0.4997720718383789,0.14905500411987305
1683919018890653200,1.913653076171875,0.389263778924942,0.05847501754760742,0.29373884201049805
1683919018900693200,1.923693359375,0.2745663523674011,0.5010428428649902,0.21163415908813477
1683919018910733300,1.9337333984375,0.11565780639648438,0.6034717559814453,0.8802852630615234
1683919018920773400,1.9437734375,0.08597391843795776,0.05588054656982422,0.22609519958496094
1683919018930813400,1.9538134765625,0.16095149517059326,-0.08725166320800781,-0.026219844818115234
1683919018940853800,1.963853759765625,0.4532068371772766,0.05481529235839844,0.3116617202758789
1683919018950893800,1.973893798828125,0.7116637229919434,0.06426000595092773,0.05317354202270508
1683919018960934000,1.983933837890625,0.6996168494224548,0.24704694747924805,-0.11993694305419922
1683919018970974000,1.993973876953125,0.6364653706550598,0.20981216430664062,-0.2703976631164551
1683919018981014000,2.004013916015625,0.4163067638874054,0.31589651107788086,-0.17188024520874023
1683919018991054000,2.01405419921875,0.20287063717842102,0.40725135803222656,0.15625524520874023
1683919019001094100,2.02409423828125,-0.16101375222206116,0.46532392501831055,0.3603973388671875
1683919019011134200,2.03413427734375,-0.3246581554412842,0.7705965042114258,0.39280128479003906
1683919019021174300,2.04417431640625,-0.34847721457481384,0.8808884620666504,0.11177921295166016
1683919019031214600,2.054214599609375,-0.3638538420200348,0.7213015556335449,-0.1701364517211914
1683919019041254700,2.064254638671875,-0.29309511184692383,-0.4042530059814453,-1.5430798530578613
1683919019051294700,2.074294677734375,-0.0032442808151245117,-0.6952943801879883,-0.6179251670837402
1683919019061334800,2.084334716796875,0.4322296977043152,-0.7760176658630371,-0.21538877487182617
1683919019071374800,2.094374755859375,0.40370792150497437,-0.9039878845214844,-0.3628425598144531
1683919019081415000,2.104414794921875,0.19776302576065063,-1.0188002586364746,-0.34688758850097656
1683919019091455000,2.114455078125,0.45550328493118286,-0.44811534881591797,0.24272871017456055
1683919019101495000,2.1244951171875,-0.128919780254364,-0.8515448570251465,-0.3216533660888672
1683919019111535000,2.13453515625,-0.19827884435653687,-1.145223617553711,-0.42105579376220703
1683919019121575400,2.144575439453125,-0.43254154920578003,-1.0307512283325195,-0.24793243408203125
1683919019131615500,2.154615478515625,-0.5884864330291748,-0.39163827896118164,-0.15520715713500977
1683919019141655600,2.164655517578125,-0.4437921941280365,0.10383129119873047,-0.16656494140625
1683919019151695600,2.174695556640625,-0.04024931788444519,0.09272480010986328,-0.29646921157836914
1683919019161735700,2.184735595703125,0.278313010931015,0.0061168670654296875,-0.2904672622680664
1683919019171775700,2.194775634765625,0.5797113180160522,-0.025678634643554688,0.18767309188842773
1683919019181815800,2.20481591796875,0.6788744926452637,0.07912349700927734,0.3984537124633789
1683919019191855900,2.21485595703125,0.4254836440086365,0.19783449172973633,0.17772388458251953
1683919019201896200,2.224896240234375,-0.02631354331970215,0.07936429977416992,0.03289461135864258
1683919019211936300,2.234936279296875,-0.36276084184646606,0.04459667205810547,-0.24681997299194336
1683919019221976300,2.244976318359375,-0.429281622171402,-0.013326168060302734,-0.4671940803527832
1683919019232016400,2.255016357421875,-0.298203706741333,0.34824466705322266,-0.6069798469543457
1683919019242056400,2.265056396484375,-0.269428014755249,0.8362936973571777,-0.6017322540283203
1683919019252096500,2.275096435546875,-0.6725445985794067,2.524026870727539,-2.3967480659484863
1683919019262136600,2.285136474609375,-1.1676756143569946,2.5282206535339355,-2.998521566390991
1683919019272176600,2.2951767578125,-1.1033332347869873,2.6448497772216797,-3.138676166534424
1683919019282216700,2.305216796875,-0.7370529174804688,2.4528894424438477,-2.845489978790283
1683919019292257000,2.315257080078125,-0.13694815337657928,2.01786470413208,-2.342341899871826
1683919019302297000,2.325297119140625,0.37338370084762573,1.2099151611328125,-1.3475475311279297
1683919019312337200,2.335337158203125,0.7234106063842773,0.1262645721435547,-0.3068509101867676
1683919019322377200,2.345377197265625,0.9317482709884644,-0.14803600311279297,-0.10571861267089844
1683919019332417300,2.355417236328125,1.0284439325332642,-0.30364322662353516,0.18624305725097656
1683919019342457300,2.365457275390625,1.1289355754852295,-1.6269397735595703,0.4163546562194824
1683919019352497400,2.375497314453125,1.2122102975845337,-2.1204681396484375,0.9024791717529297
1683919019362537500,2.385537353515625,1.3738199472427368,-1.1923160552978516,1.0132904052734375
1683919019372577500,2.39557763671875,1.400657057762146,-1.2524890899658203,0.6393780708312988
1683919019382617900,2.405617919921875,1.1673641204833984,-2.0049867630004883,0.7371339797973633
1683919019392658000,2.415657958984375,0.9287769198417664,-2.0367507934570312,1.253288745880127
1683919019402698000,2.425697998046875,0.43640437722206116,-1.7860422134399414,1.555189847946167
1683919019412738000,2.435738037109375,-0.3095439076423645,-0.5458106994628906,1.0975961685180664
1683919019422778000,2.445778076171875,-0.8966904282569885,0.5009069442749023,0.4410114288330078
1683919019432818200,2.455818115234375,-1.2182005643844604,-0.108673095703125,0.45893239974975586
1683919019442858200,2.465858154296875,-1.5674951076507568,1.4979419708251953,-1.8037904500961304
1683919019452898300,2.475898193359375,-1.263177752494812,1.0724945068359375,-1.474735975265503
1683919019462938600,2.485938720703125,-0.6732921004295349,-0.04956340789794922,-0.47376489639282227
1683919019472978700,2.495978759765625,-0.040786489844322205,1.3467531204223633,-0.2500908374786377
1683919019483018800,2.506018798828125,0.49404487013816833,-0.030719757080078125,-0.05781054496765137
1683919019493058800,2.516058837890625,0.8958593606948853,-1.4245529174804688,0.5676136016845703
1683919019503099000,2.526098876953125,1.3758198022842407,-2.8050718307495117,1.2917990684509277
1683919019513139000,2.536138916015625,1.8249751329421997,-2.6632957458496094,2.0135324001312256
1683919019523179000,2.546178955078125,1.723827838897705,-1.7135257720947266,1.8475794792175293
1683919019533219000,2.556218994140625,1.5250005722045898,1.5899438858032227,0.6696417331695557
1683919019543259400,2.56625927734375,-0.13000208139419556,0.3048410415649414,-0.9316242933273315
1683919019553299500,2.576299560546875,-0.9098147749900818,-0.6161279678344727,-1.5013024806976318
1683919019563339500,2.586339599609375,-1.0025408267974854,1.2022857666015625,-2.1077158451080322
1683919019573379600,2.596379638671875,-1.1569420099258423,1.2205677032470703,-1.5546966791152954
1683919019583419600,2.606419677734375,-1.014069676399231,0.34645748138427734,-0.8290674686431885
1683919019593459700,2.616459716796875,-0.3157406151294708,0.2449207305908203,-0.13620734214782715
1683919019603499800,2.626499755859375,0.3409184217453003,-0.49047374725341797,0.6243407726287842
1683919019613539800,2.636539794921875,0.764069676399231,-0.4891548156738281,0.8773099184036255
1683919019623580200,2.646580078125,0.8415725827217102,-0.4050569534301758,0.9786268472671509
1683919019633620200,2.6566201171875,0.9363653659820557,0.7609615325927734,1.0949889421463013
1683919019643660300,2.666660400390625,0.7616657018661499,0.1263589859008789,0.9499398469924927
1683919019653700400,2.676700439453125,0.835559070110321,0.5930967330932617,1.3034757375717163
1683919019663740400,2.686740478515625,0.9314317107200623,0.20103740692138672,1.7613879442214966
1683919019673780500,2.696780517578125,0.8952670097351074,-0.20691394805908203,2.0317978858947754
1683919019683820500,2.706820556640625,0.7115829586982727,-0.14249038696289062,2.172933578491211
1683919019693860600,2.716860595703125,-0.03359454870223999,-0.08341217041015625,1.7806352376937866
1683919019703900700,2.726900634765625,-1.178415060043335,-0.5979442596435547,0.9699422121047974
1683919019713941000,2.73694091796875,-2.01908016204834,-0.9496974945068359,0.2831939458847046
1683919019723981000,2.74698095703125,-1.9314826726913452,-0.8205652236938477,-0.2877357006072998
1683919019734021000,2.757021240234375,-1.2987060546875,-0.2598400115966797,-0.5181707143783569
1683919019744061200,2.767061279296875,-0.8404594659805298,1.0956602096557617,-0.2069331407546997
1683919019754101200,2.777101318359375,-0.9839433431625366,2.821366310119629,0.20682859420776367
1683919019764141300,2.787141357421875,-1.0010377168655396,3.586104393005371,1.4379812479019165
1683919019774181400,2.797181396484375,-0.6934845447540283,1.9459342956542969,0.8503601551055908
1683919019784221400,2.807221435546875,-0.753826379776001,-0.31383228302001953,-0.5121691226959229
1683919019794261800,2.81726171875,-0.5097230672836304,-2.71783447265625,-1.7209599018096924
1683919019804301800,2.8273017578125,-0.24164259433746338,-4.610799789428711,-2.739823341369629
1683919019814342000,2.837341796875,0.3256603479385376,-5.0224456787109375,-2.7990336418151855
1683919019824382000,2.8473818359375,0.969313383102417,-2.934234619140625,-1.3524266481399536
1683919019834422000,2.857422119140625,1.471590280532837,-0.06278133392333984,-0.21511584520339966
1683919019844462000,2.867462158203125,1.3046953678131104,1.6458244323730469,0.6659179925918579
1683919019854502100,2.877502197265625,1.006119728088379,0.6015663146972656,1.2550134658813477
1683919019864542500,2.88754248046875,0.9059320688247681,-0.611485481262207,1.632869005203247
1683919019874582300,2.897582275390625,1.0747113227844238,-0.7698068618774414,1.7620147466659546
1683919019884622600,2.90762255859375,1.0799086093902588,-0.4243316650390625,1.8468939065933228
1683919019894662700,2.91766259765625,0.7815844416618347,-0.37863636016845703,1.6879892349243164
1683919019904702700,2.92770263671875,0.13083189725875854,-0.3902320861816406,1.278083086013794
1683919019914742800,2.93774267578125,-0.46573951840400696,0.009274482727050781,0.8090184926986694
1683919019924782800,2.947782958984375,-0.6677132248878479,0.6467924118041992,0.5927231907844543
1683919019934823000,2.957822998046875,-0.5286157131195068,0.9245014190673828,0.4308805465698242
1683919019944863000,2.967863037109375,-0.16365745663642883,1.6946802139282227,0.2984558939933777
1683919019954903300,2.9779033203125,0.11793145537376404,1.7861347198486328,0.18599170446395874
1683919019964943400,2.987943359375,0.2612014710903168,1.9476370811462402,0.19805288314819336
1683919019974983400,2.9979833984375,0.33592531085014343,2.069161891937256,0.21556663513183594
1683919019985023500,3.0080234375,0.11780622601509094,1.3519048690795898,0.08131897449493408
1683919019995063600,3.0180634765625,-1.0813006162643433,-3.1865434646606445,-1.1974414587020874
1683919020005103600,3.028103515625,-1.8811264038085938,-3.331852912902832,-1.8854812383651733
1683919020015143700,3.038143798828125,-1.3890995979309082,-2.4666337966918945,-1.3732197284698486
1683919020025183700,3.048183837890625,-0.6827955842018127,-1.6648454666137695,-0.40110212564468384
1683919020035224000,3.05822412109375,-0.35143759846687317,-0.6369285583496094,0.2031204104423523
1683919020045264100,3.06826416015625,-0.25561437010765076,-0.5341663360595703,0.6042686700820923
1683919020055304200,3.07830419921875,-0.09587222337722778,-0.5066776275634766,0.8098963499069214
1683919020065344300,3.08834423828125,0.3501884341239929,-0.6163463592529297,0.9966776371002197
1683919020075384300,3.09838427734375,0.9350175857543945,-0.5757694244384766,1.107790231704712
1683919020085424400,3.10842431640625,1.4329438209533691,-0.3556060791015625,0.9962024092674255
1683919020095464400,3.11846435546875,1.8503296375274658,-0.39208126068115234,0.5536491870880127
1683919020105504500,3.12850439453125,2.2407279014587402,-0.5259723663330078,0.12654699385166168
1683919020115544800,3.138544921875,2.5829875469207764,-0.5363397598266602,-0.09886469691991806
1683919020125585000,3.1485849609375,2.709186553955078,-0.3699464797973633,-0.24345555901527405
1683919020135625000,3.158625,2.4176394939422607,-0.0678873062133789,-0.2577657997608185
1683919020145665000,3.1686650390625,1.9062652587890625,0.19179058074951172,-0.1268763691186905
1683919020155705000,3.178705078125,1.5002385377883911,0.32710742950439453,-0.055213943123817444
1683919020165745200,3.1887451171875,1.24347984790802,0.5982303619384766,-0.1228676289319992
1683919020175785200,3.19878515625,1.1542574167251587,0.8572511672973633,-0.24019616842269897
1683919020185825500,3.208825439453125,1.142836332321167,0.7946014404296875,0.020481452345848083
1683919020195865600,3.218865478515625,1.0450729131698608,0.5354070663452148,0.49124425649642944
1683919020205905700,3.22890576171875,0.7927629351615906,0.32550811767578125,0.6354986429214478
1683919020215945700,3.23894580078125,0.43850594758987427,0.24988079071044922,0.6289145946502686
1683919020225985800,3.24898583984375,0.1484280824661255,0.23831462860107422,0.3997129797935486
1683919020236025900,3.25902587890625,-0.03334760665893555,0.2380666732788086,0.12407273054122925
1683919020246066000,3.26906591796875,-0.08950603008270264,0.1681966781616211,-0.18516337871551514
1683919020256106000,3.27910595703125,-0.17504459619522095,0.13411998748779297,-0.37266474962234497
1683919020266146300,3.289146240234375,-0.3430997133255005,0.04740428924560547,-0.3665694296360016
1683919020276186400,3.299186279296875,-0.5687384009361267,-0.027530670166015625,-0.2547629177570343
1683919020286226400,3.309226318359375,-0.748046875,-0.06457328796386719,-0.07561683654785156
1683919020296266500,3.3192666015625,-0.8610565066337585,-0.07084941864013672,0.12920159101486206
1683919020306306600,3.329306640625,-1.3985278606414795,-0.18735790252685547,0.41380175948143005
1683919020316346600,3.3393466796875,-2.290271520614624,-0.17789936065673828,0.8167845010757446
1683919020326387000,3.349386962890625,-2.716764450073242,-0.12430667877197266,1.1107691526412964
1683919020336427000,3.359427001953125,-2.344705820083618,-0.02901744842529297,1.1701642274856567
1683919020346467000,3.369467041015625,-1.467211365699768,0.1536083221435547,1.0130274295806885
1683919020356507100,3.379507080078125,-0.7055673003196716,0.1730976104736328,0.8981078267097473
1683919020366547200,3.389547119140625,-0.17637234926223755,0.19973278045654297,0.7460005879402161
1683919020376587300,3.399587158203125,0.2079084813594818,0.19310665130615234,0.5537056922912598
1683919020386627300,3.40962744140625,0.43181112408638,0.10563278198242188,0.363940954208374
1683919020396667400,3.41966748046875,0.5537261962890625,-0.060006141662597656,0.19097459316253662
1683919020406707700,3.429707763671875,0.5760495066642761,-0.2698087692260742,0.041225552558898926
1683919020416747800,3.439747802734375,0.3605051636695862,-0.2610626220703125,-0.22459352016448975
1683919020426787800,3.449787841796875,0.03386044502258301,-0.27584075927734375,-0.27940845489501953
1683919020436828000,3.459827880859375,-0.2984706163406372,0.03646564483642578,-0.2851673364639282
1683919020446868000,3.469867919921875,-0.5953527092933655,0.273529052734375,-0.262683629989624
1683919020456908000,3.479907958984375,-0.7107858061790466,0.34224987030029297,-0.3336847424507141
1683919020466948000,3.489947998046875,-0.7790808081626892,0.3096961975097656,-0.37270742654800415
1683919020476988200,3.49998828125,-0.7699865102767944,0.24271202087402344,-0.16836297512054443
1683919020487028500,3.510028564453125,-0.5060954689979553,0.4571409225463867,0.16650694608688354
1683919020497068500,3.520068603515625,-0.22794228792190552,0.1848735809326172,0.5373049974441528
1683919020507108600,3.530108642578125,-0.024328291416168213,0.2536630630493164,0.37304359674453735
1683919020517148700,3.540148681640625,0.0030989646911621094,0.09431648254394531,0.17937618494033813
1683919020527188700,3.550188720703125,0.018427550792694092,0.2224893569946289,-0.13958746194839478
1683919020537228800,3.560228759765625,-0.08365553617477417,0.24044322967529297,-0.30356985330581665
1683919020547268900,3.570268798828125,-0.24611413478851318,0.21491050720214844,-0.26496851444244385
1683919020557309200,3.58030908203125,-0.3953988552093506,0.1101827621459961,-0.1814393401145935
1683919020567349200,3.590349365234375,-0.33532893657684326,0.05810737609863281,-0.11179608106613159
1683919020577389300,3.600389404296875,-0.30253589153289795,-0.008123397827148438,-0.003367900848388672
1683919020587429400,3.610429443359375,-0.27904051542282104,-0.028898239135742188,0.11944431066513062
1683919020597469400,3.620469482421875,-0.22129499912261963,-0.004588127136230469,0.1414332389831543
1683919020607509500,3.630509521484375,-0.11452138423919678,0.009644508361816406,0.15910345315933228
1683919020617549600,3.640549560546875,0.025693953037261963,-0.009965896606445312,0.22042697668075562
1683919020627590000,3.65058984375,0.10424637794494629,0.0013685226440429688,0.3175727128982544
1683919020637630000,3.6606298828125,0.13082659244537354,0.01763916015625,0.4805748760700226
1683919020647670000,3.670669921875,0.042440950870513916,-0.03252601623535156,0.5764755010604858
1683919020657710000,3.6807099609375,-0.08871781826019287,-0.06771564483642578,0.5905050039291382
1683919020667750100,3.690750244140625,-0.2592664957046509,-0.12152481079101562,0.5161874890327454
1683919020677790200,3.700790283203125,-0.3938875198364258,-0.17739105224609375,0.32112449407577515
1683919020687830300,3.710830322265625,-0.47257673740386963,-0.24981975555419922,0.1759471893310547
1683919020697870300,3.720870361328125,-0.46697473526000977,-0.2480783462524414,-0.007271409034729004
1683919020707910700,3.73091064453125,-0.41982412338256836,-0.21543121337890625,-0.21136164665222168
1683919020717950700,3.74095068359375,-0.4416780471801758,-0.2309122085571289,-0.2624332904815674
1683919020727990800,3.75099072265625,-0.43889284133911133,-0.27288818359375,-0.2665250301361084
1683919020738030800,3.76103076171875,-0.41938257217407227,-0.1859750747680664,-0.30782103538513184
1683919020748071000,3.77107080078125,-0.396209716796875,-0.056372642517089844,-0.2786250114440918
1683919020758111000,3.781111083984375,-0.3701885938644409,0.08245277404785156,-0.2243657112121582
1683919020768151300,3.7911513671875,-0.2987806797027588,0.2257242202758789,-0.14242005348205566
1683919020778191400,3.80119140625,-0.23942327499389648,0.29936885833740234,-0.025261878967285156
1683919020788231400,3.8112314453125,-0.14439356327056885,0.29160499572753906,0.04854083061218262
1683919020798271500,3.821271484375,-0.05936837196350098,0.24803924560546875,0.14602363109588623
1683919020808311600,3.8313115234375,0.010487079620361328,0.23807430267333984,0.16197174787521362
1683919020818351600,3.8413515625,0.07200872898101807,0.1947917938232422,0.1517496109008789
1683919020828391700,3.8513916015625,0.07850933074951172,0.1660146713256836,0.10976576805114746
1683919020838431700,3.861431640625,0.07879745960235596,0.11654090881347656,0.09113490581512451
1683919020848472000,3.87147216796875,0.05186629295349121,0.147918701171875,0.10271602869033813
1683919020858512100,3.88151220703125,0.05056643486022949,0.18576431274414062,0.1720747947692871
1683919020868552200,3.89155224609375,0.034706711769104004,0.2393951416015625,0.16362595558166504
1683919020878592300,3.90159228515625,0.02541220188140869,0.2756624221801758,0.17490488290786743
1683919020888632300,3.91163232421875,-0.010692000389099121,0.26190185546875,0.16356807947158813
1683919020898672400,3.92167236328125,-0.056499600410461426,0.2247753143310547,0.17984533309936523
1683919020908712700,3.931712646484375,-0.07114458084106445,0.18811893463134766,0.1973344087600708
1683919020918752800,3.941752685546875,-0.08059418201446533,0.18015575408935547,0.2508881092071533
1683919020928792800,3.951792724609375,-0.077811598777771,0.1604175567626953,0.30189841985702515
1683919020938833000,3.9618330078125,-0.006934165954589844,0.12688064575195312,0.37322258949279785
1683919020948873000,3.971873046875,0.024055957794189453,0.1082000732421875,0.34413665533065796
1683919020958913000,3.9819130859375,0.0130537748336792,0.11361026763916016,0.3410700559616089
1683919020968953300,3.991953369140625,0.017278075218200684,0.12154674530029297,0.3727937340736389
1683919020978993400,4.001993408203125,0.006068587303161621,0.13665199279785156,0.36101073026657104
1683919020989033500,4.012033447265625,-0.008306264877319336,0.16815567016601562,0.35620951652526855
1683919020999073500,4.022073486328125,-0.006780147552490234,0.11684131622314453,0.36569643020629883
1683919021009113600,4.032113525390625,0.0030933618545532227,0.08063983917236328,0.41282862424850464
1683919021019153700,4.042153564453125,-0.037756919860839844,0.08987903594970703,0.4902176260948181
1683919021029193700,4.05219384765625,-0.10688376426696777,0.04491901397705078,0.5474874377250671
1683919021039233800,4.06223388671875,-0.17261290550231934,-0.0039520263671875,0.5775943398475647
1683919021049274000,4.072274169921875,-0.23233330249786377,-0.042639732360839844,0.593209981918335
1683919021059314200,4.082314208984375,-0.2763272523880005,-0.05260944366455078,0.6352130174636841
1683919021069354200,4.092354248046875,-0.27408266067504883,-0.024936676025390625,0.6865750551223755
1683919021079394300,4.102394287109375,-0.25960206985473633,0.046896934509277344,0.6996738910675049
1683919021089434400,4.112434326171875,-0.20545458793640137,0.1222686767578125,0.6959740519523621
1683919021099474400,4.122474365234375,-0.1672440767288208,0.1494464874267578,0.6404405832290649
1683919021109514800,4.1325146484375,-0.1546175479888916,0.1551647186279297,0.5530880689620972
1683919021119554800,4.142554931640625,-0.15584337711334229,0.08568382263183594,0.44636136293411255
1683919021129595000,4.152594970703125,-0.21295058727264404,-0.0035810470581054688,0.374447762966156
1683919021139635000,4.162635009765625,-0.2956196069717407,-0.09358787536621094,0.31749314069747925
1683919021149675000,4.172675048828125,-0.3856121301651001,-0.16331100463867188,0.3080049753189087
1683919021159715000,4.182715087890625,-0.43063461780548096,-0.10479068756103516,0.31881147623062134
1683919021169755100,4.192755126953125,-0.46444952487945557,-0.05663871765136719,0.37030863761901855
1683919021179795500,4.20279541015625,-0.46160566806793213,0.009617805480957031,0.34167271852493286
1683919021189835500,4.21283544921875,-0.43226873874664307,0.09373950958251953,0.27392733097076416
1683919021199875600,4.22287548828125,-0.3914691209793091,0.17194271087646484,0.19138175249099731
1683919021209915600,4.23291552734375,-0.3212554454803467,0.1054239273071289,0.07634317874908447
1683919021219955700,4.242955810546875,-0.3378795385360718,0.29834461212158203,-0.11522352695465088
1683919021229995800,4.252995849609375,-0.26748812198638916,-0.08196258544921875,0.05700194835662842
1683919021240036000,4.2630361328125,-0.2583801746368408,-0.24791908264160156,-0.02618098258972168
1683919021250076200,4.273076171875,-0.3464052677154541,-0.3280668258666992,-0.29154038429260254
1683919021260116200,4.2831162109375,-0.3991210460662842,-0.3198356628417969,-0.6095772981643677
1683919021270156300,4.29315625,-0.41390371322631836,-0.23699665069580078,-0.7667405605316162
1683919021280196400,4.3031962890625,-0.38182640075683594,-0.10452461242675781,-0.8021767139434814
1683919021290236400,4.313236328125,-0.355962872505188,0.08380699157714844,-0.7974852323532104
1683919021300276700,4.32327685546875,-0.29455292224884033,0.23767471313476562,-0.677926778793335
1683919021310316800,4.33331689453125,-0.2648594379425049,0.3764638900756836,-0.494085431098938
1683919021320356900,4.34335693359375,-0.2335529327392578,0.4344453811645508,-0.10307455062866211
1683919021330397000,4.35339697265625,-0.22614562511444092,0.4555072784423828,0.3320896625518799
1683919021340437000,4.36343701171875,-0.17378735542297363,0.44536399841308594,0.7866010665893555
1683919021350477000,4.37347705078125,-0.10142695903778076,0.44500064849853516,1.0626275539398193
1683919021360517000,4.38351708984375,-0.04989981651306152,0.3766355514526367,1.1327321529388428
1683919021370557400,4.393557373046875,0.0442122220993042,0.3637208938598633,1.218176245689392
1683919021380597500,4.403597412109375,0.1558837890625,0.27858734130859375,1.2864530086517334
1683919021390637600,4.413637451171875,0.23480331897735596,0.08741378784179688,1.2047996520996094
1683919021400677600,4.423677734375,0.2995656728744507,0.11665916442871094,0.8670676946640015
1683919021410717700,4.4337177734375,0.33390915393829346,-0.43978214263916016,0.8684186339378357
1683919021420757800,4.4437578125,0.31733667850494385,-0.5192680358886719,0.6038471460342407
1683919021430798000,4.453798095703125,0.23953568935394287,-0.4431304931640625,0.12828218936920166
1683919021440838100,4.463838134765625,0.14916503429412842,-0.3537130355834961,-0.2956998348236084
1683919021450878200,4.473878173828125,0.021546602249145508,-0.1258077621459961,-0.6827502250671387
1683919021460918300,4.483918212890625,-0.10931289196014404,-0.03260517120361328,-0.8097240924835205
1683919021470958300,4.493958251953125,-0.2532012462615967,-0.13967323303222656,-0.7116705179214478
1683919021480998700,4.50399853515625,-0.4098416566848755,-0.1876811981201172,-0.67731773853302
1683919021491038500,4.51403857421875,-0.5542984008789062,-0.3077526092529297,-0.6331630945205688
1683919021501078800,4.524078857421875,-0.6330535411834717,-0.4610919952392578,-0.5607312917709351
1683919021511118800,4.534118896484375,-0.6360236406326294,-0.6514415740966797,-0.43930816650390625
1683919021521159000,4.544158935546875,-0.5893605947494507,-0.9466419219970703,-0.2951664924621582
1683919021531199000,4.554198974609375,-0.5316115617752075,-0.5353250503540039,-0.6008173227310181
1683919021541239000,4.564239013671875,-0.4107182025909424,-0.14786243438720703,-0.7744302749633789
1683919021551279400,4.574279296875,-0.22548747062683105,-0.07079315185546875,-0.4668276309967041
1683919021561319400,4.5843193359375,-0.07293534278869629,-0.010504722595214844,-0.10432732105255127
1683919021571359500,4.594359375,0.024639248847961426,0.11208820343017578,-0.12707257270812988
1683919021581399600,4.604399658203125,0.12419378757476807,0.10539913177490234,-0.2045058012008667
1683919021591439600,4.614439697265625,0.2201460599899292,0.13707447052001953,-0.14569389820098877
1683919021601479700,4.624479736328125,0.2737630605697632,0.14279937744140625,-0.1095966100692749
1683919021611520000,4.63452001953125,0.3280283212661743,0.15595531463623047,-0.13604581356048584
1683919021621560000,4.64456005859375,0.37622392177581787,0.1835765838623047,-0.10520124435424805
1683919021631600000,4.65460009765625,0.41611647605895996,0.2042074203491211,-0.065451979637146
1683919021641640200,4.66464013671875,0.4550160765647888,0.22022247314453125,-0.05257391929626465
1683919021651680300,4.67468017578125,0.4838482141494751,0.2601585388183594,-0.03986942768096924
1683919021661720300,4.68472021484375,0.4930415153503418,0.25705432891845703,-0.02235591411590576
1683919021671760600,4.6947607421875,0.5254984498023987,0.21820354461669922,0.03575170040130615
1683919021681800700,4.70480078125,0.5111783742904663,0.13185501098632812,0.022092342376708984
1683919021691840800,4.7148408203125,0.4735231399536133,0.036459922790527344,0.05118227005004883
1683919021701880800,4.724880859375,0.40311020612716675,-0.058368682861328125,0.017570972442626953
1683919021711921000,4.7349208984375,0.3292895555496216,-0.20758914947509766,-0.05737018585205078
1683919021721961200,4.744961181640625,0.28160303831100464,-0.2463693618774414,-0.13309931755065918
1683919021732001300,4.755001220703125,0.2107093334197998,-0.27779388427734375,-0.2979320287704468
1683919021742041300,4.765041259765625,0.15778863430023193,-0.2446584701538086,-0.4177454710006714
1683919021752081400,4.775081298828125,0.12293052673339844,-0.2045297622680664,-0.5185333490371704
1683919021762121500,4.78512158203125,0.09403276443481445,-0.1551189422607422,-0.6165266036987305
1683919021772161500,4.79516162109375,0.04942882061004639,-0.05590057373046875,-0.6564429998397827
1683919021782201600,4.80520166015625,-0.006127119064331055,0.016534805297851562,-0.642910361289978
1683919021792242000,4.815241943359375,-0.07463431358337402,0.03111553192138672,-0.6044591665267944
1683919021802282000,4.825281982421875,-0.09134602546691895,-0.0024785995483398438,-0.46717023849487305
1683919021812322000,4.835322021484375,-0.10179281234741211,-0.04341411590576172,-0.3202246427536011
1683919021822362000,4.845362060546875,-0.09885871410369873,-0.050971031188964844,-0.1808915138244629
1683919021832402200,4.855402099609375,-0.08041226863861084,-0.04664897918701172,-0.12103557586669922
1683919021842442500,4.8654423828125,-0.04668569564819336,-0.03993415832519531,-0.0954737663269043
1683919021852482600,4.875482666015625,0.020984768867492676,-0.047455787658691406,-0.09479701519012451
1683919021862522600,4.885522705078125,0.09092438220977783,-0.009440422058105469,-0.14266765117645264
1683919021872562700,4.895562744140625,0.13426506519317627,-0.004817008972167969,-0.16238093376159668
1683919021882602800,4.905602783203125,0.15835332870483398,-0.000080108642578125,-0.12820708751678467
1683919021892642800,4.915642822265625,0.1679331660270691,-0.011790275573730469,-0.149338960647583
1683919021902683100,4.92568310546875,0.18449324369430542,0.021544456481933594,-0.12135028839111328
1683919021912723200,4.93572314453125,0.17508739233016968,-0.0020856857299804688,-0.09443438053131104
1683919021922763300,4.94576318359375,0.1494770050048828,0.03599357604980469,-0.11097323894500732
1683919021932803300,4.95580322265625,0.1592806577682495,0.045284271240234375,-0.09693419933319092
1683919021942843400,4.965843505859375,0.10950314998626709,0.06864643096923828,-0.09977519512176514
1683919021952883700,4.9758837890625,0.0622713565826416,0.09165573120117188,-0.07882165908813477
1683919021962923800,4.985923828125,0.0459141731262207,0.08363151550292969,-0.06707108020782471
1683919021972963800,4.9959638671875,0.029612183570861816,0.052140235900878906,-0.026824593544006348
1683919021983004000,5.00600390625,0.03957092761993408,0.016368865966796875,0.039073944091796875
1683919021993044000,5.0160439453125,0.06135141849517822,-0.025956153869628906,0.07830560207366943
1683919022003084000,5.026083984375,0.0945580005645752,-0.06529808044433594,0.07018518447875977
1683919022013124000,5.0361240234375,0.1505441665649414,-0.045113563537597656,0.06930601596832275
1683919022023164400,5.046164306640625,0.17681163549423218,-0.01345062255859375,0.004987478256225586
1683919022033204500,5.05620458984375,0.1971866488456726,-0.012895584106445312,-0.08380615711212158
1683919022043244500,5.06624462890625,0.18121272325515747,-0.007674217224121094,-0.163435697555542
1683919022053284600,5.07628466796875,0.1649523377418518,0.0209503173828125,-0.20344996452331543
1683919022063324700,5.08632470703125,0.11305725574493408,0.02311992645263672,-0.2584782838821411
1683919022073365000,5.096364990234375,0.06390106678009033,0.03456592559814453,-0.24817466735839844
1683919022083405000,5.106405029296875,0.02239084243774414,0.038608551025390625,-0.18063080310821533
1683919022093445000,5.116445068359375,-0.0185014009475708,-0.01639080047607422,-0.1253194808959961
1683919022103485200,5.126485107421875,-0.032711029052734375,-0.054085731506347656,-0.0469965934753418
1683919022113525200,5.136525146484375,-0.04632282257080078,-0.0676717758178711,-0.005196809768676758
1683919022123565600,5.146565673828125,-0.04018747806549072,-0.09050369262695312,0.07813239097595215
1683919022133605600,5.156605712890625,-0.01902592182159424,-0.10352706909179688,0.15233516693115234
1683919022143645700,5.166645751953125,-0.001889348030090332,-0.08798503875732422,0.20533573627471924
1683919022153685800,5.176685791015625,0.04884958267211914,-0.051387786865234375,0.19030416011810303
1683919022163725800,5.186725830078125,0.0755089521408081,-0.05289459228515625,0.1885589361190796
1683919022173766000,5.196765869140625,0.12737727165222168,-0.028285980224609375,0.12712609767913818
1683919022183806200,5.20680615234375,0.14482635259628296,0.012569427490234375,0.047327637672424316
1683919022193846300,5.21684619140625,0.1423540711402893,0.015193939208984375,-0.005365252494812012
1683919022203886300,5.22688623046875,0.09462130069732666,0.010732650756835938,-0.06635451316833496
1683919022213926400,5.236926513671875,0.04974651336669922,0.01569843292236328,-0.1305227279663086
1683919022223966500,5.246966552734375,-0.020038366317749023,0.015715599060058594,-0.1670471429824829
1683919022234006800,5.2570068359375,-0.03428852558135986,-0.0008993148803710938,-0.15758275985717773
1683919022244046800,5.267046875,-0.033893585205078125,-0.02918720245361328,-0.12161433696746826
1683919022254087000,5.2770869140625,-0.014469385147094727,-0.038288116455078125,-0.03867018222808838
1683919022264127000,5.287126953125,0.03098165988922119,-0.040264129638671875,0.010122537612915039
1683919022274167000,5.2971669921875,0.06206178665161133,0.004855155944824219,0.09084761142730713
1683919022284207400,5.307207275390625,0.10707473754882812,0.023346900939941406,0.09459471702575684
1683919022294247400,5.317247314453125,0.1205601692199707,0.03453254699707031,0.08156991004943848
1683919022304287500,5.32728759765625,0.13555258512496948,0.012701988220214844,0.040216803550720215
1683919022314327600,5.33732763671875,0.1541842222213745,-0.029817581176757812,0.0440831184387207
1683919022324367600,5.34736767578125,0.11070704460144043,-0.010323524475097656,0.0006585121154785156
1683919022334407700,5.35740771484375,0.08424770832061768,-0.03348064422607422,-0.0068711042404174805
1683919022344448000,5.367447998046875,0.07244253158569336,-0.0067577362060546875,0.01363372802734375
1683919022354488000,5.377488037109375,0.049263954162597656,-0.008685111999511719,0.031067728996276855
1683919022364528000,5.387528076171875,0.02661442756652832,-0.027036666870117188,0.01740431785583496
1683919022374568200,5.397568115234375,0.002135753631591797,-0.0003662109375,0.008657097816467285
1683919022384608300,5.407608154296875,-0.007588028907775879,-0.0024242401123046875,0.004804253578186035
1683919022394648600,5.417648681640625,-0.02148294448852539,-0.03277015686035156,-0.005902290344238281
1683919022404688600,5.427688720703125,-0.02774369716644287,-0.013257026672363281,0.0002951622009277344
1683919022414728700,5.437728759765625,-0.01945972442626953,-0.03888130187988281,-0.0004470348358154297
1683919022424768800,5.447768798828125,0.012359976768493652,-0.03586387634277344,-0.012830257415771484
1683919022434808800,5.457808837890625,0.03654289245605469,-0.04000568389892578,-0.03887498378753662
1683919022444849200,5.46784912109375,0.05090606212615967,-0.037036895751953125,-0.019640684127807617
1683919022454889200,5.47788916015625,0.0581592321395874,-0.03416156768798828,-0.05710160732269287
1683919022464929300,5.48792919921875,0.05851173400878906,-0.01253509521484375,-0.04215550422668457
1683919022474969300,5.49796923828125,0.05684185028076172,-0.017171859741210938,-0.020553946495056152
1683919022485009400,5.508009521484375,0.07883739471435547,-0.0005159378051757812,-0.016001462936401367
1683919022495049700,5.5180498046875,0.08390212059020996,-0.028825759887695312,-0.025818943977355957
1683919022505089800,5.52808984375,0.053223609924316406,-0.011860847473144531,-0.040354132652282715
1683919022515129900,5.5381298828125,0.041651248931884766,0.030750274658203125,-0.028768539428710938
1683919022525170000,5.548169921875,0.03247785568237305,0.08442306518554688,-0.014943718910217285
1683919022535210000,5.5582099609375,0.014108777046203613,0.08539295196533203,-0.003652811050415039
1683919022545250300,5.568250244140625,0.03850054740905762,0.0863485336303711,0.009732842445373535
1683919022555290400,5.578290283203125,0.07638025283813477,0.049625396728515625,0.03713560104370117
1683919022565330400,5.588330322265625,0.08967244625091553,0.022957801818847656,0.021828293800354004
1683919022575370500,5.59837060546875,0.0457158088684082,-0.010284423828125,0.009228706359863281
1683919022585410600,5.60841064453125,0.013807535171508789,-0.031195640563964844,-0.031171083450317383
1683919022595451000,5.618450927734375,-0.01541435718536377,-0.04001331329345703,-0.04003298282623291
1683919022605491000,5.628490966796875,-0.04864633083343506,-0.036998748779296875,-0.0342869758605957
1683919022615531000,5.638531005859375,-0.0714331865310669,-0.038817405700683594,-0.023843765258789062
1683919022625571000,5.648571044921875,-0.07686424255371094,-0.04063224792480469,-0.004317283630371094
1683919022635611100,5.658611083984375,-0.055806756019592285,-0.05890941619873047,-0.034787774085998535
1683919022645651500,5.6686513671875,-0.04651188850402832,-0.055672645568847656,-0.0227200984954834
1683919022655691500,5.67869140625,-0.00432276725769043,-0.0571441650390625,-0.046501755714416504
1683919022665731600,5.688731689453125,-0.00979471206665039,-0.03502655029296875,-0.04184377193450928
1683919022675771600,5.698771728515625,0.001262664794921875,0.0338287353515625,-0.011449217796325684
1683919022685811700,5.708811767578125,0.005059003829956055,0.06152057647705078,0.013702750205993652
1683919022695852000,5.71885205078125,0.017983436584472656,0.08641242980957031,0.012606501579284668
1683919022705892000,5.72889208984375,0.020907998085021973,0.08501529693603516,0.04458582401275635
1683919022715932200,5.73893212890625,0.03265261650085449,0.08132457733154297,0.06204652786254883
1683919022725972200,5.74897216796875,-0.0011115074157714844,0.018886566162109375,0.020486950874328613
1683919022736012300,5.75901220703125,-0.008753180503845215,-0.014240264892578125,0.01974344253540039
1683919022746052600,5.769052490234375,-0.025774836540222168,-0.03271770477294922,-0.009044766426086426
1683919022756092700,5.7790927734375,-0.04709804058074951,-0.022643089294433594,-0.004435300827026367
1683919022766132700,5.7891328125,-0.04900801181793213,-0.029249191284179688,0.009561419486999512
1683919022776172800,5.7991728515625,-0.055068016052246094,-0.021653175354003906,-0.014498472213745117
1683919022786212900,5.809212890625,-0.025439977645874023,-0.018896102905273438,-0.010049223899841309
1683919022796253200,5.819253173828125,-0.01982295513153076,0.004982948303222656,-0.003242015838623047
1683919022806293200,5.829293212890625,-0.014534711837768555,0.00959014892578125,-0.052686095237731934
1683919022816333300,5.839333251953125,0.0044291019439697266,-0.011790275573730469,-0.05861818790435791
1683919022826373400,5.849373291015625,-0.010128378868103027,-0.03987693786621094,-0.04312443733215332
1683919022836413400,5.859413330078125,0.010814785957336426,-0.046296119689941406,-0.046746015548706055
1683919022846453800,5.869453857421875,-0.015573978424072266,-0.04786205291748047,-0.031731367111206055
1683919022856493800,5.879493896484375,-0.0178605318069458,-0.04700469970703125,-0.024335145950317383
1683919022866534000,5.889533935546875,-0.024905800819396973,-0.029600143432617188,-0.024501323699951172
1683919022876574000,5.899573974609375,-0.01769232749938965,-0.014804840087890625,-0.041341185569763184
1683919022886614300,5.9096142578125,-0.02456533908843994,0.0044498443603515625,-0.06033957004547119
1683919022896654300,5.919654296875,-0.03122234344482422,0.05869007110595703,-0.029610276222229004
1683919022906694400,5.9296943359375,-0.018668770790100098,0.034293174743652344,-0.02521812915802002
1683919022916734500,5.939734375,-0.0086287260055542,0.02912139892578125,-0.023212432861328125
1683919022926774500,5.9497744140625,0.005969047546386719,0.026376724243164062,-0.014116048812866211
1683919022936814800,5.95981494140625,0.015596270561218262,-0.011631011962890625,-0.035785794258117676
1683919022946855000,5.96985498046875,0.013190865516662598,-0.01837158203125,-0.028931736946105957
1683919022956895000,5.97989501953125,0.00848233699798584,0.015008926391601562,-0.02920389175415039
1683919022966935000,5.98993505859375,-0.007904767990112305,0.03133869171142578,-0.048220157623291016
1683919022976975000,5.99997509765625,-0.00032591819763183594,0.012027740478515625,-0.06908714771270752
1683919022987015400,6.010015380859375,-0.0020924806594848633,0.023595809936523438,-0.06592833995819092
1683919022997055500,6.020055419921875,0.01266336441040039,0.034874916076660156,-0.024666786193847656
1683919023007095600,6.030095458984375,0.020022988319396973,-0.008233070373535156,-0.023771286010742188
1683919023017135600,6.040135498046875,0.05546903610229492,-0.0035696029663085938,0.017307281494140625
1683919023027176000,6.050176025390625,0.06188201904296875,-0.015438079833984375,0.017670035362243652
1683919023037216000,6.060216064453125,0.0845879316329956,-0.02471446990966797,0.04140913486480713
1683919023047256000,6.070256103515625,0.07364392280578613,-0.045500755310058594,-0.010948419570922852
1683919023057296100,6.080296142578125,0.06022322177886963,-0.011713981628417969,0.010312080383300781
1683919023067336200,6.090336181640625,0.046952009201049805,-0.006695747375488281,-0.03487598896026611
1683919023077376500,6.10037646484375,0.03640139102935791,0.002960205078125,-0.07006406784057617
1683919023087416600,6.11041650390625,0.014321088790893555,0.010112762451171875,-0.08593058586120605
1683919023097456600,6.12045654296875,0.013714194297790527,0.017160415649414062,-0.13215768337249756
1683919023107496700,6.13049658203125,0.01055455207824707,-0.006543159484863281,-0.1396726369857788
1683919023117536800,6.140536865234375,-0.006746649742126465,-0.004024505615234375,-0.12546443939208984
1683919023127577000,6.1505771484375,-0.02819085121154785,0.026613235473632812,-0.06882274150848389
1683919023137617200,6.1606171875,-0.029889941215515137,0.02838897705078125,-0.010584473609924316
1683919023147657200,6.1706572265625,-0.021787285804748535,0.008928298950195312,0.03243613243103027
1683919023157697300,6.180697265625,-0.008905410766601562,-0.007849693298339844,0.0228118896484375
1683919023167737600,6.190737548828125,0.012969970703125,-0.02191448211669922,0.027171730995178223
1683919023177777700,6.200777587890625,0.01766681671142578,-0.04509735107421875,0.017211556434631348
1683919023187817700,6.210817626953125,-0.005964994430541992,-0.032568931579589844,-0.01618218421936035
1683919023197857800,6.22085791015625,-0.00544130802154541,-0.013227462768554688,-0.02305889129638672
1683919023207897900,6.23089794921875,-0.023230314254760742,-0.010725975036621094,-0.0605473518371582
1683919023217938200,6.240938232421875,-0.0050199031829833984,-0.010716438293457031,-0.03829503059387207
1683919023227978200,6.250978271484375,0.02726447582244873,-0.013121604919433594,-0.011546015739440918
1683919023238018300,6.261018310546875,0.04714655876159668,0.000995635986328125,0.028926491737365723
1683919023248058400,6.271058349609375,0.04302656650543213,0.033763885498046875,0.07087862491607666
1683919023258098700,6.2810986328125,0.059905052185058594,0.0048828125,0.08112645149230957
1683919023268138800,6.291138671875,0.047994017601013184,0.04484081268310547,0.06973040103912354
1683919023278178800,6.3011787109375,0.04074573516845703,-0.000518798828125,0.08169317245483398
1683919023288219000,6.311218994140625,0.026267051696777344,-0.0026798248291015625,0.0650336742401123
1683919023298259000,6.321259033203125,0.004818916320800781,0.009355545043945312,0.017952442169189453
1683919023308299300,6.33129931640625,-0.016208648681640625,0.01174163818359375,0.03534507751464844
1683919023318339300,6.34133935546875,-0.010684728622436523,-0.02129364013671875,0.043207764625549316
1683919023328379400,6.35137939453125,-0.002643108367919922,-0.009093284606933594,0.029829740524291992
1683919023338419500,6.36141943359375,0.007629513740539551,-0.027713775634765625,0.026142120361328125
1683919023348459800,6.371459716796875,0.029268383979797363,-0.03893756866455078,-0.0033566951751708984
1683919023358499800,6.381499755859375,0.03394901752471924,-0.02172565460205078,-0.0181577205657959
1683919023368540000,6.391539794921875,0.02658259868621826,0.002288818359375,-0.06333720684051514
1683919023378580000,6.401580078125,0.017017602920532227,0.011767387390136719,-0.03945493698120117
1683919023388620000,6.4116201171875,0.005301475524902344,0.03518104553222656,-0.06290912628173828
1683919023398660400,6.421660400390625,0.007974505424499512,0.044028282165527344,-0.06926918029785156
1683919023408700400,6.431700439453125,0.010581135749816895,0.02206897735595703,-0.05167973041534424
1683919023418740500,6.441740478515625,0.027132391929626465,0.019269943237304688,-0.048206448554992676
1683919023428780500,6.451780517578125,0.007950067520141602,0.01885509490966797,-0.042266845703125
1683919023438820900,6.46182080078125,0.003100156784057617,0.009015083312988281,-0.062172889709472656
1683919023448861000,6.47186083984375,-0.027540206909179688,0.02987194061279297,-0.027234554290771484
1683919023458901000,6.48190087890625,-0.01755523681640625,0.0009059906005859375,-0.011583328247070312
1683919023468941000,6.491941162109375,-0.0030503273010253906,-0.008731842041015625,0.03907632827758789
1683919023478981400,6.5019814453125,-0.010183453559875488,-0.011096954345703125,0.03932452201843262
1683919023489021400,6.512021484375,0.0038472414016723633,-0.013353347778320312,0.05340838432312012
1683919023499061500,6.5220615234375,0.0033762454986572266,-0.036698341369628906,0.06703007221221924
1683919023509101600,6.5321015625,-0.006427168846130371,-0.028993606567382812,0.04948389530181885
1683919023519142000,6.542141845703125,-0.015990376472473145,-0.049635887145996094,0.036717772483825684
1683919023529182000,6.552181884765625,-0.0393826961517334,-0.03694438934326172,0.035691261291503906
1683919023539222000,6.562221923828125,-0.029228687286376953,-0.022127151489257812,0.01581120491027832
1683919023549262000,6.572261962890625,-0.0380856990814209,0.01599884033203125,0.00795900821685791
1683919023559302400,6.582302490234375,-0.02805197238922119,0.004092216491699219,-0.025810718536376953
1683919023569342500,6.592342529296875,-0.04408156871795654,-0.0005970001220703125,-0.05407857894897461
1683919023579382500,6.602382568359375,-0.03851914405822754,0.006516456604003906,-0.051111817359924316
1683919023589422600,6.612422607421875,-0.03286540508270264,0.027594566345214844,-0.04337787628173828
1683919023599462700,6.622462646484375,-0.027144193649291992,0.0011949539184570312,-0.00504612922668457
1683919023609503000,6.6325029296875,-0.00967264175415039,0.019944190979003906,0.009166598320007324
1683919023619543000,6.64254296875,-0.009174704551696777,0.0054454803466796875,0.07022404670715332
1683919023629583000,6.6525830078125,0.007627606391906738,-0.006415367126464844,0.05717957019805908
1683919023639623200,6.662623046875,0.012324094772338867,-0.008640289306640625,0.0325007438659668
1683919023649663500,6.67266357421875,0.0003508329391479492,-0.0013742446899414062,-0.0036760568618774414
1683919023659703600,6.68270361328125,0.01445162296295166,0.017543792724609375,-0.027465343475341797
1683919023669743600,6.69274365234375,0.0046956539154052734,0.0055027008056640625,-0.03648865222930908
1683919023679783700,6.70278369140625,0.020861387252807617,0.0030727386474609375,-0.061711907386779785
1683919023689824000,6.712823974609375,0.020220518112182617,-0.015822410583496094,-0.08634185791015625
1683919023699864000,6.722864013671875,0.026523590087890625,-0.024987220764160156,-0.056327223777770996
1683919023709904100,6.732904052734375,0.023208141326904297,-0.02222919464111328,-0.04793357849121094
1683919023719944200,6.742944091796875,0.005830883979797363,-0.014801979064941406,-0.027950286865234375
1683919023729984300,6.752984375,-0.011339187622070312,-0.005130767822265625,-0.0036121606826782227
1683919023740024600,6.763024658203125,-0.02102041244506836,0.016160964965820312,0.0036885738372802734
1683919023750064600,6.773064697265625,-0.011610746383666992,0.00177764892578125,0.022629141807556152
1683919023760104700,6.783104736328125,-0.009302139282226562,0.018228530883789062,0.02475106716156006
1683919023770144800,6.793144775390625,-0.0046395063400268555,0.017912864685058594,0.045719265937805176
1683919023780185000,6.80318505859375,0.014120340347290039,0.0034618377685546875,0.000461578369140625
1683919023790225200,6.81322509765625,0.03477358818054199,-0.03193092346191406,0.007828831672668457
1683919023800265200,6.82326513671875,0.03854537010192871,-0.05262565612792969,-0.013062119483947754
1683919023810305500,6.833305419921875,0.04223775863647461,-0.06592082977294922,-0.028843164443969727
1683919023820345600,6.843345703125,0.01765894889831543,-0.017789840698242188,-0.01846897602081299
1683919023830385700,6.8533857421875,0.007713794708251953,0.001277923583984375,0.012916326522827148
1683919023840425700,6.86342578125,-0.011309623718261719,0.01767444610595703,0.034246206283569336
1683919023850466000,6.873466064453125,-0.01351165771484375,0.033814430236816406,0.0410006046295166
1683919023860506000,6.883506103515625,-0.017970919609069824,0.023807525634765625,0.040441155433654785
1683919023870546200,6.893546142578125,-0.01287841796875,0.013976097106933594,0.04922688007354736
1683919023880586200,6.903586181640625,0.001559615135192871,-0.014532089233398438,0.04141414165496826
1683919023890626300,6.913626220703125,0.011106610298156738,-0.02139568328857422,0.03378927707672119
1683919023900666600,6.92366650390625,0.02764761447906494,-0.028128623962402344,0.04969775676727295
1683919023910706700,6.933706787109375,0.022758126258850098,0.0052928924560546875,0.041663289070129395
1683919023920746800,6.943746826171875,0.043857574462890625,0.0075740814208984375,0.03128612041473389
1683919023930786800,6.953786865234375,0.05977058410644531,0.016915321350097656,0.018619656562805176
1683919023940827100,6.9638271484375,0.046890974044799805,0.004960060119628906,-0.03392207622528076
1683919023950867200,6.9738671875,0.027034282684326172,-0.011473655700683594,-0.05271410942077637
1683919023960907300,6.9839072265625,0.02414393424987793,-0.018245697021484375,-0.04288899898529053
1683919023970947300,6.993947265625,0.0026134252548217773,-0.020235061645507812,-0.08490169048309326
1683919023980987600,7.003987548828125,0.028511881828308105,-0.0033960342407226562,-0.06009316444396973
1683919023991027700,7.01402783203125,0.02314627170562744,0.010784149169921875,-0.05191302299499512
1683919024001067800,7.02406787109375,-0.0033506155014038086,0.005818367004394531,-0.0457991361618042
1683919024011107800,7.03410791015625,0.008343815803527832,-0.008549690246582031,-0.013582468032836914
1683919024021148200,7.044148193359375,-0.022331953048706055,0.0008077621459960938,0.046517252922058105
1683919024031188200,7.054188232421875,-0.012239217758178711,0.019418716430664062,0.06313490867614746
1683919024041228300,7.064228271484375,-0.006800532341003418,-0.009357452392578125,0.07457780838012695
1683919024051268600,7.0742685546875,0.019850492477416992,-0.023507118225097656,0.06917786598205566
1683919024061308700,7.08430859375,0.02952897548675537,-0.03266716003417969,0.04011201858520508
1683919024071348700,7.0943486328125,0.03189527988433838,-0.02043628692626953,0.023097753524780273
1683919024081388800,7.104388916015625,0.046042680740356445,0.008104324340820312,0.008503437042236328
1683919024091429000,7.11442919921875,0.019869565963745117,0.015002250671386719,0.0058553218841552734
1683919024101469200,7.12446923828125,0.012815237045288086,0.03829669952392578,0.014950871467590332
1683919024111509200,7.13450927734375,0.005661725997924805,0.02357769012451172,0.021452903747558594
1683919024121549300,7.14454931640625,0.0008471012115478516,0.0185394287109375,0.03960740566253662
1683919024131589600,7.154589599609375,-0.008708000183105469,0.013611793518066406,0.04796147346496582
1683919024141629700,7.164629638671875,-0.02050185203552246,-0.04069232940673828,0.02806854248046875
1683919024151669800,7.174669677734375,-0.01320505142211914,-0.0423126220703125,0.020312070846557617
1683919024161709800,7.184709716796875,-0.017435908317565918,-0.043961524963378906,-0.0037268400192260742
1683919024171750100,7.194750244140625,-0.007185697555541992,-0.04093456268310547,-0.02722609043121338
1683919024181790200,7.204790283203125,-0.013495206832885742,-0.0073833465576171875,-0.038468241691589355
1683919024191830300,7.214830322265625,0.0014194250106811523,0.016188621520996094,-0.028270721435546875
1683919024201870300,7.224870361328125,0.016074657440185547,0.020524024963378906,-0.022887110710144043
1683919024211910700,7.23491064453125,0.018610239028930664,0.017746925354003906,-0.012949347496032715
1683919024221950700,7.24495068359375,0.02112555503845215,0.015006065368652344,-0.017258167266845703
1683919024231990800,7.25499072265625,0.007278561592102051,-0.001827239990234375,-0.030939579010009766
1683919024242030800,7.26503076171875,0.012575507164001465,0.00044536590576171875,-0.0467606782913208
1683919024252071200,7.2750712890625,0.01548779010772705,0.009725570678710938,-0.010468602180480957
1683919024262111200,7.285111328125,0.011256098747253418,0.016473770141601562,-0.0052498579025268555
1683919024272151300,7.2951513671875,0.0164567232131958,0.0042667388916015625,0.021161437034606934
1683919024282191600,7.305191650390625,0.02398538589477539,-0.0030546188354492188,0.04957878589630127
1683919024292231700,7.315231689453125,0.012532949447631836,0.010933876037597656,0.025743842124938965
1683919024302271700,7.325271728515625,0.019978642463684082,-0.012941360473632812,0.02103137969970703
1683919024312311800,7.335311767578125,0.0010831356048583984,-0.015208244323730469,0.02353823184967041
1683919024322352000,7.34535205078125,-0.010448694229125977,-0.04097270965576172,0.054226040840148926
1683919024332392200,7.35539208984375,-0.04025673866271973,-0.040401458740234375,0.08176982402801514
1683919024342432300,7.365432373046875,-0.05256199836730957,-0.011590003967285156,0.08733725547790527
1683919024352472300,7.375472412109375,-0.017350435256958008,-0.02792072296142578,0.07819092273712158
1683919024362512600,7.3855126953125,-0.006328582763671875,-0.029786109924316406,0.0547490119934082
1683919024372552700,7.395552734375,0.006608247756958008,-0.0127105712890625,0.036154747009277344
1683919024382592800,7.4055927734375,0.02134847640991211,0.013527870178222656,0.029691696166992188
1683919024392632800,7.4156328125,-0.004474639892578125,0.011096954345703125,-0.007168889045715332
1683919024402673200,7.425673095703125,-0.006434440612792969,0.006329536437988281,-0.03616821765899658
1683919024412713200,7.435713134765625,-0.024752020835876465,0.008632659912109375,-0.019633769989013672
1683919024422753300,7.445753173828125,-0.03796720504760742,0.03204631805419922,-0.04795694351196289
1683919024432793600,7.455793701171875,-0.02741694450378418,0.015030860900878906,-0.06159043312072754
1683919024442833700,7.465833740234375,0.004043936729431152,0.0100555419921875,-0.08662450313568115
1683919024452873700,7.475873779296875,0.004339814186096191,0.0074901580810546875,-0.12285315990447998
1683919024462913800,7.485913818359375,0.007071971893310547,-0.004490852355957031,-0.12769854068756104
1683919024472954000,7.4959541015625,0.009925365447998047,0.02132129669189453,-0.10864460468292236
1683919024482994200,7.505994140625,0.005756378173828125,0.025504112243652344,-0.07578110694885254
1683919024493034200,7.5160341796875,0.020512104034423828,0.017812728881835938,-0.08332765102386475
1683919024503074300,7.52607421875,0.020531773567199707,0.014936447143554688,-0.05745279788970947
1683919024513114600,7.536114501953125,0.032129883766174316,0.014455795288085938,-0.02007448673248291
1683919024523154700,7.54615478515625,0.02220940589904785,0.0163421630859375,0.0073354244232177734
1683919024533194800,7.55619482421875,0.017102479934692383,-0.019458770751953125,0.01306617259979248
1683919024543234800,7.56623486328125,0.026337742805480957,-0.007567405700683594,0.020914316177368164
1683919024553275100,7.576275146484375,0.016756057739257812,-0.007626533508300781,0.01429903507232666
1683919024563315200,7.586315185546875,0.009630441665649414,-0.009997367858886719,-0.0017957687377929688
1683919024573355300,7.596355224609375,0.023696422576904297,0.001796722412109375,-0.015210270881652832
1683919024583395600,7.6063955078125,-0.002677321434020996,0.02282238006591797,-0.00950312614440918
1683919024593435600,7.616435546875,-0.0002568960189819336,-0.0012464523315429688,-0.02742624282836914
1683919024603475700,7.626475830078125,0.011737346649169922,-0.008473396301269531,0.00211179256439209
1683919024613515800,7.636515869140625,0.014301180839538574,-0.0014715194702148438,0.019356846809387207
1683919024623556000,7.64655615234375,0.030925393104553223,-0.0016269683837890625,0.019733548164367676
1683919024633596200,7.65659619140625,0.037729501724243164,0.010037422180175781,0.02935481071472168
1683919024643636200,7.66663623046875,-0.00276792049407959,0.012148857116699219,0.0009112358093261719
1683919024653676300,7.67667626953125,-0.007359623908996582,0.035437583923339844,-0.0059490203857421875
1683919024663716600,7.686716552734375,-0.028444886207580566,0.025353431701660156,-0.04310572147369385
1683919024673756700,7.696756591796875,-0.018538713455200195,0.027202606201171875,-0.03019106388092041
1683919024683796700,7.706796630859375,-0.03936445713043213,0.017223358154296875,-0.012677311897277832
1683919024693837000,7.716837158203125,-0.029247641563415527,-0.01618194580078125,-0.02814185619354248
1683919024703877000,7.726877197265625,-0.0075615644454956055,-0.037291526794433594,-0.024321556091308594
1683919024713917200,7.736917236328125,-0.005059719085693359,-0.02981281280517578,-0.032285094261169434
1683919024723957500,7.74695751953125,-0.009560465812683105,-0.043663978576660156,-0.00712740421295166
1683919024733997600,7.75699755859375,0.0002987384796142578,-0.019631385803222656,0.0034581422805786133
1683919024744037600,7.76703759765625,-0.018245697021484375,-0.014822959899902344,0.011448502540588379
1683919024754077700,7.77707763671875,-0.013006091117858887,0.022866249084472656,0.021701693534851074
1683919024764118000,7.787117919921875,-0.0032007694244384766,-0.0012712478637695312,0.010573506355285645
1683919024774158000,7.797157958984375,0.00404202938079834,-0.0014324188232421875,0.008902549743652344
1683919024784198100,7.8071982421875,-0.009977102279663086,-0.006317138671875,0.02144920825958252
1683919024794238200,7.81723828125,0.004567503929138184,0.012414932250976562,0.017293453216552734
1683919024804278500,7.827278564453125,0.004766702651977539,0.012022972106933594,0.0083695650100708
1683919024814318600,7.837318603515625,0.011852264404296875,0.014036178588867188,0.011250019073486328
1683919024824358700,7.847358642578125,0.011652946472167969,0.016017913818359375,-0.02588820457458496
1683919024834399000,7.85739892578125,0.00430142879486084,0.020345687866210938,-0.0201033353805542
1683919024844439000,7.86743896484375,-0.0005513429641723633,-0.008356094360351562,-0.007366299629211426
1683919024854479000,7.87747900390625,0.00645899772644043,0.010471343994140625,-0.008801102638244629
1683919024864519200,7.887519287109375,0.01110219955444336,0.0030508041381835938,-0.024214982986450195
1683919024874559500,7.8975595703125,0.001761794090270996,-0.01605510711669922,-0.022827982902526855
1683919024884599600,7.907599609375,0.0043942928314208984,-0.008955955505371094,-0.02616572380065918
1683919024894639600,7.9176396484375,0.016364336013793945,-0.018468856811523438,-0.010512709617614746
1683919024904680000,7.927679931640625,0.023379921913146973,-0.004296302795410156,0.01440417766571045
1683919024914720000,7.937719970703125,0.01385509967803955,0.016702651977539062,0.0012038946151733398
1683919024924760000,7.947760009765625,0.016236186027526855,0.018524169921875,0.04234898090362549
1683919024934800100,7.957800048828125,0.013845086097717285,0.018034934997558594,0.09421300888061523
1683919024944840400,7.96784033203125,0.01369774341583252,0.036454200744628906,0.06021714210510254
1683919024954880500,7.977880615234375,0.008625626564025879,0.026365280151367188,0.04785358905792236
1683919024964920600,7.987920654296875,-0.003562331199645996,0.014072418212890625,0.045299410820007324
1683919024974961000,7.9979609375,-0.008518218994140625,-0.005068778991699219,0.054522156715393066
1683919024985001000,8.0080009765625,-0.010966897010803223,-0.021595001220703125,0.03559911251068115
1683919024995041000,8.018041015625,-0.0013974905014038086,-0.021398544311523438,0.03350722789764404
1683919025005081000,8.0280810546875,0.015129685401916504,-0.03531169891357422,0.03603160381317139
1683919025015121400,8.038121337890624,0.012555718421936035,-0.027769088745117188,0.043030381202697754
1683919025025161500,8.048161376953125,0.01923370361328125,-0.03913402557373047,0.03801262378692627
1683919025035201500,8.058201416015624,0.0020630359649658203,-0.02908039093017578,0.021206259727478027
1683919025045241900,8.068241943359375,0.0039098262786865234,-0.0026845932006835938,0.014009594917297363
1683919025055282000,8.078281982421874,-0.02239823341369629,0.0020580291748046875,-0.00007915496826171875
1683919025065322000,8.088322021484375,-0.02916872501373291,0.00908660888671875,0.0023299455642700195
1683919025075362300,8.0983623046875,-0.009826302528381348,0.0018463134765625,0.01888859272003174
1683919025085402400,8.10840234375,-0.018987655639648438,-0.010022163391113281,0.030628681182861328
1683919025095442400,8.1184423828125,-0.006775021553039551,0.004202842712402344,0.03979790210723877
1683919025105482500,8.128482421875,0.007391452789306641,0.01116943359375,0.02754807472229004
1683919025115522800,8.138522705078126,0.00008761882781982422,-0.010213851928710938,0.031917452812194824
1683919025125563000,8.14856298828125,-0.009402275085449219,-0.014744758605957031,0.047876715660095215
1683919025135603000,8.15860302734375,-0.02339613437652588,0.00435638427734375,0.044628143310546875
1683919025145643300,8.168643310546875,-0.011316537857055664,0.02549457550048828,0.013218283653259277
1683919025155683300,8.178683349609376,-0.020750761032104492,0.010951042175292969,0.015447378158569336
1683919025165723400,8.188723388671875,-0.013661980628967285,-0.00099945068359375,-0.005810141563415527
1683919025175763700,8.198763671875,-0.006598234176635742,-0.0010166168212890625,0.011082887649536133
1683919025185803800,8.2088037109375,0.01218712329864502,-0.00341796875,0.03486514091491699
1683919025195843800,8.21884375,0.01643061637878418,-0.012826919555664062,0.04411876201629639
1683919025205884000,8.2288837890625,0.0156404972076416,-0.024353981018066406,0.0341336727142334
1683919025215924200,8.23892431640625,0.01949024200439453,-0.005047798156738281,0.043012380599975586
1683919025225964300,8.24896435546875,-0.009855508804321289,-0.018990516662597656,-0.007169365882873535
1683919025236004400,8.25900439453125,-0.015112757682800293,-0.013895034790039062,-0.030503511428833008
1683919025246044700,8.269044677734374,-0.06243884563446045,-0.0018854141235351562,-0.020310282707214355
1683919025256084700,8.279084716796875,-0.03788948059082031,0.012201309204101562,-0.014879941940307617
1683919025266124800,8.289124755859374,-0.04392683506011963,-0.004630088806152344,0.01884603500366211
1683919025276165000,8.2991650390625,0.02072882652282715,-0.023512840270996094,0.037790536880493164
1683919025286205200,8.309205078125,0.032308220863342285,-0.013774871826171875,0.042142271995544434
1683919025296245200,8.319245361328125,0.033921241760253906,0.00293731689453125,0.03213047981262207
1683919025306285300,8.329285400390624,0.035392165184020996,-0.011185646057128906,0.010341644287109375
1683919025316325600,8.33932568359375,0.03446030616760254,-0.00386810302734375,-0.01822507381439209
1683919025326365700,8.34936572265625,0.0499417781829834,-0.0013790130615234375,-0.05334162712097168
1683919025336405800,8.35940576171875,0.03453683853149414,0.0057735443115234375,-0.05487716197967529
1683919025346446000,8.369446044921874,0.03811800479888916,-0.008365631103515625,-0.04697740077972412
1683919025356486100,8.379486083984375,0.017935991287231445,-0.008134841918945312,-0.05328357219696045
1683919025366526200,8.389526123046876,-0.008994698524475098,-0.014992713928222656,-0.026396989822387695
1683919025376566500,8.39956640625,-0.011806607246398926,0.011178016662597656,0.004892706871032715
1683919025386606600,8.409606689453126,-0.00970005989074707,-0.000782012939453125,0.009805917739868164
1683919025396646700,8.419646728515625,-0.019351840019226074,-0.005458831787109375,0.005089402198791504
1683919025406687000,8.42968701171875,-0.009905099868774414,-0.01712512969970703,-0.016078948974609375
1683919025416727000,8.43972705078125,-0.00288999080657959,0.002025604248046875,-0.0134812593460083
1683919025426767000,8.44976708984375,0.001825094223022461,-0.028585433959960938,-0.020435690879821777
1683919025436807200,8.45980712890625,0.02072310447692871,-0.021015167236328125,-0.034442782402038574
1683919025446847500,8.469847412109376,0.0134657621383667,-0.0017995834350585938,-0.05295920372009277
1683919025456887600,8.479887451171875,0.027517318725585938,0.017107009887695312,-0.061807990074157715
1683919025466927600,8.489927734375,0.024671196937561035,0.0003948211669921875,-0.07044470310211182
1683919025476968000,8.499968017578125,0.035858750343322754,-0.004279136657714844,-0.07643115520477295
1683919025487008000,8.510008056640626,0.020928382873535156,0.007575035095214844,-0.04684579372406006
1683919025497048000,8.520048095703125,0.0016649961471557617,0.014522552490234375,-0.024880647659301758
1683919025507088400,8.53008837890625,0.008791685104370117,0.000133514404296875,0.01560962200164795
1683919025517128400,8.54012841796875,0.01591479778289795,0.0024623870849609375,0.02005457878112793
1683919025527168500,8.55016845703125,0.03463256359100342,0.00008392333984375,0.033669233322143555
1683919025537208600,8.56020849609375,0.01784050464630127,0.011868476867675781,0.006978273391723633
1683919025547249000,8.570248779296875,0.027339696884155273,0.02346324920654297,0.04653441905975342
1683919025557289000,8.5802890625,0.003745555877685547,0.011328697204589844,0.007705807685852051
1683919025567329300,8.590329345703125,0.01823580265045166,0.015878677368164062,-0.021095991134643555
1683919025577369300,8.600369384765624,0.02766251564025879,-0.00554656982421875,0.0024667978286743164
1683919025587409400,8.610409423828125,0.02055656909942627,0.001621246337890625,0.016226887702941895
1683919025597449500,8.620449462890624,0.03238999843597412,-0.010134696960449219,-0.012760639190673828
1683919025607489800,8.63048974609375,0.027625322341918945,-0.009912490844726562,-0.008411884307861328
1683919025617529900,8.64052978515625,0.027485251426696777,-0.007312774658203125,-0.023010730743408203
1683919025627570000,8.65056982421875,0.03666996955871582,-0.0071125030517578125,-0.049070000648498535
1683919025637610200,8.6606103515625,0.019759178161621094,-0.006896018981933594,-0.055925846099853516
1683919025647650300,8.670650390625,0.005554914474487305,0.01918792724609375,-0.053165555000305176
1683919025657690400,8.6806904296875,0.0057604312896728516,0.044811248779296875,-0.0221022367477417
1683919025667730700,8.690730712890625,0.02717411518096924,0.004082679748535156,-0.03155708312988281
1683919025677770800,8.700770751953126,0.019854187965393066,-0.02419281005859375,-0.033727407455444336
1683919025687810800,8.710810791015625,0.012630939483642578,-0.03787994384765625,-0.03109300136566162
1683919025697851100,8.72085107421875,-0.017890453338623047,-0.020769119262695312,-0.004863381385803223
1683919025707891200,8.73089111328125,-0.019321441650390625,0.012487411499023438,0.0021486282348632812
1683919025717931300,8.74093115234375,-0.03474998474121094,-0.0042514801025390625,0.013701319694519043
1683919025727971300,8.750971435546875,-0.01681065559387207,0.009886741638183594,0.02734839916229248
1683919025738011600,8.76101171875,-0.020470499992370605,0.03088665008544922,0.059497714042663574
1683919025748051700,8.7710517578125,-0.0006296634674072266,0.009211540222167969,0.07913720607757568
1683919025758092000,8.781092041015626,0.021107912063598633,-0.009709358215332031,0.05596578121185303
1683919025768132000,8.791132080078125,0.018779635429382324,-0.030638694763183594,0.018990755081176758
1683919025778172200,8.801172119140626,0.009403347969055176,-0.03002452850341797,-0.029159903526306152
1683919025788212200,8.811212158203125,0.0027996301651000977,-0.0365142822265625,-0.034130096435546875
1683919025798252500,8.82125244140625,0.010647058486938477,-0.021758079528808594,-0.045969605445861816
1683919025808292600,8.831292724609375,0.00422358512878418,-0.0025463104248046875,-0.019892334938049316
1683919025818333000,8.8413330078125,0.026053667068481445,0.01634693145751953,-0.010678529739379883
1683919025828373000,8.851373046875,0.0119781494140625,0.025528907775878906,0.010187745094299316
1683919025838413000,8.8614130859375,0.009657144546508789,0.029870986938476562,0.03310859203338623
1683919025848453000,8.871453125,0.011993765830993652,0.04118061065673828,0.036984801292419434
1683919025858493400,8.881493408203125,-0.013946056365966797,0.024033546447753906,0.06913197040557861
1683919025868533500,8.891533447265624,-0.008767247200012207,-0.002246856689453125,0.05597662925720215
1683919025878573600,8.901573486328125,-0.020027995109558105,-0.023395538330078125,0.03361690044403076
1683919025888614000,8.91161376953125,-0.014404535293579102,-0.011219024658203125,0.05615890026092529
1683919025898654000,8.921654052734375,-0.02053070068359375,-0.027487754821777344,0.035834312438964844
1683919025908694000,8.931694091796874,-0.02412998676300049,-0.0034570693969726562,-0.0124894380569458
1683919025918734300,8.941734375,-0.02051365375518799,0.024845123291015625,-0.03398251533508301
1683919025928774400,8.9517744140625,0.001955747604370117,0.04326438903808594,-0.024584531784057617
1683919025938814500,8.961814453125,0.021521568298339844,0.007233619689941406,-0.022325515747070312
1683919025948854800,8.971854736328124,0.042734384536743164,0.0024137496948242188,-0.026950359344482422
1683919025958894800,8.981894775390625,0.02552330493927002,-0.021154403686523438,0.018170595169067383
1683919025968935000,8.991934814453124,0.0059348344802856445,-0.018410682678222656,0.04848587512969971
1683919025978975200,9.001975341796875,-0.01791834831237793,-0.02985858917236328,0.05714285373687744
1683919025989015300,9.012015380859374,-0.04099118709564209,-0.010532379150390625,0.07494854927062988
1683919025999055400,9.022055419921875,-0.02322828769683838,-0.010370254516601562,0.07809996604919434
1683919026009095700,9.032095703125,-0.02223658561706543,0.003955841064453125,0.05979287624359131
1683919026019135700,9.0421357421875,-0.014586448669433594,-0.0007343292236328125,0.02290499210357666
1683919026029175800,9.05217578125,-0.009739279747009277,0.004073143005371094,-0.05319571495056152
1683919026039216000,9.062216064453125,-0.019111275672912598,0.00638580322265625,-0.06414711475372314
1683919026049256200,9.072256103515626,-0.02333521842956543,0.0062084197998046875,-0.041623711585998535
1683919026059296300,9.082296142578125,-0.022532224655151367,-0.005772590637207031,-0.02179872989654541
1683919026069336600,9.092336669921876,-0.005174517631530762,-0.0010862350463867188,0.037718892097473145
1683919026079376600,9.102376708984375,0.002395153045654297,-0.029367446899414062,0.05591404438018799
1683919026089416700,9.112416748046876,0.0003199577331542969,-0.040657997131347656,0.03363966941833496
1683919026099457000,9.12245703125,-0.013593792915344238,-0.011697769165039062,0.04455065727233887
1683919026109497000,9.1324970703125,-0.031913042068481445,-0.00203704833984375,0.019822120666503906
1683919026119537200,9.142537109375,0.0019829273223876953,0.0027561187744140625,0.0024880170822143555
1683919026129577500,9.152577392578126,0.00960397720336914,0.014483451843261719,-0.023830771446228027
1683919026139617500,9.162617431640625,0.021726489067077637,0.023622512817382812,-0.02121603488922119
1683919026149657600,9.17265771484375,0.023988842964172363,0.0019884109497070312,-0.0443035364151001
1683919026159698000,9.182697998046875,0.0305405855178833,0.02310657501220703,-0.0550764799118042
1683919026169738000,9.192738037109375,0.003849506378173828,0.020303726196289062,0.0028548240661621094
1683919026179778000,9.202778076171874,-0.005964159965515137,0.029313087463378906,0.01749551296234131
1683919026189818400,9.212818359375,-0.022594571113586426,0.0005140304565429688,0.06475663185119629
1683919026199858400,9.2228583984375,-0.0341111421585083,-0.011311531066894531,0.10402297973632812
1683919026209898500,9.2328984375,-0.03592348098754883,-0.022897720336914062,0.09996283054351807
1683919026219938800,9.242938720703124,-0.025885820388793945,-0.020122528076171875,0.07453656196594238
1683919026229979000,9.252978759765625,-0.027577638626098633,-0.010325431823730469,0.035250306129455566
1683919026240019000,9.26301904296875,-0.01742374897003174,-0.0030431747436523438,-0.012848615646362305
1683919026250059300,9.273059326171875,0.011359095573425293,-0.012364387512207031,-0.05303966999053955
1683919026260099300,9.283099365234374,0.01130521297454834,-0.005053520202636719,-0.07130002975463867
1683919026270139600,9.2931396484375,0.013590574264526367,0.018596649169921875,-0.09150063991546631
1683919026280179700,9.3031796875,0.022884488105773926,-0.007625579833984375,-0.05934751033782959
1683919026290219800,9.3132197265625,0.02012181282043457,-0.024000167846679688,-0.05116260051727295
1683919026300259800,9.323259765625,0.005621075630187988,-0.02361583709716797,-0.010183334350585938
1683919026310300200,9.333300048828125,-0.008591532707214355,-0.0067653656005859375,0.011286258697509766
1683919026320340200,9.34334033203125,-0.02482616901397705,0.023941993713378906,0.03462862968444824
1683919026330380300,9.35338037109375,-0.02652299404144287,0.004703521728515625,0.05040264129638672
1683919026340420600,9.363420654296876,-0.02336585521697998,0.014049530029296875,0.02340078353881836
1683919026350460700,9.373460693359375,0.0034093856811523438,0.02558135986328125,-0.0055348873138427734
1683919026360501000,9.3835009765625,0.0250321626663208,0.025156021118164062,0.0107191801071167
1683919026370541000,9.393541015625,0.02498304843902588,0.01768207550048828,-0.022693634033203125
1683919026380581000,9.4035810546875,0.020100116729736328,0.0079803466796875,-0.01781773567199707
1683919026390621400,9.413621337890625,0.04106593132019043,0.01961803436279297,-0.04348301887512207
1683919026400661500,9.42366162109375,0.03336966037750244,-0.01601409912109375,-0.04283714294433594
1683919026410701600,9.43370166015625,0.020926952362060547,-0.011004447937011719,-0.04693019390106201
1683919026420742000,9.443741943359376,0.006217837333679199,-0.00373077392578125,-0.04849839210510254
1683919026430782000,9.453781982421875,-0.0011725425720214844,-0.008371353149414062,-0.021681666374206543
1683919026440822000,9.463822021484376,-0.027062654495239258,0.0176239013671875,0.0024405717849731445
1683919026450862300,9.4738623046875,-0.028766751289367676,0.005486488342285156,0.03560435771942139
1683919026460902400,9.48390234375,0.002624988555908203,0.014734268188476562,0.04934394359588623
1683919026470942500,9.4939423828125,0.009989261627197266,-0.023248672485351562,0.041600704193115234
1683919026480982800,9.503982666015625,0.014876842498779297,-0.022909164428710938,0.012683868408203125
1683919026491022800,9.51402294921875,0.031349897384643555,-0.029623985290527344,-0.008695840835571289
1683919026501063000,9.52406298828125,0.026185274124145508,-0.022073745727539062,-0.04387938976287842
1683919026511103200,9.534103271484375,0.02809619903564453,-0.0075855255126953125,-0.05252861976623535
1683919026521143300,9.544143310546875,0.013447046279907227,0.020789146423339844,-0.051601409912109375
1683919026531183400,9.554183349609374,-0.0008780956268310547,0.048659324645996094,-0.04352593421936035
1683919026541223700,9.5642236328125,-0.01733875274658203,0.033682823181152344,-0.01670229434967041
1683919026551263700,9.574263671875,0.0015971660614013672,0.007170677185058594,0.016936540603637695
1683919026561304000,9.584303955078125,-0.019848108291625977,-0.009471893310546875,0.0076094865798950195
1683919026571344100,9.59434423828125,-0.007988333702087402,-0.021106719970703125,0.00539243221282959
1683919026581384200,9.60438427734375,-0.00793766975402832,-0.04668712615966797,0.005538463592529297
1683919026591424500,9.614424560546874,-0.0098189115524292,-0.04832935333251953,0.024408698081970215
1683919026601464600,9.624464599609375,-0.0065146684646606445,-0.0334625244140625,0.04267096519470215
1683919026611504600,9.634504638671874,0.015851616859436035,-0.03295612335205078,0.039197683334350586
1683919026621545000,9.644544921875,0.03554642200469971,-0.015947341918945312,0.028511643409729004
1683919026631585000,9.6545849609375,0.06878316402435303,0.010251998901367188,0.010804533958435059
1683919026641625000,9.664625,0.03996872901916504,0.019605636596679688,-0.01148843765258789
1683919026651665400,9.67466552734375,0.053606629371643066,0.00531005859375,-0.02634727954864502
1683919026661705500,9.68470556640625,0.02922379970550537,0.038306236267089844,-0.03836679458618164
1683919026671745800,9.694745849609374,-0.0087738037109375,0.02122211456298828,-0.03094184398651123
1683919026681785900,9.704785888671875,-0.03407895565032959,0.009062767028808594,0.004782199859619141
1683919026691826000,9.714825927734376,-0.01153254508972168,0.00176239013671875,0.009364128112792969
1683919026701866200,9.7248662109375,-0.01264941692352295,-0.01720142364501953,0.04437994956970215
1683919026711906300,9.73490625,-0.020714640617370605,-0.019369125366210938,0.05285012722015381
1683919026721946400,9.7449462890625,0.027791261672973633,-0.02617168426513672,0.08221423625946045
1683919026731986700,9.754986572265626,0.03295421600341797,-0.025740623474121094,0.03084409236907959
1683919026742026800,9.76502685546875,0.035537123680114746,-0.015868186950683594,0.0061473846435546875
1683919026752066800,9.77506689453125,0.03085005283355713,0.01739978790283203,-0.036956191062927246
1683919026762107100,9.785107177734375,0.03323018550872803,0.019506454467773438,-0.04633128643035889
1683919026772147200,9.795147216796876,0.04020535945892334,0.03804779052734375,-0.07191991806030273
1683919026782187300,9.805187255859375,0.04235351085662842,0.035063743591308594,-0.01690196990966797
1683919026792227600,9.8152275390625,0.03956007957458496,-0.0031528472900390625,-0.012260198593139648
1683919026802267600,9.825267578125,0.041315674781799316,0.034621238708496094,-0.01709139347076416
1683919026812308000,9.835307861328126,0.0169069766998291,-0.0035448074340820312,-0.021799683570861816
1683919026822348000,9.84534814453125,-0.009583830833435059,0.01774120330810547,-0.040274739265441895
1683919026832388000,9.85538818359375,-0.026351332664489746,0.0033121109008789062,-0.022791385650634766
1683919026842428400,9.865428466796875,-0.042595624923706055,0.0008144378662109375,-0.019466042518615723
1683919026852468500,9.875468505859375,-0.027605295181274414,-0.01819324493408203,0.00042688846588134766
1683919026862508500,9.885508544921874,-0.02433454990386963,-0.03691387176513672,0.029375433921813965
1683919026872548900,9.895548828125,-0.020934581756591797,-0.0435638427734375,0.003630518913269043
1683919026882589000,9.9055888671875,-0.01529693603515625,-0.031243324279785156,0.04413950443267822
1683919026892629000,9.91562890625,0.0045070648193359375,-0.02379894256591797,0.0554426908493042
1683919026902669300,9.92566943359375,0.01224064826965332,-0.014052391052246094,0.06615519523620605
1683919026912709400,9.93570947265625,0.034023284912109375,0.005001068115234375,0.012824416160583496
1683919026922749700,9.945749755859374,0.04348313808441162,0.014377593994140625,0.0049332380294799805
1683919026932789800,9.955789794921875,0.04075932502746582,0.02834033966064453,-0.042868971824645996
1683919026942829800,9.965829833984374,0.021510601043701172,0.030274391174316406,-0.04259645938873291
1683919026952870100,9.9758701171875,0.011727571487426758,0.01801776885986328,-0.060810208320617676
1683919026962910200,9.98591015625,0.013859152793884277,0.005879402160644531,-0.028829336166381836
1683919026972950300,9.9959501953125,-0.0004398822784423828,-0.0014247894287109375,-0.006453514099121094
1683919026982990600,10.005990478515624,-0.014484882354736328,-0.01570606231689453,0.022791028022766113
1683919026993030700,10.01603076171875,-0.00941324234008789,-0.0015115737915039062,0.06336164474487305
1683919027003070700,10.02607080078125,-0.01604640483856201,-0.001689910888671875,0.08673310279846191
1683919027013111000,10.036111083984375,-0.015366792678833008,-0.015967369079589844,0.09302663803100586
1683919027023151000,10.046151123046876,-0.009781837463378906,-0.03941917419433594,0.08493161201477051
1683919027033191400,10.05619140625,0.01007688045501709,-0.008316993713378906,0.05554640293121338
1683919027043231500,10.0662314453125,0.003925681114196777,-0.02007579803466797,0.016917705535888672
1683919027053271600,10.076271484375,0.028388500213623047,0.0036878585815429688,0.00010633468627929688
1683919027063312000,10.086311767578126,0.047573208808898926,0.015317916870117188,-0.030614495277404785
1683919027073352000,10.09635205078125,0.03315854072570801,0.02678966522216797,-0.03961443901062012
1683919027083392300,10.106392333984376,0.030422568321228027,0.031020164489746094,-0.05067479610443115
1683919027093432300,10.116432373046875,0.013376593589782715,0.03755378723144531,-0.030888676643371582
1683919027103472400,10.126472412109376,-0.01039266586303711,0.008629798889160156,-0.008940815925598145
1683919027113512700,10.1365126953125,-0.02178025245666504,-0.008042335510253906,0.04076969623565674
1683919027123552800,10.146552734375,-0.039650797843933105,-0.017385482788085938,0.04707515239715576
1683919027133592800,10.1565927734375,-0.049861907958984375,-0.031271934509277344,0.05068385601043701
1683919027143633200,10.166633056640626,-0.04311096668243408,-0.03553009033203125,0.04236757755279541
1683919027153673200,10.176673095703125,-0.02678990364074707,-0.03501319885253906,0.010489225387573242
1683919027163713300,10.18671337890625,-0.015287041664123535,-0.008630752563476562,0.02858757972717285
1683919027173753600,10.196753662109375,0.007901668548583984,0.024332046508789062,0.0018128156661987305
1683919027183793700,10.206793701171875,0.01639735698699951,0.052018165588378906,-0.00782012939453125
1683919027193834000,10.216833984375,0.01983964443206787,0.03684806823730469,-0.012353897094726562
1683919027203874000,10.2268740234375,0.015933752059936523,0.005438804626464844,-0.004832029342651367
1683919027213914000,10.2369140625,0.025886058807373047,-0.020734786987304688,-0.0019423961639404297
1683919027223954400,10.246954345703125,0.016701698303222656,-0.03703022003173828,-0.013268828392028809
1683919027233994500,10.256994384765624,-0.011083483695983887,-0.024779319763183594,0.006010651588439941
1683919027244034600,10.26703466796875,-0.005438566207885742,-0.04095268249511719,0.02010214328765869
1683919027254075000,10.277074951171874,0.00029397010803222656,-0.01682758331298828,0.026737689971923828
1683919027264115000,10.287114990234375,-0.010402679443359375,-0.004870414733886719,0.047272682189941406
1683919027274155300,10.2971552734375,0.0003218650817871094,0.023397445678710938,0.02958965301513672
1683919027284195300,10.3071953125,0.0015635490417480469,0.027679443359375,0.03082573413848877
1683919027294235400,10.3172353515625,0.009822487831115723,0.0036563873291015625,0.008420109748840332
1683919027304275700,10.327275634765625,0.006021857261657715,0.01772308349609375,-0.004209756851196289
1683919027314315800,10.337315673828124,0.009105801582336426,0.008008003234863281,-0.004678249359130859
1683919027324356000,10.347356201171875,0.016756296157836914,-0.01804828643798828,-0.004944443702697754
1683919027334396200,10.357396240234374,0.007745027542114258,-0.020183563232421875,0.002180814743041992
1683919027344436200,10.367436279296875,-0.000929713249206543,-0.008209228515625,0.021102547645568848
1683919027354476500,10.3774765625,-0.011638641357421875,-0.0035047531127929688,0.018442273139953613
1683919027364516600,10.3875166015625,-0.015079259872436523,-0.015372276306152344,0.013530850410461426
1683919027374557000,10.397556884765624,0.00031888484954833984,0.0012102127075195312,-0.019533753395080566
1683919027384597000,10.407596923828125,-0.02222883701324463,-0.008378982543945312,-0.02613651752471924
1683919027394637000,10.417636962890626,-0.013752341270446777,0.005721092224121094,-0.018475055694580078
1683919027404677400,10.427677490234375,-0.021740198135375977,0.021933555603027344,-0.013361334800720215
1683919027414717400,10.437717529296876,-0.01084601879119873,0.021409034729003906,-0.020104527473449707
1683919027424757500,10.447757568359375,-0.009772419929504395,0.025671005249023438,-0.012826800346374512
1683919027434797800,10.4577978515625,0.019185423851013184,-0.014817237854003906,0.02018916606903076
1683919027444838000,10.467837890625,0.0167081356048584,-0.019257545471191406,0.031372785568237305
1683919027454878200,10.477878173828126,-0.002475738525390625,-0.02594280242919922,0.007063388824462891
1683919027464918300,10.487918212890625,-0.023581624031066895,-0.03252410888671875,-0.005106687545776367
1683919027474958300,10.497958251953126,-0.027637004852294922,-0.02962970733642578,0.023070096969604492
1683919027484998700,10.50799853515625,-0.03851473331451416,-0.007984161376953125,-0.02449965476989746
1683919027495038700,10.518038818359376,-0.02808094024658203,0.013319015502929688,-0.05956315994262695
1683919027505079000,10.5280791015625,-0.022817254066467285,0.03894615173339844,-0.08192586898803711
1683919027515119000,10.538119140625,-0.02737891674041748,0.03586769104003906,-0.07058966159820557
1683919027525159200,10.5481591796875,-0.027246594429016113,0.018654823303222656,-0.0590747594833374
1683919027535199500,10.558199462890625,-0.022383451461791992,-0.0030193328857421875,-0.00047326087951660156
1683919027545239600,10.568239501953125,-0.03175950050354004,-0.0054988861083984375,0.043048739433288574
1683919027555279600,10.578279541015625,-0.04091954231262207,-0.0032100677490234375,0.08335506916046143
1683919027565320000,10.58831982421875,-0.08271288871765137,-0.036261558532714844,0.08750402927398682
1683919027575360000,10.598360107421875,-0.06230151653289795,-0.033431053161621094,0.08422601222991943
1683919027585400300,10.608400390625,-0.04905414581298828,-0.02354145050048828,0.07590460777282715
1683919027595440400,10.6184404296875,-0.012295722961425781,-0.02554035186767578,0.03674042224884033
1683919027605480400,10.62848046875,0.009659528732299805,0.0125579833984375,0.014539957046508789
1683919027615520800,10.638520751953125,0.007482171058654785,0.035927772521972656,-0.009668350219726562
1683919027625560800,10.648560791015624,0.009791970252990723,0.08951282501220703,-0.005051970481872559
1683919027635601200,10.65860107421875,-0.016507983207702637,0.08568668365478516,0.009214639663696289
1683919027645641200,10.66864111328125,-0.012171030044555664,0.08898258209228516,0.0494304895401001
1683919027655681300,10.678681396484375,-0.019998908042907715,0.02865886688232422,0.09627342224121094
1683919027665721600,10.6887216796875,-0.02329576015472412,-0.030661582946777344,0.09310448169708252
1683919027675761700,10.69876171875,-0.03608095645904541,-0.07252788543701172,0.07131683826446533
1683919027685802000,10.708802001953124,-0.060292720794677734,-0.08549785614013672,0.07596981525421143
1683919027695842000,10.718842041015625,-0.07208883762359619,-0.07474040985107422,0.08760058879852295
1683919027705882000,10.728882080078124,-0.05968832969665527,-0.02414703369140625,0.06345760822296143
1683919027715922400,10.73892236328125,-0.023642659187316895,-0.0003299713134765625,0.05618178844451904
1683919027725962500,10.74896240234375,-0.01161348819732666,0.04194164276123047,0.02765941619873047
1683919027736002800,10.7590029296875,0.016256093978881836,0.01767253875732422,-0.03583049774169922
1683919027746043000,10.76904296875,0.04285454750061035,-0.0037679672241210938,-0.07454788684844971
1683919027756083000,10.7790830078125,0.016693711280822754,-0.01068878173828125,-0.07950520515441895
1683919027766123300,10.789123291015626,-0.004616141319274902,0.020178794860839844,-0.08186912536621094
1683919027776163300,10.799163330078125,-0.018349051475524902,0.03162956237792969,-0.060393452644348145
1683919027786203600,10.80920361328125,-0.040900349617004395,0.033364295959472656,0.0010552406311035156
1683919027796243700,10.81924365234375,-0.037024497985839844,0.030302047729492188,0.040494561195373535
1683919027806283800,10.82928369140625,-0.000522613525390625,0.03198528289794922,0.0865929126739502
1683919027816324000,10.839323974609375,-0.000278472900390625,-0.0063571929931640625,0.11317706108093262
1683919027826364200,10.8493642578125,0.0019658803939819336,-0.041649818420410156,0.10865616798400879
1683919027836404500,10.859404541015625,-0.012326717376708984,-0.0951528549194336,0.10873854160308838
1683919027846444500,10.869444580078126,-0.02373039722442627,-0.09363460540771484,0.07105028629302979
1683919027856484600,10.879484619140625,-0.03916358947753906,-0.06623554229736328,0.06185770034790039
1683919027866525000,10.88952490234375,-0.03973829746246338,-0.025157928466796875,0.04304778575897217
1683919027876565000,10.89956494140625,-0.03780519962310791,0.010560035705566406,0.0054509639739990234
1683919027886605300,10.909605224609376,-0.007691860198974609,0.019799232482910156,0.0178680419921875
1683919027896645400,10.919645263671875,-0.006483554840087891,0.04539299011230469,-0.009994149208068848
1683919027906685400,10.929685546875,-0.010003924369812012,0.04231071472167969,-0.006787419319152832
1683919027916725800,10.939725830078125,0.0054738521575927734,0.05571460723876953,0.008295059204101562
1683919027926765800,10.949765869140625,0.004047751426696777,0.06417369842529297,-0.002604961395263672
1683919027936806100,10.95980615234375,0.044705986976623535,0.030111312866210938,-0.03426706790924072
1683919027946846200,10.96984619140625,0.034919023513793945,0.0036411285400390625,-0.036763906478881836
1683919027956886500,10.979886474609375,0.031990885734558105,-0.04121589660644531,-0.055477023124694824
1683919027966926600,10.989926513671875,0.014741182327270508,-0.050034523010253906,-0.04772448539733887
1683919027976966700,10.999966552734374,-0.002214670181274414,-0.054030418395996094,-0.006991982460021973
1683919027987007000,11.010007080078125,-0.0021381378173828125,-0.05560874938964844,0.009361505508422852
1683919027997047000,11.020047119140624,-0.027515530586242676,-0.05245494842529297,0.05341994762420654
1683919028007087400,11.03008740234375,-0.016597270965576172,-0.023428916931152344,0.056220293045043945
1683919028017127400,11.04012744140625,-0.0102158784866333,-0.020755767822265625,0.05860793590545654
1683919028027167500,11.05016748046875,0.005600571632385254,-0.025107383728027344,0.055744051933288574
1683919028037207800,11.060207763671874,0.03057992458343506,-0.019916534423828125,0.02440464496612549
1683919028047248000,11.070247802734375,0.03379523754119873,-0.0006504058837890625,-0.008853554725646973
1683919028057288200,11.0802880859375,0.029724836349487305,0.008916854858398438,-0.013409614562988281
1683919028067328300,11.090328369140625,0.049222469329833984,0.027716636657714844,-0.03656721115112305
1683919028077368600,11.10036865234375,0.05887746810913086,0.04150581359863281,-0.05697965621948242
1683919028087408600,11.11040869140625,0.061217546463012695,0.05273914337158203,-0.0700838565826416
1683919028097448700,11.12044873046875,0.05634033679962158,0.061446189880371094,-0.07590770721435547
1683919028107489000,11.130489013671875,0.04918992519378662,0.07238483428955078,-0.08175051212310791
1683919028117529000,11.140529052734376,0.03737974166870117,0.052581787109375,-0.07357215881347656
1683919028127569400,11.1505693359375,0.03981983661651611,0.0472564697265625,-0.11503159999847412
1683919028137609500,11.160609375,0.032729387283325195,0.04202556610107422,-0.10163593292236328
1683919028147649800,11.17064990234375,0.004542827606201172,0.02270984649658203,-0.11645913124084473
1683919028157689900,11.18068994140625,0.002903580665588379,0.022452354431152344,-0.09533822536468506
1683919028167730000,11.19072998046875,-0.01975715160369873,-0.013215065002441406,-0.06943726539611816
1683919028177770200,11.200770263671876,-0.011433601379394531,-0.03897380828857422,-0.02695906162261963
1683919028187810300,11.210810302734375,-0.017417311668395996,-0.06199836730957031,-0.0037529468536376953
1683919028197850600,11.2208505859375,-0.032451629638671875,-0.0705862045288086,0.012201309204101562
1683919028207890700,11.230890625,-0.03266024589538574,-0.05318450927734375,0.006685733795166016
1683919028217930800,11.2409306640625,-0.03718233108520508,-0.021928787231445312,0.017403006553649902
1683919028227971000,11.25097119140625,-0.02482759952545166,-0.000560760498046875,-0.007817864418029785
1683919028238011100,11.26101123046875,0.008715987205505371,0.0063152313232421875,-0.058592796325683594
1683919028248051500,11.271051513671875,0.029985427856445312,0.020128250122070312,-0.07553958892822266
1683919028258091500,11.281091552734376,0.07194900512695312,0.05017662048339844,-0.0732184648513794
1683919028268131800,11.2911318359375,0.09652590751647949,0.07739925384521484,-0.06624162197113037
1683919028278172000,11.301171875,0.1178208589553833,0.09478092193603516,-0.0521697998046875
1683919028288212000,11.3112119140625,0.11680209636688232,0.06012916564941406,-0.07577991485595703
1683919028298252300,11.321252197265625,0.11708414554595947,0.05910778045654297,-0.05645263195037842
1683919028308292400,11.331292236328125,0.06939113140106201,0.015758514404296875,-0.034735918045043945
1683919028318332700,11.341332763671875,0.029232263565063477,-0.010441780090332031,-0.015290498733520508
1683919028328372700,11.351372802734375,-0.03366219997406006,-0.0362548828125,0.008696794509887695
1683919028338412800,11.361412841796875,-0.05989730358123779,-0.08290767669677734,0.06781995296478271
1683919028348453000,11.371453125,-0.07344162464141846,-0.11940956115722656,0.11176145076751709
1683919028358493200,11.3814931640625,-0.0884934663772583,-0.09407997131347656,0.11687326431274414
1683919028368533500,11.391533447265624,-0.05769002437591553,-0.09740066528320312,0.1589515209197998
1683919028378573600,11.401573486328125,-0.052547574043273926,-0.05118274688720703,0.15964066982269287
1683919028388614000,11.41161376953125,-0.028334379196166992,-0.03390312194824219,0.14559733867645264
1683919028398654000,11.421654052734375,0.014493465423583984,0.0020389556884765625,0.13109064102172852
1683919028408694300,11.4316943359375,0.023603439331054688,0.0021562576293945312,0.06933164596557617
1683919028418734300,11.441734375,0.055815815925598145,0.025892257690429688,0.008371829986572266
1683919028428774400,11.4517744140625,0.06356942653656006,0.02575969696044922,-0.054055094718933105
1683919028438814700,11.461814697265625,0.061730146408081055,0.03035736083984375,-0.11080706119537354
1683919028448854800,11.471854736328124,0.05066478252410889,0.034834861755371094,-0.12410116195678711
1683919028458895000,11.48189501953125,0.04937243461608887,0.058025360107421875,-0.13468897342681885
1683919028468935200,11.49193505859375,0.04366910457611084,0.05488872528076172,-0.12385749816894531
1683919028478975200,11.501975341796875,0.04275786876678467,0.06118202209472656,-0.15537822246551514
1683919028489015600,11.512015625,0.03467297554016113,0.06498336791992188,-0.15317785739898682
1683919028499055600,11.5220556640625,0.03597891330718994,0.042751312255859375,-0.11052989959716797
1683919028509096000,11.532095947265624,0.0323939323425293,0.00197601318359375,-0.1363685131072998
1683919028519136000,11.542135986328125,0.021679162979125977,-0.042891502380371094,-0.10252785682678223
1683919028529176300,11.55217626953125,0.01820516586303711,-0.0658884048461914,-0.11836826801300049
1683919028539216400,11.56221630859375,0.01961231231689453,-0.06501388549804688,-0.1266850233078003
1683919028549256700,11.572256591796876,0.021226882934570312,-0.005352973937988281,-0.08529412746429443
1683919028559296800,11.582296875,0.008909344673156738,-0.01732921600341797,-0.07523238658905029
1683919028569336800,11.5923369140625,0.00871884822845459,0.03204822540283203,-0.05103600025177002
1683919028579377200,11.602377197265625,0.013171195983886719,0.0734872817993164,-0.005760908126831055
1683919028589417200,11.612417236328126,0.008223891258239746,0.03648185729980469,0.06257760524749756
1683919028599457500,11.62245751953125,0.024556398391723633,-0.0023069381713867188,0.14646399021148682
1683919028609497600,11.63249755859375,0.024053215980529785,-0.028673171997070312,0.17483556270599365
1683919028619538000,11.642537841796875,0.037520647048950195,-0.07808303833007812,0.1813514232635498
1683919028629578000,11.652577880859376,0.0740053653717041,-0.08420944213867188,0.18751037120819092
1683919028639618000,11.6626181640625,0.06007707118988037,-0.08773326873779297,0.185990571975708
1683919028649658400,11.672658447265626,0.022806882858276367,-0.08867835998535156,0.14131808280944824
1683919028659698400,11.682698486328125,0.023954272270202637,-0.07297611236572266,0.13658297061920166
1683919028669738800,11.69273876953125,-0.0027631521224975586,-0.05034160614013672,0.12633872032165527
1683919028679778800,11.70277880859375,-0.005101561546325684,-0.02325153350830078,0.11071634292602539
1683919028689819100,11.712819091796876,-0.01868891716003418,0.027032852172851562,0.06866347789764404
1683919028699859200,11.722859130859375,-0.0033627748489379883,0.05769634246826172,0.04328572750091553
1683919028709899500,11.7328994140625,-0.00223386287689209,0.1161041259765625,-0.0053577423095703125
1683919028719939600,11.742939697265625,0.02958369255065918,0.10053730010986328,-0.06256771087646484
1683919028729980000,11.75297998046875,0.05122363567352295,0.0946035385131836,-0.08786571025848389
1683919028740020000,11.76302001953125,0.05338156223297119,0.058074951171875,-0.11684179306030273
1683919028750060000,11.77306005859375,0.05049574375152588,0.003238677978515625,-0.16358613967895508
1683919028760100400,11.783100341796874,0.017019152641296387,-0.041367530822753906,-0.19488835334777832
1683919028770140400,11.793140380859375,0.02656853199005127,-0.05240821838378906,-0.18737995624542236
1683919028780180700,11.8031806640625,0.007927298545837402,-0.04926300048828125,-0.25247716903686523
1683919028790220800,11.813220703125,-0.012688875198364258,0.0007944107055664062,-0.24531066417694092
1683919028800260900,11.8232607421875,0.007035732269287109,0.035775184631347656,-0.22118735313415527
1683919028810301200,11.83330126953125,0.026314496994018555,0.07949638366699219,-0.18752288818359375
1683919028820341200,11.84334130859375,0.030960559844970703,0.05180549621582031,-0.12343037128448486
1683919028830381600,11.853381591796875,0.07084095478057861,0.01043701171875,-0.05799436569213867
1683919028840421600,11.863421630859374,0.07249391078948975,-0.013738632202148438,-0.022074222564697266
1683919028850462000,11.8734619140625,0.06948244571685791,0.0025691986083984375,0.04116237163543701
1683919028860502000,11.883501953125,0.06647801399230957,-0.0025224685668945312,0.09129595756530762
1683919028870542300,11.893542236328125,0.05400645732879639,0.01142120361328125,0.11418986320495605
1683919028880582400,11.90358251953125,0.010979175567626953,-0.0030050277709960938,0.16683197021484375
1683919028890622700,11.913622802734375,-0.002999424934387207,0.004092216491699219,0.15217292308807373
1683919028900662800,11.923662841796874,-0.01891481876373291,-0.02416229248046875,0.15373778343200684
1683919028910702800,11.933702880859375,-0.03662002086639404,-0.04481697082519531,0.1382972002029419
1683919028920743200,11.9437431640625,-0.032405734062194824,-0.055687904357910156,0.09214377403259277
1683919028930783200,11.953783203125,-0.03949272632598877,-0.024008750915527344,0.04884505271911621
1683919028940823600,11.963823486328126,-0.027238130569458008,-0.016470909118652344,0.008751749992370605
1683919028950863600,11.973863525390625,-0.015073895454406738,0.026193618774414062,0.021332979202270508
1683919028960904000,11.983904052734376,0.020267486572265625,0.058714866638183594,-0.02967512607574463
1683919028970944000,11.993944091796875,0.045233845710754395,0.031828880310058594,-0.04897618293762207
1683919028980984300,12.003984375,0.04823923110961914,0.007733345031738281,-0.02530956268310547
1683919028991024400,12.0140244140625,0.05086064338684082,-0.013578414916992188,-0.06319558620452881
1683919029001064700,12.024064697265626,0.04863846302032471,-0.0062999725341796875,-0.06501138210296631
1683919029011104800,12.034104736328125,0.04645359516143799,0.000823974609375,-0.10194623470306396
1683919029021144800,12.044144775390626,0.02566814422607422,-0.013443946838378906,-0.0861501693725586
1683919029031185200,12.05418505859375,0.009926676750183105,0.019552230834960938,-0.10564517974853516
1683919029041225200,12.06422509765625,-0.003278374671936035,0.05430793762207031,-0.06333887577056885
1683919029051265500,12.074265625,-0.009258508682250977,0.0672616958618164,-0.02388596534729004
1683919029061305600,12.0843056640625,-0.015220284461975098,0.039943695068359375,0.001003265380859375
1683919029071346000,12.094345947265625,-0.01883256435394287,0.00130462646484375,0.0443953275680542
1683919029081386000,12.104385986328126,-0.0013692378997802734,-0.04378032684326172,0.054335594177246094
1683919029091426300,12.11442626953125,-0.00546574592590332,-0.06226825714111328,0.06441104412078857
1683919029101466400,12.12446630859375,-0.009390950202941895,-0.0710744857788086,0.11449551582336426
1683919029111506700,12.134506591796875,-0.012975215911865234,-0.04209709167480469,0.1213524341583252
1683919029121546800,12.144546630859375,-0.02799546718597412,-0.008898735046386719,0.1962348222732544
1683919029131587000,12.154587158203125,-0.02824878692626953,-0.018584251403808594,0.20349812507629395
1683919029141627100,12.164627197265625,-0.019023537635803223,-0.03507423400878906,0.20776855945587158
1683919029151667500,12.17466748046875,-0.005335092544555664,-0.03938770294189453,0.2043166160583496
1683919029161707500,12.18470751953125,0.0009480714797973633,-0.05289936065673828,0.1790679693222046
1683919029171747600,12.19474755859375,0.0023956298828125,-0.04014301300048828,0.12526845932006836
1683919029181788000,12.204787841796875,0.0037845373153686523,-0.03926277160644531,0.06949317455291748
