time,seconds_elapsed,z,y,x
1684000087573476300,0.034876708984375,1.1567674604481028e-10,2.5504083640469754e-11,-3.6152928327089376e-11
1684000087583518100,0.04491845703125,-0.41678714765538666,0.02399706825780939,-0.5235801934952248
1684000087593559700,0.054960205078125,-0.6786749361835621,0.16194498536432514,-0.6395567059348215
1684000087603601600,0.065001953125,-1.0547385216220884,0.34195446967178195,-0.035307168942286735
1684000087613643200,0.075043701171875,-0.4765005111671731,0.41735863692643976,-0.14631652831043104
1684000087623685000,0.08508544921875,0.07441878308091611,0.13923549650658443,0.38059151166704813
1684000087633726900,0.095127197265625,3.093305587740788,-0.3489787579030602,0.4578189849425751
1684000087643768600,0.1051689453125,5.023031234872281,0.17721474165856793,0.29636931423488266
1684000087653810400,0.115210693359375,4.65990972518162,-0.18313926466838062,1.5712065695487965
1684000087663852000,0.12525244140625,3.493485927614604,-0.8226268290444025,2.5977566242831864
1684000087673893800,0.135294189453125,2.52993440616438,-1.237172126765886,2.513438224990734
1684000087683935600,0.145336181640625,1.390360355372252,-1.2258076669101994,1.738747358241251
1684000087693977300,0.155377685546875,-1.6731700896915804,-2.313640594562309,2.895865917173308
1684000087704019100,0.16541943359375,-0.33638429625582955,-0.911935389125325,0.7611613273631256
1684000087714061000,0.17546142578125,0.5635204314765218,0.14310711633249548,1.3112006185938287
1684000087724102600,0.1855029296875,2.2310042380800623,0.33540812137437687,2.7620372772361397
1684000087734144400,0.195544921875,2.9922523499984757,0.044360339786143,4.440643310531252
1684000087744186300,0.205586669921875,3.701188564279445,0.05094450711250758,5.2567682265810785
1684000087754227900,0.215628173828125,3.5706486700983735,-0.07105469707785582,5.253162384157562
1684000087764269700,0.225670166015625,3.3510904311402396,0.405868232293926,4.418194770697068
1684000087774311300,0.235711669921875,2.5468173025830283,0.5010700225665886,3.858896732280027
1684000087784353200,0.245753662109375,1.800233364006373,0.4843838214629907,3.2603449821091
1684000087794394800,0.255795166015625,1.437029838487174,0.5554467440942581,2.9519324303810293
1684000087804436600,0.265837158203125,1.5314927101046538,0.816689252713338,3.7505488395628204
1684000087814478600,0.27587890625,1.0357422829408398,1.1742267607406376,4.417060851893539
1684000087824520100,0.28592041015625,0.6504259109562733,0.780162095983247,4.123432159395431
1684000087834562000,0.29596240234375,1.211138248296391,1.0821188689075796,3.3070592880101826
1684000087844603800,0.306004150390625,0.8039073944330586,1.0002347231666655,3.424689292961737
1684000087854645400,0.3160458984375,0.276471614763339,0.5216302870740553,3.3921742439194915
1684000087864687300,0.326087646484375,0.024665355693547303,0.2785403728288453,3.294213771895941
1684000087874728900,0.33612939453125,-0.111821651399705,0.3444024325810214,2.9802217484459486
1684000087884770700,0.346171142578125,0.2450981140265305,0.6931440828504564,2.8492817878985672
1684000087894812600,0.356212890625,0.4063258170991438,0.8310343026893448,2.8899598120633065
1684000087904854200,0.366254638671875,0.4132003785529365,0.8108668328493065,2.9838795660410677
1684000087914896000,0.37629638671875,0.27642917614189155,0.8592312336012813,2.989664554606901
1684000087924937900,0.38633837890625,0.04194593428709061,0.8971244097884309,3.0179142952072624
1684000087934979600,0.3963798828125,-0.4020628927923897,0.8567371368765627,2.842521667460857
1684000087945021400,0.406421875,-0.8968186378243699,0.6904029846851453,2.30734205244549
1684000087955063000,0.41646337890625,-1.297949314278534,0.5486381053798125,1.6226954460485874
1684000087965104800,0.426505126953125,-1.4182944297556168,0.5010120867610912,1.3657932281179483
1684000087975146600,0.436547119140625,-1.4265346527454166,0.32746362681590147,1.3409438133681713
1684000087985188300,0.446588623046875,-1.1260013579414039,0.1950898171988339,1.1855092049225882
1684000087995230100,0.456630615234375,-0.879750251734567,0.006781578006961562,1.348949432369903
1684000088005271700,0.466672119140625,-0.9904074668270859,-0.2429580688958116,1.2835121154492894
1684000088015313600,0.4767138671875,-1.3078312874229607,-0.3272585868665395,1.043313503310691
1684000088025355400,0.486755859375,-1.440926074873186,-0.3782715795898145,0.7613530160004077
1684000088035397000,0.49679736328125,-1.5585651397863833,-0.42000937478498995,0.4711008071391066
1684000088045438900,0.50683935546875,-1.74572610843227,-0.45435214038635774,0.08330392836389737
1684000088055480800,0.516881103515625,-2.0298438071260314,-0.8670644761568043,-0.06461668015346864
1684000088065522400,0.5269228515625,-2.0544896126291907,-0.8701465131372512,-0.133772850088287
1684000088075564200,0.536964599609375,-2.0839567183952483,-0.9421057701162129,-0.19537401181253827
1684000088085606100,0.54700634765625,-1.8237133026905825,-1.0170061587100534,-0.029657363922831463
1684000088095647600,0.557048095703125,-1.6040639876958145,-1.0287570953130656,-0.1458792686623827
1684000088105689600,0.56708984375,-1.4339175225164866,-0.9083659650184015,-0.4665908813760481
1684000088115731100,0.577131591796875,-1.322860717765924,-0.9369895457297626,-0.8713531495010488
1684000088125773000,0.58717333984375,-1.4642167092468141,-1.0744714736342353,-1.3568334580813939
1684000088135814800,0.59721533203125,-1.4469089508013322,-1.20048117642406,-1.7310981750310739
1684000088145856400,0.6072568359375,-1.2320294380999648,-1.2492628098998064,-1.5257682801989816
1684000088155898300,0.617298583984375,-0.8145623206161703,-1.4844920635167194,-1.5333495140600844
1684000088165940100,0.627340576171875,-0.09673833846714977,-1.7449865341495,-2.161462306968454
1684000088175981700,0.637382080078125,0.32371664041661596,-1.8495752812622466,-2.2335672378615103
1684000088186023600,0.647424072265625,1.144112110155978,-1.0885641574791214,-2.232872486042089
1684000088196065200,0.657465576171875,0.9078559875286594,-1.742941141110577,-2.886301517478274
1684000088206107100,0.667507568359375,0.779640197917895,-2.517613410938005,-1.7134275434430637
1684000088216148900,0.67754931640625,0.2273344993711331,-2.5801711081334258,-0.9873991012238108
1684000088226190600,0.6875908203125,-26.76571655265354,-0.8598842620338051,2.4506225586215593
1684000088236232400,0.6976328125,-4.588054657043418,3.4000949861062235,-0.09664630902658951
1684000088246274000,0.70767431640625,0.7919559477855507,0.8042225837872006,1.3948297501270919
1684000088256315800,0.71771630859375,2.4093999861225113,-2.3588142395004565,2.7838134765658746
1684000088266357600,0.727758056640625,0.08879899991850644,-0.885975122580179,2.8387708664325677
1684000088276399300,0.737799560546875,-0.03143310544553911,1.5219964980925271,1.5625991820283556
1684000088286441100,0.747841552734375,-0.043052673328574945,1.2505054473784465,0.6184597015230151
1684000088296483000,0.75788330078125,-0.4171829224350489,0.10782265673066238,0.5526933670310497
1684000088306524600,0.767925048828125,-0.6072459220617058,0.005421161725648348,0.12531375881662973
1684000088316566400,0.777966796875,0.10397291178245868,-0.004943132283386152,-0.13854885108372053
1684000088326608300,0.7880087890625,-0.21422934529520246,-0.07126784312810892,-0.032378196720965986
1684000088336649900,0.79805029296875,0.11183500281095309,-0.11197328557883061,-0.030144691545244625
1684000088346691800,0.808092041015625,0.40572619438057067,-0.39277553569908324,-0.14815616603837167
1684000088356733400,0.8181337890625,0.850010633585973,-0.7944860457817599,-0.47749423977363836
1684000088366775200,0.828175537109375,1.1042108536097028,-0.8928489684501631,-0.3961868286731828
1684000088376817100,0.838217529296875,0.8786556720832933,-0.6704862117891527,-0.12159824379815852
1684000088386858600,0.848259033203125,0.17161965358403056,-0.6382150648604271,-0.17081928246900163
1684000088396900600,0.858301025390625,0.26396250720145276,-0.667501211152378,-0.5430784225172023
1684000088406942400,0.8683427734375,-0.4611237048685141,-0.8855502605006065,-0.673591613765957
1684000088416984000,0.87838427734375,-0.5541236401829295,-0.9289336205067541,-0.8925852776007475
1684000088427025800,0.88842626953125,-0.10150337221095354,-1.0289626121205795,-1.0364255905299953
1684000088437067600,0.898468017578125,0.23311471948110907,-1.1648316383072441,-0.9889812469189032
1684000088447109300,0.908509765625,0.9921243189779273,-1.2503392695406539,-1.0778832436627739
1684000088457151200,0.918551513671875,1.2920067309278407,-1.244287252420167,-0.9491219520736204
1684000088467192800,0.92859326171875,1.022959232262349,-1.2801170348553166,-1.2262897492467446
1684000088477234600,0.938635009765625,1.3193745613845955,-1.2620062828951628,-1.4897518157674579
1684000088487276500,0.9486767578125,1.7220208644655521,-1.363233804825148,-1.464528083733525
1684000088497318100,0.958718505859375,-1.2869002819926763,-0.9145033360361595,-2.268074035649358
1684000088507359900,0.96876025390625,-2.8670053481997724,-0.785088300554408,-2.0549612045455334
1684000088517401600,0.978802001953125,-1.8850070237501098,-0.8261353969879706,-1.7483987809544776
1684000088527443400,0.98884375,-1.7955597637749354,-0.5577509404925197,-0.8006954193716129
1684000088537485200,0.9988857421875,0.5334205626552845,-0.27135324486338,0.9409332276117498
1684000088547526800,1.00892724609375,2.1158919333819166,-0.18726348880681531,1.4003763199426547
1684000088557568600,1.018968994140625,2.1364750862414734,-0.15993356707007617,1.0912055970537056
1684000088567610600,1.029010986328125,2.3479063511081013,-0.02556848533117781,0.38314437858489736
1684000088577652100,1.039052490234375,3.806525707206766,-0.20740437508978696,1.9950599669646027
1684000088587694000,1.049094482421875,2.076260089902057,-0.006376743203774823,0.0706062316169893
1684000088597735900,1.05913623046875,0.5785765649601513,0.31595253944575485,-1.03057479856433
1684000088607777500,1.069177734375,-0.788398206118497,0.5784163473749274,-1.237506866458516
1684000088617819300,1.0792197265625,-1.6168961526035586,1.0675722361847322,-1.0093002319458013
1684000088627861200,1.089261474609375,-1.3326923847649543,1.5304986239112328,-0.6691532135094397
1684000088637902800,1.09930322265625,-1.1374746561261677,1.65128636366199,0.1654367446991134
1684000088647944600,1.109344970703125,-1.3844231368254614,1.5293678045435593,0.6823263168435798
1684000088657986200,1.11938671875,-1.4271178246831793,1.418195962880976,0.7208442686551443
1684000088668028100,1.129428466796875,-1.1150175334535652,1.1513929367633748,0.5724554062899375
1684000088678069900,1.13947021484375,-0.7283823490660457,0.7504703998071871,0.061146736135180936
1684000088688111600,1.149511962890625,-0.39638209343829905,0.29889893530256717,-0.3802061079946736
1684000088698153400,1.1595537109375,-0.3157620430067169,-0.17733120911588715,-0.8790111541799471
1684000088708195200,1.169595703125,0.2115622908451598,-0.4373297690837121,-1.2593278886422143
1684000088718236800,1.17963720703125,0.7912830115727512,-0.7277057170794655,-1.2801256178443872
1684000088728278600,1.18967919921875,1.3004350662223354,-1.0696053504633853,-0.9397611618105196
1684000088738320600,1.199720947265625,1.3002657890788218,-2.0162589550581376,-2.412159442814632
1684000088748362200,1.209762451171875,0.5787307023743484,-1.4018571376118416,-0.8678016661323414
1684000088758404000,1.219804443359375,0.5099251270353908,-0.8781416417522325,-0.7173452378013944
1684000088768445900,1.22984619140625,0.9543208478756824,-1.233671665228224,-0.8581094742701163
1684000088778487500,1.239887939453125,-0.03730100397851002,-1.4132294654081952,-1.5635108947797096
1684000088788529300,1.2499296875,-0.30468893044821066,-1.1757245062703603,-1.662168979692537
1684000088798570900,1.259971435546875,-0.1813713907788395,-0.9644565581801642,-1.5791206361318757
1684000088808612800,1.27001318359375,-0.004161179142577792,-1.0197887422126337,-1.3016128539858791
1684000088818654600,1.280054931640625,0.1214692593757906,-0.8463277815485492,-0.9837722776672586
1684000088828696200,1.2900966796875,0.3016645313402485,-0.8020527364548534,-0.5435905457351206
1684000088838738100,1.300138427734375,0.6091073155658254,-0.8034214973977115,-0.3248558044888541
1684000088848780000,1.310180419921875,0.8007540702829972,-1.0578563213407932,0.24730110151544588
1684000088858821600,1.320221923828125,1.008854389155095,-1.3857548235114332,0.23172855390719097
1684000088868863400,1.330263916015625,1.1376835107657293,-1.6484971047965602,-0.083315849294154
1684000088878905000,1.340305419921875,0.8945963978575568,-1.6092889308950866,-0.38167095181499017
1684000088888946900,1.35034716796875,0.44371116166688757,-1.4468128680232848,-0.6704931259133871
1684000088898988600,1.36038916015625,0.057265758602711984,-1.3628351687593758,-0.2620754243245497
1684000088909030300,1.3704306640625,-0.11282408234987677,-1.1969363689656483,0.3602437973111741
1684000088919072200,1.38047265625,-0.015959381913530375,-0.8904347419650708,0.9453992844631554
1684000088929114000,1.390514404296875,0.26914697885569094,-0.7513606549771333,1.3937921524834707
1684000088939155600,1.40055615234375,0.26260024316897934,-0.4881634712895479,0.7926406859171384
1684000088949197600,1.410597900390625,0.09800851347409927,-0.6187636853364495,0.5877752303878775
1684000088959239300,1.4206396484375,-0.17175954580981093,-0.6071038246041907,0.0292510986711573
1684000088969280900,1.430681396484375,-0.2704674005274739,-0.6981019972661588,-0.20116424566378235
1684000088979322800,1.44072314453125,-0.07450115682052277,-0.66873884195364,-0.3939609526632735
1684000088989364600,1.45076513671875,0.42682677495427696,-0.11909699448924095,-0.7596960068944282
1684000088999406300,1.460806640625,0.1636006831626419,-0.27906441697288037,-0.6568183897877469
1684000089009448100,1.4708486328125,-0.17842438820650952,-0.4021418094734366,-0.7800321579479288
1684000089019489600,1.48089013671875,-0.3121288716458865,-0.6860973836452071,-0.19977188098238471
1684000089029531600,1.490931884765625,-0.36289384947727077,-0.8607378005201848,0.038815498328821724
1684000089039573400,1.500973876953125,-0.1577933429850886,-0.5824751853384833,0.05682849881807813
1684000089049615000,1.511015380859375,-0.002720713456007016,-0.774429798209617,0.17349624624597773
1684000089059656900,1.521057373046875,0.14005891963419748,-1.0616612435283392,0.675163269140696
1684000089069698700,1.53109912109375,0.10958090436065294,-1.3834497927735125,0.6597852706940335
1684000089079740300,1.541140625,0.23102967451983744,-1.3291676045496386,0.5189809799056415
1684000089089782200,1.5511826171875,0.4587135314055476,-0.8698294162879685,0.1593990325493462
1684000089099824000,1.561224365234375,0.5625380276884497,-0.1778831482159369,-0.38237190237979574
1684000089109865600,1.57126611328125,0.31496924155092587,0.11612510671083544,-0.4065198899504243
1684000089119907600,1.581307861328125,-0.06159199772301322,0.06480646130658484,-0.6800289153615521
1684000089129949400,1.591349853515625,-0.2981620432626191,-0.45154714587080064,-0.46310424817242957
1684000089139991000,1.601391357421875,-0.3657235203760205,-0.48173952098214773,0.026372909516070193
1684000089150032800,1.61143310546875,-0.20034719996748712,-0.19011878961927178,0.5683641433242089
1684000089160074600,1.62147509765625,0.6875753997398135,0.8844995498933194,0.1521387099582054
1684000089170116300,1.6315166015625,1.1557008028287123,1.692107915919042,0.13642311097591772
1684000089180158100,1.64155859375,0.8098210097070419,1.545228004594423,-0.7078313827948759
1684000089190200000,1.651600341796875,0.5242292283705935,0.33526659010772575,-0.38348579410503175
1684000089200241600,1.66164208984375,0.3756602407514173,-0.6365952489860092,-0.18349647517355616
1684000089210283400,1.671683837890625,0.12947413314026468,-0.947980880688646,-0.41061592115738493
1684000089220325000,1.681725341796875,-0.16105589285849742,-0.8415491580572378,-0.5248565673092793
1684000089230366900,1.691767333984375,-0.16766220342881571,-0.461399078356849,-0.2950649262114382
1684000089240408800,1.70180908203125,-0.20408521593778284,-0.02593326568363366,-0.11666870135890677
1684000089250450400,1.711850830078125,-0.0664292573827819,0.10163593289662681,0.283230781435943
1684000089260492200,1.721892578125,0.0026451647393515567,0.03821849827775038,0.3016042708943218
1684000089270534100,1.7319345703125,0.02801385529018648,-0.2087960242301794,0.34438991537793123
1684000089280575600,1.74197607421875,-0.24395817518165794,-0.4710488320361432,-0.33587265016949025
1684000089290617600,1.752017822265625,-0.29995000357788165,-0.5491251945733469,-0.5806055068710054
1684000089300659400,1.762059814453125,-0.1790823043850262,-0.28845071792968396,-0.7948684692804605
1684000089310701000,1.772101318359375,-0.00993211584693866,-0.15523004537545393,-1.0747165681633428
1684000089320742800,1.782143310546875,0.5289724469313954,-0.45720958708438986,-0.5559844970730188
1684000089330784600,1.79218505859375,0.8979741930317064,-0.518003940612311,0.1889266967941839
1684000089340826300,1.802226806640625,1.1380162238520453,0.03287124633299104,0.43328285212650214
1684000089350868100,1.8122685546875,0.8409475683937364,0.2931303976783076,0.7302532195659919
1684000089360910000,1.822310302734375,0.5114432572915699,0.4532423018020766,0.7682924270756217
1684000089370951600,1.83235205078125,0.04221946010128511,0.531983375564353,0.5530776977624347
1684000089380993500,1.842393798828125,-0.6967019437661744,0.5124597551270171,0.3469028471905006
1684000089391035100,1.852435546875,-1.0754733085085233,0.6306757928431211,0.032729149030631885
1684000089401076900,1.862477294921875,-1.3156385422341905,0.7496919631633341,-0.1676034926843111
1684000089411118800,1.872519287109375,-1.2378442288986642,0.791028976556017,0.17920017238320213
1684000089421160400,1.882560791015625,-0.7274284364562127,0.6936573981845293,0.6225309371767173
1684000089431202200,1.8926025390625,-0.24577412016996136,0.2985978127518952,1.2857017516471778
1684000089441244100,1.90264453125,0.43083259468720947,0.23334360124001374,1.5281515121448777
1684000089451285600,1.91268603515625,0.6211202741602587,0.4758629798662537,1.95168495184652
1684000089461327600,1.92272802734375,0.3725661635953703,0.1640973091795999,1.483428001419052
1684000089471369400,1.932769775390625,0.21229505538320326,0.1897964479302209,0.6845712662159076
1684000089481411000,1.942811279296875,-0.039601921973200324,-0.16505050648282174,0.16695690148421
1684000089491452800,1.952853271484375,-0.07384347906264736,-0.26797962172591294,-0.28839397430496694
1684000089501494600,1.96289501953125,0.3154848219211738,-0.2551741599955794,-0.0695013999737128
1684000089511536300,1.972936767578125,1.1725831030922658,0.10598754884003196,0.915959358113865
1684000089521578200,1.982978515625,1.8579442502221395,0.5089831352981085,1.645239829868928
1684000089531620000,1.9930205078125,1.4982552528153839,1.1048498151915658,0.3839254378803616
1684000089541661600,2.00306201171875,0.7560628056414471,0.5104203224044845,0.005945205579959524
1684000089551703600,2.013103759765625,0.657894670970201,0.04637479784135002,-0.4363188742876565
1684000089561745300,2.023145751953125,0.8232063649476957,-0.2684736252114487,-0.20017623908652832
1684000089571786900,2.033187255859375,1.3470529315918853,-0.010784625865190077,-0.20506954189212936
1684000089581828800,2.043229248046875,1.5036363601080722,-0.05336475368539464,0.3578186036370965
1684000089591870600,2.05327099609375,1.4818823335979765,-0.17239713673351936,0.7470531463006969
1684000089601912200,2.063312744140625,1.7103178502093292,0.04545545586930079,1.0905323028358032
1684000089611954100,2.0733544921875,1.4522768257716268,-0.022811889695234393,1.5221610069161937
1684000089621996000,2.083396240234375,0.852196574229705,-0.0698385238980014,1.7478771209030273
1684000089632037600,2.09343798828125,0.6757607459341721,-0.02232265472919053,2.0888500213186103
1684000089642079400,2.103479736328125,0.22782844298164098,0.2634515762676609,1.6765456198820121
1684000089652121300,2.113521728515625,-0.36281377067250525,0.0823731421347794,1.347557067761849
1684000089662162900,2.123563232421875,-0.2697641253078856,0.2514634134018718,0.9531989098368485
1684000089672204600,2.133605224609375,-0.5276745557503196,0.3166337013658556,0.6133608818720385
1684000089682246600,2.14364697265625,-0.7962937951499038,0.2741918563983871,0.5272068976346368
1684000089692288200,2.1536884765625,-0.4825986622613023,0.21372842793055472,0.5764079094202452
1684000089702330000,2.16373046875,-0.07763814935028245,-0.025104045875736558,0.6859269142576087
1684000089712371900,2.173772216796875,0.04896312945817847,-0.5436139104993676,0.8168334960689624
1684000089722413600,2.18381396484375,0.44750216598934417,-0.5117468834030194,0.9368224144254802
1684000089732455300,2.193855712890625,0.2555263341320182,-0.642262458820034,0.6899018287152089
1684000089742497200,2.203897705078125,-0.31733387717389416,-0.24961757665290452,0.19877052304434165
1684000089752538800,2.213939208984375,-0.3734181523893657,0.37354135515040215,-0.14225196844378382
1684000089762580600,2.22398095703125,-0.8127158284520355,0.0150876045321919,-0.4379329682054465
1684000089772622600,2.23402294921875,-0.6953076719309277,-0.32986021051987957,-0.5663533210729677
1684000089782664100,2.244064453125,-0.25644817938528364,-0.28826522841198615,-0.6147155761802937
1684000089792706000,2.2541064453125,0.8297116757620911,-0.21689701093878389,-0.7876577378769315
1684000089802747800,2.264148193359375,1.016914963837174,-0.4801421164640522,-1.2174186707353534
1684000089812789400,2.27418994140625,1.255152583307404,-0.824904918650169,-2.313144207115685
1684000089822831300,2.284231689453125,1.3256814478747294,-1.2169833184459857,-2.8760142326862246
1684000089832873100,2.2942734375,1.3124648333044344,-0.817304611172346,-2.2215366362849287
1684000089842914700,2.304315185546875,0.8212244509892452,-0.03235101694653302,-1.442188263041769
1684000089852956600,2.31435693359375,0.37725305565816714,0.24602985370211092,-0.44989442829181486
1684000089862998400,2.32439892578125,-0.2052856684097205,-0.1684432030111586,-0.09840774542840752
1684000089873040000,2.3344404296875,-0.6125935315641874,-0.3991808891255779,-0.04317045223453991
1684000089883081900,2.344482421875,-1.2662303447832675,-0.17408561717554347,0.24490833267740664
1684000089893123800,2.354524169921875,-3.39464640618256,-0.4860219956158156,0.7495403288625283
1684000089903165400,2.364565673828125,-2.9155378340943767,-0.9088850021658974,0.4275445938020625
1684000089913207200,2.374607666015625,-1.3909195662905554,-0.16623115534050717,-0.32554054264112187
1684000089923249100,2.3846494140625,-1.6801848412277771,-0.26839447020758633,-0.7906408309126642
1684000089933290900,2.39469140625,-1.514830469983805,0.4034790994472252,-1.2165069580486885
1684000089943332600,2.40473291015625,-0.49421823009052906,1.7332701682753222,-1.3170266152286292
1684000089953374400,2.41477490234375,-0.4212473631265856,1.8015446663270793,-0.7864060401290351
1684000089963416200,2.424816650390625,-0.8074698447870745,0.8184270858725602,-0.9384584426911974
1684000089973457800,2.434858154296875,-0.9762264490240893,-0.6064195632108622,-1.1207256317308807
1684000089983499600,2.444900146484375,-0.956086158753683,-1.9075555800073085,-1.0164489744947895
1684000089993541600,2.45494189453125,-1.038058161719767,-3.000982761391161,-0.574254989659447
1684000090003583200,2.464983642578125,0.0009260178390957626,-2.3472223281311715,-0.3075547218378378
1684000090013625000,2.475025390625,0.3920704126651926,-1.2413582802477923,-0.8605217934220022
1684000090023666900,2.4850673828125,0.5147922038451124,-0.48808479304259605,-1.1867961883838605
1684000090033708500,2.49510888671875,0.7437325715796673,0.4952726363057467,-1.1738648414470634
1684000090043750300,2.505150634765625,0.40418767930889726,1.1833324431253347,-1.015817642256131
1684000090053792200,2.515192626953125,-0.0949153900734922,0.5504374503796726,-1.2293429374888762
1684000090063833800,2.525234130859375,-0.20890951162650576,-0.5417323112664582,-1.2890834809245968
1684000090073875600,2.535276123046875,-0.11793982983622452,-1.7858653067982229,-1.0838937759290466
1684000090083917600,2.54531787109375,-0.13921570778494527,-3.1755371092493343,-0.22828912728911221
1684000090093959100,2.555359375,-0.9525840282842134,-3.772835254699231,1.1919379233922525
1684000090104000900,2.5654013671875,-1.160007596024471,-2.0366554260933443,-0.5598120690327056
1684000090114042800,2.575443115234375,0.3680380581431097,-0.7389540673470522,-2.8677449227360157
1684000090124084400,2.58548486328125,1.1873214244844992,-0.7628135679503959,-1.1249752044865533
1684000090134126300,2.595526611328125,1.2769579885584112,-0.321023941206128,-0.14460611339610793
1684000090144168100,2.605568603515625,0.980843543949593,0.05913972859036947,-0.11083078392903213
1684000090154209600,2.615610107421875,2.3736221789881697,-0.4147891998243935,0.6684947015169217
1684000090164251600,2.62565185546875,1.5270332098295911,0.6520700455010165,-1.4664626121822226
1684000090174293400,2.63569384765625,-0.22542715076564912,0.1793580054971771,-1.986164569878992
1684000090184335000,2.6457353515625,-1.3184196949921052,-0.5097460747478078,-1.79697513581797
1684000090194376900,2.65577734375,-1.8848624230215862,-0.05176496509809247,-2.163820743509494
1684000090204418700,2.665819091796875,-2.334259748294867,0.20756387704042564,-2.2168145181044108
1684000090214460300,2.67586083984375,-1.8931111097853655,-0.40550041209380067,-2.2064080238416053
1684000090224502200,2.685902587890625,-1.22429454316998,-0.6395101548868685,-1.696796417107394
1684000090234544000,2.6959443359375,-0.3892921208570691,-0.7234053611422668,-1.573273658856316
1684000090244585600,2.705986083984375,-0.39877450468706965,-0.7174081803769699,-1.3393735885828464
1684000090254627600,2.71602783203125,-0.6320348977489993,-0.2799983024269276,-0.8680186271983978
1684000090264669400,2.72606982421875,-0.5758163927536836,-0.8137998580765881,-1.2124118805251523
1684000090274711000,2.736111328125,-1.5079097748512724,-1.7153372764554324,-0.5850849151529495
1684000090284752800,2.7461533203125,-0.831103086513393,-2.4736332892677484,-0.7041583060598445
1684000090294794600,2.756195068359375,0.5288827420400509,-0.47307872783725047,-0.4344644545674842
1684000090304836300,2.766236572265625,1.2756600381202028,0.8943443297859933,-0.36936330793171074
1684000090314878100,2.776278564453125,0.7249932289431481,1.1957826613908649,-0.3027558327499119
1684000090324920000,2.7863203125,-0.4630773067432627,0.10469675060004006,-0.02686262147336797
1684000090334961800,2.7963623046875,-0.38954973239433,0.009438991535190486,0.06657934206412483
1684000090345003400,2.80640380859375,0.038789510745984815,0.9526658058259247,-0.4081454277348462
1684000090355045300,2.81644580078125,-0.3967740535367491,0.6595253943751263,-0.4133458137502945
1684000090365087200,2.826487548828125,-0.37223434439472114,0.582503318719674,-0.5932245254310121
1684000090375128800,2.836529052734375,-0.46149086960918734,0.6814222335663024,-0.6856169701784617
1684000090385170600,2.846571044921875,-1.029114961628056,0.2533292769998293,-0.7802634239483821
1684000090395212500,2.85661279296875,-1.3220007419923903,-0.5370788574119912,-1.135647296972342
1684000090405254100,2.866654541015625,-1.2389225959082337,-0.7180595398751258,-1.7681021691232126
1684000090415295900,2.8766962890625,1.2156180143593818,-0.40020751941175114,-0.7337226866978861
1684000090425337800,2.88673828125,0.8932538032422143,0.6784515379888417,-0.2866468428168942
1684000090435379400,2.89677978515625,0.4506344794839154,1.5934355260388742,0.1761317253030575
1684000090445421200,2.906821533203125,0.19938516616330787,2.044344663552887,1.346915245117108
1684000090455463100,2.916863525390625,0.15103650096483381,1.642819404694026,0.9909214973514047
1684000090465504600,2.926905029296875,-1.6509032249738387,0.7081289292147533,-0.7803311349462009
1684000090475546600,2.936947021484375,-1.9767992496668445,0.9091634749216976,-1.0225310326419206
1684000090485588400,2.94698876953125,-1.3552272320427161,0.8504786492766948,-1.2447900770421274
1684000090495630000,2.957030517578125,-1.7546114920971925,0.4680676462071301,-1.8178830147295555
1684000090505671900,2.967072265625,-1.4111440181192099,0.3563480376476906,-2.1418857574495394
1684000090515713600,2.977114013671875,-1.2052676678749326,0.7211618424281818,-2.735873699209323
1684000090525755600,2.987156005859375,-0.41998767848809293,1.2646789551123085,-2.9404730797466936
1684000090535797200,2.997197509765625,-0.6859996318422549,-0.5299863814038308,-1.2037177084844297
1684000090545839000,3.007239501953125,-0.004160881133888777,-0.8682980537523974,-0.01192235937403624
1684000090555880900,3.01728125,0.2563271522486102,-0.4940261840250805,1.0718464852600869
1684000090565922600,3.027322998046875,-0.9094707966500416,0.42869949333982577,1.2412605285015779
1684000090575964300,3.03736474609375,-1.8551290035668822,0.6910543442080703,1.5515923498241286
1684000090586006200,3.047406494140625,-2.447847604609789,1.023017883458743,1.3063879014416897
1684000090596047800,3.0574482421875,-2.553099393751539,1.0024051665220772,1.0267705917855283
1684000090606089600,3.067489990234375,-2.2357795237942053,0.9032917022892579,0.8697543142748496
1684000090616131600,3.077531982421875,-1.8904237747109724,0.8038096428231566,0.9607868194769389
1684000090626173400,3.08757373046875,-1.4646320344205388,0.4398255347008821,1.1838102341276502
1684000090636215000,3.097615478515625,-0.7079100608843508,0.21809196476792367,1.2634077071393626
1684000090646256800,3.1076572265625,-0.277269601765915,-0.036100387556463644,1.8105440138977273
1684000090656298600,3.117698974609375,-0.09071278570062637,-0.1062245368026913,2.997231483565258
1684000090666340300,3.12774072265625,-1.0848152636669324,0.06585311893841035,2.547688484257705
1684000090676382100,3.137782470703125,-1.854058742584504,-0.8914961814845741,2.466181754966584
1684000090686424000,3.147824462890625,-1.688461780398203,-0.9107799530792038,1.807223320023854
1684000090696465600,3.157865966796875,-1.3054964542991505,-1.3792686462988435,1.3105883599628863
1684000090706507400,3.167907958984375,-0.9974601268644534,-1.7002019881221215,0.597028732215159
1684000090716549300,3.17794970703125,-0.750952243808285,-1.8923707008218797,0.37363815316827037
1684000090726590900,3.1879912109375,-0.0025317668216786357,-1.7626690864703813,0.7292618752840542
1684000090736632800,3.198033203125,0.6788785457098971,-3.8190670013654877,2.7374434471397273
1684000090746674600,3.208074951171875,0.9920805693425336,-2.8066039084469003,1.826752662692831
1684000090756716200,3.21811669921875,1.302224039964602,-0.28516626366920517,-0.8384509087384051
1684000090766758100,3.228158447265625,1.7992067336794175,0.2426738739176789,-2.8885393141547118
1684000090776799900,3.238200439453125,2.06592798226412,-0.18234729764753893,-3.3583145142703987
1684000090786841800,3.2482421875,1.8046628235758835,0.5523686409829629,-2.838387012432734
1684000090796883400,3.25828369140625,1.6571910380689694,0.8350276946929156,-2.640094757054471
1684000090806925200,3.26832568359375,1.3914415836915806,0.3862986565764132,-2.3619532585872833
1684000090816967100,3.278367431640625,1.1201095581077825,-0.03734302521327714,-1.8275523184998772
1684000090827008900,3.288409423828125,1.041109800340292,-0.23015022293074325,-0.9601454735135629
1684000090837050600,3.298450927734375,1.0376405716116555,-0.21838045123673908,-0.08285808554848763
1684000090847092400,3.308492919921875,1.0915361643186998,-0.5499014853616999,0.5305538178663073
1684000090857134300,3.31853466796875,1.0784974097388005,-0.2549304961337145,0.6847529412449169
1684000090867175900,3.328576171875,0.8137855528997043,-0.13743114484487778,0.2753610610346144
1684000090877217600,3.3386181640625,0.11153364188650051,-0.34354400625764103,-0.993661403670353
1684000090887259600,3.348659912109375,-0.11932790273577912,-0.3324761390450427,-2.022428512647064
1684000090897301200,3.35870166015625,-0.9644871949212911,-1.7026071549157902,-3.4061651231630425
1684000090907343000,3.368743408203125,-0.9816713333636506,-2.781544208508641,-1.1317496299471812
1684000090917384900,3.378785400390625,-0.1320126056928052,-1.112381458374286,-0.3491849898444349
1684000090927426600,3.388826904296875,0.1259001492857078,-0.4898061753032417,-0.015379428931368563
1684000090937468300,3.39886865234375,1.0141335725325595,0.6701078414996756,-0.018854141108721776
1684000090947510200,3.40891064453125,1.8458534478583335,1.0323381423409144,0.45534706128288954
1684000090957552000,3.418952392578125,1.1134204864830006,-0.24312829957866022,-0.060253143336729396
1684000090967593600,3.428994140625,0.35616052135613685,-1.2558012007921397,-1.004080772344663
1684000090977635600,3.439035888671875,-0.27244257933580823,-1.2945394515645752,-1.9588260650129168
1684000090987677400,3.449077880859375,-0.36413347707890487,-0.8707203865208752,-1.630921840587847
1684000090997719000,3.459119384765625,-0.33326822521076677,-0.8947620390484378,-0.9269514083212936
1684000091007760800,3.4691611328125,1.2154829502078113,-0.07107543939806263,-0.43951797497351014
1684000091017802600,3.479203125,0.9476959704577042,-0.9738912582484308,-0.3582406044288092
1684000091027844300,3.48924462890625,1.159824967545958,-1.2415142060206736,-0.5433650016016225
1684000091037886100,3.49928662109375,0.93812716003486,-0.5732760428393867,-0.6856665611049643
1684000091047928000,3.509328369140625,0.9621514083298963,-0.4245171546247068,-0.4873800279069492
1684000091057969600,3.519369873046875,0.6010997890488577,-0.38858318309894674,-0.2826356888047447
1684000091068011400,3.529411865234375,0.0895210057103427,0.12227344520644079,0.524611949854903
1684000091078053300,3.53945361328125,-0.029431611383091694,0.7071886062603013,-0.05568313590810365
1684000091088095200,3.54949560546875,0.5972122549439945,0.46620225894744655,-0.18525791171455236
1684000091098136800,3.559537109375,2.0408957006029276,-0.6496338843437278,0.42025327684362784
1684000091108178600,3.5695791015625,3.5032281874396687,-1.240742206401966,0.4453730583216
1684000091118220500,3.579620849609375,2.9401133059474702,-1.3656849860700706,-0.013051509883848364
1684000091128262300,3.589662841796875,0.9581393005201789,-1.771285534012407,-0.1078004836468648
1684000091138303900,3.599704345703125,0.018280818975841842,-1.393940925625957,0.12598848355204081
1684000091148345800,3.60974609375,-0.1692874133426087,-0.6761770248981569,0.17999410638526042
1684000091158387600,3.6197880859375,0.14606323828766193,-0.2164192200857368,0.45226049420671466
1684000091168429200,3.62982958984375,0.45848155013845293,0.1344819069122614,0.6362428665065508
1684000091178471100,3.63987158203125,0.9307144283506708,0.25643587112542526,0.5606255529411619
1684000091188512900,3.649913330078125,1.0964223146588512,0.7417588234260126,-0.19328069673864745
1684000091198554600,3.659954833984375,0.3773345053452766,0.3949980737403711,0.09828186028634973
1684000091208596400,3.669996826171875,-0.5364593863353468,-0.27335023879896503,0.07575941088222235
1684000091218638300,3.68003857421875,-0.5549834371850753,-0.5823564530623012,0.4915180205141025
1684000091228680100,3.69008056640625,-0.36707171790924925,-1.0890998839676758,1.3374938966694199
1684000091238721600,3.7001220703125,0.3525050282937711,0.32666587830189814,-1.7979979515870594
1684000091248763600,3.7101640625,1.6057304144334816,1.874991416906239,-1.9955148697863854
1684000091258805400,3.720205810546875,1.7006180285982808,2.841118812521785,-1.2672448157938059
1684000091268847300,3.73024755859375,0.05562824002921554,1.074122428831942,-1.8768653869545244
1684000091278888900,3.740289306640625,0.004313230651108655,0.22511291499600983,-1.4102454185762299
1684000091288930700,3.7503310546875,0.21110928048929575,0.16292238243441307,-0.5274353027524876
1684000091298972600,3.760373046875,0.39894837146878503,0.5879096983787264,0.285103797904721
1684000091309014200,3.77041455078125,0.4930819272125819,0.8447499275142037,0.5250444412317965
1684000091319056000,3.78045654296875,0.7095355390832351,0.7068738936483959,0.5356388090828618
1684000091329097900,3.790498291015625,0.8182910680295696,0.12095069886534203,0.5080256461802888
1684000091339139600,3.800539794921875,0.9754809139792123,0.04717445369454828,0.4748668671699138
1684000091349181400,3.810581787109375,0.9845131636649062,0.223877906941715,0.24229002001195046
1684000091359223200,3.82062353515625,0.7838388679806777,0.9157037736149957,0.24871301651131353
1684000091369265100,3.83066552734375,0.3695678710882781,1.392925739151235,-0.0907635688721428
1684000091379306600,3.84070703125,-0.1484550237091115,0.9026212691967671,-0.27450275416349623
1684000091389348600,3.8507490234375,-0.10200342548381337,0.7381615638747487,-0.41511774056531003
1684000091399390400,3.860790771484375,0.3961211441746991,1.4547810553775402,-0.9235877990718371
1684000091409432000,3.870832275390625,0.16104441867106478,1.6355772019073644,-0.8128294944583669
1684000091419473800,3.880874267578125,-2.089409828268621,0.55651998505085,-0.9966893196025562
1684000091429515600,3.890916015625,-1.5166798830924841,0.29296016692688187,-1.1375608444057739
1684000091439557300,3.900957763671875,0.8206844329893395,0.5140757558946664,-0.655923843337929
1684000091449599200,3.91099951171875,1.569411277761373,-1.385061263996222,-1.0495910644614812
1684000091459641000,3.92104150390625,2.513694048007729,-1.3748183250734611,-0.46582365045089186
1684000091469682900,3.931083251953125,3.125404596488066,-0.9164257048983663,-0.570598602413239
1684000091479724600,3.941125,3.483161449536048,0.4185519218337016,0.03933382029735337
1684000091489766300,3.951166748046875,3.6096343993686744,1.3102388381265986,1.148187637211653
1684000091499808200,3.96120849609375,2.5227141379287676,1.2391767503628284,2.246842384489382
1684000091509850000,3.97125048828125,0.7103208303858102,-0.25374793991980327,3.6310806274654954
1684000091519891600,3.9812919921875,-0.2711105942534746,-1.467621803171564,2.286476612185551
1684000091529933600,3.991333984375,-0.9668598771066839,-1.6680879592947053,0.5233812333378473
1684000091539975300,4.001375732421875,-1.3213530777550673,-1.262095451364306,-1.1977233887104106
1684000091550016900,4.011417236328125,-1.4624966383977676,0.3093085288312308,-2.3330950736216822
1684000091560058800,4.021459228515625,-1.7485946416462042,1.6043734550510174,-2.355046749117485
1684000091570100600,4.0315009765625,-1.4612308741734403,1.5063667298052326,-1.0147933959727433
1684000091580142600,4.04154296875,-1.4046020507431465,-0.4482622146948653,1.363300323582848
1684000091590184100,4.05158447265625,-0.4696502985099821,-0.7613000870257584,2.155226707470687
1684000091600226000,4.06162646484375,0.2534712553139239,-0.4503927232347318,2.3887548448396223
1684000091610267800,4.071668212890625,-0.177015885750549,-0.9927368165253704,1.8780169487020482
1684000091620309400,4.081709716796875,-1.2931081056761073,-1.9570226668640098,0.9522223471833494
1684000091630351300,4.091751708984375,-1.2976435421571095,-0.11077117918328297,0.15852260605780938
1684000091640393100,4.10179345703125,-0.48112848397296054,0.8714447022834928,-0.3832960128401731
1684000091650435000,4.11183544921875,0.6545248031680805,1.1059694290503748,-0.2579040528282321
1684000091660476600,4.121876953125,1.2053208351939804,0.8985004424899962,0.6236190795639713
1684000091670518400,4.1319189453125,1.4007132052928717,0.5143866538600664,1.6063323021551765
1684000091680560300,4.141960693359375,1.0422680378458917,0.021670341641141806,2.1012506486015643
1684000091690602200,4.15200244140625,0.3192034363988201,0.30765485776665397,1.8784356118097798
1684000091700643800,4.162044189453125,-0.41131168592550144,1.3153815269436708,1.1379861832629865
1684000091710685600,4.1720859375,-0.6071214078398026,0.5895290374703237,0.5986366270954515
1684000091720727600,4.1821279296875,0.010966386673778595,0.7349686621385386,0.8521819114372488
1684000091730769100,4.19216943359375,1.0289605855923911,0.027289390560170452,1.3462300300667467
1684000091740810900,4.20221142578125,1.7345747946999586,-0.9056100846306226,1.6079187392931311
1684000091750852800,4.212253173828125,1.8885581493026957,-2.0146322250131368,1.102065086392905
1684000091760894600,4.222294921875,1.628434419593932,-2.750090599097846,-0.8885078428456107
1684000091770936200,4.232336669921875,1.4956041575162486,-1.397656917651213,-0.765126228352761
1684000091780978100,4.24237841796875,0.9242238403712408,-0.0668544769557484,0.48807477937688243
1684000091791020000,4.25242041015625,0.22937655459133466,0.7862477303842901,1.562293529376922
1684000091801061800,4.262462158203125,0.182368099761876,1.5620970726050574,2.243219375580444
1684000091811103400,4.27250390625,-0.160499572683968,0.3566398620881108,1.2669239044707898
1684000091821145300,4.282545654296875,-0.19410602755713477,-0.4603171349289615,0.47346925736830014
1684000091831187100,4.29258740234375,-0.2079843431072193,-0.5502080916860412,-0.8886618613984978
1684000091841228600,4.302629150390625,-0.3792837560882183,-0.5368027687706384,-2.1612052916425535
1684000091851270600,4.3126708984375,-0.4117923976671014,-0.5914564132686527,-2.7223434447761647
1684000091861312400,4.322712890625,-0.41638889906894416,-0.639774799303219,-2.762663364412319
1684000091871354300,4.332754638671875,-0.4531870185887958,-0.7921600342094876,-2.401771545386468
1684000091881395900,4.34279638671875,-0.46391436469588115,-0.8917427061766919,-2.115033626487689
1684000091891437700,4.352838134765625,0.068499237302092,-0.31693744647176164,-2.0345802307614385
1684000091901479600,4.3628798828125,-0.34843155736424813,-0.4318799972046092,-1.979754448037742
1684000091911521200,4.372921630859375,-0.757564127474334,-0.45280838024465353,-1.9182972907614009
1684000091921563100,4.38296337890625,-1.181579351340465,0.37928104396108175,-3.164732694582247
1684000091931604900,4.39300537109375,-1.1375865936166392,0.29588031767930467,-3.442011356245263
1684000091941646800,4.403047119140625,-1.450279951115446,0.3710374831708736,-2.4901413916919375
1684000091951688400,4.4130888671875,-1.2915843725421348,1.034271240290392,-2.0815234184956566
1684000091961730200,4.423130615234375,-1.0691605806736706,1.7965435981981976,-2.0956945418777404
1684000091971772100,4.43317236328125,-1.0363324880376978,1.8980298043899968,-2.2047603130587077
1684000091981813900,4.44321435546875,-0.9602280856347161,1.3517055510331215,-2.2296838760807756
1684000091991855600,4.453255859375,-0.989910006557003,1.8891663551565439,-3.2237200736620446
1684000092001897400,4.4632978515625,0.30245637898681715,4.479979991925284,-4.612876891925996
1684000092011939200,4.473339599609375,0.4588308334483125,1.3686466217280417,-2.6631751060348576
1684000092021980800,4.48338134765625,-0.3304506539545732,-0.06318569172620539,-2.782617807408641
1684000092032022600,4.493423095703125,-0.2731307744847745,-1.9665422439843039,-2.5634627342416167
1684000092042064600,4.50346484375,-0.28575813769514685,-3.253455162130827,-0.30496120459486303
1684000092052106400,4.5135068359375,0.35108697420654483,-2.660096168487137,0.7589287758852706
1684000092062148300,4.523548583984375,0.7202920914530747,-2.0309133529864782,1.6758480070462978
1684000092072189900,4.53359033203125,0.6534296273272583,-1.2880926133049713,2.929366111673333
1684000092082231600,4.543632080078125,0.40324604514754864,-1.3643436430665912,3.6415119173049795
1684000092092273600,4.553674072265625,0.17989027499660123,-1.9390974045252405,4.047275543322199
1684000092102315200,4.563715576171875,0.01966738704747447,-0.31502056107349385,3.51748394967458
1684000092112357000,4.57375732421875,-0.37748432157539535,-3.501367568975355,3.2433421611105584
1684000092122398900,4.58379931640625,-0.13855862632936164,-2.975557327282683,2.8159403801407272
1684000092132440800,4.593841064453125,-0.44319987288723756,-2.310328483578999,3.6230010986227197
1684000092142482400,4.6038828125,-0.677952766555668,-1.7337484359558533,3.4357511997122616
1684000092152524200,4.613924560546875,-0.9348981380420743,-1.4205255507309356,2.2989921570497183
1684000092162566100,4.623966552734375,-1.0538384914101817,-0.9916315077580751,0.5413899421762798
1684000092172607600,4.634008056640625,-0.9579102993131061,-0.20813655865823366,-0.7135882377607294
1684000092182649600,4.6440498046875,-0.6369090079538271,-0.7711420058641877,-1.5229544639052341
1684000092192691400,4.654091796875,-0.6770606041302012,-1.02367591856785,-1.0726559161415878
1684000092202733200,4.664133544921875,-0.15467762949390218,-0.5660047530649919,-0.6851518156055458
1684000092212774800,4.67417529296875,0.4368919133399623,-0.515064239574302,-0.5550026894475173
1684000092222816600,4.684217041015625,0.7876757383819685,-0.6684827804786561,-0.20185637473478651
1684000092232858600,4.694259033203125,1.0010482072497606,-0.8553543091336303,-0.0053536891606404974
1684000092242900400,4.70430078125,1.0644418001500602,-0.970973968528231,0.06785583491101228
1684000092252942000,4.71434228515625,1.092834114948067,-0.9290456773210517,0.22651004790569623
1684000092262983900,4.72438427734375,1.244916319886404,-0.7317790984030896,0.19823694229899974
1684000092273025600,4.734426025390625,1.2826170921080737,-0.7064247130000607,0.23529934871717786
1684000092283067300,4.7444677734375,1.3299677371729748,-0.40110492713266443,0.5492620468673527
1684000092293109200,4.754509521484375,1.68968093394002,0.33496665957822275,0.09045314806941437
1684000092303151000,4.764551513671875,0.9630494117720663,-0.0462722779169577,-0.4751932619867157
1684000092313192900,4.77459326171875,-0.8616033793327308,1.2415513991437304,-0.631973981933385
1684000092323234600,4.784634765625,-2.282959461252414,1.4212183951568313,-1.2839651107919887
1684000092333276300,4.7946767578125,-1.4318988322406547,0.7535409927700478,-2.1875629425531904
1684000092343318200,4.804718505859375,-0.517561793227147,0.6758937835332843,-2.439795255819551
1684000092353360000,4.814760498046875,-0.39421188828455794,1.6219587325468696,-2.293538331912863
1684000092363401600,4.824802001953125,-0.8294403551897306,2.3564567566599166,-1.7405271528977662
1684000092373443600,4.834843994140625,-1.0652633905847413,2.677233219112895,-1.0434455872804078
1684000092383485400,4.8448857421875,-0.7933313846205798,2.2301545144486306,-0.22671389589025195
1684000092393527200,4.854927734375,-0.6200160978837539,1.2085037231000066,-0.08738756178550089
1684000092403568800,4.86496923828125,-0.5700929165173909,0.7233247756493361,-0.22846388809642634
1684000092413610600,4.875010986328125,-0.5912733077992689,0.9478864668831669,-0.45256257040736436
1684000092423652600,4.885052978515625,-0.03640937799498597,1.2200260160960432,-0.5463869572933737
1684000092433694400,4.8950947265625,0.27186930180302504,1.6259908676170047,-0.5100867747977145
1684000092443736000,4.905136474609375,0.33034098154898756,2.053039074081962,-0.5586812497107169
1684000092453777800,4.91517822265625,0.2914012669625088,2.485766887752775,-0.6708071231466796
1684000092463819600,4.92522021484375,0.1163258554041134,2.6901812554681603,-0.7727556229473045
1684000092473861600,4.935261962890625,-0.36772966380949706,2.5687770843314284,-0.7224142550838287
1684000092483903200,4.945303466796875,-1.060541629823191,1.7908339499609889,-0.6012055872933255
1684000092493945000,4.955345458984375,-1.1737697123828752,1.4532823562295245,-0.5845746994087614
1684000092503986900,4.96538720703125,-0.9240977762868462,1.3264169692450516,-0.5045666694865887
1684000092514028500,4.975428955078125,-0.8612003327365978,1.12519407258913,-0.520440101675666
1684000092524070300,4.985470703125,-0.918888091949033,0.8939619063081516,-0.5062961578485271
1684000092534112200,4.9955126953125,-0.8805356024619663,0.011322021573810329,-0.7081134318837429
1684000092544154000,5.005554443359375,-0.6152796745393107,-0.47588348394271324,-1.0904099941417023
1684000092554195600,5.015595947265625,-0.3226339816390565,-1.1334066389732473,-1.5522785186181438
1684000092564237600,5.025637939453125,-0.03918719289206524,-1.9734153747413146,-1.940565586011372
1684000092574279300,5.0356796875,0.30551552765122586,-2.4968767166920074,-1.9034843444513365
1684000092584321200,5.0457216796875,0.5412685872065657,-2.3885412217535493,-1.1307132245344926
1684000092594362800,5.05576318359375,0.8132152558639849,-1.2329235077064233,-0.26485109335551316
1684000092604404600,5.06580517578125,0.3408133984521321,-0.19794654859566008,0.5205562114521207
1684000092614446600,5.075846923828125,-0.7422778606543797,-0.4926052091631319,1.2282431126748494
1684000092624488400,5.085888671875,-0.75977635369096,-1.0147457123220969,1.855193615039844
1684000092634530000,5.095930419921875,-0.7254240513578383,-0.8464288711113988,2.5912907123083406
1684000092644571800,5.10597216796875,-0.035001516411208966,-1.5304470063115707,2.740357399167707
1684000092654613600,5.11601416015625,0.25038576133997936,-1.225629806463174,3.0877945423665785
1684000092664655600,5.126055908203125,0.119647026090578,-1.3603324890153814,2.4834079742938004
1684000092674697100,5.13609765625,0.36064457893263047,-1.1942739486689007,1.4173800945132753
1684000092684739000,5.146139404296875,-0.2620804311218353,-0.5902471541950935,0.4835116863212991
1684000092694780800,5.15618115234375,-0.478970766088654,-0.7277669906289262,-0.699203968006036
1684000092704822400,5.166222900390625,-0.2772397994393148,-0.041114807257676016,-1.1773464679045296
1684000092714864300,5.1762646484375,-0.593576192917501,0.19724845881036987,-1.4591441154678506
1684000092724906200,5.186306640625,-0.564228296237278,0.3082942963318928,-1.6062431334024387
1684000092734948000,5.196348388671875,-0.3960347175513761,0.2641353607702359,-1.6094151736295903
1684000092744989900,5.206390380859375,-0.29792618748321575,0.3252220153340944,-1.5805381536293426
1684000092755031600,5.216431884765625,0.03843927369572326,0.32712268821342766,-1.495603561543468
1684000092765073300,5.2264736328125,0.07737231260751262,0.4072093964540073,-1.395404219711276
1684000092775115200,5.236515625,0.01153254506152746,0.15979003897364488,-1.1632258891764076
1684000092785156800,5.24655712890625,-0.25549507160272744,0.6541614532533734,-0.5056564807252458
1684000092795198600,5.25659912109375,-0.566649675345846,-0.5722637175021622,-0.7593615054699213
1684000092805240600,5.266640869140625,-0.7511472702318992,-0.947072982742074,-0.6014564037897203
1684000092815282400,5.276682861328125,-0.8627433776405748,-0.388067245440537,-0.5875020027538054
1684000092825324200,5.286724609375,-0.8068904877204318,-0.6310281752334621,-0.31800365455901086
1684000092835365800,5.29676611328125,-0.30457425120931264,-0.6132440566903454,-0.7170462608263374
1684000092845407600,5.30680810546875,0.05488443379060282,-0.7011203766888985,-1.1547008754555228
1684000092855449600,5.316849853515625,0.880461692770904,1.6054005621320087,-0.9073395728797304
1684000092865491100,5.3268916015625,-0.2741818427551403,-1.7490663528520294,-1.5440981388087185
1684000092875533000,5.336933349609375,-0.4902048111535489,-1.1728258134171725,-1.3141316175124105
1684000092885574800,5.346975341796875,-0.8391923905203748,-0.47230339051130066,-0.6473104954125931
1684000092895616600,5.35701708984375,-0.8172092436835119,0.023037910448388543,-0.2535750867198345
1684000092905658300,5.36705859375,-0.2582213879294698,1.7090873717603043,0.5225627420965075
1684000092915700100,5.3771005859375,-0.3953294753064477,-1.454278945991126,0.5906791687635781
1684000092925742000,5.387142333984375,-1.4368176459295445,-2.4787673949365683,0.5444710255547855
1684000092935783900,5.397184326171875,-2.287168264428789,-1.6602354049869839,1.133319616332949
1684000092945825500,5.407225830078125,-2.189752101959956,-0.35328102124044086,1.584150075981691
1684000092955867300,5.417267822265625,-1.4799823759621165,-0.20895767212517233,1.3323256969495132
1684000092965909200,5.4273095703125,-0.015045642864485042,2.685582160865733,1.6824965475640394
1684000092975951000,5.437351318359375,0.4747753143920724,-0.07870674122662823,0.2977137564999374
1684000092985992600,5.44739306640625,0.16614007951080756,-2.813988685630747,-1.0042942761847873
1684000092996034600,5.457434814453125,0.4322884082358347,-0.9286489487141187,-1.0947033167737923
1684000093006076300,5.467476806640625,0.7275595664880117,0.29276466361835823,-0.4183965920617298
1684000093016118200,5.4775185546875,0.7229723930718446,0.2919702529253689,-0.04440784455651706
1684000093026159800,5.487560302734375,0.6599328516826978,0.028543472298975647,0.15633106231949906
1684000093036201600,5.49760205078125,0.8447170258792971,0.16714191451980787,0.38267731676253924
1684000093046243600,5.507643798828125,1.0698711872155982,0.271805763250145,0.5069839954996547
1684000093056285400,5.517685791015625,1.4988515377749678,0.28121852876830616,0.5450329780416403
1684000093066327000,5.527727294921875,1.4904710053889518,0.3220701217574317,0.505255699066763
1684000093076368800,5.537769287109375,1.4683990478496276,0.4339008331255534,0.5459249018265614
1684000093086410600,5.54781103515625,1.3408411740639814,0.28212070466905337,0.26888585089749567
1684000093096452600,5.55785302734375,1.1851798297460283,0.11226558696475324,-0.04162383093129644
1684000093106494100,5.56789453125,1.051944375059917,-0.1360816954238847,-0.110242366675344
1684000093116536000,5.577936279296875,0.7126102446152491,-0.20379161836040902,-0.1607117652597301
1684000093126577800,5.587978271484375,0.17412042627839644,-0.39190864566464323,0.11928963668357047
1684000093136619600,5.59802001953125,0.17492604249263602,0.10800933835291443,0.5066008567023165
1684000093146661300,5.608061767578125,0.5934407710527636,0.8023357392885754,0.6051700115587271
1684000093156703200,5.618103515625,0.8353711367098288,0.5231580734371669,0.34121155751093024
1684000093166745000,5.6281455078125,1.363082051297583,0.3117074967058604,-0.18940472601199385
1684000093176786900,5.638187255859375,1.8973686695498073,0.860123634328633,-0.8501418828829883
1684000093186828500,5.648228759765625,3.6654844282507684,3.3333730697474664,-1.4250065088428263
1684000093196870300,5.658270751953125,1.7769556044524855,0.9868297577380699,-0.9775748254047579
1684000093206912200,5.6683125,0.7707984447796624,0.204067230103042,-0.06136798859816149
1684000093216954000,5.6783544921875,0.3737925291411431,0.7601079940311795,0.21169424058420083
1684000093226995600,5.68839599609375,-0.528884887590343,0.2383165358519451,0.06603789340100573
1684000093237037600,5.69843798828125,-1.260284185515875,-1.5857563018466547,-0.26339435577624626
1684000093247079300,5.708479736328125,-1.6418945789692494,-3.8243837357310193,-0.26970851420175723
1684000093257121200,5.718521484375,-2.413966655610792,-4.176572799812424,-0.19627571100656283
1684000093267162800,5.728563232421875,-2.954304218308375,-0.6495008469153495,-0.4804117680561479
1684000093277204600,5.73860498046875,-2.7645261286562817,1.1423263550799183,-1.2269972562534446
1684000093287246600,5.74864697265625,-1.922437429296384,0.6587934494793686,-1.854634046482379
1684000093297288400,5.758688720703125,-1.0006693600571595,0.04874038690594917,-1.6705825328945425
1684000093307330000,5.76873046875,0.07324904210948696,-0.09958839424263462,-0.908885121197944
1684000093317371800,5.778772216796875,0.8955335021499994,0.04426765450979346,-0.30091214181896864
1684000093327413600,5.78881396484375,1.2242326736293911,0.3562669752172223,-0.012472391117983268
1684000093337455600,5.79885595703125,1.4330327510040062,0.7306785582965637,0.052613020085347774
1684000093347497100,5.8088974609375,1.6723408699007676,1.0008268356888974,0.16785788532234625
1684000093357539000,5.818939453125,1.4831876753840048,1.3428039550556004,-0.033238649403575654
1684000093367580800,5.828981201171875,1.0716151000192702,0.5926446915971102,-0.6360701322943183
1684000093377622600,5.839023193359375,0.959329783829842,0.9234409331298113,-0.7047162056451526
1684000093387664300,5.849064697265625,0.798348069260271,1.4607353209273086,-0.7972306013911784
1684000093397706200,5.8591064453125,0.5759077071305769,1.6933417319693935,-0.9928246736684486
1684000093407748000,5.8691484375,-0.030321389524466662,1.26896286002401,-1.2625885008811848
1684000093417789900,5.879190185546875,-0.7723321914228412,0.5451154708749544,-1.2907056807107893
1684000093427831500,5.88923193359375,-1.342542409919378,-0.151150703287818,-0.906551837908913
1684000093437873300,5.899273681640625,-1.5051071643541458,-0.29179286949506483,-0.06392157066744038
1684000093447915200,5.909315673828125,-1.1417192220215577,0.22825908652980328,1.16020417216378
1684000093457957000,5.919357421875,-0.9760908485708185,-0.6181554793911522,2.0029978752340845
1684000093467998900,5.9293994140625,-0.5469545720717528,-1.1559906005129277,2.0513441562888604
1684000093478040600,5.93944091796875,0.20001107452802105,-1.86929893493556,2.095266342109763
1684000093488082400,5.949482666015625,0.8725774288588842,-4.004186630386413,2.0057616232172526
1684000093498124200,5.959524658203125,2.263344764679092,-1.319010734562667,1.3492068051821826
1684000093508165800,5.969566162109375,2.6934232712352784,0.652338981776408,0.38105702397517927
1684000093518207600,5.979608154296875,2.425951003923584,1.5015077591881036,-0.09697306162659472
1684000093528249600,5.98964990234375,1.8149852752525613,-0.12994194025087105,-0.9094335437710348
1684000093538291400,5.99969189453125,1.6464943884933614,-0.7628536223910147,-0.8454914092741471
1684000093548333000,6.0097333984375,2.0100843905981525,-0.6014070510938303,-0.8626202343317945
1684000093558374800,6.019775146484375,1.903525590938155,-0.18406105047169707,-0.9136650562006601
1684000093568416600,6.029817138671875,1.45574510100201,-0.018924713148773233,-1.1493263244628258
1684000093578458600,6.03985888671875,0.9784621000342278,-0.22536945340396566,-1.0220890045344542
1684000093588500400,6.04990087890625,0.8372032045780436,0.00625705717221283,-0.972285747537286
1684000093598542000,6.0599423828125,0.5103246569597463,-0.5283403397759531,-0.6863172054926832
1684000093608583900,6.069984375,0.20671302082807777,-0.5453405380406409,-0.35883891572228205
1684000093618625600,6.080026123046875,-0.005933523225164862,-0.45985317229694234,-0.15140044683252807
1684000093628667600,6.09006787109375,-0.020089030152971445,-0.40130901347125675,-0.0408356190799858
1684000093638709200,6.100109619140625,0.08558821676165768,-0.2666368483080825,-0.10276234154548393
1684000093648751000,6.1101513671875,0.15291029212900187,-0.20881652833538888,-0.19098901744432425
1684000093658792900,6.120193359375,0.273731470090817,-0.07978439337354569,-0.40856480597438893
1684000093668834600,6.13023486328125,0.2681508064396005,0.15976715092577676,-0.7849361896504996
1684000093678876300,6.14027685546875,0.1950311065841761,-0.2788572310462277,-0.5887689590218926
1684000093688918200,6.150318603515625,0.21984672547035158,-0.3701000213569446,0.03820419298543273
1684000093698960000,6.1603603515625,0.3100028036214963,-0.2878589629677026,0.05693805223203554
1684000093709001900,6.17040234375,0.38216692192761886,-0.010498046802210628,-0.28326451771196026
1684000093719043600,6.18044384765625,0.5243085026772216,0.7645235060987192,-0.2757790088496979
1684000093729085400,6.19048583984375,0.3450511098758791,0.007064819331925727,0.30334472654745576
1684000093739127200,6.200527587890625,0.280507147425535,-0.32918453234516404,0.4948625563678036
1684000093749169100,6.210569580078125,0.0827396511780952,-1.162480354230609,0.370797991623299
1684000093759210900,6.220611328125,0.43199661364953656,-0.07828617102033221,-0.05918705471939551
1684000093769252600,6.23065283203125,0.45448002216975947,0.5388679504896803,-0.25449895862333166
1684000093779294400,6.24069482421875,0.2650468349676588,-0.06098270422841514,-0.0961263180181154
1684000093789336200,6.250736572265625,0.1778416633668207,-0.30593204503922794,-0.17388963686055867
1684000093799378100,6.260778564453125,0.2173491120366112,-0.31827926632748604,-0.175396561525862
1684000093809419600,6.270820068359375,0.12621754393182633,-0.42816448212683184,-0.23767006401782698
1684000093819461600,6.280862060546875,-0.04914569842351834,-0.7093191147547044,-0.37642085542402465
1684000093829503400,6.29090380859375,0.09124076376774191,-0.45902633681238275,-0.4535809754028526
1684000093839545000,6.3009453125,0.24384015805671055,-0.1658630372067298,-0.4992359876998578
1684000093849586900,6.3109873046875,0.24957257502752866,-0.014063835249756981,-0.4964901209950521
1684000093859628600,6.321029052734375,0.3346935510317226,0.18007564562653364,-0.3953863382401746
1684000093869670600,6.331071044921875,0.4526162744338638,0.18205165855982655,-0.3243429660714252
1684000093879712400,6.34111279296875,0.5183410643386166,-0.02423667904157059,-0.3417268992790927
1684000093889754000,6.351154541015625,0.5133466720198153,-0.23968982686787088,-0.4280660153450937
1684000093899795900,6.3611962890625,0.5079810619406269,-0.3446750640836935,-0.48717480904376353
1684000093909837700,6.371238037109375,0.47135680898522364,-0.3728942870796308,-0.5346488357811582
1684000093919879600,6.381280029296875,0.4477686882599038,-0.14317226412080866,-0.5529894828322018
1684000093929921200,6.391321533203125,0.39453256138205767,0.4151773452579672,-0.4439812303976618
1684000093939963100,6.401363525390625,0.33510768423611337,0.5299301148401991,-0.3518910408175621
1684000093950004900,6.4114052734375,0.9362235068812068,1.3639593124958964,0.292258143406405
1684000093960046800,6.421447265625,0.6381311415803803,0.7789459227286197,0.5858837367473115
1684000093970088400,6.43148876953125,0.8053500056403184,0.42295169836428687,0.7559309005116736
1684000093980130200,6.441530517578125,1.1370934248859101,0.36579227443575313,0.7745393513184106
1684000093990172100,6.451572509765625,1.1671761272805297,0.2870302200950527,0.8310950994964977
1684000094000213900,6.4616142578125,0.8551150560509351,0.25357913987842784,0.7045968770940607
1684000094010255600,6.471656005859375,0.545059800039385,0.38775634761234795,0.6403324605037118
1684000094020297400,6.48169775390625,0.11467763780512913,0.4142398833502945,0.6613473891588735
1684000094030339200,6.49173974609375,-0.3860337733104913,0.23903465276846173,0.7787530423203092
1684000094040381100,6.501781494140625,-0.7907384633779432,0.05296516425810685,0.6830544472792652
1684000094050423000,6.5118232421875,-1.001137733441035,0.07164859769463036,0.3954497574770289
1684000094060464600,6.521864990234375,-1.112645506892679,0.11159515381419105,0.1888737678538206
1684000094070506400,6.53190673828125,-1.079578519003086,0.04426860795415049,0.11350202557164737
1684000094080548300,6.54194873046875,-0.8525789976681137,-0.0369377134567914,0.08522403229758892
1684000094090590100,6.551990478515625,-0.5923192501075608,-0.125330924877223,0.017331004249029867
1684000094100631700,6.5620322265625,-0.24043932549387192,-0.23793888100269472,-0.1018060444998066
1684000094110673600,6.572073974609375,0.16723911465596764,-0.13563060766321872,-0.2619690895328076
1684000094120715400,6.58211572265625,0.45402774227522025,-0.021429061943906383,-0.46604645270448214
1684000094130757300,6.59215771484375,0.6146063804502924,0.04542446142853136,-0.6449292897335623
1684000094140799200,6.602199462890625,0.6747618914499846,0.038974762027134506,-0.609180808088065
1684000094150840800,6.6122412109375,0.639654397946148,-0.01245880133507018,-0.4102205036464632
1684000094160882600,6.622282958984375,0.5473582744411153,-0.018439292936826973,-0.3442306519547289
1684000094170924500,6.632324951171875,0.3886312842155735,-0.0389595031330958,-0.32060289386711227
1684000094180966300,6.64236669921875,0.2685586512482658,-0.02126598349614206,-0.35685765745821674
1684000094191007900,6.652408203125,0.17026667288662586,-0.0868701934863594,-0.4025180339782496
1684000094201049800,6.6624501953125,0.09094172723559027,-0.2450332641156561,-0.37087869627692993
1684000094211091600,6.672491943359375,0.0414084494831875,-0.23970890038317716,-0.4060037137247561
1684000094221133600,6.682533935546875,0.061698168670445204,-0.18842220302421714,-0.3364301920043375
1684000094231175100,6.692575439453125,0.19443069408176183,-0.1348686218026182,-0.1972570419301765
1684000094241216900,6.702617431640625,0.34994903194799926,0.05414104449356643,-0.08070635794672783
1684000094251258800,6.7126591796875,0.43526393170770705,0.17065525042558416,-0.1247463226453569
1684000094261300600,6.722701171875,0.5003786087485516,0.15784358975541266,-0.17206573479627163
1684000094271342300,6.73274267578125,0.4317917227645947,0.14024829875183134,-0.14107584951194505
1684000094281384100,6.742784423828125,0.3148221372893728,0.11293029787558255,-0.12108838571559934
1684000094291426000,6.752826416015625,0.1603120713768917,0.04482460005702184,-0.17658758147291048
1684000094301467800,6.7628681640625,0.07401113213161427,-0.03522205362862877,-0.2184134721383924
1684000094311509400,6.772909912109375,0.1058708279970684,0.07826614380091212,-0.22232019892969104
1684000094321551300,6.78295166015625,0.19257888195128478,0.04314136516577135,-0.17279255396839185
1684000094331593100,6.79299365234375,0.24313759798398896,-0.03022193897030745,-0.17432045939860794
1684000094341635000,6.803035400390625,0.2604820132999762,-0.022635459770420228,-0.28140759476029836
1684000094351676800,6.8130771484375,0.30415004494355496,0.09317207341943393,-0.3489189146614184
1684000094361718400,6.823118896484375,0.3458858430845695,-0.0964145659447789,-0.3035051822990474
1684000094371760300,6.83316064453125,0.40042710301472223,-0.16939830766963568,-0.3082102536456068
1684000094381802200,6.84320263671875,0.3426284193926471,-0.2712268829781508,-0.27692306034604736
1684000094391844000,6.853244384765625,0.23671963818377048,-0.2343425752500071,-0.2131439447670325
1684000094401885900,6.863286376953125,0.11344979692790746,-0.06834602362399737,-0.163459181794669
1684000094411927600,6.873327880859375,-0.028660997927314,0.05729389203957546,-0.18966329101318816
1684000094421969300,6.88336962890625,-0.15483851714106683,0.07497882840512993,-0.21260619156301733
1684000094432011200,6.89341162109375,-0.22600319979380884,0.11848831167402638,-0.2290287017294409
1684000094442053000,6.903453369140625,-0.27915680419783495,0.076407432497687,-0.17250406728451337
1684000094452094600,6.9134951171875,-0.2924388348437098,0.06536483750219409,-0.19572925567705882
1684000094462136600,6.923536865234375,-0.31611466393742355,0.06857395172111203,-0.2915127277353776
1684000094472178400,6.933578857421875,-0.2616184652218025,0.036576271218151775,-0.30689620976853266
1684000094482220200,6.94362060546875,-0.20218363388644017,0.0029220580268787028,-0.2527222633437977
1684000094492261800,6.953662109375,-0.11967287966916255,0.042939186173462894,-0.21515130987219153
1684000094502303600,6.9637041015625,-0.047548651704045465,-4.100811370218665e-05,-0.1330574751038362
1684000094512345600,6.973745849609375,0.014077574024624917,0.042481422429063505,-0.054471254267919475
1684000094522387400,6.983787841796875,0.06729338320655147,0.025435447780458764,0.010979294858887009
1684000094532429000,6.993829345703125,0.10694975392426251,0.05099010469050035,0.09374046331037254
1684000094542470800,7.003871337890625,0.11655739699769138,0.06422805768900355,0.1507769821923687
1684000094552512600,7.0139130859375,0.12487894286523443,0.08885002131650588,0.15637719646501755
1684000094562554600,7.023954833984375,0.09679178151717438,0.1034421921206646,0.1653653382483692
1684000094572596400,7.033996826171875,0.059041112811382565,0.09883022314410152,0.1310621498825441
1684000094582638000,7.044038330078125,0.01205982266776424,0.07058906552342116,0.10345983506103171
1684000094592679900,7.054080322265625,-0.020143047081424233,0.06384849547984367,0.08252692206145351
1684000094602721600,7.0641220703125,-0.03767411398107549,0.06650447842552461,0.03533136862173438
1684000094612763600,7.0741640625,-0.07127672421346874,0.01956272124873671,-0.025780439357208255
1684000094622805200,7.08420556640625,-0.07595613585900585,-0.014860153176444844,-0.062485456469925885
1684000094632847000,7.094247314453125,-0.0801593810058745,0.0007991791842761066,-0.11226427549467168
1684000094642888900,7.104289306640625,-0.07422146199030746,-0.00018024451054649308,-0.10643613348710475
1684000094652930700,7.1143310546875,-0.05579271907041008,0.020106315596648737,-0.07439982895509827
1684000094662972600,7.124373046875,-0.03457380837138942,0.05656433110490768,-0.08267676827682689
1684000094673014200,7.13441455078125,-0.01565219447782452,0.06184482572751375,-0.08586978919131576
1684000094683056000,7.14445654296875,0.0007317362742892825,0.07645130164258478,-0.05133795732808294
1684000094693097900,7.154498291015625,0.04766246673682232,0.08844375601354207,-0.06451714032837463
1684000094703139800,7.1645400390625,0.07946257297305032,0.11202144627800976,-0.05387341973981631
1684000094713181400,7.174581787109375,0.11252793672995513,0.16116046902648212,-0.08550369744956807
1684000094723223200,7.18462353515625,0.13692243404091775,0.17192173002539954,-0.09257292748379857
1684000094733265100,7.19466552734375,0.14094750569145323,0.17319011678832974,-0.10846400248763763
1684000094743306900,7.204707275390625,0.144188359441292,0.15565681470105644,-0.1073746680959681
1684000094753348800,7.214749267578125,0.11638531078351878,0.16669750208952477,-0.08023738869777286
1684000094763390400,7.224790771484375,0.11469952765069653,0.13992023452810903,-0.09340655807958637
1684000094773432200,7.23483251953125,0.1269931942295597,0.11832714080440934,-0.08264720438577268
1684000094783474100,7.24487451171875,0.13872171944392128,0.16313266763946857,-0.12322843085525506
1684000094793516000,7.254916259765625,0.16154395034091143,0.13902759543317916,-0.1319544315265269
1684000094803557600,7.2649580078125,0.20011347533713164,0.10600662219218107,-0.08586859694579944
1684000094813599400,7.274999755859375,0.19753614062546201,0.11131858822504768,-0.05639684208129074
1684000094823641300,7.285041748046875,0.1664210260467166,0.0883970260677236,-0.010366201387049004
1684000094833683100,7.29508349609375,0.1567909418522354,0.08239364629038125,0.0493555067789305
1684000094843725000,7.30512548828125,0.13329586380735123,0.06247615803427605,0.07103407397682288
1684000094853766600,7.3151669921875,0.11983752245194017,0.08548355100701203,0.05353045449613954
1684000094863808400,7.325208740234375,0.1379183828743418,0.07515811916651914,0.16354656215164784
1684000094873850300,7.335250732421875,0.17782041421586345,0.08371925358399329,0.17932116972155165
1684000094883892100,7.34529248046875,0.1969392300119444,0.14148902895877727,0.18499505532697785
1684000094893934000,7.35533447265625,0.21431180847713935,0.1583786011961822,0.19114029416959266
1684000094903975600,7.3653759765625,0.2202593832217023,0.21065235138986732,0.19672834873178943
1684000094914017500,7.37541796875,0.2663724422784039,0.24849605545121103,0.19345247733393875
1684000094924059300,7.385459716796875,0.272094488224417,0.1472158431100787,0.2795144320543421
1684000094934101200,7.39550146484375,0.2827298641102581,0.06904792785604515,0.39605021479275393
1684000094944142800,7.405543212890625,0.28380551933032844,0.053619384761136216,0.39653277401149495
1684000094954184600,7.4155849609375,0.2587078212332087,0.04351902000047043,0.3778192997674065
1684000094964226600,7.425626953125,0.2622790039196661,-0.003884315525356928,0.4711955786071286
1684000094974268300,7.435668701171875,0.236089080423971,0.008523941184452441,0.4580326080985862
1684000094984310200,7.445710693359375,0.24033282710041212,-0.03081703195455621,0.4865350723816936
1684000094994351800,7.455752197265625,0.25160413982892266,-0.0033016205473245224,0.535000443487068
1684000095004393600,7.4657939453125,0.29582887892237797,-0.07516860964568192,0.6201351880583496
1684000095014435600,7.4758359375,0.33408862361116276,-0.1439027786667687,0.701579213225218
1684000095024477400,7.485877685546875,0.3608952760761918,-0.13442707056266565,0.6958456038096278
1684000095034519000,7.49591943359375,0.36395058053280693,-0.1069545746394612,0.6252305507044921
1684000095044560800,7.505961181640625,0.34985971448702585,-0.04520320885055435,0.5220026969639358
1684000095054602600,7.516003173828125,0.35121631610352055,0.0034322739420560547,0.35049235821160524
1684000095064644600,7.526044921875,0.34860306990273576,0.058381080632159806,0.2104474305728879
1684000095074686400,7.536086669921875,0.33491775396268997,0.08207893372319826,0.14957869053250036
1684000095084728000,7.54612841796875,0.3295247553469608,0.05384159082283535,0.10764050472980385
1684000095094769800,7.556170166015625,0.33938288695344243,0.052144050565566064,0.08154463773121162
1684000095104811600,7.566212158203125,0.310541123199743,0.045949935930084694,0.0781376360857286
1684000095114853600,7.57625390625,0.30100756876099133,0.025787353580999716,0.09398746488886722
1684000095124895400,7.5862958984375,0.25709554566061316,-0.0223007203569558,0.12837076204162887
1684000095134937000,7.59633740234375,0.24142017955843537,-0.05310440049706666,0.08452928073664788
1684000095144978900,7.606379150390625,0.21143038560459124,-0.10459041596548393,0.09079611304129145
1684000095155020600,7.616421142578125,0.16952472924585907,-0.1740617751827611,0.03807246689343761
1684000095165062600,7.626462890625,0.12534266718398762,-0.1834058761993878,-0.022490859157092268
1684000095175104200,7.636504638671875,0.0761898905671891,-0.16652107239120537,-0.08797574037797151
1684000095185146000,7.64654638671875,0.0026120209013096216,-0.14516639715133492,-0.10960662352760439
1684000095195187900,7.65658837890625,0.00795254113463634,-0.16669464110507803,-0.10805785641612836
1684000095205229700,7.666630126953125,0.008573239757200576,-0.15737056727135593,-0.16824841488566447
1684000095215271600,7.676672119140625,0.03060541316302036,-0.20479583752892686,-0.20899939524778668
1684000095225313200,7.686713623046875,0.07398617268083772,-0.20445823660067558,-0.20250332358604095
1684000095235355100,7.69675537109375,0.09386968607253135,-0.15487575519982774,-0.20651185504333133
1684000095245396900,7.70679736328125,0.10931578290254387,-0.1275568008393308,-0.19770634184443228
1684000095255438800,7.716839111328125,0.13904066396147385,-0.11035251633122382,-0.19982743266644074
1684000095265480400,7.726880859375,0.1286124288738211,-0.12199783317213066,-0.17547905446451753
1684000095275522200,7.736922607421875,0.12358213959330572,-0.14101219166144272,-0.0909981726728876
1684000095285564100,7.746964599609375,0.12386621529954472,-0.18383026118683982,-0.03028941166428163
1684000095295605900,7.75700634765625,0.1219747214020356,-0.18398857120841836,-0.013185739352820896
1684000095305647800,7.767048095703125,0.11018006506448141,-0.1631183624731786,-0.009070277109312574
1684000095315689400,7.77708984375,0.0762589575372162,-0.14969444265746817,0.041867613692812396
1684000095325731200,7.787131591796875,0.06286222489637122,-0.08247852317710826,0.09114158165856223
1684000095335773100,7.797173583984375,0.013416051847454319,-0.09189891807481412,0.14556765563892707
1684000095345815000,7.80721533203125,-0.04725174599650095,-0.08016967775799841,0.1085044146381609
1684000095355856800,7.81725732421875,-0.08106817287864654,-0.06172752386380387,0.021815061614464414
1684000095365898400,7.827298828125,-0.09516282370047699,0.008125305072142716,-0.033115506211031064
1684000095375940300,7.837340576171875,0.007143959392088789,0.05798530582300238,-0.13631248476660973
1684000095385982100,7.847382568359375,0.12980198852783342,0.05530643479700964,-0.18759846699265123
1684000095396024000,7.85742431640625,0.29136514657036455,0.043340682973257126,-0.2678942681407117
1684000095406065600,7.867466064453125,0.47445374730849565,-0.010719299278098475,-0.2779117823114353
1684000095416107400,7.8775078125,0.6314541102086919,0.004476547247410376,-0.30831778042413344
1684000095426149300,7.8875498046875,0.7511683106765913,-0.018132209857683244,-0.3350318671494687
1684000095436191200,7.897591552734375,0.8670968413327722,-0.05438709260239634,-0.3135069609442154
1684000095446233000,7.90763330078125,0.9030398726543788,-0.13927650449928763,-0.3688811063916799
1684000095456274600,7.917675048828125,0.9421122073904457,-0.18952941885215283,-0.3583589791771228
1684000095466316500,7.927716796875,0.9508943556876901,-0.25273513792593744,-0.3697580100508094
1684000095476358300,7.9377587890625,0.9299290180505518,-0.27681732175201373,-0.35051417351482134
1684000095486400200,7.947800537109375,0.8497541547670459,-0.2883625030870892,-0.3200861215667616
1684000095496441800,7.95784228515625,0.759611487393771,-0.21230125424245197,-0.3188284635143974
1684000095506483600,7.967884033203125,0.6610797048370276,-0.10669136059627032,-0.25713574891352864
1684000095516525600,7.97792578125,0.579466760077011,-0.02866744983342993,-0.18839788448460612
1684000095526567300,7.9879677734375,0.49931764598316836,-0.034389495738738174,-0.14379072188012193
1684000095536609200,7.998009521484375,0.4424525498102345,0.002243042082624101,-0.07833099348674677
1684000095546650800,8.00805126953125,0.4313094020119729,-0.02304172526278679,-0.03918635841485133
1684000095556692600,8.018093017578124,0.44964957237747066,0.024970054619709837,0.021072387674742243
1684000095566734600,8.028135009765625,0.5077855585695591,0.02730560291694983,0.10183227044364272
1684000095576776400,8.0381767578125,0.6116334199171842,0.008246421782777479,0.2096730472259989
1684000095586818200,8.048218505859374,0.7032494545040346,-0.04835605620716539,0.24265766136296033
1684000095596859800,8.05826025390625,0.7816175818426482,-0.0477209091038561,0.27459883689320363
1684000095606901600,8.068302001953125,0.8383310438923771,-0.04259967811236973,0.1919496059772925
1684000095616943600,8.078343994140624,0.8769925832587762,-0.05897045142375516,0.10192012775691836
1684000095626985400,8.0883857421875,0.8430888056270261,-0.06355190285328992,-0.0030907393651931187
1684000095637027200,8.098427734375,0.829778611613091,-0.05428028120959711,-0.06943774232367786
1684000095647068800,8.10846923828125,0.7975596189620777,-0.050287246762622015,-0.19458198546316907
1684000095657110600,8.118510986328126,0.7590051888760465,-0.07971858996885715,-0.299636125386844
1684000095667152600,8.128552978515625,0.7449027298785978,-0.04550933845213348,-0.387418031824979
1684000095677194400,8.1385947265625,0.7243496178401241,0.01126956951631426,-0.4863706827281758
1684000095687236300,8.14863671875,0.6154277325111168,0.019585609490939154,-0.5328156948113149
1684000095697277900,8.15867822265625,0.4727260471873731,0.020281791765644326,-0.5882154703428512
1684000095707319600,8.16872021484375,0.3503242433415706,-0.014631271547390714,-0.7096561193124734
1684000095717361600,8.178761962890626,0.3596004545799573,-0.025516510021875653,-0.7766536473202837
1684000095727403400,8.188803955078125,0.34609216460191833,0.008658409192420561,-0.9293990731739108
1684000095737445300,8.198845703125,0.3532505632071946,0.040234565778123316,-1.0543072223564753
1684000095747486900,8.20888720703125,0.30836629874894245,0.09278774258431655,-1.113782405819201
1684000095757528800,8.21892919921875,0.17753058676410943,0.14695072178528873,-1.1047844886265963
1684000095767570600,8.228970947265625,0.004801034887549509,0.18830108629518388,-1.031957864781919
1684000095777612500,8.239012939453126,-0.14801114804570611,0.1367607117167579,-0.8997911809831529
1684000095787654100,8.249054443359375,-0.14121520516377142,0.10682201382516233,-0.6932174564601261
1684000095797695900,8.259096435546875,0.04869782927949011,0.11005401603192519,-0.47916269297962305
1684000095807737800,8.26913818359375,0.3483266830196323,0.08479499806966961,-0.15004265322499782
1684000095817779600,8.279179931640625,0.6410890818755167,0.09280204769437286,0.17820942386951644
1684000095827821600,8.289221923828125,0.7615495921171868,0.11229991919157832,0.5797199010347973
1684000095837863100,8.299263427734376,0.7502684593369344,0.17596340180724448,0.8828101158296424
1684000095847904900,8.309305419921875,0.6003767251007235,0.23361873634489208,1.0915706158275151
1684000095857946800,8.31934716796875,0.3954944013516848,0.3180494308477548,1.3273233175510437
1684000095867988600,8.32938916015625,0.14650619024291017,0.38512325298677286,1.550117134980894
1684000095878030600,8.339430908203125,-0.16290056697489827,0.4037418364998224,1.6210037468022684
1684000095888072100,8.349472412109375,-0.453433751914593,0.33565711984548596,1.7234907149441125
1684000095898114000,8.359514404296876,-0.7507618667120646,0.24067401877971156,1.7141348123198588
1684000095908155800,8.36955615234375,-1.052260875584494,0.10708045952227042,1.5707147123175258
1684000095918197600,8.37959814453125,-1.3004666566551277,0.004534721355216831,1.2981319427524698
1684000095928239600,8.389639892578124,-1.3921104669337283,-0.07395648963499571,1.0278873444774688
1684000095938281400,8.399681884765625,-1.3477942942139582,-0.15239524828203135,0.8181307316779229
1684000095948323000,8.409723388671875,-1.2150784732094433,-0.20705223073204806,0.6469222307264737
1684000095958364800,8.41976513671875,-1.0478837490319994,-0.14720153816690285,0.4178497791865089
1684000095968406600,8.42980712890625,-0.9771765470777586,-0.06631469731895882,0.3724924326510906
1684000095978448600,8.439848876953125,-1.035211682288103,-0.08420944210730326,0.41362333297533593
1684000095988490200,8.449890625,-1.162382960290264,-0.18666267392720284,0.4716982841035836
1684000095998532000,8.459932373046875,-1.3160350323797203,-0.375805854872379,0.5131142140323824
1684000096008573900,8.469974365234375,-1.4423536061981248,-0.5793972016223252,0.6440421342940582
1684000096018615600,8.48001611328125,-1.4020197390932883,-0.7228116988366899,0.8132331370000088
1684000096028657600,8.49005810546875,-1.1896963119306678,-0.7028751371749323,1.017682671472583
1684000096038699200,8.500099609375,-0.8891298771557828,-0.5508041382084049,1.2156807183799623
1684000096048741000,8.510141357421874,-0.510802030576529,-0.4151706695119338,1.4318197964629804
1684000096058782900,8.520183349609376,-0.1935591698419409,-0.28665828691150946,1.533127546391521
1684000096068824800,8.53022509765625,0.06925904762119278,-0.2083044050409208,1.5068311692561172
1684000096078866400,8.540266845703124,0.21881091604775127,-0.12267780291123276,1.4946713448739495
1684000096088908200,8.55030859375,0.22930002216392967,-0.029866218709258114,1.5106639861467919
1684000096098950100,8.5603505859375,0.21774697319501118,0.0963115692527513,1.4250421524633714
1684000096108991900,8.570392333984374,0.20974671844707513,0.24160766587223959,1.2093930245874247
1684000096119033800,8.58043408203125,0.19235348708641314,0.31552886973103095,0.9479405880067732
1684000096129075600,8.59047607421875,0.22522652136219012,0.4090929031232161,0.6195163727676225
1684000096139117200,8.600517578125,0.29330492023913124,0.44763088228570763,0.24482512484696722
1684000096149159100,8.6105595703125,0.4947870969731165,0.5282640456845759,-0.19895386693176131
1684000096159200900,8.620601318359375,0.8145977258980687,0.5788459777824057,-0.6160312890513747
1684000096169242800,8.630643310546875,1.204824924583769,0.5736694337549344,-1.0139663219216066
1684000096179284600,8.64068505859375,1.680523633883017,0.6836891174812411,-1.2722071409047384
1684000096189326300,8.6507265625,1.9788749217465287,0.7715597151698033,-1.4186637400705397
1684000096199368100,8.6607685546875,1.9026350975228563,0.781301498341174,-1.4381227492385311
1684000096209410000,8.670810302734376,1.5901418923355157,0.7402009965440365,-1.3064545392311346
1684000096219451800,8.680852294921875,1.1590213775097704,0.5980777741236952,-1.0881491900274574
1684000096229493600,8.69089404296875,0.5381731986931693,0.34659671772812034,-0.9841431379914544
1684000096239535300,8.700935791015626,-0.10897684101720255,-0.06417083740357674,-0.9844186305870881
1684000096249577100,8.7109775390625,-0.5400440693111261,-0.47166919712296573,-0.9749070406391381
1684000096259619000,8.721019287109375,-0.6048445700235082,-0.7007198334941768,-1.0058557987659067
1684000096269660800,8.731061279296876,-0.3686398269089436,-0.7897167207164866,-1.1245330572030174
1684000096279702400,8.741102783203125,-0.01652538779132694,-0.7736549377368451,-1.2448264361069774
1684000096289744300,8.751144775390625,0.2956676483609584,-0.7157754898120509,-1.3791383504679753
1684000096299786200,8.7611865234375,0.4618798493311833,-0.6962041855265361,-1.5422741176050143
1684000096309828000,8.771228515625,0.4646929502005371,-0.718916892904762,-1.682222366403049
1684000096319869900,8.781270263671875,0.37163925185923646,-0.7522706986261993,-1.7040534019375089
1684000096329911600,8.79131201171875,0.22378325471762747,-0.7743415834069033,-1.6400344372417757
1684000096339953300,8.801353759765625,-0.014529943399184665,-0.6918306351187192,-1.5447419881920028
1684000096349995200,8.8113955078125,-0.21343767642056494,-0.5648269654020195,-1.36340057849263
1684000096360037000,8.8214375,-0.39978277672480284,-0.4682502745616815,-1.0547600985526386
1684000096370078900,8.831479248046875,-0.549173474367286,-0.4199457168947548,-0.7743453979132506
1684000096380120800,8.841521240234375,-0.6429778337251654,-0.37510395050896134,-0.5424015521991594
1684000096390162400,8.851562744140624,-0.7070387601499359,-0.3171777725154163,-0.3496148586291133
1684000096400204200,8.8616044921875,-0.7194679975371038,-0.16738605498470388,-0.19088935851160557
1684000096410246100,8.871646484375,-0.6416511535877659,-0.07643795012386642,-0.11612129218003919
1684000096420287900,8.881688232421874,-0.43206501008657705,-0.06591320032907708,-0.08460569378688476
1684000096430329800,8.891730224609375,-0.1709851026492555,-0.09279441840984926,-0.1509366034882861
1684000096440371400,8.901771728515625,0.05487120160793559,-0.05400371555742127,-0.30216336263646887
1684000096450413200,8.911813720703124,0.24506199365346323,-0.05881023414535371,-0.38671636570768825
1684000096460455100,8.92185546875,0.4101029634619104,-0.08994102477490237,-0.39591836936788255
1684000096470496900,8.9318974609375,0.5405348539489112,-0.14015960708837374,-0.44830870630555814
1684000096480538800,8.941939208984374,0.6094771622498658,-0.1303491591640103,-0.6723530292339702
1684000096490580400,8.951980712890625,0.6729799509060396,-0.16542053218793912,-0.9514877796155473
1684000096500622300,8.962022705078125,0.7512192725872515,-0.14008045207130013,-1.1222512721736235
1684000096510664100,8.972064453125,0.7051151991906779,-0.18810939790242673,-1.1944844721759196
1684000096520706000,8.9821064453125,0.6670098305408055,-0.211321830815502,-1.2575945854281094
1684000096530747800,8.992148193359375,0.5460596085805922,-0.26221561432189955,-1.3105236292121263
1684000096540789600,9.002190185546874,0.37420618543939177,-0.35759162895963414,-1.3645092250129907
1684000096550831300,9.012231689453126,0.16952013966474455,-0.4332027433929513,-1.4843820334910547
1684000096560873100,9.0222734375,-0.03710532187189038,-0.482158661026169,-1.6215814351943398
1684000096570915000,9.0323154296875,-0.26765596864879143,-0.46184825903899585,-1.6468499899989828
1684000096580956800,9.042357177734376,-0.429723143513582,-0.44701862351976535,-1.6016826628131886
1684000096590998400,9.05239892578125,-0.5404169558234223,-0.359354972853588,-1.5747032164968193
1684000096601040300,9.062440673828124,-0.5593736171647613,-0.2734775543974879,-1.5774862766286886
1684000096611082200,9.072482666015626,-0.5238521098467563,-0.26365089422563864,-1.6145117283083714
1684000096621124000,9.0825244140625,-0.40228867533323287,-0.3271837235211057,-1.6266251801874636
1684000096631165900,9.092566162109376,-0.24655580513925393,-0.4272603988783716,-1.5781135558458461
1684000096641207600,9.102608154296876,-0.02862906449725006,-0.4722633361129091,-1.4305762051792228
1684000096651249300,9.112649658203123,0.291266679714049,-0.42895317077666195,-1.0989729166522977
1684000096661291200,9.122691650390625,0.6543412208328865,-0.29701232909232944,-0.7024836540349644
1684000096671333000,9.1327333984375,1.144979000162422,-0.1400222777343385,-0.27493453029095094
1684000096681374900,9.142775390625,1.6166713238528125,0.06410121901708117,0.02262783053500708
1684000096691416800,9.152817138671876,1.936294555623999,0.1791896819536293,0.2936990260979878
1684000096701458400,9.162858642578126,2.153823375645433,0.3055305480119138,0.5030503272220521
1684000096711500200,9.172900634765623,2.1892168520726973,0.4644308089797673,0.6246938705333437
1684000096721542100,9.1829423828125,1.9468574523948212,0.7066106795256898,0.7040197848497841
1684000096731583900,9.192984375,1.440889716140141,0.8490352630587538,0.8453731536333913
1684000096741625800,9.203026123046875,0.6278401614040059,0.8373041153168198,1.0049397945160703
1684000096751667400,9.21306787109375,-0.4102323055562404,0.5854663849154828,1.0456218718670471
1684000096761709200,9.223109619140626,-1.154022932034728,0.44510459896539384,0.46972370141345204
1684000096771751100,9.2331513671875,-1.5837180614189708,0.44936084729711173,-0.49917125692967296
1684000096781792900,9.243193359375,-1.719168186197156,0.49484443652891247,-1.600290417594638
1684000096791834800,9.253235107421874,-1.1796932221097518,0.4458045960294156,-1.9316461087874217
1684000096801876600,9.263277099609375,-0.2027099133599403,0.30866622915555364,-1.6794034243157887
1684000096811918300,9.273318603515625,0.6907370091876036,0.20608329772174716,-1.2179861067693767
1684000096821960100,9.283360595703124,1.2691006661996005,0.08889389033832827,-0.8021445272720008
1684000096832002000,9.29340234375,1.5398902894458482,0.08967590322630124,-0.40524053563045126
1684000096842043800,9.3034443359375,1.5578186512307657,0.1652803421264084,0.008727550460435453
1684000096852085400,9.31348583984375,1.325587272648252,0.19476032272045962,0.3823335169945262
1684000096862127300,9.323527587890624,0.8951344489061203,0.24332141877300625,0.533378362718466
1684000096872169100,9.333569580078125,0.36695682998556467,0.39385318753124965,0.1860163212030112
1684000096882211000,9.343611328125,-0.022984266359565034,0.46006488804658047,-0.34540605543075176
1684000096892252800,9.3536533203125,-0.2706456185846841,0.45206260695270656,-0.7390758992407042
1684000096902294600,9.363695068359377,-0.4250230789800888,0.3701086044426084,-0.996649503702936
1684000096912336300,9.37373681640625,-0.4442059994983278,0.33367443092835786,-1.1838698387330087
1684000096922378200,9.383778564453126,-0.30940604198531474,0.25431251527174537,-1.223519802179846
1684000096932420000,9.3938203125,-0.10189914703129216,0.1253395080168686,-1.256300568526624
1684000096942461900,9.4038623046875,0.07487392438949067,-0.0619735717656154,-1.2216627596276028
1684000096952503600,9.413904052734376,0.20350217822393926,-0.22345542904173707,-1.1970545054198876
1684000096962545300,9.42394580078125,0.1876807212951368,-0.2825450897515001,-1.199149608561323
1684000096972587200,9.433987548828124,0.024266004587891712,-0.25174808498961887,-1.1991912128148345
1684000096982629000,9.444029541015626,-0.2166044712214686,-0.15561962111489308,-1.1534678936676348
1684000096992670900,9.4540712890625,-0.3709340095556155,-0.1165418624246225,-1.0726774931007625
1684000097002712800,9.464113037109374,-0.4601509571265,-0.09388542190132053,-0.9649956225646323
1684000097012754600,9.474155029296876,-0.4504828452984118,-0.09696674349948821,-0.7746019363198705
1684000097022796200,9.484196533203123,-0.3711866140310922,-0.10649681085092544,-0.5062885285173537
1684000097032838100,9.494238525390625,-0.2251288889808987,-0.06767749774543472,-0.22052001953846367
1684000097042879900,9.5042802734375,-0.09462583051343801,-0.009485244848605093,0.043285608216525655
1684000097052921800,9.514322265625,0.005174756201758595,0.02463054666608883,0.2952733038515493
1684000097062963600,9.524364013671876,0.007658481720484324,0.02009105677844259,0.461309909799699
1684000097073005200,9.534405517578126,-0.03017199048538193,-0.0346374512638378,0.5572433471579425
1684000097083047100,9.544447509765623,-0.018970608634607564,-0.1365871431004231,0.5717699527849741
1684000097093088900,9.5544892578125,-0.055773258156588346,-0.15424346932298205,0.4582436084738157
1684000097103130800,9.56453125,-0.08838832383981346,-0.09750175468893478,0.332588911065061
1684000097113172600,9.574572998046875,-0.0626376866574635,0.03562068932269166,0.18335103980263098
1684000097123214300,9.58461474609375,0.0029637813620568996,0.15394210828786278,0.019849538748958947
1684000097133256100,9.594656494140626,0.01952052106291502,0.15970134737673736,-0.26521277415893724
1684000097143298000,9.604698486328124,-0.0474605560552421,0.06801319123998761,-0.5558636188768886
1684000097153339800,9.614740234375,-0.16747045513907238,-0.06090259549699403,-0.7630996704109568
1684000097163381600,9.624781982421876,-0.38835537427206474,-0.05971145635637557,-0.9656146765315584
1684000097173423300,9.63482373046875,-0.5702223777706183,0.03511047371475753,-1.1541365385717326
1684000097183465100,9.644865478515625,-0.5634067058532937,0.17511081701233383,-1.176302671429488
1684000097193507000,9.654907470703124,-0.45847618590756095,0.24524974816636688,-1.1120107174623812
1684000097203548800,9.66494921875,-0.3556181191349034,0.11472511283527048,-0.985170364365854
1684000097213590600,9.6749912109375,-0.31008994568912535,-0.4229898454173312,-0.875755905959572
1684000097223632600,9.685032958984374,-0.4573212861348684,-1.1631517411517962,-0.7074208259605889
1684000097233674200,9.695074462890624,-0.8111901282815642,-1.9328927995116583,-0.5805726050942535
1684000097243716000,9.705116455078125,-1.2974387407856431,-2.808870315598053,-0.33662474163703693
1684000097253757900,9.715158203125,-1.7331449986981924,-3.6223869323324593,-0.19146585461566612
1684000097263799600,9.7252001953125,-2.042570829257053,-4.265718460258547,0.09998679153872281
1684000097273841600,9.735241943359377,-2.0617179871007543,-4.481519699129936,0.568191289887602
1684000097283883200,9.74528369140625,-1.5864670276866761,-3.5286598206581488,1.0517044067206545
1684000097293925000,9.755325439453124,-0.5425981282863723,-1.2881841659586195,0.6719980238639389
1684000097303966900,9.7653671875,0.4547888637407014,0.3060245514859996,-0.016147494381585043
1684000097314008800,9.7754091796875,1.0630031824961648,1.1708192826427128,-0.4898612499774929
1684000097324050600,9.785450927734376,1.3305407761622092,1.6943225860856843,-0.6138905285761935
1684000097334092500,9.795492919921877,1.3166205884313882,2.025661468634825,-0.6360514163905528
1684000097344134100,9.805534423828124,1.0560094117943264,2.2433109281744628,-0.6050806045500834
1684000097354175900,9.815576416015626,0.6980382204761915,2.2437977791489323,-0.6062496898818022
1684000097364217800,9.8256181640625,0.38678222905385334,2.0579915047237605,-0.6336146594274019
1684000097374259600,9.835659912109374,0.28433662654534614,1.530819892746503,-0.5774542092479561
1684000097384301600,9.845701904296876,0.44524854413164766,0.8779754638109424,-0.3824862242601778
1684000097394343100,9.855743408203123,0.7960161566598773,0.40566730482987623,-0.1944785119748761
1684000097404384900,9.865785400390624,1.1219960450637154,0.02061271673985504,-0.08673310284242955
1684000097414426800,9.8758271484375,1.3327274321819182,-0.3178997038708772,-0.07383239265046218
1684000097424468600,9.885869140625,1.4606281518448627,-0.5834522245932162,-0.17010271549273726
1684000097434510600,9.895910888671876,1.492705106736594,-0.7592658996367109,-0.3132796288471034
1684000097444552400,9.905952880859376,1.4676220417216277,-0.7595567703809573,-0.5059866906630209
1684000097454594000,9.915994384765623,1.3278398513517076,-0.6396465301572659,-0.7688000797299285
1684000097464635800,9.9260361328125,1.1596416235100153,-0.4832324982159047,-1.0396535396338384
1684000097474677600,9.936078125,0.9077638387382346,-0.30932807914981814,-1.2396817206664332
1684000097484719600,9.946119873046875,0.5893813372425961,-0.11122131349096409,-1.326812863253141
1684000097494761400,9.956161865234376,0.24239850046976888,0.10330677032969991,-1.4028335809773713
1684000097504803000,9.966203369140626,-0.15853878846141897,0.25956535338113096,-1.4504473209448847
1684000097514844800,9.976245361328123,-0.5136969089593081,0.44809913621396175,-1.4964319467919693
1684000097524886600,9.986287109375,-0.7235843537804828,0.5564956663914907,-1.5470818280430265
1684000097534928600,9.996328857421876,-0.7399209737232605,0.6063508986600115,-1.5330483912444939
1684000097544970400,10.006370849609375,-0.5438996552995142,0.5260143280785512,-1.4174647331822001
1684000097555012300,10.01641259765625,-0.21414999676579555,0.3538532257554986,-1.2364888191273151
1684000097565053900,10.026454345703126,0.08318491266470958,0.2262401581882878,-1.132323861094155
1684000097575095600,10.03649609375,0.31521677987312285,0.0691499711143538,-1.118548989247
1684000097585137600,10.0465380859375,0.4797866345623872,-0.04085159297748924,-1.065384149654349
1684000097595179400,10.056579833984374,0.5866317749126548,-0.1301603318788542,-0.9185736179863131
1684000097605221300,10.06662158203125,0.6981861590482931,-0.27527618405022686,-0.6779417992061751
1684000097615262900,10.076663330078125,0.7773606180110194,-0.4402227403275879,-0.4144221545536605
1684000097625304800,10.086705078125,0.8714887498507643,-0.6654119491320049,-0.03289948400812674
1684000097635346600,10.0967470703125,0.9363460540360202,-0.888303756671569,0.375190526386085
1684000097645388500,10.106788818359377,0.9989764691687496,-1.0703125000185347,0.7801472544838068
1684000097655430300,10.116830810546874,1.1286205053304534,-0.970023155299833,1.1046030522269201
1684000097665472200,10.12687255859375,1.260754823705443,-0.5450582504212214,1.0247087478631887
1684000097675513800,10.1369140625,1.2739843128877186,-0.2548198699309162,1.0789051054291767
1684000097685555600,10.1469560546875,1.222635746093124,-0.15872001654703416,1.2452751399011845
1684000097695597600,10.156997802734375,1.1319394113513221,-0.09145736687356124,1.433075547298867
1684000097705639300,10.167039794921877,1.0557298660460335,0.009174346964638057,1.404940009172215
1684000097715681200,10.17708154296875,0.9545997978379103,0.026083946079671082,1.2128664254366879
1684000097725723100,10.18712353515625,0.8366349934727615,0.07645988475113848,0.863524436981836
1684000097735764600,10.1971650390625,0.7070444225732007,0.17210578917117156,0.36672186853180777
1684000097745806600,10.20720703125,0.6093512177048079,0.3032712937474533,-0.21042966847682773
1684000097755848400,10.217248779296876,0.5437457561687103,0.30739498134625415,-0.7898699642492134
1684000097765890200,10.22729052734375,0.5191522836841025,0.344763755730459,-1.246678233224515
1684000097775932100,10.23733251953125,0.47027933595289756,0.31257915485722254,-1.539994716614306
1684000097785973600,10.2473740234375,0.4773076772197886,0.3781251907475328,-1.7492178678055945
1684000097796015600,10.257416015625,0.4630424678936558,0.400156021069625,-1.8859360216670353
1684000097806057400,10.267457763671874,0.48184895514000103,0.5409975052036136,-1.9418195486911674
1684000097816099200,10.277499755859376,0.4695254563961977,0.5493879319181574,-1.9090764521607093
1684000097826141100,10.28754150390625,0.35709330427883595,0.45654392248744463,-1.8795255423900215
1684000097836183000,10.297583251953125,0.24820312844257858,0.24838829029664097,-1.6966450214759152
1684000097846224600,10.307625,0.18069179350946415,-0.04582881911692583,-1.4347395897527637
1684000097856266400,10.317666748046875,0.15937371566172046,-0.39906883247416347,-1.2093709707546412
1684000097866308300,10.327708740234376,0.17753788824356803,-0.6577215196159271,-1.0987627505609385
1684000097876350100,10.33775048828125,0.20875734087924874,-0.8595647811439566,-1.0850019454731494
1684000097886392000,10.34779248046875,0.1890232563006681,-1.025741577021125,-1.0907051562533645
1684000097896433800,10.357834228515625,0.14697268611094483,-0.5693769455672779,-1.4686282873975252
1684000097906475400,10.367875732421876,0.1241884531034911,0.07167243946250909,-1.9775431156285137
1684000097916517300,10.377917724609375,0.14950272436838874,0.09697437276598123,-1.4264316558554844
1684000097926559200,10.38795947265625,0.3229100405884009,0.2131862639500558,-0.9937866328937317
1684000097936601000,10.39800146484375,0.5317742228536104,0.3004150389960729,-0.8427971005945919
1684000097946642900,10.408043212890624,0.6292548776599877,0.2773399353069883,-0.6445710660651172
1684000097956684500,10.4180849609375,0.6808847189921491,0.14913082107832273,-0.36307686575045345
1684000097966726300,10.428126708984376,0.708015561225854,0.045071601749734604,-0.21184647095438194
1684000097976768200,10.43816845703125,0.7013386488668468,-0.015870094385039862,-0.09643965957228064
1684000097986810000,10.44821044921875,0.6448335647322393,-0.12459468838052039,0.0435665845540199
1684000097996851900,10.458252197265624,0.5870047805862787,-0.13297081003409733,0.21603345879585592
1684000098006893600,10.4682939453125,0.49532660847384974,-0.04843807220021024,0.41177222130479035
1684000098016935300,10.478335693359377,0.41355195638896053,-0.040725708091119396,0.6302253006186116
1684000098026977200,10.488377685546874,0.34186074140425515,-0.09287643433062369,0.8565071223668685
1684000098037019100,10.49841943359375,0.24696144458429706,-0.16169548034947515,1.0422042607645658
1684000098047060900,10.50846142578125,0.1813406048821916,-0.2041635513133419,1.1635935307640262
1684000098057102800,10.518503173828124,0.09963762752993477,-0.3301067351790807,1.3082662820105033
1684000098067144600,10.528544921875,0.07614222168818517,-0.431480407647745,1.5013062953955625
1684000098077186200,10.538586669921877,0.04638579494638313,-0.30278301236835903,1.4807710647998955
1684000098087228100,10.54862841796875,0.03272852310013821,-0.20509529119216524,1.2615125180341187
1684000098097269900,10.55867041015625,0.028468996255875262,-0.09074974050464044,1.0823439360343985
1684000098107311800,10.568712158203123,0.048231482587788185,-0.03858375542585904,0.9265035391319217
1684000098117353600,10.578754150390624,0.09898042687785188,0.11150741587239303,0.7704675792888394
1684000098127395600,10.5887958984375,0.17058715231122165,0.19426441200520073,0.5852177142481293
1684000098137437100,10.59883740234375,0.24532800903903387,0.24078559864458005,0.5243913530004417
1684000098147479000,10.60887939453125,0.33643397678831716,0.2296409608355376,0.5301778316230611
1684000098157520800,10.618921142578126,0.35496175278944153,0.13466835015714354,0.5284997819677622
1684000098167562600,10.628963134765623,0.38686940079057,0.08250141134165863,0.4990877508644694
1684000098177604300,10.639004638671874,0.3707644639925933,-0.0057106019278856624,0.5417929290785278
1684000098187646100,10.649046630859376,0.35064142936519216,-0.022233963089301118,0.612032532762256
1684000098197688000,10.65908837890625,0.3602275848910526,0.030364990256048174,0.5735709667120971
1684000098207729800,10.669130126953124,0.37981560817909543,-0.005768775938271265,0.5607702136259032
1684000098217771600,10.679172119140626,0.4014632702429849,0.025002479566502925,0.5884113909487994
1684000098227813600,10.6892138671875,0.4146554471144016,0.08437538139165066,0.5720376373173346
1684000098237855400,10.699255859375,0.4074380993232184,0.15788078317704457,0.5147365927682582
1684000098247897000,10.70929736328125,0.38095641147291986,0.15712070456972216,0.5028842092611822
1684000098257938900,10.71933935546875,0.353336483324652,0.06801795974816581,0.5480791332062077
1684000098267980600,10.729381103515625,0.33494293693730154,-0.05192279816877299,0.5693914890409201
1684000098278022600,10.739423095703126,0.3307141064246004,-0.1955747604320153,0.6512988209719984
1684000098288064400,10.74946484375,0.3351262211418601,-0.26242542261502577,0.761277377688225
1684000098298106300,10.759506591796876,0.3280686139824575,-0.17619228365266995,0.824658811173867
1684000098308147900,10.76954833984375,0.3006811141893447,-0.05908966049442386,0.8276281357346267
1684000098318189700,10.779590087890623,0.2550390362574008,0.010212898166593343,0.8049387336465411
1684000098328231600,10.789632080078125,0.22139777246154071,0.034362792964647275,0.6865799425606157
1684000098338273500,10.799673828125,0.25232720370524697,0.006185531456271636,0.5546967982675349
1684000098348315300,10.8097158203125,0.3244119882758704,-0.014609336973238502,0.4313037397073042
1684000098358357200,10.819757568359377,0.4024887383010673,-0.09982299813233853,0.2884285449307059
1684000098368398800,10.829799072265626,0.4333543778545303,-0.11088562014233179,0.2031105756884671
1684000098378440600,10.839841064453124,0.43458619728871467,-0.21989059449328874,0.17971396449293067
1684000098388482600,10.8498828125,0.4713000058106459,-0.4096841812748994,0.23107099534537046
1684000098398524300,10.8599248046875,0.4974309504958214,-0.2961635590214541,0.21813654882340544
1684000098408566200,10.869966552734375,0.5474793910756788,-0.22915840139197297,0.3687577247464542
1684000098418607800,10.88000830078125,0.598704218904977,-0.033389091486789785,0.4735578299331384
1684000098428649600,10.890050048828124,0.6459269524851083,0.10991287217077274,0.4756287334880423
1684000098438691600,10.900091796875,0.6520568132684614,0.12143135085611842,0.5612729190839447
1684000098448733400,10.9101337890625,0.6580510139711333,-0.07419776904228724,0.7023469804902741
1684000098458775200,10.920175537109374,0.6874654293612463,-0.13699913040869194,0.7198229431436279
1684000098468817100,10.930217529296876,0.6766535044771773,-0.1849308015025806,0.6324201225945019
1684000098478858600,10.940259033203125,0.7096964120935004,-0.3425703049760356,0.6557315588316219
1684000098488900600,10.950301025390624,0.7737091778222828,-0.4687185286582817,0.5333762168855003
1684000098498942400,10.9603427734375,0.880672871986414,-0.5893888473017502,0.3482599258834995
1684000098508984200,10.970384521484377,0.9129856824554231,-0.6011428833283561,0.029733657709730108
1684000098519026100,10.980426513671874,0.9281014203274682,-0.5203924178292357,-0.3479377031986178
1684000098529068000,10.99046826171875,0.8455420137528122,-0.4080924988637085,-0.6410741807105592
1684000098539109600,11.000510009765623,0.7121201156301784,-0.22730731980106617,-0.9116885662860956
1684000098549151400,11.0105517578125,0.4512797593078448,0.0398902893979827,-0.9702364207395655
1684000098559193300,11.02059375,0.17612589884839827,0.41577911375540527,-1.0700435637259578
1684000098569235100,11.030635498046877,-0.22893108426879588,0.6943445204653146,-1.2014116048709849
1684000098579277000,11.040677490234376,-0.7083641289703477,0.9125518799317807,-1.3716487885412396
1684000098589318800,11.05071923828125,-1.3763626814796486,1.0270624160500679,-1.5842238665563817
1684000098599360400,11.0607607421875,-2.122126817541107,0.9852313995372262,-1.615292429808899
1684000098609402300,11.070802734375,-2.853726625549016,0.8164672850475935,-1.3842384816056057
1684000098619444100,11.080844482421876,-3.5025374890595473,0.6411037446096837,-1.1584478616880298
1684000098629486000,11.090886474609375,-3.6492655278816417,0.48312473284981644,-1.0497853757019773
1684000098639527900,11.10092822265625,-3.202262401594818,0.2036809919974949,-0.8881688118397991
1684000098649569600,11.11097021484375,-2.395580053319135,-0.04449844351793129,-0.7219300271487789
1684000098659611300,11.12101171875,-1.5116935967400729,-0.19973659510246927,-0.5537577867542509
1684000098669653200,11.131053466796876,-0.7824640272596853,-0.35086536395241397,-0.4259420632864357
1684000098679695000,11.141095458984376,-0.25704285516813613,-0.45016098008055483,-0.2926250696506894
1684000098689736900,11.15113720703125,0.17319071293048996,-0.43057918543228085,-0.1339814664038138
1684000098699778700,11.16117919921875,0.4408863187761209,-0.6336355209062646,0.02947306644792632
1684000098709820600,11.171220947265626,0.6507124901159814,-0.6595859526815352,0.1672316788054308
1684000098719862200,11.1812626953125,0.6999476551507244,-0.6236600875060689,0.044866919377898565
1684000098729904000,11.191304443359376,0.6812383531733558,-0.6783895492022503,0.11441493028230713
1684000098739945900,11.20134619140625,0.5120303630619879,-0.543942451401222,-0.05216455461555514
1684000098749987800,11.21138818359375,0.19669914259781304,-0.19479560840734333,-0.37720537201924537
1684000098760029600,11.221429931640625,-0.20379054548462047,-0.1757602691774771,-0.405494689940159
1684000098770071600,11.231471923828124,-0.7294792532394426,0.02282714849532184,-0.5385745764383928
1684000098780113100,11.241513427734375,-1.2095301149547557,0.023244857754559606,-0.3826164006199927
1684000098790154900,11.251555419921877,-1.5546107292888849,0.1599197387950688,-0.406745314595551
1684000098800196800,11.26159716796875,-1.6204922199540082,0.2981004714260204,-0.35533857349845355
1684000098810238600,11.27163916015625,-1.4432249070737628,0.42780399330207947,-0.3249884844539743
1684000098820280600,11.281680908203125,-1.1073775292086787,0.40339756023676515,-0.25822174551906263
1684000098830322400,11.29172265625,-0.7090980412026685,0.3665666579776064,-0.2894270419770629
1684000098840364200,11.3017646484375,-0.32889366162868533,0.24149608597952638,-0.3178752662454436
1684000098850405800,11.31180615234375,0.024989962634580046,0.1292476654540155,-0.3540774583925027
1684000098860447600,11.32184814453125,0.3393329381057217,0.058694839612082786,-0.32605469241701224
1684000098870489600,11.331889892578126,0.5727248788370408,0.06560993206691448,-0.21295511733276395
1684000098880531400,11.341931884765623,0.6522917152011,0.07361507414732414,0.021679759011614824
1684000098890573200,11.3519736328125,0.6006614566111959,0.1709089280784675,0.22829341892023025
1684000098900614800,11.36201513671875,0.4120414257959946,0.20914745334395915,0.47358560549479745
1684000098910656600,11.37205712890625,0.13897466662220367,0.24814414969598067,0.6793698668483535
1684000098920698600,11.382098876953124,-0.29369044309177983,0.23992443087017978,0.9178680182390984
1684000098930740400,11.392140869140626,-0.7741776704653663,0.1795148850472795,1.3236234188600216
1684000098940782300,11.4021826171875,-1.1286221743745535,0.12174510942464808,1.662082195252956
1684000098950824100,11.412224609375,-1.282577872446594,0.10480308533401542,1.9207029341109096
1684000098960866000,11.422266357421876,-1.1253374815577635,0.05238819130141368,2.0676627159369985
1684000098970907600,11.432307861328123,-0.8295326231885782,0.09135532379894072,1.9915914535258652
1684000098980949400,11.442349853515625,-0.501718997850605,0.14021873473214955,1.7711079120434385
1684000098990991300,11.4523916015625,-0.3180624246004714,0.17968177787163292,1.5743914842742617
1684000099001033100,11.46243359375,-0.24094998831082448,0.23601150507719043,1.3830764292492062
1684000099011075000,11.472475341796876,-0.19541871558700152,0.34492588033376176,1.2778596877271737
1684000099021116600,11.48251708984375,-0.23612952229113607,0.40120601651064686,1.174436211398178
1684000099031158400,11.492558837890623,-0.2320880891059055,0.4003763200217373,1.1214399338331331
1684000099041200300,11.5026005859375,-0.14712369438819084,0.4214715956560647,0.9286429882656508
1684000099051242200,11.512642578125,-0.09407281874621277,0.4074144362229709,0.8469414115538332
1684000099061284000,11.522684326171875,0.027598857897250497,0.4896097184524479,0.599436342778317
1684000099071325900,11.532726318359376,0.048344969817801044,0.5242576598897588,0.22732576732265944
1684000099081367700,11.54276806640625,0.011184334609937684,0.4848918915809081,-0.0512375832760494
1684000099091409300,11.552809814453123,-0.0024681090698939153,0.4930887223232484,-0.37075102331165716
1684000099101451200,11.5628515625,-0.05095624924168432,0.326373100356392,-0.5802525878521164
1684000099111493000,11.5728935546875,-0.04307609799063638,0.22142887100995123,-0.8722754718455272
1684000099121534900,11.582935302734375,0.014312326970763956,0.20429611190486038,-1.1874129772061226
1684000099131576800,11.59297705078125,0.0958639978360043,0.17687702180016984,-1.5074253082678832
1684000099141618600,11.60301904296875,0.17533481118252836,-0.06347179408436726,-1.6489557027305073
1684000099151660200,11.613060546875,0.18814742558799236,-0.2221040727112138,-1.5509672164322899
1684000099161702100,11.6231025390625,0.08296430116836116,-0.2775974273148281,-1.5894930362575697
1684000099171743900,11.633144287109374,0.022287964840199608,-0.27084255232759924,-1.5914188622952639
1684000099181785800,11.643186279296875,-0.049712300452385644,-0.13271331775707268,-1.482367992447389
1684000099191827600,11.65322802734375,-0.20424920326834325,0.016983032208435684,-1.4870293141667965
1684000099201869600,11.663269775390624,-0.38625669475349433,0.17086505886751702,-1.5980440378186065
1684000099211911300,11.673311767578124,-0.6046401261120383,0.33828353893377977,-1.7602993251168517
1684000099221952900,11.683353271484377,-0.8323208690530752,0.45218563085099645,-1.9569866657454549
1684000099231994800,11.693395263671874,-0.9723557234667657,0.6559276582519262,-2.1364102362840285
1684000099242036600,11.70343701171875,-1.0410771369694212,0.6030588149229791,-2.2803933619514316
1684000099252078600,11.71347900390625,-1.0789539814231552,0.6501359938523612,-2.4147865772822685
1684000099262120400,11.723520751953124,-1.0631055831356648,0.6369228363004654,-2.5903296469379686
1684000099272162200,11.733562744140626,-0.9902471899530957,0.4823894501222014,-2.5977139472810262
1684000099282203800,11.743604248046877,-0.9318996667035256,0.239520073048817,-2.4281663893555447
1684000099292245600,11.75364599609375,-0.9474304915124202,0.09014415746996003,-2.1453640460857186
1684000099302287600,11.76368798828125,-0.9706882238958817,0.01024723052352821,-1.856625318511865
1684000099312329400,11.773729736328123,-0.9810393452949796,0.3482913971444307,-1.479464292422887
1684000099322371200,11.783771728515624,-0.9143062828703564,0.8620100022414691,-0.9748822450518048
1684000099332413100,11.7938134765625,-0.7148032188218333,0.8036680220506007,-0.2730202675107663
1684000099342454600,11.803855224609377,-0.46307840934311656,0.22991561882334463,0.35255104301167683
1684000099352496600,11.81389697265625,-0.21276545517127324,-0.63319873807922,1.0438246727477045
1684000099362538400,11.823938720703126,0.08734306681769768,-1.300075530859413,1.5520763395965644
1684000099372580300,11.833980712890623,0.280072838115061,-1.5398817062309216,1.6897825002303826
1684000099382622100,11.8440224609375,0.3531160653266141,-1.325655937278531,1.432008147096539
1684000099392664000,11.854064453125,0.09425103662752075,-0.9956569672567577,0.9878872632446197
1684000099402705600,11.86410595703125,-0.2032946944038295,-0.6645631790568347,0.7436203957147315
1684000099412747400,11.87414794921875,-0.4246152043187424,-0.009549140902694542,-0.031505525082657936
1684000099422789300,11.884189697265626,-0.6677183508581777,0.4887905119486793,-1.0827996730899183
1684000099432831200,11.8942314453125,-0.881281673794319,0.6946086884588755,-1.9378941058927066
1684000099442873000,11.9042734375,-0.9363325236450176,0.7371101378848492,-2.4188992976961625
1684000099452914900,11.914315185546876,-0.6818275450177096,0.6163101197661698,-2.2681763172740452
1684000099462956500,11.92435693359375,-0.21541166302804146,0.3087205887304115,-1.4774384498933024
1684000099472998300,11.934398681640625,0.20333567267097288,-0.10613155367606833,-0.47517323493929986
1684000099483040200,11.944440673828124,0.49561199544219775,-0.3670673370394401,0.5445035098818986
1684000099493082000,11.954482421875,0.6189427971619192,-0.4714059829431178,1.2447693347780533
1684000099503123900,11.964524169921877,0.5255491733918418,-0.4191999433994005,1.5107042788754568
1684000099513165700,11.974566162109374,0.2340982258641514,-0.24199581133973969,1.353851199049055
1684000099523207300,11.984607666015624,-0.13945382821415567,0.01882553095103892,0.7431026100774838
1684000099533249200,11.994649658203125,-0.3822909593350265,0.21203422546023395,0.09126484396360789
1684000099543291100,12.00469140625,-0.4519107341463183,0.30158615112700926,-0.5386162997602619
1684000099553332900,12.0147333984375,-0.3856747150092368,0.37604999538044137,-0.8870200513954235
1684000099563374800,12.024775146484377,-0.1559321879977714,0.35919952408870104,-1.0636758805398576
1684000099573416600,12.034817138671874,0.10961073635473123,0.3374748229732286,-0.9330157039641989
1684000099583458600,12.04485888671875,0.322978556113506,0.27771663659099466,-0.49974983923473526
1684000099593500300,12.054900634765623,0.43879121554189837,0.23029327387557325,-0.009637236598305496
1684000099603541900,12.0649423828125,0.48662415136892306,0.2334127425762131,0.3952528535821527
1684000099613583800,12.074984130859375,0.46747711287852783,0.2654418945249199,0.7001579404571532
1684000099623625600,12.085026123046877,0.4012825487176615,0.3334197999606733,0.8480766417136566
1684000099633667600,12.09506787109375,0.26743888847367586,0.32970047013328474,0.804021060548416
1684000099643709400,12.10510986328125,0.1379849314106315,0.3188629149708082,0.6791478395774798
1684000099653751200,12.115151611328123,0.024365246375944446,0.2890033721160914,0.5001520513977158
1684000099663792800,12.125193115234374,-0.05201137074459376,0.232984542793476,0.2818717659630161
1684000099673834600,12.135235107421876,-0.09544914945637317,0.14121437072679366,0.11584895848198744
1684000099683876600,12.14527685546875,-0.09820395706014258,0.061467170614859096,0.0499902962157485
1684000099693918400,12.15531884765625,-0.01977580778839794,0.027125358499158585,0.05076718319653221
1684000099703960200,12.165360595703126,0.11759519575451902,0.04530334482680351,0.12486821415768212
1684000099714002100,12.175402587890623,0.2740430533343179,0.025305747886791692,0.28786748658326194
1684000099724043600,12.185444091796874,0.4003456235407688,0.11307907097054588,0.4288714528139307
1684000099734085600,12.19548583984375,0.4576017557772551,0.06253719323332516,0.6421272157534175
1684000099744127400,12.20552783203125,0.4459492563041381,0.09142875674775557,0.7400902509448
1684000099754169300,12.215569580078125,0.3640173972854343,0.10385608666868683,0.8029531239803278
1684000099764211100,12.225611572265626,0.2771434487229757,0.09738731383326188,0.8597047924415491
1684000099774253000,12.2356533203125,0.15498793138396333,0.036201477057396646,0.8695629238243234
1684000099784294800,12.2456953125,0.024212479652644992,0.013543128993007976,0.799136340619652
1684000099794336400,12.25573681640625,-0.1338703631838357,0.09851169579915339,0.6130963563401993
1684000099804378300,12.26577880859375,-0.27522748700328303,0.03288650503300835,0.49285829073772286
1684000099814420100,12.275820556640625,-0.4415752293089124,0.09385967255684645,0.25822740799904087
1684000099824462000,12.2858623046875,-0.6047756075118476,0.0994434357858033,0.13266402481201092
1684000099834503900,12.295904296875,-0.6920117139081413,0.10463905335078144,0.054007112960698454
1684000099844545600,12.305946044921876,-0.7198083996425599,0.06408977506115453,0.007730424402201719
1684000099854587600,12.315988037109374,-0.6769881248129755,0.04724407198637906,0.012501060939765597
1684000099864629200,12.326029541015624,-0.6078304051126096,-0.010353088421633419,0.058443307894783365
1684000099874671000,12.336071533203125,-0.541696131242789,-0.027341842571571337,0.10934823760631973
1684000099884712900,12.34611328125,-0.4976862668798178,-0.04435539239615856,0.15260583149229762
1684000099894754700,12.356155029296875,-0.46636900307742757,-0.037452697668660904,0.19008529190254514
1684000099904796600,12.366197021484377,-0.40724170209210625,-0.08547019968254542,0.21921014780310805
1684000099914838400,12.37623876953125,-0.4040609598013999,-0.12140369411241271,0.2472470402898717
1684000099924880300,12.38628076171875,-0.3950448929628713,-0.15480518343751198,0.2645681499630594
1684000099934921900,12.396322265625,-0.40194410072087805,-0.21430683130292683,0.2351669669524804
1684000099944963800,12.4063642578125,-0.3964361846665235,-0.23774337771768786,0.19029909383873292
1684000099955005600,12.416406005859375,-0.42644715306051134,-0.2323970795345926,0.08738100536881652
1684000099965047500,12.42644775390625,-0.42587074645661716,-0.01208496087034494,-0.1340713501070028
1684000099975089300,12.43648974609375,-0.41466119896649295,-0.2709341049870913,-0.0046277641684117285
1684000099985131200,12.446531494140626,-0.4093887210200327,-0.19347190852982687,-0.10458171367130448
1684000099995172800,12.4565732421875,-0.38905045402163146,-0.13859844200474397,-0.21166944491893128
1684000100005214600,12.466614990234374,-0.3446296156056118,-0.05887126929393036,-0.17488026612349125
1684000100015256600,12.476656982421876,-0.31903815281042086,-0.02996826174402503,-0.11973172416997976
1684000100025298400,12.48669873046875,-0.3074919581276097,-0.011002540678871048,-0.10073667766642566
1684000100035340200,12.49674072265625,-0.28895258896493314,-0.008851051326132824,-0.034940242784619296
