time,seconds_elapsed,z,y,x
1684002527086952400,0.030352783203125,-8.196326048572702e-11,8.007970385299431e-11,-1.7417020054525553e-10
1684002527096994600,0.040394775390625,0.18844413746579491,0.32495188713872886,-0.31960630414940566
1684002527107036600,0.05043701171875,0.1319494245846026,-0.4479084015296489,-0.6747696399142871
1684002527117078400,0.060478759765625,-0.017222404537725198,-0.21812295914144836,-1.0101546048329177
1684002527127120600,0.07052099609375,0.019866943437557526,-0.4008278846058275,-0.7276055812143226
1684002527137162600,0.08056298828125,-0.2729482650737098,-0.0903263092778678,-0.2689414023016378
1684002527147204600,0.09060498046875,-0.37225580218635085,0.08619356168447609,-0.17375278474178574
1684002527157246600,0.10064697265625,0.04073238385514793,0.2963342666768346,0.01739764207331442
1684002527167288800,0.110689208984375,0.44484233847763927,-0.39000749588925265,0.049492835933321835
1684002527177330600,0.12073095703125,0.9203882216609565,-0.8452420234848558,0.20288324360606189
1684002527187372600,0.130773193359375,2.631263732903593,0.5125832557877444,-0.20542573940537284
1684002527197414800,0.140815185546875,1.6069145200938573,-0.699227809910943,0.1707448959235788
1684002527207456900,0.150857421875,0.57938003524896,-0.2210688591257486,0.15408802025734816
1684002527217498800,0.160899169921875,-0.06760311114241957,-0.3212704659604341,0.23844766624454847
1684002527227540900,0.17094140625,-0.7159385681080404,-0.36647129067855616,0.15065860751921886
1684002527237583000,0.1809833984375,-0.8957672118267683,-0.05983304983319368,-0.06505393981027788
1684002527247624900,0.191025390625,-0.7701597213340847,-0.11895322792026627,-0.32889652246431417
1684002527257667000,0.2010673828125,-0.40841245652266434,0.24412631985377575,0.04806232465694643
1684002527267709100,0.211109619140625,-0.27785444265786524,-0.4769310951245479,1.2722167968490936
1684002527277751000,0.2211513671875,-0.270000457806616,-0.9150395393456181,2.187015533512237
1684002527287793100,0.231193359375,0.2454004287308505,-0.3814888000660459,2.067637443673335
1684002527297835200,0.241235595703125,0.8658409120144853,-0.15375995628644057,1.583042621638365
1684002527307877000,0.25127734375,0.8553843498050909,-0.7272443770729929,1.4912686349058106
1684002527317919200,0.261319580078125,0.5051341056654783,-0.9391789436224712,1.4540238379784396
1684002527327961300,0.271361572265625,0.8997936248162567,-0.26501607908686164,1.2885985375981193
1684002527338003100,0.281403564453125,0.9272351264518652,-0.04473590857849139,1.7735877036663836
1684002527348045200,0.291445556640625,0.5290040970079417,1.2281222344620755,2.2885770797357665
1684002527358087300,0.30148779296875,0.04199934000434973,1.0889658929133235,1.9685902595273024
1684002527368129200,0.311529541015625,-0.4128074645424282,0.010509014239133618,0.9581747054264232
1684002527378171300,0.32157177734375,-1.052301883576563,-0.3260846137656379,0.3416814803152017
1684002527388213400,0.33161376953125,-1.2298989296949576,0.5462594032873462,-0.5625257492070745
1684002527398255600,0.341656005859375,-0.7454347610509418,1.1961755752868866,-1.1225814820082836
1684002527408297400,0.35169775390625,-0.13828468323716636,1.0829572677215746,-0.721144199541992
1684002527418339600,0.361739990234375,0.09247779852145428,0.6005125045444882,0.27242708198757243
1684002527428381600,0.371781982421875,-0.0013833046725783692,0.39946699149489207,1.0514235497311166
1684002527438423600,0.381823974609375,-0.356016635776059,0.6136159897334709,1.5858411789276274
1684002527448465600,0.391865966796875,-1.808701515015485,0.03798484792323181,2.5288519859474157
1684002527458507600,0.401908203125,-1.1290926932681877,1.112222671553654,1.6083188057462057
1684002527468549600,0.411949951171875,-1.3849306106678299,1.2993650436475737,1.1756987570843878
1684002527478591600,0.421991943359375,-1.28713130956379,0.741878032682824,1.1712093353702502
1684002527488633800,0.4320341796875,-1.211746215846564,-0.24425745010855004,1.1160440444838449
1684002527498675600,0.442075927734375,-0.34544420245125423,-0.5004348756064805,0.35494327533187164
1684002527508717700,0.4521181640625,-7.079188823753328,0.9509642124755608,-0.7865891456799889
1684002527518759900,0.46216015625,-5.408195495600375,0.5700898171012047,-1.6330461502050555
1684002527528801600,0.4722021484375,-0.20063543312923285,-1.0683503149029483,-0.37862920772711645
1684002527538843800,0.482244140625,7.188437461734752,-2.2260241509452765,0.3246536255852302
1684002527548885900,0.492286376953125,6.711335182175022,-1.1494259836035636,-0.8044686317999137
1684002527558927800,0.502328125,3.975088596289338,-1.2152247427441876,-0.9492206573334834
1684002527568969900,0.512370361328125,2.1433095932260757,-0.9526014327571487,-1.8904647826149863
1684002527579012000,0.522412353515625,0.7205638885401638,-0.5128560065999848,-2.7148160935060477
1684002527589054100,0.53245458984375,-23.222410201950673,3.1921906472829114,-10.109723091111858
1684002527599096000,0.542496337890625,-6.068932533096044,-1.2113418578622703,1.475862503199038
1684002527609138100,0.55253857421875,3.024213314060005,-0.39800643936955177,2.17381668104054
1684002527619180200,0.56258056640625,1.761623620959731,1.3211669920656117,0.42177963255846296
1684002527629222100,0.57262255859375,0.4357514380204669,0.8937020301794817,0.8324890136602127
1684002527639264200,0.58266455078125,0.4058849812609497,0.9717159271374077,0.804966926733985
1684002527649306300,0.592706787109375,2.0189747809509524,1.8566133976254215,0.0071477890859289045
1684002527659348400,0.602748779296875,5.868878364478416,0.39538574213492284,-0.8455781934710438
1684002527669390300,0.612790771484375,5.154490947688755,0.6203594207703773,-1.1292819977346569
1684002527679432400,0.622832763671875,8.139741897690733,0.4852027891466959,-0.3959436416501604
1684002527689474600,0.632875,9.640115737971714,0.10364246357931055,-0.07281398780724892
1684002527699516300,0.642916748046875,6.383564949076813,-0.3193805217628993,-2.767554759964952
1684002527709558400,0.652958740234375,1.9332537652654762,-0.11639928816315395,-4.382715225316097
1684002527719600600,0.6630009765625,-1.3106182813157923,1.312276363400078,-4.377573967037294
1684002527729642600,0.67304296875,-6.95071411118837,0.8429236411120868,-2.639357089974006
1684002527739684600,0.6830849609375,-12.912289619417102,1.8234248159903408,-0.6998090744140821
1684002527749726600,0.693126953125,-14.893795966932574,3.5383760929208514,-2.0211420060869374
1684002527759768800,0.703169189453125,-6.199591159732931,2.8663604260161843,-0.9174194335917024
1684002527769810600,0.7132109375,-0.794243097311756,3.2527115344612834,0.49764156329347603
1684002527779852600,0.723253173828125,-1.3813818693363296,2.4158277511794286,0.7300786971010075
1684002527789894800,0.733295166015625,-2.6221647262394834,1.702481389083902,0.37975025167321463
1684002527799936900,0.74333740234375,-1.4413663150583995,1.9465342761087048,-0.2816514967818261
1684002527809978800,0.753379150390625,0.2088350058192503,1.6329460144749817,-0.821167945912966
1684002527820020900,0.76342138671875,1.4920492172760143,0.8838732242220909,-1.2700872420395144
1684002527830063000,0.77346337890625,2.733723640464318,0.3489894865946255,-1.5767889022743056
1684002527840104900,0.78350537109375,3.5052623749194245,0.08013510702105416,-1.620985984832971
1684002527850147000,0.79354736328125,3.011460781026823,-0.5413205625193512,-1.7754249573699432
1684002527860189100,0.803589599609375,1.9465448857042815,-0.8389825820940285,-2.3290944100224182
1684002527870231000,0.81363134765625,0.605742037341538,-0.8144245148476458,-2.743454933164717
1684002527880273100,0.823673583984375,-0.4615124463936999,-1.0491015910712271,-2.537226200111465
1684002527890315200,0.833715576171875,-1.3737806081239132,-1.0694775582169955,-2.290025711010012
1684002527900357300,0.8437578125,-2.0648574830449,-0.9276938438637534,-2.1306037902932116
1684002527910399200,0.853799560546875,-2.081628322652829,-0.8175432683800518,-2.0813574791551432
1684002527920441300,0.863841552734375,-1.546240806436931,-1.2987432478643492,-1.7309684753417607
1684002527930483400,0.8738837890625,-0.5071185826768938,-1.2983114719575917,-1.3575878143183158
1684002527940525200,0.883925537109375,-0.10509824767789619,-1.3016955852154013,-1.488007545529162
1684002527950567300,0.8939677734375,-0.23655986793153194,-1.2537550925973244,-1.6576509474740984
1684002527960609500,0.904009765625,-0.3900873064941856,-0.7769434451319802,-2.136505126926654
1684002527970651600,0.914052001953125,-0.011400818892862298,-0.5664312839561139,-1.5284519195543345
1684002527980693400,0.92409375,0.48189249622693525,0.6252076625434936,-0.023241996663261315
1684002527990735600,0.934135986328125,1.3318839072088868,-1.9835255145942288,3.460347175702767
1684002528000777600,0.944177978515625,2.892296314177698,-0.6749992369025432,3.4444036484617055
1684002528010819600,0.954219970703125,2.9669756888837644,-0.39184808732963566,2.4552879333047506
1684002528020861600,0.964261962890625,2.6265690326481352,-0.6005976198906547,1.780990600474076
1684002528030903600,0.97430419921875,1.5870180131184772,-0.3167231083030406,0.33468818668010314
1684002528040945800,0.98434619140625,-0.03621804704972834,-0.08719801884982402,-1.5637035369089558
1684002528050987600,0.99438818359375,-0.8768351674707132,0.6442906854898922,-4.720479011603234
1684002528061029800,1.00443017578125,-1.0095109941129545,0.15778660767246214,-1.966486930819964
1684002528071071900,1.014472412109375,0.02199648893657393,0.08126378055036451,0.5075531006822165
1684002528081113800,1.02451416015625,1.6221029759825123,0.2576198577039237,2.2599439621705115
1684002528091155900,1.034556396484375,2.58050394068071,-0.13911628717250557,2.709821700956988
1684002528101198000,1.044598388671875,3.4515900612041768,-0.5924675465029889,3.2813196181431
1684002528111240100,1.054640625,2.893370628335279,-1.3649089334697264,2.7401676176961502
1684002528121282000,1.064682373046875,1.2905415296877787,-1.5553581714475713,0.5865869522964962
1684002528131324100,1.074724365234375,-0.09457443648478185,-1.7279386521730373,-1.5598239897557773
1684002528141366200,1.0847666015625,-1.475903987937653,-1.7501101492533175,-3.3213934899275928
1684002528151408000,1.094808349609375,-2.5465879439728902,-1.5167772769056245,-3.884476661679697
1684002528161450200,1.1048505859375,-2.9789147377484912,-0.8677976132082131,-3.9255943298836646
1684002528171492300,1.114892578125,-3.2334778307735115,-0.3296179771143967,-3.441689491385921
1684002528181534400,1.124934814453125,-2.735518932257429,-0.0019209384604072528,-3.380475520976926
1684002528191576200,1.1349765625,-0.8480064273481541,-0.3520441055689207,-1.9373788831847245
1684002528201618400,1.145018798828125,1.4834938051088002,-0.9691274166768543,0.8596963882406872
1684002528211660500,1.155060791015625,1.2032750846541986,-0.5520832539520873,2.775605201688528
1684002528221702600,1.16510302734375,1.158452034046997,0.05629682557761089,3.418813705416206
1684002528231744400,1.175144775390625,0.9007115362472388,-0.2642774581603385,3.0946388243979936
1684002528241786600,1.18518701171875,0.37706649309843365,-1.005289077642955,0.8734760285440691
1684002528251828600,1.19522900390625,-0.22821845119538203,-0.3815212250144176,0.40581989289296627
1684002528261870800,1.205271240234375,-0.4836707711241719,0.07898950573518042,0.21117591858287796
1684002528271912600,1.21531298828125,-0.8365088104947438,-0.002101898086979515,-0.6752214431356959
1684002528281954700,1.225355224609375,-0.5252428055233371,0.09362125408902074,-1.3145160675512932
1684002528291996800,1.235397216796875,-0.7596057057845447,0.2903785705045653,-1.3132147788696398
1684002528302039000,1.245439453125,-1.2686989309079262,0.47309207919212015,-0.8648190496994964
1684002528312080800,1.255481201171875,-0.8257840274832151,-0.22688198085997385,0.298607826240366
1684002528322122900,1.2655234375,0.09725224977401843,-0.9017853736441431,2.055461883587549
1684002528332165000,1.2755654296875,1.0487068892615903,-0.9289546013617526,2.518867492740039
1684002528342207200,1.285607666015625,1.3941578864527762,-0.5132341385661703,1.863414764252122
1684002528352249000,1.2956494140625,0.752866029697884,0.24063014985774006,0.466650962734978
1684002528362291100,1.30569140625,-0.0538964867972151,0.8824152944931564,-1.085936546314506
1684002528372333200,1.315733642578125,-0.7847842572967129,1.029790401291505,-2.0399684907096285
1684002528382375100,1.325775390625,-1.0993454455445282,0.36144256594159513,-1.7973895072198953
1684002528392417200,1.335817626953125,-1.0436205862992745,-0.408039093106141,-1.2276296616171944
1684002528402459300,1.345859619140625,-0.42627853144255984,-1.2296071052704003,-0.21356916419345728
1684002528412501400,1.35590185546875,0.2023628353500508,-1.5112462043342145,0.5912299156749409
1684002528422543300,1.365943603515625,0.4655295014344503,-1.1613316534510163,1.0808801651399165
1684002528432585400,1.37598583984375,0.3007951676694505,-0.7005991935797858,1.631211280906968
1684002528442627600,1.38602783203125,1.2477381229475473,0.3088831901701467,3.370213508587246
1684002528452669400,1.39606982421875,0.7004566789530332,0.1271667481246893,1.4926438331237943
1684002528462711500,1.40611181640625,0.45800212031985504,0.3082957268581326,0.7821097374467728
1684002528472753600,1.416154052734375,0.6958694458557775,-0.7075490951637738,1.5339350699476562
1684002528482795600,1.426196044921875,1.1014071702272799,-0.6372470854843271,1.100550174752191
1684002528492837600,1.436238037109375,0.948626756777769,0.483222484541106,-0.7203288077278047
1684002528502879600,1.446280029296875,0.4420959947774269,0.9758539201328348,-0.15037822723926506
1684002528512921800,1.456322265625,-0.4262130855615896,1.046166896821566,0.43156242357942565
1684002528522963900,1.4663642578125,-0.6860519648621326,0.9155187607246579,0.12996816652563303
1684002528533005700,1.47640625,-1.0703203677759279,0.5231981278399319,-0.6265959740049886
1684002528543047900,1.4864482421875,-1.6006422043161204,-0.40977239601851095,-1.5140671730338937
1684002528553090000,1.496490478515625,-1.7526599167635464,-0.757635593404182,-1.845305919702997
1684002528563132100,1.506532470703125,-1.0075933934594332,-0.03710937496466267,-1.0925273895827465
1684002528573173900,1.51657421875,-0.45485115040141316,0.4563598633669013,-0.016637802097108103
1684002528583216000,1.526616455078125,0.3799830676698343,0.33114147187975,0.5164775847508508
1684002528593258200,1.536658447265625,0.6236418486160433,0.5224518774362326,0.23974704758350224
1684002528603300300,1.54670068359375,0.5176362990997756,0.33333539961915015,-0.14569139493690528
1684002528613342100,1.556742431640625,0.30023348325676674,0.004448413821869866,-0.3720903396873115
1684002528623384200,1.56678466796875,0.3811547755600594,0.09627532969389885,-0.774277687174532
1684002528633426400,1.57682666015625,1.1847558022643803,-0.13896131510341592,-0.5605525970917047
1684002528643468500,1.586868896484375,1.3786422013610755,0.16616296779427303,0.04048299791394915
1684002528653510300,1.59691064453125,0.5468546150224286,1.1588964461991822,0.698123455062178
1684002528663552400,1.606952880859375,-1.4661782979579312,2.051678657435442,0.3974895477283519
1684002528673594600,1.616994873046875,-1.5085785389055495,2.415660857986927,-0.35775661471798825
1684002528683636600,1.627037109375,-0.6379548311832857,1.9400153160245497,-0.35405063624975974
1684002528693678600,1.637078857421875,-0.1726698874508621,0.7798953057408925,-0.5691366195782619
1684002528703720600,1.64712109375,0.03382724523874799,-0.689524650562326,-0.9874343870483726
1684002528713762700,1.6571630859375,1.2379207611986682,-1.559331417040696,-1.6759271621862986
1684002528723804800,1.667205322265625,1.2026500700770857,-2.3694944382866496,-1.6589956282862555
1684002528733846600,1.6772470703125,0.9531497955290914,-1.8204579352539176,-1.8821587562810793
1684002528743888800,1.687289306640625,0.12936115265325837,-0.8761987687110081,-0.8190832138053584
1684002528753930900,1.697331298828125,-0.11428600541821339,-0.5366849899556395,0.5908794401459374
1684002528763972800,1.707373291015625,1.1006282569307542,0.4332118035449531,0.8990840911218997
1684002528774014900,1.717415283203125,0.6255780458021238,0.6990170476987556,0.8002214431692029
1684002528784057000,1.72745751953125,-0.36843869082144326,1.1968812942633464,0.46105766301910456
1684002528794099100,1.73749951171875,-0.4207747280453427,1.7154812811315452,0.8944807054160446
1684002528804141200,1.747541748046875,0.0228806137266314,1.1967606543366227,2.0102839469868683
1684002528814183100,1.75758349609375,0.96453696488635,1.1304144859050616,1.8795490264794372
1684002528824225200,1.76762548828125,1.1192624568671592,0.7986364364696255,0.8676581381313666
1684002528834267300,1.777667724609375,0.18796357519973372,0.42797327055846324,-0.9987368584903002
1684002528844309400,1.787709716796875,-0.2220679223028226,0.1547665596560595,-1.8925485612117827
1684002528854351300,1.797751708984375,-0.11444734038183633,0.06738090502682012,-1.9809851646297136
1684002528864393400,1.807793701171875,-0.006927982055109408,0.10990476591392236,-1.9011106492630756
1684002528874435600,1.8178359375,0.10432328277861377,0.03695678712667371,-1.4583868981571342
1684002528884477600,1.8278779296875,0.24427968253956814,-0.14258432386415995,-1.2186093330461023
1684002528894519500,1.837919921875,0.5447290539214108,-0.4785504340126543,-1.753913402499801
1684002528904561600,1.8479619140625,0.5403289198870915,-0.8003158570440801,-0.9362869263089988
1684002528914603600,1.858004150390625,0.10434244567689463,-0.9820590018954445,0.6801667213623527
1684002528924645800,1.868046142578125,0.060895904943754305,-0.8907546997708305,2.334958553359259
1684002528934687600,1.878088134765625,0.689053773869439,-0.30227375028187414,3.232349395745027
1684002528944729800,1.888130126953125,1.3927797080120399,0.19113636008234008,3.175801753902614
1684002528954771900,1.89817236328125,1.9344443082792613,0.4277391432385683,1.781517505704128
1684002528964814000,1.90821435546875,1.5564390419920215,0.22803211205160587,0.35460424408789454
1684002528974855900,1.91825634765625,0.4022889732396984,-0.17051029212551724,-0.24019336707221953
1684002528984898000,1.92829833984375,-0.38183504346782987,-0.394230842648196,-0.3784151075569899
1684002528994940100,1.938340576171875,-0.21354842187678133,-0.2754640579659132,-0.46421146381247325
1684002529004982200,1.948382568359375,-0.2586226166251515,-0.4627237320090464,-0.36058568954160913
1684002529015024000,1.958424560546875,-0.6371709703255151,-0.3458786011263196,0.09717273716473483
1684002529025066200,1.968466552734375,-0.156029224444488,-0.25561809535039604,-0.09169578555193425
1684002529035108300,1.9785087890625,-0.12250245374102588,0.5294046402120182,0.19004774090657775
1684002529045150400,1.98855078125,0.5996062160336184,0.8509712219598266,0.7511267661678833
1684002529055192200,1.998592529296875,1.4309935570698453,0.9067840576875745,0.8422875403297914
1684002529065234400,2.008634765625,1.4438189269573296,0.2004318236463372,0.9622025488629901
1684002529075276500,2.0186767578125,0.6745439767129543,-1.32554626455692,0.5567235944886484
1684002529085318600,2.028718994140625,0.5836744905122702,-0.7426166534165409,0.21308565133550847
1684002529095360600,2.038760986328125,1.6783788204603725,-0.17814350140892743,0.036632537823122584
1684002529105402600,2.048802978515625,1.7139521836324048,-0.5080137253465428,-1.5833854676153767
1684002529115444600,2.058844970703125,1.1520431042413135,-1.4618635175980745,-3.4986059665550915
1684002529125486800,2.06888720703125,0.9703997372865353,0.27658367162094966,-2.8293230533862057
1684002529135528600,2.078928955078125,0.5062313079701002,0.6895170212961191,-0.5052495001923417
1684002529145570700,2.08897119140625,-0.06567317243253938,0.7685871124028226,0.6889038087512235
1684002529155612800,2.09901318359375,-0.5974448322976684,1.918721198998335,0.9397578239000199
1684002529165655000,2.109055419921875,-1.6625871658645437,1.3229002951313686,1.5270409583197526
1684002529175697100,2.119097412109375,-1.0111017227645318,1.3653345107839876,1.7283024787457406
1684002529185738900,2.129139404296875,-0.13620704414884438,1.2010345459315985,1.9886436463203032
1684002529195781000,2.139181396484375,-0.07287824153651674,0.6143207549871307,0.852251052998131
1684002529205823200,2.1492236328125,-0.3970112206104261,-1.0820589065675408,-0.9306898117062745
1684002529215865300,2.159265625,-0.08827412136057966,-2.48928546901757,-2.533256530882147
1684002529225907100,2.1693076171875,0.9998646378503004,-3.1763448716023266,-2.9794633386831872
1684002529235949200,2.179349609375,2.4126687050363196,-2.7589721680155166,-2.2388563156507164
1684002529245991300,2.189391845703125,2.007772445742178,-0.9313611985914291,-1.2238221167248187
1684002529256033500,2.199433837890625,-0.39045280225369927,0.9126386643143632,-0.011954784470792382
1684002529266075600,2.20947607421875,-1.2405076027416782,1.3670592308796634,0.27417278289708674
1684002529276117400,2.219517822265625,-0.7486591338321034,1.3185443877865253,0.1714820861197238
1684002529286159600,2.229559814453125,-0.4634709954524985,0.6426897049937942,-0.16998100276730949
1684002529296201600,2.23960205078125,-0.18001958722637385,0.20238304136268503,-0.3155512808589975
1684002529306243800,2.24964404296875,0.6346908807857481,0.5075793267020651,-0.11617755880321838
1684002529316285600,2.25968603515625,1.163497447968075,1.0429248809922123,0.09411859517014633
1684002529326327600,2.26972802734375,1.2100695371344377,1.4032754898553503,0.09436178192845213
1684002529336369800,2.279770263671875,0.8940799832917826,1.4077005385145147,-0.09053373326339266
1684002529346412000,2.289812255859375,0.15998944634818327,0.9319324492382682,-0.6181192397476949
1684002529356454100,2.2998544921875,-0.27801060668845357,0.8436412811863069,-1.1082415581176237
1684002529366495900,2.309896240234375,-1.5874866247221462,0.8837285041797549,-1.6967601775176868
1684002529376538000,2.3199384765625,-0.7571457027339029,0.7405610082856444,-1.303122520439356
1684002529386580100,2.32998046875,0.3800694941926609,0.4788837434337124,-0.7540364264910149
1684002529396622300,2.340022705078125,0.7780630587871163,0.646915435660011,-0.5811796189362375
1684002529406664100,2.350064453125,0.44253271804940375,0.5803232193417671,-1.0906829832961398
1684002529416706200,2.360106689453125,-0.02411535387781229,0.288459777725032,-1.7298078537361357
1684002529426748300,2.370148681640625,-0.3524067998945261,-0.07805919649497782,-1.9839394094277767
1684002529436790400,2.38019091796875,-0.27408874033032576,0.38062191016424046,-1.757831334993491
1684002529446832600,2.39023291015625,-0.6756916643305728,1.0811524391371476,-1.5504803657535535
1684002529456874400,2.40027490234375,0.14474803214775983,0.7728447913280165,-1.0420579909228023
1684002529466916600,2.41031689453125,-0.3814218044791708,-1.0690240859393147,-0.27475881564157345
1684002529476958600,2.420359130859375,0.17202585941436713,-1.807937621978435,0.08844709404469019
1684002529487000600,2.43040087890625,1.0946019887977252,-0.9399585725219819,-0.059905052029576224
1684002529497042600,2.440443115234375,1.3877704142480063,-0.16441917433663295,-0.17436981195712087
1684002529507084600,2.450485107421875,0.997483193924502,-0.3164291381577904,-0.013835906845157531
1684002529517126800,2.46052734375,0.4496828317567633,-0.8364706039729612,0.010529518071055555
1684002529527168900,2.4705693359375,0.25865960128994947,-0.9188880920234959,-0.08528661728754232
1684002529537211100,2.480611572265625,0.2587180137025186,-1.3878870010365414,-0.4201161862782891
1684002529547252900,2.4906533203125,0.2809888123250237,-0.8255224227792322,0.031896114276180734
1684002529557295000,2.5006953125,-0.060822844612583235,-0.5624256134014917,0.4470272063708473
1684002529567337100,2.510737548828125,-0.10278260709196976,1.603003025137567,0.6224007604850564
1684002529577379200,2.520779541015625,0.07743978496724709,0.10395145419474618,0.0706000328644264
1684002529587421100,2.530821533203125,0.5833100677410548,-1.398534774787892,-0.4703927040104381
1684002529597463200,2.540863525390625,1.0469777584485915,-1.658426284881755,-0.32349133491716175
1684002529607505300,2.55090576171875,1.0754594802658246,-1.0221366882431264,0.5383949279716161
1684002529617547400,2.56094775390625,0.6743187904431804,0.2159309386823884,0.7353143691888168
1684002529627589300,2.57098974609375,0.39679026620111574,-1.4742212296309123,-0.7161264421158031
1684002529637631400,2.58103173828125,1.2409352064618477,0.1597204208741533,-0.8681674004831229
1684002529647673600,2.591073974609375,0.4366123674982387,0.8151969908889178,-1.411544799864726
1684002529657715600,2.601115966796875,-1.292518258008622,-0.04971981042262293,-2.1477558611252197
1684002529667757700,2.611158203125,-2.3435482979788036,-0.992432594321846,-2.4205627441583
1684002529677799600,2.621199951171875,-2.07382535936043,2.9008846283938734,-1.4515385627190276
1684002529687841600,2.6312421875,-3.6247911453331674,1.850324630774645,-1.8053224085905064
1684002529697883800,2.6412841796875,-2.9158601759866447,0.9914064406735924,-1.382201194936956
1684002529707925900,2.651326416015625,-1.540098309541519,0.600806236201447,-0.8896615504608206
1684002529717967800,2.6613681640625,-1.1866856813798108,-0.10396385205787616,-0.8573215007594631
1684002529728009900,2.671410400390625,-1.169957041728656,-1.4568109512170342,-0.7944326401082794
1684002529738052000,2.681452392578125,-0.9361699820732586,-1.8844289778798071,-0.28977799415231914
1684002529748094100,2.69149462890625,-0.5666359663160443,-2.0612993240933632,0.3365054130745263
1684002529758136200,2.70153662109375,-0.6922235488854785,-2.726012229845394,0.9476099014678916
1684002529768178100,2.71157861328125,-0.3621989489703414,-2.062053680546174,1.9651460647902321
1684002529778220200,2.72162060546875,-0.19896054270356756,-1.3670358658977584,1.915985822772259
1684002529788262300,2.731662841796875,-0.7301837206422597,-0.7164077758741768,1.2819585800111868
1684002529798304400,2.741704833984375,-1.158256888290352,-0.5848102568922242,0.15188741690956345
1684002529808346600,2.751746826171875,-1.1226737499911448,-0.3449468612889405,-0.5184786320204983
1684002529818388600,2.7617890625,-0.9351401330244794,-0.29024028778667643,-0.8822920323663683
1684002529828430600,2.771830810546875,-0.5823024510435975,-0.17469692222368036,-0.8753862380808826
1684002529838472600,2.781873046875,-0.5710875988982667,0.3997755050313635,-0.5717020033674542
1684002529848514700,2.7919150390625,-0.9150834082999161,-0.010304450884780254,-0.5440084933826423
1684002529858556800,2.801957275390625,-1.1936879159490728,0.5953359603357415,0.12494969370520079
1684002529868598600,2.8119990234375,-1.3444590567322887,0.5264377593724706,0.20948934565228378
1684002529878640800,2.822041259765625,-1.2376048565479274,1.364935874947048,0.39582037930157454
1684002529888682900,2.832083251953125,-1.2381932735564707,1.8954963682465762,-0.37162590031573023
1684002529898725000,2.84212548828125,-1.2929451465041522,1.4223232269571016,-0.22078561791432869
1684002529908767200,2.85216748046875,-1.144091844601481,1.078222274920838,-0.4912106991708417
1684002529918809000,2.86220947265625,-0.7435646057371998,0.9976530076105639,-0.2777793405986263
1684002529928851100,2.87225146484375,-0.5827963352218954,0.3938627243224183,-0.06500506401397727
1684002529938893200,2.882293701171875,-0.7014901639466844,-1.1312437056496214,0.2195811271036638
1684002529948935300,2.892335693359375,-0.7473177910762265,-2.9538412094751756,0.572944164323031
1684002529958977500,2.9023779296875,-0.4764871597353897,-3.95177459721857,0.6099336146706205
1684002529969019300,2.912419677734375,-0.06892514222136505,-3.2852249144705747,0.0820882321071943
1684002529979061400,2.9224619140625,0.13364148149373742,-0.8952741623640247,-0.5442941189922004
1684002529989103600,2.93250390625,0.11209177955169244,0.6296358108946081,-0.763791322843927
1684002529999145600,2.942546142578125,-0.02540063853362733,1.1429147719725232,-0.7201764582718786
1684002530009187800,2.952588134765625,-0.271787881942269,2.0017776490533508,-0.2899019717402925
1684002530019229600,2.962630126953125,-0.024192333208398597,1.3299474715569952,-0.44191217410995554
1684002530029271700,2.972672119140625,-0.3289890290961351,1.48309993746011,-0.16013646110180782
1684002530039313800,2.98271435546875,-0.4884290694576479,0.9649486542947783,-0.22592473016076395
1684002530049356000,2.99275634765625,-0.5780520439132495,0.6257266997132478,-0.27459311495314365
1684002530059397800,3.002798095703125,-0.5026931762610274,-0.08447265634507728,-0.1991038322072048
1684002530069439900,3.01284033203125,-0.46133494381340434,-0.17111873635437924,-0.08111643800952954
1684002530079482000,3.02288232421875,-0.4504244326303007,-0.9348478318465739,-0.5400347710932437
1684002530089524100,3.032924560546875,-0.6968560217997946,-0.9512252806392086,-0.6138236522447691
1684002530099566300,3.042966552734375,-0.9045643805482154,-1.0382757187336416,-0.5063085557362775
1684002530109608100,3.053008544921875,-1.1129965780497444,-1.2540044784178794,-0.6331534385394277
1684002530119650200,3.063050537109375,-1.1512336730694803,-1.0829477309334457,-0.4467406272191556
1684002530129692300,3.0730927734375,-0.8231449128839939,0.2528104782258911,-0.4161858559299371
1684002530139734400,3.083134765625,-0.5448663233539273,0.6432819365623912,-0.323631286563942
1684002530149776600,3.093177001953125,-0.39510917672941304,0.2727022170460406,-0.4916701316837246
1684002530159818400,3.10321875,-0.4137210846363687,0.32291030881213284,-1.0167646407655702
1684002530169860600,3.113260986328125,-0.3937988280897385,0.4711189269696212,-1.199448108635161
1684002530179902600,3.123302978515625,-0.44234299671733046,0.4318542481126942,-1.1999688148777936
1684002530189944800,3.13334521484375,-0.4502990244678743,0.4716043472298913,-1.1379168034349285
1684002530199986900,3.14338720703125,-0.6297700404246388,0.38893699660247055,-0.9666457175993971
1684002530210029000,3.153429443359375,-0.3983433246268171,0.4224987029115078,-0.8538074492919824
1684002530220070800,3.16347119140625,0.023432016263823848,0.8717107772330734,-0.5502901077949252
1684002530230112900,3.173513427734375,0.5257155895133752,0.7378501891509573,-0.40043973922123627
1684002530240155100,3.183555419921875,1.1566458940497193,1.159138679540388,-0.03189039248203575
1684002530250197200,3.19359765625,1.629563331709161,1.2549190522303362,0.40888190267250657
1684002530260239300,3.2036396484375,1.7888860702388591,0.9527006148876115,0.8578860761240609
1684002530270281100,3.213681640625,1.6367102862534482,0.6546239852759289,1.461773872407125
1684002530280323200,3.2237236328125,1.2560772896568666,0.10414886473604637,1.5785832403993805
1684002530290365400,3.233765869140625,0.8124117850616793,0.16466236126001296,1.3197357655125028
1684002530300407500,3.243807861328125,0.40282249440751355,0.532766342238656,0.7715513706064174
1684002530310449600,3.25385009765625,0.041309118238037165,0.9472255706771786,0.551114797725405
1684002530320491400,3.263891845703125,-0.07917618755206082,1.5528268813546116,0.5821263791061296
1684002530330533600,3.273933837890625,-0.14395141614238657,1.9006319046188784,0.6338367462135709
1684002530340575600,3.28397607421875,-0.3312516212102829,1.9671955109921717,0.6457839012460469
1684002530350617800,3.29401806640625,-0.513437747933159,1.868755340687779,0.46553277960218564
1684002530360659900,3.304060302734375,-0.4975374936119586,1.770735740666462,0.39335536956884287
1684002530370701700,3.31410205078125,-0.5011466740776136,1.5589051246837298,0.3184952735932071
1684002530380743900,3.324144287109375,-0.44159066685555187,1.302789688049033,0.2794408799025178
1684002530390786000,3.334186279296875,-0.36295032503150276,0.966979026842225,0.3010823725318436
1684002530400828100,3.344228515625,-0.32089173797062176,0.6386404037426644,0.16930890086476924
1684002530410870200,3.3542705078125,-0.27786695962632146,0.37134456627744195,0.03850722310573375
1684002530420912000,3.3643125,-0.3127827644552025,0.12771224986193808,-0.0709066391118157
1684002530430954200,3.3743544921875,-0.5550197363160758,0.022615432723323208,-0.1892786026109272
1684002530440996300,3.384396728515625,-0.9619878531677178,0.16759109496757024,-0.3329889774377474
1684002530451038400,3.394438720703125,-1.314418554279548,0.27708148965536605,-0.4181344508028138
1684002530461080600,3.40448095703125,-1.412544012039283,0.40999317166917676,-0.3827667235853179
1684002530471122600,3.41452294921875,-1.3106125593687283,0.46056556692094547,-0.23542118084535035
1684002530481164500,3.42456494140625,-1.1853996515501597,0.4169235229100401,0.009951829829495964
1684002530491206600,3.43460693359375,-1.0339895485111543,0.44175529488247234,0.26480412474473264
1684002530501248600,3.444649169921875,-0.8814811706008724,0.4897222518276664,0.5784127712488024
1684002530511290800,3.454691162109375,-0.827776074400389,0.43917083740038215,0.7689986228612484
1684002530521332900,3.4647333984375,-0.7347075939697096,0.30689334866370954,0.9599061011316826
1684002530531374800,3.474775146484375,-0.6232721805917665,0.3246183395393242,1.0224595069814255
1684002530541416900,3.4848173828125,-0.5277189015740172,0.44983673086210957,1.0050151347773781
1684002530551459000,3.494859375,-0.5211930273664872,0.501859664950945,1.0515382289823472
1684002530561501100,3.504901611328125,-0.4768499136125231,0.19275093079242986,1.1850030420706117
1684002530571543200,3.514943603515625,-0.4381524324651628,-0.1499471664141409,1.493948221147926
1684002530581585300,3.52498583984375,-0.49280583859900384,-0.44666767125041673,1.9464673995872572
1684002530591627200,3.535027587890625,-0.6671814919782241,-0.6078786849271228,2.375371217660432
1684002530601669300,3.545069580078125,-0.8751701116321005,-0.5985145567816634,2.7910184860036686
1684002530611711400,3.55511181640625,-1.0715851785133084,-0.3709669113464666,3.106595039482999
1684002530621753600,3.56515380859375,-1.4689496755517373,-0.004055023150140198,3.4095394610564083
1684002530631795600,3.575196044921875,-2.008977651607054,0.10739517218957469,3.6055758000141296
1684002530641837600,3.58523779296875,-2.4277915954444023,-0.008448600733226529,3.622482299710968
1684002530651879600,3.595280029296875,-2.1570022106367417,0.22445106509834126,3.5972476006058947
1684002530661921600,3.605322021484375,-1.5691105126889702,0.09995365142625183,3.383448123907733
1684002530671963800,3.6153642578125,-0.5725975035986911,0.10865688304975109,2.831491947169349
1684002530682005900,3.62540625,0.3940024374899869,0.05237865442445624,2.1748723984399034
1684002530692047800,3.6354482421875,1.0680464505283467,-0.1952228546101555,1.55727696420605
1684002530702089900,3.645490234375,1.4197661877378462,-0.35646152500340417,0.9381818771916148
1684002530712132000,3.655532470703125,1.6701645849859368,-0.5472631455890448,0.4110035896012583
1684002530722174100,3.665574462890625,1.7987303733880877,-0.6770496367537323,-0.22550821307647007
1684002530732216200,3.67561669921875,1.8251173497310318,-0.5980434416702975,-1.0073258876656546
1684002530742258100,3.685658447265625,1.6733334065070453,-0.3046655655749468,-1.922209143607987
1684002530752300200,3.69570068359375,1.3515224458044182,-0.021913528379065513,-2.5015287399679127
1684002530762342300,3.70574267578125,1.0766117571554432,0.23120403277319174,-2.9512238500976427
1684002530772384400,3.715784912109375,0.8167797326976093,0.4547863006654995,-3.3386082648539883
1684002530782426600,3.725826904296875,0.47642698874245604,0.5621271133726577,-3.6435780525965953
1684002530792468600,3.735869140625,0.2859418987165084,0.537989616511039,-3.74815702431849
1684002530802510600,3.745910888671875,0.1358330250524501,0.36570072174682255,-3.982811450954121
1684002530812552600,3.755953125,0.08977839355671112,0.12983512870943165,-4.165915012269339
1684002530822594700,3.7659951171875,0.1817293613239374,-0.037538528494940444,-4.3319463728582255
1684002530832636800,3.776037353515625,0.2284151613570184,-0.24481964113340424,-4.068719863890238
1684002530842679000,3.786079345703125,0.12757749867475543,-0.5375757218590226,-3.299797058081768
1684002530852720800,3.796121337890625,0.10674667364357732,-0.9449796675889169,-2.3011639120032457
1684002530862762900,3.806163330078125,-0.09032405163646437,-1.1559600828824155,-1.4840196372473433
1684002530872805000,3.816205322265625,-0.3097157179717692,-1.059543609662848,-0.6928589343470869
1684002530882847200,3.82624755859375,-0.428189843903829,-0.5786800384965606,-0.391640186447334
1684002530892889300,3.83628955078125,-0.356114149230985,-0.20624828340039036,-0.2842736242855225
1684002530902931400,3.846331787109375,-0.1204976440679318,-0.15793514266736283,-0.24185156828701046
1684002530912973200,3.85637353515625,0.19835288827017963,-0.13884830476589963,-0.26355457295452417
1684002530923015300,3.866415771484375,0.5310302972213168,-0.077325820750853,-0.3043217660224343
1684002530933057500,3.876457763671875,0.8040710687877022,0.13656616212749267,-0.42532265184695356
1684002530943099600,3.8865,0.9949322344376739,0.25910663598576483,-0.39836728586343084
1684002530953141600,3.8965419921875,1.069797277516764,0.3287868500268036,-0.3189928531841369
1684002530963183800,3.906584228515625,1.109817504867962,0.39592742909343803,-0.2514834403746602
1684002530973225600,3.9166259765625,1.1315631867474845,0.32914066311770146,-0.08844232571806653
1684002530983267800,3.926668212890625,1.1792005299552808,0.1571483612567737,0.13298988353164418
1684002530993309900,3.936710205078125,1.2119174003393012,0.035274505509906795,0.31890821450036055
1684002531003352000,3.94675244140625,1.1962736845824837,-0.0007772446056064413,0.371611595044398
1684002531013394100,3.95679443359375,1.1443618535271447,0.0012664794738848411,0.3928954600163445
1684002531023436200,3.966836669921875,1.0713211299594618,-0.04702377333962036,0.33286738397045756
1684002531033478100,3.97687841796875,0.9792313577276284,-0.1598653792360481,0.22264194487477118
1684002531043520200,3.986920654296875,0.8776577710082405,-0.1961536406206234,0.12203979490177072
1684002531053562300,3.996962646484375,0.7998749018433743,-0.1892700195316584,0.046108245749529375
1684002531063604400,4.0070048828125,0.7348316313343678,-0.11059093467962762,-0.01704096811441623
1684002531073646600,4.017046875,0.6972747445891031,-0.12505245204169566,0.08770871156364583
1684002531083688400,4.0270888671875,0.6606245041222825,-0.11305618282130944,0.2164323329207969
1684002531093730600,4.037130859375,0.7040628195247284,-0.012424469029491793,0.25302362433104464
1684002531103772600,4.047173095703125,0.732190012965959,-0.04524898541369345,0.38775205606745644
1684002531113814600,4.057215087890625,0.7888560296179457,0.05861759188399634,0.49399042134090226
1684002531123856800,4.06725732421875,0.8723125458081117,-0.04729366316314175,0.6661264897800044
1684002531133898900,4.07729931640625,0.8660201430864098,0.04860401141500348,0.7174160479083488
1684002531143940800,4.087341064453125,0.7155275939213555,0.3671083450457515,0.7390685081747135
1684002531153982900,4.09738330078125,0.4640496372320846,0.36003303517574053,0.8048183918092318
1684002531164025000,4.10742529296875,0.17335850004618525,0.467139244226096,0.8169391155241352
1684002531174067100,4.117467529296875,-0.11221021416288916,0.6046514510789786,0.7084717750385858
1684002531184109200,4.127509521484375,-0.351120829654062,0.6364603042974832,0.6392108203080581
1684002531194151300,4.1375517578125,-0.5264758468046717,0.6751728057296609,0.5773881673678224
1684002531204193200,4.147593505859375,-0.6251547335783469,0.7615032195119597,0.534780979109466
1684002531214235300,4.1576357421875,-0.6770431995083015,0.7330026626812072,0.5703806876499953
1684002531224277400,4.167677734375,-0.642955839652304,0.5973548890299649,0.7201074360994258
1684002531234319600,4.177719970703125,-0.515358269319081,0.24733638751331016,1.023403406066364
1684002531244361600,4.187761962890625,-0.406477391818658,-0.0184907912898886,1.3547151088849136
1684002531254403800,4.19780419921875,-0.3496587277188204,-0.10733795184013513,1.4547326564570817
1684002531264445600,4.207845947265625,-0.25296896697077753,-0.0722436904833491,1.4434129001090765
1684002531274487600,4.21788818359375,-0.1140054464222689,0.17956161491298855,1.3480305672455664
1684002531284529800,4.22793017578125,0.007623493668450978,0.47322559339618936,1.215417623501017
1684002531294572000,4.237972412109375,0.13709127918499003,0.5914325714281484,1.0898633003006708
1684002531304614100,4.248014404296875,0.22447651624353357,0.7618293762333262,1.0186141729593061
1684002531314655900,4.258056396484375,0.3392147421800681,0.9054269792162172,1.089523553835468
1684002531324698000,4.268098388671875,0.3795671462065621,0.8211898804501514,1.1351780890327479
1684002531334740100,4.278140625,0.33925908812994904,0.8152198790619817,0.9288020133712939
1684002531344782300,4.2881826171875,0.2651798129993558,0.7203693389686574,0.7260496616213286
1684002531354824400,4.298224853515625,0.14767861368954616,0.5011615753014974,0.5731506346363245
1684002531364866600,4.308266845703125,-0.002147376524553449,0.3155527113914154,0.4168047905889758
1684002531374908600,4.31830908203125,-0.13211101305314818,0.09093189246857389,0.20513427251445626
1684002531384950400,4.328350830078125,-0.20465588558227532,-0.37156105039514487,-0.020880341660250015
1684002531394992600,4.33839306640625,-0.17937093985980201,-0.6810073853293018,-0.22114336490329772
1684002531405034600,4.34843505859375,-0.08463186038795442,-0.6394977571453813,-0.3272018432591011
1684002531415076800,4.358477294921875,0.08937150226825327,-0.35951328268196586,-0.16606295120199754
1684002531425118900,4.368519287109375,0.25000518564661167,-0.013460159294168158,0.02253973484056517
1684002531435161000,4.3785615234375,0.31303012371030875,0.19524669642256395,0.115913033483941
1684002531445202900,4.388603271484375,0.2906333803459489,0.3551435471509949,0.19194340702558965
1684002531455245000,4.398645263671875,0.23238343006621304,0.33049201975625314,0.2156891822922048
1684002531465287100,4.4086875,0.14802783710682013,0.31564617145977897,0.2582888602834555
1684002531475329200,4.4187294921875,0.10587185623880953,0.4014101029074521,0.4318337440613657
1684002531485371300,4.428771728515625,0.12711632246254698,0.5299253463780352,0.6218382118764059
1684002531495413400,4.438813720703125,0.12237244858706395,0.6196622848358815,0.7983983755357407
1684002531505455600,4.44885595703125,0.1504390834590814,0.7112426756615561,0.9376622438379744
1684002531515497400,4.458897705078125,0.12470751998548095,0.7521219254523798,1.0495498180923666
1684002531525539600,4.46893994140625,0.06911516179397369,0.5848312378044557,1.1987252235445733
1684002531535581600,4.47898193359375,0.02493321908288012,0.3938541413248083,1.330360770288184
1684002531545623700,4.489024169921875,-0.040847241928173954,0.14107704165958562,1.4444187878815593
1684002531555665800,4.499066162109375,-0.049060046571027804,0.029669761813716396,1.495530843728413
1684002531565707600,4.509108154296875,-0.037929534837660976,-0.0911178587997912,1.53913104533937
1684002531575749800,4.519150146484375,-0.018816471186033173,-0.19251728059733828,1.55882084363434
1684002531585791900,4.5291923828125,-0.0028520823925743555,-0.31030082692151534,1.62420511244994
1684002531595834000,4.539234375,0.05368876463768871,-0.4109344483808286,1.6874120235553183
1684002531605876100,4.549276611328125,0.13160073750939796,-0.5040836335365775,1.7955298423752297
1684002531615918300,4.559318603515625,0.18024480342067897,-0.5970573423597281,1.9068692924189197
1684002531625960400,4.56936083984375,0.22299611577490658,-0.7592630385659954,2.0249378681294683
1684002531636002200,4.579402587890625,0.22102224814299898,-0.7375040054093234,2.0914416312072825
1684002531646044300,4.58944482421875,0.20688486105055087,-0.6182775498749625,2.094442844393128
1684002531656086400,4.59948681640625,0.170348286512641,-0.4949598312518499,2.067988634121705
1684002531666128600,4.609529052734375,0.15465766191900507,-0.45584964760936725,2.0460433960604183
1684002531676170600,4.619571044921875,0.1393060087633826,-0.4003801345434923,2.0759353638202525
1684002531686212800,4.62961328125,0.14986926313340077,-0.36918830871821595,2.0125191210982125
1684002531696254600,4.639655029296875,0.14014941442339302,-0.2666969298570027,1.9666342734022575
1684002531706296800,4.649697265625,0.1378749012941158,-0.19342327120987804,1.9462841748094561
1684002531716338900,4.6597392578125,0.10535103077916723,-0.21382904036747238,1.8697218895182801
1684002531726381000,4.669781494140625,0.13957548159347327,-0.22029018394548547,1.728416085124753
1684002531736423100,4.679823486328125,0.0934887528652756,-0.22969532006371754,1.5898334980749507
1684002531746465200,4.689865478515625,-0.042656898548433166,-0.28514385208705945,1.4110848903608069
1684002531756507100,4.699907470703125,-0.23243644836541186,-0.26942920676014287,1.2035059930332372
1684002531766549200,4.709949462890625,-0.40766093145878785,-0.2781639099264234,0.9804553985857971
1684002531776591300,4.71999169921875,-0.5454040765624659,-0.16316890718125082,0.7859570979533251
1684002531786633400,4.73003369140625,-0.6545849441507919,0.06331825263337396,0.5374186038968489
1684002531796675600,4.740075927734375,-0.675537705496077,0.35558223732211236,0.31208968151065414
1684002531806717600,4.750117919921875,-0.6692318319688675,0.6249055861761377,0.11937165258977547
1684002531816759600,4.76016015625,-0.615357458654607,0.7946538925512553,-0.015353441287992478
1684002531826801800,4.7702021484375,-0.5772985221027593,0.9053554536254653,-0.10300052177259628
1684002531836843600,4.780244140625,-0.4728232027018905,0.9616785048734503,-0.1898008585172093
1684002531846885800,4.7902861328125,-0.3558537958623753,0.9491281508787329,-0.21245384201912026
1684002531856927900,4.800328369140625,-0.24688404794950822,0.8652048112284118,-0.22709369661449977
1684002531866970000,4.810370361328125,-0.18576653299305096,0.7362670900038727,-0.3435105085726902
1684002531877012100,4.82041259765625,-0.08916148552839574,0.6246433257619314,-0.5032559633248269
1684002531887054000,4.830454345703125,0.00499531630095258,0.4778089521973513,-0.6110312938586326
1684002531897096100,4.84049658203125,0.10450899611166573,0.2912359237125643,-0.7607109546101296
1684002531907138200,4.85053857421875,0.18012648837588405,0.019949912868425432,-0.9137947560300616
1684002531917180300,4.860580810546875,0.10986247656866613,-0.3594322204650963,-1.1471865176793807
1684002531927222400,4.870622802734375,-0.24820116165980385,-0.8275527954318708,-1.3241510391157256
1684002531937264600,4.8806650390625,-0.7561320065857117,-1.2551851271940428,-1.431612849192698
1684002531947306600,4.89070703125,-1.058131098803679,-1.6426630020714383,-1.2793965339708633
1684002531957348600,4.9007490234375,-0.953254282608558,-1.7129344939697038,-1.1914862394911325
1684002531967390600,4.910791015625,-0.5943655968463543,-1.499164581272206,-1.3220676185125324
1684002531977432800,4.920833251953125,-0.1409083008859279,-1.3087720870332276,-1.4625169037611772
1684002531987474900,4.930875244140625,0.27460718163604386,-1.1022834778389032,-1.4592174290751847
1684002531997517000,4.94091748046875,0.6916792988913347,-1.00298786160802,-1.3968020679001676
1684002532007559100,4.95095947265625,1.013931512728341,-0.9596099852724668,-1.2832136154525065
1684002532017601200,4.961001708984375,1.2797286511606245,-0.9122905730730279,-1.0397319794235989
1684002532027643100,4.97104345703125,1.4355847836771929,-0.7952680588133145,-0.6613016129143272
1684002532037685200,4.98108544921875,1.517214894287779,-0.5985927581228438,-0.2605624198270644
1684002532047727300,4.991127685546875,1.4826477764956225,-0.2422513961841288,-0.09438586236210751
1684002532057769400,5.001169677734375,1.3176923990061893,0.15142345440496036,0.04912972467036339
1684002532067811600,5.0112119140625,1.01775050163002,0.5273685455929962,0.28531169886196056
1684002532077853600,5.02125390625,0.5969891548283954,0.8542909621617522,0.581873655240577
1684002532087895700,5.031296142578125,0.20058679573663998,1.1173877716164236,0.8579108715970516
1684002532097937600,5.041337890625,-0.00489294528421792,1.2085208894201769,0.7988796234130541
1684002532107979600,5.051380126953125,0.17959755659135812,1.1203908920069323,0.5700204372024732
1684002532118021800,5.061422119140625,0.42616203425714694,0.9995803832852446,0.05459952362769378
1684002532128063900,5.07146435546875,0.5781946182784335,0.9212512971088039,-0.3946626185553516
1684002532138106000,5.08150634765625,0.5903415679818702,0.8073911668127509,-0.7731592656199886
1684002532148148100,5.091548583984375,0.4673528373041194,0.6538095473282363,-1.0703926086616686
1684002532158190300,5.101590576171875,0.28031814096320273,0.5036048889889801,-1.2892773151747463
1684002532168232100,5.111632568359375,0.1425645947096037,0.3085947038421347,-1.4745359420269921
1684002532178274200,5.121674560546875,0.06440317633741299,0.09725761417350529,-1.6083321571081022
1684002532188316300,5.131716796875,0.08201569334605797,-0.11172008515793633,-1.7211326359741441
1684002532198358400,5.1417587890625,0.04487657554409856,-0.2587127685563367,-1.8567180633083888
1684002532208400600,5.151801025390625,0.03435611717932453,-0.324317932188735,-1.9452577829123094
1684002532218442600,5.161843017578125,-0.02312630422791162,-0.4059047698872021,-2.0643525124040694
1684002532228484600,5.171885009765625,-0.11340171098167497,-0.5049524306741736,-2.1092329024198615
1684002532238526600,5.181927001953125,-0.30693507191601566,-0.5350704192915131,-2.0025644301509553
1684002532248568800,5.19196923828125,-0.4958691001368232,-0.3053464890818675,-1.8563164472617433
1684002532258610900,5.20201123046875,-0.6776174904197528,-0.05583572402982268,-1.6212825774966466
1684002532268653000,5.212053466796875,-0.8119627834000002,0.1339254379193777,-1.3800420760118222
1684002532278695100,5.222095458984375,-0.8909628987087753,0.1944732665846172,-1.1595525739925325
1684002532288737200,5.2321376953125,-0.9434728622230535,0.17163467394613763,-1.0932335853761046
1684002532298779100,5.242179443359375,-1.0574581624491841,0.17591476447932958,-1.1604812145588719
1684002532308821200,5.2522216796875,-1.1625587940336644,0.16921234137906316,-1.229016304057899
1684002532318863300,5.262263671875,-1.0370697975390435,0.1969346999282526,-1.339543581027075
1684002532328905400,5.272305908203125,-0.7323348523172538,0.3118047714802326,-1.4180870056696477
1684002532338947600,5.282347900390625,-0.4362367392633602,0.5523042679995974,-1.457379817840409
1684002532348989600,5.29239013671875,-0.19831347458855375,0.7681493759088148,-1.4163148403167465
1684002532359031600,5.30243212890625,-0.09819054605293924,0.7760515212103412,-1.3006982803929101
1684002532369073600,5.312473876953125,0.0340948105294984,0.7222328186155766,-1.0073230267744417
1684002532379115600,5.32251611328125,0.2708806991156798,0.634774208050482,-0.5547966956271257
1684002532389157800,5.33255810546875,0.5873118638492001,0.5458688736348007,0.06523489957122494
1684002532399199900,5.342600341796875,0.8557700515856032,0.48056697845773483,0.6630547047761569
1684002532409242000,5.352642333984375,1.0137721300793285,0.5076112747465138,1.201704502141347
1684002532419284100,5.3626845703125,1.1499694586316604,0.5288629532269253,1.5953807830879285
1684002532429326300,5.3727265625,1.1837383508115733,0.5085010527617322,1.9353015422553697
1684002532439368100,5.3827685546875,1.006303191133276,0.3921031952067851,2.079460144088258
1684002532449410200,5.392810546875,0.6665261388661895,0.3096561431307271,2.190318345953336
1684002532459452300,5.402852783203125,0.12663728000960026,0.24188709254871427,2.4445033074461056
1684002532469494400,5.412894775390625,-0.5315600038821933,0.25231933594896483,2.6962594986014015
1684002532479536600,5.42293701171875,-1.0679476261861083,0.30639266970538687,2.709636688157288
1684002532489578600,5.43297900390625,-1.3283946513317868,0.24562454225333855,2.5793683529200515
1684002532499620800,5.443021240234375,-1.254185438010415,0.08026218415974505,2.082747459415657
1684002532509662900,5.453063232421875,-1.0858232975359225,0.05140590658142316,1.2495248316746352
1684002532519704800,5.463105224609375,-0.8974852562285569,0.17776012409451575,0.32940816877845236
1684002532529746900,5.473147216796875,-0.7679107189036509,0.3101186751410628,-0.5786640644124195
1684002532539789000,5.483189453125,-0.6399074197151635,0.351383209144222,-1.3849825859965295
1684002532549831100,5.4932314453125,-0.5113945006949127,0.1657848357410325,-1.9800759553470595
1684002532559873200,5.503273681640625,-0.4237430691669896,-0.2294034958890536,-2.3100018501447415
1684002532569915300,5.513315673828125,-0.33851760642803186,-0.5682125090491744,-2.510800838536857
1684002532579957400,5.52335791015625,-0.35433429482717266,-0.7101659775299152,-2.6236391067129285
1684002532589999300,5.533399658203125,-0.5663306117179175,-0.694863319365697,-2.7361366749672342
1684002532600041400,5.54344189453125,-1.0631785390839563,-0.7365131378140627,-2.7834892274413807
1684002532610083600,5.55348388671875,-1.8422021866483926,-1.1187877654283098,-2.556876182581236
1684002532620125600,5.563526123046875,-2.71750378605449,-1.7406396866041094,-1.9258532523020921
1684002532630167700,5.573568115234375,-2.9879722594193323,-2.3483705519072076,-0.6731014251330932
1684002532640209800,5.5836103515625,-2.0561237335413747,-2.726124763500046,0.8719789981401841
1684002532650252000,5.59365234375,-0.5026334523562404,-2.697484970213637,2.062643289521932
1684002532660294100,5.603694580078125,0.9100863935255081,-2.3028802871103435,2.787532091166373
1684002532670335900,5.613736328125,1.5233800411622764,-1.4315147399456385,2.8194072246283364
1684002532680378000,5.6237783203125,1.347772836642183,-0.8032636641709557,2.4069795607866027
1684002532690420100,5.633820556640625,1.109529614473998,-0.5787076949557998,2.016081810030323
1684002532700462300,5.643862548828125,0.9361617565245559,-0.368675232072026,1.6043808459392366
1684002532710504400,5.65390478515625,0.8086503147202349,0.0413131713994088,0.6631314755606988
1684002532720546600,5.66394677734375,0.6460098623476468,0.4655179978019476,-0.5194461346003751
1684002532730588600,5.673989013671875,0.5977983474616102,0.8066205978037101,-1.238729953785631
1684002532740630400,5.68403076171875,0.6099357009291748,0.9499254224992725,-1.5971020458987892
1684002532750672600,5.694072998046875,0.6041576862540167,0.9858369827949368,-1.607882380567202
1684002532760714600,5.704114990234375,0.5494998692176933,0.9587917329464322,-1.4363554715206521
1684002532770756800,5.7141572265625,0.4547612369553868,0.9203691483232739,-1.1494723559129454
1684002532780798900,5.72419921875,0.3611322939307091,0.8802080153565204,-1.0124909878046713
1684002532790841000,5.734241455078125,0.26625487214298144,0.8207263946044752,-0.9086525440656917
1684002532800883100,5.744283447265625,0.21301536253937547,0.6786298750904527,-0.7194930315431382
1684002532810925000,5.754325439453125,0.09220936912891592,0.4849433900130662,-0.4896838665328288
1684002532820967100,5.764367431640625,-0.023049563174385498,0.3533029555901853,-0.2753219604119541
1684002532831009200,5.77440966796875,-0.07454170300514505,0.40898132316650054,-0.25290393810688055
1684002532841051300,5.78445166015625,-0.057922869965891036,0.43412494673811625,-0.4183745383591687
1684002532851093400,5.794493896484375,0.06956131018617646,0.38165569303734614,-0.5931314230301528
1684002532861135600,5.804535888671875,0.24001295873121173,0.31460285191595566,-0.7127740383608862
1684002532871177600,5.814578125,0.3626714645133709,0.259644508262249,-0.7786353825518839
1684002532881219600,5.824619873046875,0.44753623004587056,0.13296413406124358,-0.758287787539464
1684002532891261600,5.834662109375,0.4908111095680423,0.00614833824923227,-0.7794749735939652
1684002532901303600,5.8447041015625,0.4515237808222101,-0.03261661512211404,-0.8403996228176106
1684002532911345800,5.854746337890625,0.3811641632539495,-0.12215137484602215,-0.9031909705357072
1684002532921388000,5.864788330078125,0.30306088919534896,-0.19298934945435625,-0.9915610551866334
1684002532931430100,5.87483056640625,0.2830231487608638,-0.1995115279885678,-1.1140040160645657
1684002532941472200,5.88487255859375,0.3077217935907364,-0.1535930632819879,-1.250629901800818
1684002532951514300,5.894914794921875,0.3603047132281808,-0.07187461862160521,-1.3767676352612024
1684002532961556400,5.904956787109375,0.4787276983098754,-0.014059066877804371,-1.4324214458699
1684002532971598300,5.91499853515625,0.6030102969304244,-0.059068679873851254,-1.4114484785522816
1684002532981640400,5.925040771484375,0.7036584615491485,-0.15199184422418144,-1.358226895246005
1684002532991682600,5.935082763671875,0.8031730652439216,-0.23109149929295805,-1.253402709920256
1684002533001724600,5.945125,0.8497769235434194,-0.26574707024402877,-1.182411432331087
1684002533011766600,5.9551669921875,0.8060767649562334,-0.2108964919316942,-1.1913070677995357
1684002533021808800,5.965209228515625,0.7950898409389313,-0.06408405294283102,-1.2282330990796577
1684002533031850900,5.975251220703125,0.7492592931911096,0.03220176707279003,-1.2905393839252883
1684002533041892800,5.985293212890625,0.7264422179690049,0.0833225250945914,-1.2302780151421528
1684002533051934900,5.995335205078125,0.7032725811372049,0.0628843306823238,-1.0870456695785127
1684002533061977000,6.00537744140625,0.7164167165867874,0.11902141562319435,-1.000105977045287
1684002533072019100,6.01541943359375,0.7069147825081527,0.2182712555283684,-0.9280202387542338
1684002533082061200,6.025461669921875,0.6829429864481888,0.16947746280800108,-0.8064204454429564
1684002533092103300,6.035503662109375,0.5953698754405641,0.154454231302327,-0.6406910418606867
1684002533102145500,6.0455458984375,0.4999168513363069,0.13246059424118511,-0.49111032469640065
1684002533112187600,6.055587890625,0.4707298279074466,0.17993545531008473,-0.33859717835234215
1684002533122229600,6.065630126953125,0.4455173610783543,0.1915922164603504,-0.1785886289321972
1684002533132271600,6.075671875,0.4456448554137777,0.1912879942651109,0.00023961066883123493
1684002533142313600,6.085714111328125,0.4565533400494995,0.2888422011385138,0.16409337521662204
1684002533152355800,6.095756103515625,0.4899939894400739,0.35499191279882153,0.2911951540625727
1684002533162397900,6.10579833984375,0.4644994734359683,0.35624980917842264,0.41678690915721817
1684002533172440000,6.11584033203125,0.41374695308604637,0.30932617190534056,0.5111923217518581
1684002533182482100,6.125882568359375,0.33791971211411537,0.2285337449824966,0.6142164468895421
1684002533192524200,6.135924560546875,0.25134569416766317,0.12346935269490597,0.6586606501549124
1684002533202566300,6.145966796875,0.14921283721245224,-0.008138656469719953,0.6401641370552557
1684002533212608200,6.156008544921875,0.08147728434525454,-0.10627174391234659,0.565049767495123
1684002533222650300,6.16605078125,-0.009602367955147345,-0.2234325406989181,0.4819974898248959
1684002533232692400,6.1760927734375,-0.10288208721254846,-0.33091354368265286,0.36974060525610736
1684002533242734600,6.186135009765625,-0.2078962324402491,-0.2519731520415427,0.15216696265616222
1684002533252776600,6.196177001953125,-0.32385790353778676,-0.08723545069416974,-0.1867809296342349
1684002533262818700,6.20621923828125,-0.36800393444445695,-0.03712177283936726,-0.47105216994052984
1684002533272860800,6.21626123046875,-0.3672769665867158,0.02318668352432707,-0.6926585434294902
1684002533282903000,6.226303466796875,-0.3251496553053886,-0.11642646786195139,-0.792430043259437
1684002533292944800,6.23634521484375,-0.219881355685114,-0.16186523434868547,-0.7596782445723792
1684002533302986900,6.24638720703125,0.03758978849874581,-0.04896259304013925,-0.6564282178972081
1684002533313029000,6.256429443359375,0.28410565850084013,0.018652915887973666,-0.4302209615185664
1684002533323071200,6.266471435546875,0.46428340660600503,0.05487251289432184,-0.16426229469454937
1684002533333113300,6.276513671875,0.5668497681934341,0.07134532917552856,0.06610608086197738
1684002533343155400,6.2865556640625,0.5479375718483707,0.10241508484367656,0.16524958615541308
1684002533353197600,6.296597900390625,0.4445096255670413,0.07386016857796389,0.2648761273097682
1684002533363239600,6.306639892578125,0.3603695631320203,0.10694026943383593,0.3443945646670196
1684002533373281500,6.316681884765625,0.2936928867270543,0.17948246009223584,0.3733371497822141
1684002533383323600,6.326723876953125,0.20234644419755626,0.15909957882639536,0.3929193020047883
1684002533393365600,6.33676611328125,0.14149355888106632,0.10387134537901921,0.4667097329556612
1684002533403407800,6.34680810546875,0.1158189772968763,0.08039474491387995,0.4999549388643054
1684002533413449900,6.356850341796875,0.08513629421870879,0.09298896794798668,0.4868791103728909
1684002533423492000,6.366892333984375,0.09898448007376709,0.11295127873656068,0.5232903957580785
1684002533433534100,6.3769345703125,0.09040933836568825,0.1731500625410293,0.5240248442712279
1684002533443576200,6.3869765625,0.1250981094289243,0.20216083521602488,0.5175273418525166
1684002533453618100,6.3970185546875,0.11004120115381928,0.24283885958428852,0.49224555491576416
1684002533463660200,6.407060546875,0.09745866054754215,0.28551101682516367,0.4342511890927254
1684002533473702300,6.417102783203125,0.12495559452713201,0.37944126126182526,0.38335788249016783
1684002533483744400,6.427144775390625,0.17580622425226777,0.3778114318751844,0.36985528471115253
1684002533493786600,6.43718701171875,0.25684154037612245,0.37401771552872654,0.39537537083120594
1684002533503828600,6.44722900390625,0.306222200300061,0.31394004833159256,0.42873966687642784
1684002533513870800,6.457271240234375,0.34288805723495847,0.24318695068013732,0.4626315831804845
1684002533523912900,6.467313232421875,0.38052898647955846,0.1595497131366354,0.49253797546497474
1684002533533955000,6.47735546875,0.3831817508605478,0.08668994909462456,0.5489338635662034
1684002533543996800,6.487397216796875,0.3857200741565153,0.07373523705870881,0.6052281857448415
1684002533554039000,6.497439453125,0.34997522835103995,0.08897781369552032,0.6563210488759476
1684002533564081100,6.5074814453125,0.30954968919364284,0.08724498751340594,0.6696012019086838
1684002533574123200,6.517523681640625,0.2346730827984322,0.09956455225605686,0.7215929032165321
1684002533584165300,6.527565673828125,0.16463971133615948,0.04570293428360719,0.8325625656979325
1684002533594207400,6.53760791015625,0.08883041148015121,-0.04025650033350798,0.9514185191209986
1684002533604249600,6.54764990234375,-0.0011370182718768093,-0.061295509362993716,1.0699783562144056
1684002533614291600,6.557692138671875,-0.07856553806887304,-0.1127033232630691,1.1238588093931718
1684002533624333600,6.56773388671875,-0.12205868949477194,-0.15861129773355445,1.1564573050704983
1684002533634375600,6.57777587890625,-0.21391963964092367,-0.18724441525159113,1.2200959920656271
1684002533644417600,6.587818115234375,-0.25848275410754484,-0.1728973389855706,1.229704737750601
1684002533654459800,6.597860107421875,-0.29394757745724537,-0.17745971687750003,1.2804577351009112
1684002533664501900,6.60790234375,-0.29919290543339433,-0.1557998657711289,1.2781533002920287
1684002533674544000,6.6179443359375,-0.2915015817339618,-0.1224756239702311,1.332364797459841
1684002533684586200,6.627986572265625,-0.26671892397169905,-0.0824232102535335,1.3598489760191177
1684002533694628300,6.638028564453125,-0.21587306253815444,-0.035880088765046635,1.4709067345135152
1684002533704670100,6.648070556640625,-0.1752044558290259,0.00032043462950605696,1.5778203009597636
1684002533714712200,6.658112548828125,-0.1568402648564203,0.014308929465575692,1.714111089671958
1684002533724754400,6.66815478515625,-0.15654289725982248,0.02037429804583573,1.7840086220119888
1684002533734796500,6.67819677734375,-0.1532716750810178,0.05617904657937086,1.844395637494183
1684002533744838600,6.688239013671875,-0.13347405194860326,0.08580017091495099,1.8525938986506494
1684002533754880600,6.698281005859375,-0.09320849167805806,0.09046554572515966,1.8402502536384255
1684002533764922800,6.7083232421875,-0.04199659833558021,-0.011919021629193168,1.8800597191878625
1684002533774964900,6.718365234375,0.020610988185872273,-0.21749401086204956,1.8963617086299107
1684002533785007000,6.728407470703125,0.03891760110240091,-0.44008636477314167,1.7913547754335322
1684002533795048900,6.73844921875,-0.002355158291903157,-0.6278400421139572,1.5123889446447139
1684002533805091000,6.748491455078125,-0.12842106827893293,-0.7295322418870526,1.12728941437328
1684002533815133100,6.758533447265625,-0.2962701915223412,-0.6991920470510491,0.6127367020792913
1684002533825175200,6.76857568359375,-0.43690347673352187,-0.5972585678177498,0.11144602304760383
1684002533835217300,6.77861767578125,-0.5296183824218829,-0.4500684737730032,-0.40083217614053174
1684002533845259400,6.788659912109375,-0.5413386821787781,-0.2615156173172295,-0.8292448521199645
1684002533855301600,6.798701904296875,-0.5195990801826594,-0.03688526157320434,-1.1572209597186267
1684002533865343600,6.808744140625,-0.4899623096708085,0.17841243745585952,-1.4587852954578842
1684002533875385800,6.8187861328125,-0.4598334430722404,0.44419097901637083,-1.7168724535402138
1684002533885427600,6.828828125,-0.3805526793594478,0.6361351012481912,-1.8601032495936327
1684002533895469700,6.8388701171875,-0.3332297802269775,0.8187971116591323,-1.9683601855434518
1684002533905511900,6.848912353515625,-0.3091059029724232,0.8507633209126895,-1.908661961518504
1684002533915554000,6.858954345703125,-0.31331902730806316,0.930062294011439,-1.9352288246096252
1684002533925596100,6.86899658203125,-0.3467592597675755,0.8936223985397936,-1.9482194184562753
1684002533935638200,6.87903857421875,-0.4278674125647628,0.7674150466836847,-1.9770727157835701
1684002533945680300,6.889080810546875,-0.63578867909731,0.568496704093545,-2.167555809036459
1684002533955722400,6.899122802734375,-1.0253539084642052,0.3314533233127519,-2.4307072163063177
1684002533965764600,6.9091650390625,-1.3475948572594352,0.12722778330258294,-2.70924949638162
1684002533975806400,6.919206787109375,-1.447426438346927,-0.03846359253806773,-2.7531752586316878
1684002533985848600,6.929248779296875,-1.2587242127500955,-0.10307502759818904,-2.6204667090901665
1684002533995890600,6.939291015625,-0.9460486769188733,-0.172012329150598,-2.3590512275793847
1684002534005932600,6.9493330078125,-0.6112957001967382,-0.43006038681091274,-2.0091550349061515
1684002534015974800,6.959375244140625,-0.2998032868147696,-0.6819601059846097,-1.641267538101769
1684002534026016900,6.969417236328125,0.003842350138959919,-1.0147304534515986,-1.3578484058569715
1684002534036059100,6.97945947265625,0.26802936195314625,-1.0181970596935124,-1.1296358109082996
1684002534046101200,6.98950146484375,0.4936547875279096,-1.002019882232433,-0.9853100776049216
1684002534056143300,6.999543701171875,0.6489688158521938,-0.7923183441159171,-0.9161125422739823
1684002534066185100,7.00958544921875,0.7420415878912947,-0.41756153113769356,-1.120519638003435
1684002534076227200,7.019627685546875,0.7145838141630434,0.025875091732217956,-1.450925231061627
1684002534086269400,7.029669677734375,0.620696902170063,0.07286548620042611,-1.5143132210249681
1684002534096311500,7.0397119140625,0.4900903703421312,0.01072692873381234,-1.4028168917264328
1684002534106353600,7.04975390625,0.3363362252287224,-0.014880180305006386,-1.3064485789156366
1684002534116395600,7.059796142578125,0.1628210843599527,0.06505489352187914,-1.168165922022172
1684002534126437800,7.069838134765625,-0.01933184271491668,0.14517211904050908,-0.9877200126090634
1684002534136479900,7.07988037109375,-0.23647069915349123,0.1418275834712191,-0.7770171164360958
1684002534146522000,7.08992236328125,-0.5066373347628707,0.14094924924440594,-0.5393486024062084
1684002534156564100,7.099964599609375,-0.9041917919625742,0.1087293624796161,-0.2262644767308218
1684002534166606300,7.110006591796875,-1.5160223245789115,0.14031600952083825,0.02834773070284842
1684002534176648100,7.120048583984375,-2.2755603790672803,0.22560977942878666,0.2771651744184699
1684002534186690200,7.130090576171875,-2.574284553473273,0.3785915375182444,0.28009104728985557
1684002534196732300,7.1401328125,-2.033007860045806,0.46801662450149817,-0.05604124079339664
1684002534206774400,7.1501748046875,-1.2600634098284231,0.39650726332847286,-0.4317961930219665
1684002534216816600,7.160217041015625,-0.6841567158048424,0.2887258530380714,-0.738895535518037
1684002534226858600,7.170259033203125,-0.27399691951345057,0.18543815614649936,-0.989179253688948
1684002534236900800,7.18030126953125,-0.009892076307181532,0.09407997115253353,-1.177079439238824
1684002534246942900,7.19034326171875,0.15789686144134257,-0.004101753113523197,-1.2847467660534662
1684002534256985000,7.200385498046875,0.26059636483555176,-0.03945636748698296,-1.3636523485323482
1684002534267026900,7.21042724609375,0.3099760711064487,-0.04527378083418968,-1.3771095275489342
1684002534277069000,7.220469482421875,0.29078251114807346,-0.016720771876529466,-1.2845004796289479
1684002534287111100,7.230511474609375,0.24035887418726828,-0.06390380847170907,-1.0631443261707125
1684002534297153200,7.2405537109375,0.09645482911937725,-0.10095882423839489,-0.8053989411005115
1684002534307195300,7.250595703125,-0.09475915119321025,-0.1331529618448741,-0.477293253034359
1684002534317237400,7.260637939453125,-0.3716747760268807,-0.09883975980993301,-0.10189986231251462
1684002534327279600,7.270679931640625,-0.6450543999596557,-0.0702505111149318,0.21196889872807098
1684002534337321600,7.28072216796875,-0.7799385786608366,-0.030887603805863906,0.3517508506676441
1684002534347363800,7.29076416015625,-0.811640024119801,-0.04313850402248253,0.4676649571533623
1684002534357405600,7.300805908203125,-0.7533397077015077,0.03151988989211587,0.41869497286583046
1684002534367447700,7.31084814453125,-0.7291088701768028,0.061610221977552795,0.2033815383078697
1684002534377489800,7.32089013671875,-0.6264556646285094,0.04033565533778297,0.02628993981549134
1684002534387532000,7.330932373046875,-0.5301928521415853,-0.003269195704656636,-0.11881494520777258
1684002534397574100,7.340974365234375,-0.45665553204102816,-0.06901454918304975,-0.2506487368898117
1684002534407616200,7.3510166015625,-0.41781207915194457,-0.05385971053714637,-0.40176558489940295
1684002534417658300,7.36105859375,-0.39640560750655607,-0.05308151244942388,-0.6042129994690846
1684002534427700400,7.371100830078125,-0.3524954916063202,-0.04028892527212796,-0.6786112785182136
1684002534437742600,7.381142822265625,-0.2843036949333461,-0.017865180900463327,-0.7280051706832062
1684002534447784600,7.39118505859375,-0.24019658570289001,0.0380411148551817,-0.8075375557095024
1684002534457826700,7.40122705078125,-0.19153228408499182,0.03897094720127509,-0.838472127933947
1684002534467868600,7.41126904296875,-0.15736511359319316,0.04238986966465188,-0.8376560212269842
1684002534477910600,7.42131103515625,-0.11828231812974582,0.09378242488171562,-0.8263225555020111
1684002534487952800,7.431353271484375,-0.0671864747972865,0.10713768007493642,-0.8377521037760504
1684002534497994900,7.441395263671875,-0.08963200461899001,0.15170574175024543,-0.7647306917839648
1684002534508037000,7.4514375,-0.1967691181737773,0.20802593235745062,-0.6774814128543558
1684002534518079200,7.4614794921875,-0.3115262388942702,0.2709035872792925,-0.5269761085677928
1684002534528121300,7.471521728515625,-0.45477715144391273,0.35948753355981494,-0.5662057400027293
1684002534538163400,7.481563720703125,-0.5461477041093371,0.38310337060840943,-0.6006481645906465
1684002534548205200,7.491605712890625,-0.6058384179959508,0.3970403670667563,-0.6128315926971722
1684002534558247300,7.501647705078125,-0.5380080341783383,0.3372182846641584,-0.6470911503175996
1684002534568289500,7.51168994140625,-0.4342252910358417,0.3021411894956163,-0.6665358542387546
1684002534578331600,7.52173193359375,-0.24321275947852533,0.2442989349605082,-0.7135663032768179
1684002534588373600,7.531774169921875,-0.08604961628361806,0.1566448213046701,-0.6592833996271943
1684002534598415800,7.541816162109375,0.0719869435153998,0.1416559218056517,-0.5861661434033109
1684002534608457900,7.5518583984375,0.08190444123233115,0.1317005157811031,-0.4601857661738819
1684002534618500000,7.561900390625,0.0027151107615423146,0.17393684389264802,-0.3668119907081333
1684002534628542100,7.571942626953125,-0.03677797320764066,0.327732086183648,-0.38057994854822147
1684002534638584200,7.581984619140625,-0.07214212421487504,0.5216999054433071,-0.5666198730358798
1684002534648626400,7.59202685546875,-0.14037889252868377,0.6585884095829653,-0.8125169276103064
1684002534658668200,7.602068603515625,-0.1405697463498749,0.7704305649799532,-0.9750380514472937
1684002534668710300,7.61211083984375,-0.10395532844344213,0.7479677199864634,-1.0483498573920007
1684002534678752400,7.62215283203125,-0.10400170097342526,0.624939918551558,-0.992125034323789
1684002534688794600,7.63219482421875,-0.0538225175072071,0.5064992904557968,-0.8787004946291765
1684002534698836600,7.642237060546875,-0.05531764024896927,0.3327093124275999,-0.6752271653667621
1684002534708878800,7.652279052734375,-0.0388982891760551,0.32806777964433853,-0.4634020328580061
1684002534718920900,7.6623212890625,-0.057537973083079196,0.3316707610671126,-0.1800251008286982
1684002534728963000,7.67236328125,-0.0357456207889912,0.42168521868537273,0.05837440487490491
1684002534739005100,7.682405517578125,0.03168416025990597,0.5593185426224464,0.26981401446371467
1684002534749047200,7.692447509765625,0.09530234349873526,0.5751399993922793,0.3520481586552178
1684002534759089300,7.70248974609375,0.07819256184937369,0.5513181687463333,0.321382522570959
1684002534769131200,7.712531494140625,0.0003108382443251937,0.5531044006230537,0.25160336503394465
1684002534779173300,7.72257373046875,-0.084052622502803,0.5163850784027534,0.07496213915377582
1684002534789215400,7.73261572265625,-0.11108139151474675,0.4841499328725885,0.07124853128829181
1684002534799257600,7.742657958984375,-0.1397860944377971,0.494171142555734,0.14858031272486866
1684002534809299600,7.752699951171875,-0.18078371874244048,0.4863739011944006,0.21639037126379768
1684002534819341700,7.7627421875,-0.26693430525363604,0.47027206410671957,0.3120238780202535
1684002534829383900,7.7727841796875,-0.37673619401388275,0.41755294804477244,0.4274196625198934
1684002534839426000,7.782826416015625,-0.5079442859040435,0.37630271914073177,0.531469345049469
1684002534849468100,7.792868408203125,-0.6818146704670792,0.28766727453109237,0.5744287967987096
1684002534859510200,7.80291064453125,-0.8219515086180873,0.2113056182574895,0.5416905880573364
1684002534869552300,7.81295263671875,-0.9355229140491252,0.05641555785124706,0.469251394280713
1684002534879594200,7.82299462890625,-0.8480074405560851,-0.24111747738070738,0.48910355557868496
1684002534889636300,7.83303662109375,-0.6845325232281755,-0.5636510848573184,0.472837209796492
1684002534899678400,7.843078857421875,-0.5419160127835683,-0.7940511702055573,0.5663471222344196
1684002534909720600,7.853120849609375,-0.5001098514854989,-0.9590358732962425,0.6779260635010012
1684002534919762600,7.8631630859375,-0.5001766682004908,-1.1188964845239533,0.7250273227964006
1684002534929804600,7.873205078125,-0.45908820632815256,-1.26452732094824,0.7470545768065834
1684002534939846800,7.883247314453125,-0.43732917321030007,-1.3127088546856753,0.7740468978538072
1684002534949888900,7.893289306640625,-0.5346970558073586,-1.462136268634405,0.7503578663452618
1684002534959931100,7.90333154296875,-0.987689733545044,-1.7082443235907154,0.7559895514821569
1684002534969973200,7.91337353515625,-1.8220533133751287,-2.039842605602145,0.9812638760924806
1684002534980015000,7.92341552734375,-2.550400972411717,-2.3026266096938452,1.448247671207538
1684002534990057100,7.93345751953125,-2.4404203893256255,-2.215142250113694,1.8260526657491798
1684002535000099200,7.943499755859375,-1.4958372115601204,-1.739107132027844,1.8860950469745663
1684002535010141400,7.953541748046875,-0.3807959557629271,-1.0606489181206304,1.692200422190211
1684002535020183600,7.963583984375,0.4580094517396134,-0.7241992949731929,1.2680816652314815
1684002535030225600,7.9736259765625,0.7447285652277292,-0.39894866953613517,0.410327672864401
1684002535040267600,7.983668212890625,0.7756523490512214,-0.4374437332252934,-0.213135719171545
1684002535050309800,7.993710205078125,0.7504810691836185,-0.26183891308234064,-0.7536647320056762
1684002535060351900,8.00375244140625,0.6921585202773495,0.18574905390640636,-1.236866474114228
1684002535070394000,8.01379443359375,0.5115661024251791,0.6369047164055417,-1.6260532140084711
1684002535080436100,8.02383642578125,0.3231506346961088,0.8544626235574484,-1.9505412578679282
1684002535090478000,8.03387841796875,0.19578187166213806,0.9194002150474109,-2.05554556848158
1684002535100520100,8.04392041015625,0.08800229435468161,0.979739189178388,-2.0785593986687316
1684002535110562200,8.053962646484376,0.020263403736679137,1.097757339534459,-2.0732197760119786
1684002535120604300,8.064004638671875,-0.0910241828137622,1.1446657181712356,-2.006809234582413
1684002535130646400,8.074046875,-0.1688319742324745,1.2374057769555113,-1.8992373943164347
1684002535140688600,8.0840888671875,-0.1790175885241905,1.0863628386904909,-1.7311222554277654
1684002535150730600,8.094131103515625,-0.09700381765453782,0.8112649916081384,-1.5827169417444518
1684002535160772800,8.104173095703125,0.028798695622377482,0.4647274016662862,-1.4502962827361114
1684002535170814900,8.11421533203125,0.15661245581956657,0.1948862075724376,-1.4132112265809613
1684002535180857000,8.12425732421875,0.3069465459940024,0.16634464260275517,-1.461750030458831
1684002535190899100,8.134299560546875,0.4022541642204824,0.22560405719223742,-1.5577713252313246
1684002535200941000,8.14434130859375,0.5015767217048194,0.24822330461713424,-1.6535892485944905
1684002535210983100,8.154383544921876,0.5874320268772915,0.23437976853634737,-1.8038399217558796
1684002535221025200,8.164425537109375,0.6420983076683573,0.1274347305325588,-2.0109808444561894
1684002535231067300,8.1744677734375,0.6998704076243345,0.0597591401194833,-2.245555877554093
1684002535241109400,8.184509765625,0.7755154370269246,-0.06395339974085701,-2.413050412985975
1684002535251151600,8.194552001953125,0.8697974085244682,-0.13133621215141386,-2.446662425920888
1684002535261193600,8.204593994140625,0.9895896911774669,-0.3556985854887325,-2.3418762684980745
1684002535271235800,8.21463623046875,1.079780936268813,-0.5537729262659097,-2.1387588977004977
1684002535281277900,8.22467822265625,1.1832866668533075,-0.5277328492038331,-2.0490806102936854
1684002535291320000,8.234720458984375,1.2671743631195616,-0.3153429032499115,-2.087670326226618
1684002535301362100,8.244762451171875,1.3342031242004766,-0.18383884440724818,-2.0864849089784236
1684002535311404000,8.254804443359374,1.3987351655960132,-0.12366676332876948,-1.9220919608067826
1684002535321446300,8.2648466796875,1.4292384385076258,-0.12081050870505314,-1.7400802375572744
1684002535331488200,8.274888671875,1.4416429996751732,-0.11102676393186066,-1.5849606991807963
1684002535341530300,8.2849306640625,1.3655101061573012,-0.08007717114892664,-1.4615968466072995
1684002535351572400,8.294972900390626,1.269161224369389,-0.030321121127678458,-1.4027456045383793
1684002535361614600,8.305014892578125,1.138027310443193,-0.00236701962299086,-1.2883673906090143
1684002535371656600,8.31505712890625,0.9512250423165688,-0.024861335617798744,-1.1352117060594655
1684002535381698700,8.32509912109375,0.7489218117220426,-0.07864761345763036,-0.9054274558564359
1684002535391740800,8.335141357421875,0.5739729403165124,-0.0800514222131131,-0.7663913964913921
1684002535401783000,8.345183349609375,0.4019707143115852,0.006741523716693775,-0.6697634459194475
1684002535411825100,8.3552255859375,0.23663991697566997,0.06462478626489489,-0.5840123891505433
1684002535421867200,8.365267578125,0.11904850620209716,0.13913822172773796,-0.5470186471462257
1684002535431909000,8.375309326171875,0.020370543192778222,0.15139865884882084,-0.46333837510937226
1684002535441951200,8.3853515625,-0.02877706279955413,0.20174026490436783,-0.3623346090303116
1684002535451993300,8.3953935546875,-0.06475925457078838,0.24934196471322503,-0.24465203278671224
1684002535462035400,8.405435791015625,-0.1096414923738527,0.29881954206830913,-0.1254740952279929
1684002535472077600,8.415477783203125,-0.139664054020886,0.2974891663240594,-0.010426878854015706
1684002535482119600,8.42552001953125,-0.18765932338314353,0.30515766159165064,0.08802270876074025
1684002535492161600,8.43556201171875,-0.24772405616144985,0.26227760300160574,0.1941241026638922
1684002535502203800,8.445604248046875,-0.31367266174422626,0.21689891808470083,0.2697200775320676
1684002535512245900,8.455646240234374,-0.36046466237481156,0.17638397205239512,0.31993842118887106
1684002535522288000,8.4656884765625,-0.4069454074828872,0.12172603605919245,0.37133717545146033
1684002535532330200,8.47573046875,-0.41060367222354616,0.02433395396626582,0.43843543526238693
1684002535542372300,8.485772705078125,-0.40539363024078645,-0.06547832485628652,0.5502622127772356
1684002535552414400,8.495814697265626,-0.3586590290931365,-0.054574966424188645,0.637908697076076
1684002535562456200,8.505856689453125,-0.2951692341266985,0.016145706279771032,0.703876972204858
1684002535572498400,8.515898681640625,-0.2128344773593687,0.03422355655335006,0.8434255121824477
1684002535582540500,8.52594091796875,-0.12129592905110356,0.11195659643609143,0.960245490079907
1684002535592582600,8.53598291015625,-0.032960891664291274,0.20610713957331242,1.027644872652479
1684002535602624600,8.546025146484375,0.06555891043315154,0.2329244613927356,1.059648752213488
1684002535612666800,8.556067138671875,0.12954258908076874,0.2114648818172372,1.0534005164502604
1684002535622708900,8.566109375,0.15991640078181446,0.163306236237429,0.9642823933829907
1684002535632751000,8.5761513671875,0.1556171773723849,0.09090137480819302,0.817109346507454
1684002535642793100,8.586193603515625,0.11879867326759828,0.07084083552046298,0.72779607780799
1684002535652835200,8.596235595703124,0.040483594006984834,0.08647155762232656,0.5374621153787388
1684002535662877400,8.60627783203125,-0.025196134953460108,0.20718574519089547,0.4168164730223022
1684002535672919600,8.61631982421875,-0.07154059417266477,0.2705335616693369,0.3063410520707453
1684002535682961300,8.62636181640625,-0.09250032895166474,0.29585170736346905,0.2989715336967345
1684002535693003400,8.63640380859375,-0.07296037685762126,0.2808876036075503,0.34169495111472964
1684002535703045600,8.646446044921875,-0.036821365318003334,0.31649303434309917,0.4082052707942554
1684002535713087600,8.656488037109375,0.03961193573808267,0.35471534735837074,0.5196024179108558
1684002535723129800,8.6665302734375,0.09159064302591122,0.359577178905828,0.6985684634592183
1684002535733171900,8.676572265625,0.145515441980662,0.39791488658113705,0.8458753229338917
1684002535743214000,8.686614501953125,0.22557300327472357,0.4170436859109473,1.0512763262176692
1684002535753256100,8.696656494140624,0.26724690206719426,0.3572397233504994,1.2277274133272507
1684002535763298200,8.70669873046875,0.2925574184039076,0.2784414292553745,1.3893357515753917
1684002535773340300,8.71674072265625,0.31392121314968063,0.19986152642856025,1.5074670315536485
1684002535783382400,8.726782958984375,0.3194195626783378,0.1931724549063843,1.6588168144017297
1684002535793424300,8.73682470703125,0.3487271667585771,0.21747779831106578,1.7688641548907733
1684002535803466600,8.7468671875,0.3556208609590277,0.3084936142855105,1.7727998496295165
1684002535813508600,8.756908935546875,0.29271250965518403,0.4183912275470323,1.6583696605342566
1684002535823550600,8.766950927734374,0.20134007937339266,0.4994821548299773,1.3890386819777127
1684002535833592800,8.7769931640625,0.06824386117229506,0.5170507431219336,0.9779329895955714
1684002535843634900,8.78703515625,-0.04204469918037391,0.4655818940035241,0.6139565111541011
1684002535853677000,8.797077392578124,-0.12831419721375684,0.30675792692365067,0.36889380204183364
1684002535863719100,8.807119384765626,-0.14462339877711186,0.15577220907270073,0.28324019918626764
1684002535873761200,8.81716162109375,-0.11247134194764095,-0.00379276269923975,0.2683113217429047
1684002535883803300,8.82720361328125,-0.05676627148491159,-0.1270475387211975,0.22271966928521628
1684002535893845400,8.837245849609374,0.04061585662328317,-0.34186744691062715,0.22175240514058897
1684002535903887600,8.847287841796875,0.12295377258295019,-0.620964050376696,0.24242097133052629
1684002535913929600,8.857330078125,0.1927719711825608,-0.932787895108185,0.3590630292405019
1684002535923971800,8.8673720703125,0.2854272127656231,-1.2203693390186245,0.47784799338523665
1684002535934013900,8.877414306640626,0.36066442741243426,-1.5077314377765918,0.677614986841452
1684002535944055600,8.8874560546875,0.4187819958090931,-1.811348915199346,0.9293850065962331
1684002535954097800,8.897498291015625,0.39190739389328205,-2.0405588150451877,1.1891145704829962
1684002535964140000,8.907540283203126,0.36577004202236746,-2.2030229569791984,1.2746696472096697
1684002535974182100,8.91758251953125,0.3206843137284629,-2.3827295305203067,1.3372309207646258
1684002535984224200,8.92762451171875,0.18440723413283236,-2.336268424989806,1.2007579804892339
1684002535994266300,8.937666748046874,0.011503219547496248,-1.8637495040437415,0.8815939426969317
1684002536004308400,8.947708740234376,-0.17385941754834114,-1.1523160934023842,0.5159864425251378
1684002536014350600,8.9577509765625,-0.35869359958011243,-0.5390491486719877,0.2661178110874278
1684002536024392600,8.96779296875,-0.515221238137317,0.12204551703364849,0.029404759327667434
1684002536034434700,8.977835205078126,-0.668161988387097,0.7018289566229071,-0.15421807774702248
1684002536044476800,8.987877197265625,-0.8109995722336333,1.0976743697200726,-0.33834248765831915
1684002536054519000,8.99791943359375,-0.8973356485758394,1.3599376678866555,-0.48360812670834136
1684002536064560800,9.007961181640624,-0.93950337161265,1.376469612129353,-0.6072618364758225
1684002536074602900,9.01800341796875,-0.9979647398213546,1.2288846968655311,-0.7088115215617176
1684002536084645000,9.02804541015625,-1.3586176633897469,1.0105400087251848,-0.9684363604582792
1684002536094687200,9.038087646484374,-2.767144918588119,0.7716884614416578,-1.5734980105877225
1684002536104729300,9.048129638671876,-6.404365539535589,0.32301425949411594,-2.509015798543212
1684002536114771400,9.058171875,-6.2264680862133375,-0.11897182472239998,-2.5744824407700455
1684002536124813600,9.0682138671875,-2.8328692911560784,0.05498218552594827,-2.4492068290121036
1684002536134855600,9.078256103515624,-0.5523397325382913,0.07520294185713858,-2.087350845374026
1684002536144897600,9.088298095703124,0.5292275546130403,-0.008317947353519192,-1.669241785968314
1684002536154939800,9.09834033203125,1.0669512748806282,-0.12371540069630435,-1.5271015165894621
1684002536164981900,9.10838232421875,1.3521406650802086,-0.28448486313944127,-1.736203193667095
1684002536175024000,9.118424560546876,1.5825579165734691,-0.5464353562743519,-2.011496543951924
1684002536185066200,9.128466552734375,1.8352515697706941,-0.833658218407938,-2.221939802235476
1684002536195108000,9.13850830078125,2.0527043341474953,-0.953497886598876,-2.314725637365675
1684002536205150100,9.148550537109376,2.222726821908419,-0.9908895492877304,-2.3788955211620033
1684002536215192200,9.158592529296875,2.2058219909057306,-1.2102727890904554,-2.3172137738961873
1684002536225234400,9.168634765625,2.1308414934909936,-1.5128803253388385,-2.1299245357667695
1684002536235276500,9.1786767578125,1.9222707748287495,-1.7004308698839283,-1.8581945896135132
1684002536245318600,9.188718994140626,1.4909832475988531,-1.3742895125544654,-1.7651283740717092
1684002536255360600,9.198760986328123,0.9118425845910669,-0.8513259886869227,-1.5388642550612515
1684002536265402800,9.20880322265625,0.1372126340447342,-0.4658451079498683,-0.9522926809079066
1684002536275444900,9.21884521484375,-0.712039590004568,-0.07910251612161791,-0.19907045382728783
1684002536285487000,9.228887451171875,-1.423071861267026,0.31394004835170997,0.33599233632368897
1684002536295529100,9.238929443359376,-1.8497961758773585,0.6834592819687537,0.6506819723548822
1684002536305571200,9.2489716796875,-1.8386173247229034,1.0247554778737156,0.6310949324920404
1684002536315613400,9.259013671875,-1.5428122281703354,1.2766695022542796,0.34196305278605515
1684002536325655600,9.269055908203123,-1.1324925423686576,1.3208179473950272,-0.10990667350638249
1684002536335697300,9.27909765625,-0.7850416899041669,1.2752742767994316,-0.4872980117717223
1684002536345739400,9.289139892578126,-0.5495945215777532,1.1956787109746805,-0.8687570094961066
1684002536355781600,9.299181884765623,-0.43848103274913486,1.0204257964220604,-1.2541888952267666
1684002536365823600,9.30922412109375,-0.3911354542545707,0.7715473173309971,-1.6366752387040764
1684002536375865800,9.31926611328125,-0.41698062412328907,0.36815166466736554,-2.22688198079918
1684002536385907900,9.329308349609375,-0.5165183544866573,0.17901039121909426,-2.826927661995237
1684002536395950000,9.339350341796877,-0.7138080596758679,-0.04917907699983182,-3.400137662882314
1684002536405992100,9.349392578125,-0.7637940645145506,-0.09864997855067913,-3.726487398003428
1684002536416034200,9.3594345703125,-0.724635839326507,-0.17756175994641488,-3.948848724230109
1684002536426076300,9.369476806640623,-0.5768740178075548,-0.15926265721704252,-3.7640714646922375
1684002536436118400,9.379518798828125,-0.3779790401952301,-0.048373222301464826,-3.5006027221608558
1684002536446160600,9.38956103515625,-0.23514485355478182,0.04791164388561971,-3.0139467716329085
1684002536456202600,9.39960302734375,-0.038510560906987165,0.11071014412686002,-2.4345371723146716
1684002536466244800,9.409645263671877,0.15929019458301238,0.1730051040056943,-1.701077103540982
1684002536476286600,9.41968701171875,0.2825887203094036,0.18346023551541796,-0.9008603094884434
1684002536486328800,9.429729248046876,0.3934509755916683,0.21778678889351655,-0.2455677986761402
1684002536496370900,9.439771240234377,0.4700572490860001,0.2611322403762454,0.2866125105779829
1684002536506413000,9.4498134765625,0.23727571972598954,0.2147512434755105,0.7626781463449197
1684002536516455100,9.45985546875,-0.05009007441927173,0.3103189467342564,0.9614946842452036
1684002536526497200,9.469897705078123,-0.09264528746125644,0.5177545545864837,0.7300543785177839
1684002536536539300,9.479939697265625,0.023087620614726207,0.769177436813136,0.481119871141208
1684002536546581400,9.48998193359375,0.11553490173592897,0.9481067657005992,0.35499596577969167
1684002536556623600,9.50002392578125,0.1658608317211998,1.0232133865775872,0.3226664065644394
1684002536566665600,9.510066162109377,0.1757067442948511,1.0942564010813198,0.2918324471240045
1684002536576707800,9.520108154296874,0.15645498046108094,1.0988674163105276,0.2318356037517948
1684002536586749900,9.530150390625,0.005953431087485747,0.8914184570214336,0.304105043309644
1684002536596792000,9.5401923828125,-0.3515371083944248,0.5531635284938277,0.5118083954308026
1684002536606834100,9.550234375,-0.8669075964953432,0.31297397614733147,0.8631002903472929
1684002536616876200,9.560276611328124,-1.474611878394372,0.17216491706710793,1.2231786252171502
1684002536626918100,9.570318359375,-1.961158871559991,0.17512607578854864,1.5892043114077359
1684002536636960200,9.580360595703125,-1.9007854461265017,0.2663955689503969,1.8559467790938533
1684002536647002300,9.590402587890624,-1.487469315528771,0.3791122436032823,1.9897077084941017
1684002536657044400,9.60044482421875,-1.0975705386597607,0.4562368392092265,1.98532533640638
1684002536667086600,9.61048681640625,-0.8255985974722082,0.39046669022994973,1.8898236751612933
1684002536677128600,9.620529052734376,-0.5280336142036217,0.294494628994822,1.6359734534881738
1684002536687170700,9.630571044921876,-0.21185493474028005,0.3360967636065316,1.2082691193433497
1684002536697212800,9.64061328125,0.09328567981184713,0.3485879899556433,0.6474545002424995
1684002536707255000,9.6506552734375,0.2196873425549505,0.18444919570901686,0.3776938914996822
1684002536717297100,9.660697509765624,0.2201994656320621,0.02364349371126674,0.11282014848968103
1684002536727339200,9.670739501953124,0.16462266441217036,0.039032936105376066,-0.1611640453548703
1684002536737381300,9.68078173828125,0.005225539353841952,0.26314544686104335,-0.555852174749829
1684002536747423400,9.69082373046875,-0.2482048273471293,0.7839574813944672,-1.1139771938127665
1684002536757465600,9.700865966796876,-0.39307820809161176,1.1723232269038464,-1.5541083812509646
1684002536767507400,9.71090771484375,-0.3854740857756309,0.7949981689644389,-1.5768170357157674
1684002536777549600,9.720949951171876,-0.3840588331959262,0.32595348350247205,-1.5583674907615355
1684002536787591600,9.730991943359374,-0.5024696589712491,-0.08545780173075881,-1.5063717364578442
1684002536797633600,9.7410341796875,-0.7561936378248986,-0.4289722442350449,-1.3551590441411399
1684002536807675800,9.751076171875,-1.053100466882419,-0.8427276612255797,-1.1312785148817501
1684002536817717900,9.761118408203124,-1.4988629817373749,-1.5167341231103442,-0.8772360086486675
1684002536827760000,9.771160400390626,-2.163855791028712,-2.3820171354435966,-0.6262502670429844
1684002536837802200,9.78120263671875,-3.2380914688094977,-3.5008907319002684,-0.3640971183869989
1684002536847844300,9.79124462890625,-4.099843978921788,-4.892407417401417,0.05814409264563221
1684002536857886400,9.801286865234376,-3.7418451308921648,-5.90236854553609,1.0439162254166774
1684002536867928600,9.811328857421875,-2.0786540508800093,-5.782709121789733,2.3018918036803564
1684002536877970600,9.82137109375,-0.06439030166348472,-3.6523933411080387,2.927677154531517
1684002536888012600,9.8314130859375,1.5180785655837619,-0.5983018874733144,2.5635528563496326
1684002536898054800,9.841455322265626,2.531265735628777,1.2438421248875378,1.7524578570155172
1684002536908096900,9.851497314453123,2.8716330526962945,1.4115066528643156,0.5611751079619357
1684002536918138800,9.861539306640625,2.8201651574123616,0.7665786744865232,-0.4541271924304087
1684002536928180900,9.871581298828126,2.5955533982508645,0.7949943543299964,-1.3188672066103775
1684002536938223000,9.88162353515625,2.349294900936565,1.4099626541076962,-1.9867523908585831
1684002536948265100,9.89166552734375,2.0924501420167694,2.2454929351534405,-2.512795925013536
1684002536958307200,9.901707763671874,1.8626629113871505,2.9101481436711913,-2.8444709778636486
1684002536968349400,9.911749755859375,1.6685159206455185,3.0054759979079293,-3.0507464409391805
1684002536978391600,9.9217919921875,1.5602427720789278,2.675749778765589,-3.0814819334222054
1684002536988433600,9.931833984375,1.4833568334252616,1.9145674705449345,-2.9519901275964435
1684002536998475600,9.9418759765625,1.2583630086014146,0.925666808990375,-2.822991132729541
1684002537008517800,9.951918212890623,0.8660385012366967,-0.06385040279165012,-2.6872372627489436
1684002537018559900,9.961960205078125,-0.027702331517298475,-1.0451126098079506,-2.694766998267802
1684002537028602000,9.97200244140625,-1.0403714181352814,-1.9051914214628225,-2.4220232964780775
1684002537038644100,9.98204443359375,-1.6746698619129927,-1.752974510181219,-1.7895251513921029
1684002537048686300,9.992086669921877,-1.7298336028558507,-1.0551633834033656,-1.2536885739299566
1684002537058728400,10.002128662109374,-1.2646389007040868,-0.42689132679092323,-0.9441415665592768
1684002537068770600,10.0121708984375,-0.4658541081769923,-0.12078762052872574,-0.8231128453180878
1684002537078812300,10.022212646484377,0.3797843457574913,-0.0017747877633396603,-0.9105371236568411
1684002537088854600,10.032255126953125,1.1367280483332123,0.2542371751449358,-1.1544975042990209
1684002537098896600,10.042296875,1.555775403917754,0.4043493270884864,-1.3744505644446592
1684002537108938600,10.052339111328124,1.5805191994203998,0.3916511537161942,-1.4301354886621718
1684002537118980800,10.062381103515625,1.474316835355933,0.33806228627373347,-1.436137437671653
1684002537129022900,10.07242333984375,1.309819102117187,0.3627309799389406,-1.399187803332975
1684002537139065000,10.08246533203125,1.274204969495945,0.32898902880483183,-1.2352709771772872
1684002537149107100,10.092507568359377,1.2770830392730714,0.3470010755671479,-1.170565724480882
1684002537159149200,10.102549560546874,1.2534432411155843,0.2498912810166129,-1.1449294088457496
1684002537169191300,10.112591796875,1.2076414824381738,0.10276889794655432,-1.2014288902590082
1684002537179233500,10.1226337890625,1.2019159793997447,0.05637645718153714,-1.2454870937818365
1684002537189275600,10.132676025390625,1.2127619982477347,0.024374008159627696,-1.177399277620639
1684002537199317600,10.142718017578124,1.2217522859162768,-0.04587364198390301,-1.0955791473202365
1684002537209359800,10.15276025390625,1.272771596931514,-0.08730983737554081,-1.0637300013742936
1684002537219401900,10.16280224609375,1.3365886211088565,-0.07836055748615585,-0.9946852327109899
1684002537229444000,10.172844482421874,1.3715381622691711,-0.040622711202661296,-0.9026105403368122
1684002537239485900,10.18288623046875,1.371676445126983,0.009181022721256236,-0.8585068584584914
1684002537249528000,10.192928466796875,1.3121482134871294,0.061463356038660655,-0.7615785002065142
1684002537259570100,10.202970458984376,1.1979203224924468,0.12101173414465304,-0.6686226726502426
1684002537269612200,10.2130126953125,1.008653163914435,0.1567058563826524,-0.5580397844357293
1684002537279654300,10.2230546875,0.7795154453313655,0.17103672013621643,-0.45545005800519595
1684002537289696400,10.233096923828125,0.5613445044373342,0.23809528356017398,-0.30787098416931796
1684002537299738600,10.243138916015624,0.34468606107348015,0.29792976395006154,-0.16598916046272047
1684002537309780600,10.25318115234375,0.12947121266432352,0.38139152531259857,0.004863381469136441
1684002537319822800,10.26322314453125,-0.062230944605146776,0.37363243111189137,0.17251610768060846
1684002537329864900,10.273265380859376,-0.25550353534669246,0.30818843844318733,0.36188244816599924
1684002537339907000,10.283307373046876,-0.4408902525422502,0.14933300028853058,0.54984545698831
1684002537349949100,10.293349609375,-0.5726861358702786,0.00959205626643689,0.6799291372844342
1684002537359991200,10.3033916015625,-0.6230186821531329,0.008443832258123148,0.7179286481291136
1684002537370033300,10.313433837890624,-0.6315737367264672,0.023970603886430672,0.7216880916483147
1684002537380075400,10.323475830078126,-0.6078778504826323,0.022717475793605686,0.76912522319597
1684002537390117600,10.33351806640625,-0.5171695948847321,-0.002525329481466662,0.7562542557986591
1684002537400159400,10.343559814453124,-0.4116390049421703,-0.027837753325940386,0.7051990628531872
1684002537410201600,10.353601806640626,-0.3219270111156336,-0.03405761714113025,0.5914459824749471
1684002537420243600,10.36364404296875,-0.22817072262845725,-0.006857871885671819,0.4979410766726627
1684002537430285700,10.37368603515625,-0.17183005808048651,0.06564426416437764,0.3634226320762934
1684002537440327900,10.383728271484374,-0.06908553843642348,0.08544445037017392,0.27644240859183533
1684002537450370000,10.393770263671875,0.004163444180683609,0.13156414041863523,0.1536670326563211
1684002537460412100,10.4038125,0.11009383199871729,0.1825199126146255,0.04144430176259672
1684002537470454200,10.4138544921875,0.20234650373064736,0.22394752490559927,0.014292836193599629
1684002537480496300,10.423896728515626,0.2798317669351259,0.13875770579931715,-0.016492545523574854
1684002537490538400,10.433938720703123,0.3366318345786451,0.0919256210709788,-0.03219836936275167
1684002537500580600,10.44398095703125,0.3574940562405282,0.06655597679929258,-0.040154814770691855
1684002537510622600,10.45402294921875,0.35164791347054103,0.04582786559837604,-0.057310223668859926
1684002537520664800,10.464065185546875,0.32901036741358913,0.06560897827998195,-0.11170864092675493
1684002537530706900,10.474107177734377,0.2596241236255116,0.06381797793056986,-0.15491664413408177
1684002537540749000,10.4841494140625,0.25455105298372344,0.08597183227961079,-0.1818810105118622
1684002537550791100,10.49419140625,0.22592449177834759,0.15834140776600344,-0.23297864184378347
1684002537560832900,10.5042333984375,0.22688525926331657,0.18771362293491084,-0.2839014529358324
1684002537570875300,10.514275634765625,0.23731625074063314,0.1764049528381384,-0.20062312490306577
1684002537580917200,10.524317626953126,0.23399144405949643,0.26894569402082513,-0.20148393524030425
1684002537590959300,10.534359619140623,0.228534638815353,0.33173275002832636,-0.14600896843220246
1684002537601001400,10.54440185546875,0.19981992248582217,0.3463754655174787,-0.07579320660904953
1684002537611043600,10.55444384765625,0.17947518823385772,0.28073787686518803,0.013192176762737822
1684002537621085600,10.564486083984375,0.1794636844214417,0.21857547748085243,0.08531022061077512
1684002537631127700,10.574528076171877,0.1805918215647574,0.21868038161464012,0.12675404543697122
1684002537641169800,10.5845703125,0.16406589748549885,0.15044116967958562,0.21115785855209945
1684002537651212000,10.5946123046875,0.15874165307054702,0.11858654018521922,0.24728968753526429
1684002537661254100,10.604654541015623,0.12971317769293467,0.0237340927381378,0.1873211562517494
1684002537671296200,10.614696533203125,0.13666516532511985,0.024752616750225085,0.16135299197008107
1684002537681338300,10.62473876953125,0.10874921074040365,-0.09652614605801019,0.19659602646233978
1684002537691380400,10.63478076171875,0.15102452030109528,-0.0413894652561386,0.2369793354653243
1684002537701422600,10.644822998046877,0.20422267919853276,-0.017485618533133584,0.24644307787259337
1684002537711464600,10.654864990234374,0.2777820231204629,0.025159835915759213,0.33254739639811987
1684002537721506700,10.6649072265625,0.38444089890310407,0.04844951644372882,0.4558730720825884
1684002537731548800,10.67494921875,0.5010122061212278,0.043148994328770125,0.6011472941194367
1684002537741590600,10.6849912109375,0.5621840952689566,0.06375789638577092,0.7112269399994277
1684002537751632800,10.695033203125,0.6100828050623904,0.05090904240047036,0.859675526542023
1684002537761674900,10.705075439453124,0.6561819314543582,0.021620750341750147,0.980158328898137
1684002537771717000,10.715117431640625,0.6816394925075601,0.01384735103669975,1.0577399730551589
1684002537781759200,10.72515966796875,0.6874179243768708,-0.06688880925725721,1.113006949431256
1684002537791801300,10.73520166015625,0.6821358203592317,-0.1251411437956852,1.1957303285850034
1684002537801843400,10.745243896484377,0.6996965408115148,-0.18008327491200662,1.337260127045062
1684002537811885600,10.755285888671876,0.7324212192901447,-0.16352653510187629,1.414759755140229
1684002537821927600,10.765327880859376,0.7512807846355496,-0.2508945463505615,1.4541565180076532
1684002537831969600,10.7753701171875,0.7039016486738037,-0.4969959258569058,1.5026724337551343
1684002537842011800,10.785412109375,0.6635069848573889,-0.7344169617263435,1.5284570455807112
1684002537852053900,10.795454345703124,0.6245225667594442,-0.963316917489468,1.5780335664701872
1684002537862096000,10.805496337890624,0.5635696649341566,-1.0849189758348012,1.61463010310791
1684002537872138200,10.81553857421875,0.5197491051082677,-1.1480093001414693,1.6220673322947765
1684002537882180300,10.82558056640625,0.49915599810532907,-1.07343101490809,1.6179828643995788
1684002537892222400,10.835622802734376,0.49785318966508885,-0.8775844573702325,1.4985146522277952
1684002537902264600,10.845664794921875,0.5060933828585518,-0.7273302078223156,1.3786377906628724
1684002537912306600,10.85570703125,0.4869517088620725,-0.6078996658957545,1.3252753019639698
1684002537922348500,10.865748779296876,0.4037839473499479,-0.5565700530764494,1.1817634105624337
1684002537932390800,10.875791259765624,0.2518680988962756,-0.51105880731109,0.9568184615491189
1684002537942432600,10.8858330078125,0.10481259215170086,-0.46420478815964417,0.7529875634829887
1684002537952474800,10.895875244140624,-0.09608805182540994,-0.32888317104979575,0.49368786811401816
1684002537962516900,10.905917236328126,-0.29719787847829043,-0.028830528137414452,0.26466536533713314
1684002537972559000,10.91595947265625,-0.45024505246520685,0.3319921494297131,0.001203775466755588
1684002537982601100,10.92600146484375,-0.6105673910805429,0.6678752899280104,-0.21294280886778294
1684002537992643200,10.936043701171876,-0.7366237640482539,0.9931373596076413,-0.44094994655219016
1684002538002685400,10.946085693359375,-0.9610831738611322,1.2645406723936512,-0.6845872402244547
1684002538012727500,10.9561279296875,-1.5300881862361062,1.3215875625439297,-0.8965049981617574
1684002538022769600,10.966169921875,-2.904496193087853,1.2956371306369385,-1.2400480509322807
1684002538032811600,10.976212158203126,-5.344799041649136,1.2544460296560125,-1.9020943641482322
1684002538042853800,10.986254150390623,-7.526894569362789,0.8055534362445923,-2.3111100195662213
1684002538052895900,10.99629638671875,-5.451010704130953,0.5653219223562258,-2.0831005573423234
1684002538062938000,11.00633837890625,-2.6106376648603953,0.3659124373488371,-1.4888886214316008
1684002538072980100,11.016380615234375,-0.5987321139163714,0.19177627558523566,-1.1044046877414504
1684002538083022300,11.026422607421877,0.6493661999884511,0.07683658594405708,-0.9162210821690701
1684002538093064400,11.03646484375,1.3789020775839516,-0.028029441868156493,-0.789124131290658
1684002538103106200,11.046506591796875,1.7796130179918639,-0.31037426006797986,-0.6682347059594634
1684002538113148600,11.056549072265623,1.9413425921096061,-0.5992155074983931,-0.7149672508881468
1684002538123190400,11.0665908203125,1.9411144255568382,-0.8556365965979962,-0.9060550926354006
1684002538133232600,11.076633056640626,1.8250365258004122,-1.1126155854133994,-1.0764945744683605
1684002538143274600,11.086675048828123,1.5360662936935703,-1.4199895860253824,-1.2197692394287218
1684002538153316800,11.09671728515625,1.1927839518529901,-1.4073686599703297,-1.359385252137193
1684002538163358900,11.10675927734375,0.8483829498106038,-1.2043743133149658,-1.4490847587983982
1684002538173401000,11.116801513671875,0.7149189710189401,-0.8712644577275448,-1.514587879004556
1684002538183443100,11.126843505859377,0.6869486569705773,-0.5328903198235515,-1.4659067392328464
1684002538193485200,11.1368857421875,0.6331578493765658,-0.2827968597368386,-1.3476328850009263
1684002538203527300,11.146927734375,0.590917885267681,-0.0926780699113643,-1.2886309623224435
1684002538213569500,11.156969970703123,0.5285336972030661,0.07039642315233152,-1.0839836596516979
1684002538223611600,11.167011962890625,0.39113295078724075,0.23967170718825284,-1.0466520785165165
1684002538233653600,11.17705419921875,0.2568166255501121,0.5083093641918341,-0.9421362876966438
1684002538243695800,11.18709619140625,0.12453579897008209,0.7448234558138751,-0.8189456462848277
1684002538253737900,11.19713818359375,0.03815972822695507,0.8822488784320012,-0.6504215002820376
1684002538263780000,11.207180419921874,0.04785925164377335,0.9396266936702329,-0.5706708432709067
1684002538273822100,11.217222412109376,0.1465966105641343,0.8643789292143256,-0.6673637629562149
1684002538283864200,11.2272646484375,0.32037138937898385,0.7595539094801771,-0.7566491365101865
1684002538293906400,11.237306640625,0.5192384123914541,0.6874933243491467,-0.8192718028492085
1684002538303948200,11.2473486328125,0.712349236053666,0.7537164687128676,-0.8680893182828462
1684002538313990600,11.257390869140623,0.8151369094305347,0.8268041611117479,-0.8366473914334254
1684002538324032400,11.267432861328125,0.8334276677149492,0.8252868653483133,-0.7103031875322987
1684002538334074600,11.277474853515624,0.7751680613815596,0.7682409286842032,-0.8217576741813518
1684002538344116600,11.28751708984375,0.648368477718702,0.6483917237749668,-1.0802034139998449
1684002538354158800,11.29755908203125,0.45749789474318997,0.508975982737622,-1.493351101814689
1684002538364200900,11.307601318359374,0.2812064885160187,0.3409090042665102,-1.8408182858901123
1684002538374243000,11.317643310546876,0.18028163900734726,0.1898927687160575,-2.0497157573643894
1684002538384285100,11.327685546875,0.15936779970519938,0.04893398277715805,-2.0814728736829466
1684002538394327200,11.3377275390625,0.11765044936625788,-0.07934093471007347,-2.1173665523753855
1684002538404369300,11.347769775390624,0.10028564941659372,-0.2352056504608726,-2.075206994900009
1684002538414411400,11.357811767578124,0.07843375204976048,-0.28672504413587074,-2.0037853717000673
1684002538424453600,11.36785400390625,0.027796387796782944,-0.29156875618672307,-1.7678239346225486
1684002538434495600,11.37789599609375,-0.006666541086092856,-0.24571418761503133,-1.544626235985321
1684002538444537800,11.387938232421876,-0.007608890421654283,-0.19243144980091367,-1.3593238592167398
1684002538454579900,11.397980224609377,0.02542662618702834,-0.15766525262427605,-1.2568312883036643
1684002538464622000,11.4080224609375,0.10131859789899407,-0.026336670074841494,-1.2000735997878578
1684002538474664100,11.418064453125,0.10658347611702795,0.06048870087996132,-1.1333615779755806
1684002538484706200,11.428106689453124,-0.015406608509581645,0.11234664924762575,-1.142086625144759
1684002538494748300,11.438148681640625,-0.1320010424016833,0.18900775910700723,-1.2202084063720366
1684002538504790200,11.448190673828124,-0.21161413205015225,0.21628570557404075,-1.295254826627297
1684002538514832600,11.45823291015625,-0.35711979869472893,0.21806621548023192,-1.3573213815838951
1684002538524874400,11.46827490234375,-0.49011957647141086,0.13681602488004477,-1.4114226102189829
1684002538534916600,11.47831689453125,-0.5340492724474212,0.046618461708759946,-1.4053390024671595
1684002538544958600,11.488359130859376,-0.43076527108013113,0.0930261612432691,-1.237225770776953
1684002538555000800,11.498401123046875,-0.2547154425451071,0.29967594133704617,-1.0224928855910884
1684002538565042900,11.508443359375,-0.03912484646474946,0.5563173294295474,-0.7570302485542223
1684002538575085000,11.5184853515625,0.230627179046021,0.612059593209181,-0.49422097203455606
1684002538585127100,11.528527587890624,0.4326139090822858,0.4841279984174445,-0.28277087207840723
1684002538595169200,11.538569580078123,0.6923244596547811,0.43343734737852896,-0.06410956378702706
1684002538605211300,11.54861181640625,1.0174980164649918,0.43121814715746365,0.18609571466155686
1684002538615253400,11.55865380859375,1.437132000762684,0.45147132878646046,0.3614976406620409
1684002538625295600,11.568696044921875,1.7525711060332285,0.45886516577505665,0.4051270484810117
1684002538635337600,11.578738037109376,1.7730914354911627,0.40571403492312325,0.3436372279491672
1684002538645379800,11.5887802734375,1.552489042385552,0.2796525955141661,0.17698693257614403
1684002538655421900,11.598822265625,1.0752849578614432,0.11339187619712833,-0.08746743202421303
1684002538665464000,11.608864501953123,0.4935488700639257,-0.12971591938634575,-0.17497634875513668
1684002538675506100,11.618906494140624,-0.07806670666759676,-0.3879365921770063,-0.0808568000898101
1684002538685548200,11.628948486328126,-0.7006335258318578,-0.5943155288266864,-0.03556513769781537
1684002538695590300,11.63899072265625,-1.2184879780155944,-0.7225456238613508,0.0606234072358279
1684002538705632400,11.64903271484375,-1.33479774004237,-0.689364433307847,0.2386364937745002
1684002538715674600,11.659074951171876,-0.977324605030917,-0.4877557753267202,0.3783018587900315
1684002538725716400,11.66911669921875,-0.44389092909456296,-0.15277576455885272,0.3092131615133117
1684002538735758600,11.679158935546877,-0.0768322944781719,0.2954225541309068,0.010958433323590224
1684002538745800600,11.689200927734374,0.15481209751010136,0.8172550200786138,-0.25997972502356487
1684002538755842700,11.6992431640625,0.25217950337447903,1.019186973539089,-0.6132419108595735
1684002538765884800,11.70928515625,0.4431047438964585,0.897510528520643,-0.9755330085198053
1684002538775927000,11.719327392578125,0.6265905498702592,0.6174116135037526,-1.3288592100857066
1684002538785969100,11.729369384765626,0.6498025058830664,0.24560737614033526,-1.7007913589714048
1684002538796011200,11.73941162109375,0.5552469492230833,-0.06530761716146055,-2.1344785690159527
1684002538806053300,11.74945361328125,0.3435138463935638,-0.4762973785445155,-2.4227170943177834
1684002538816095400,11.759495849609374,-0.07537567611369753,-0.9497270583753753,-2.7051560878409884
1684002538826137600,11.769537841796875,-0.802837848710838,-1.5723123549318565,-2.8968439102292516
1684002538836179600,11.779580078125,-1.9076869487144181,-2.3352899550401482,-2.9827125073607785
1684002538846221700,11.7896220703125,-2.674365758890194,-3.1727123261667773,-2.5240855218106084
1684002538856263900,11.799664306640626,-2.2901296615447806,-3.767325401388081,-1.605091690937321
1684002538866306000,11.809706298828123,-1.125734686950805,-3.6798543930459173,-0.5211797952780807
1684002538876348100,11.81974853515625,-0.021762490338116718,-3.1049385069670854,0.3309993743739507
1684002538886390200,11.82979052734375,0.804522514495954,-2.282390594525036,0.9571694135243983
1684002538896432300,11.839832763671875,1.4095125199284082,-0.9878959655135278,1.214334011162741
1684002538906474400,11.849874755859377,1.8548386096569542,0.5081100464462533,0.9183778761457376
1684002538916516600,11.8599169921875,2.1244933605415524,1.3739900590061527,0.42563724508488937
1684002538926558400,11.869958740234376,2.260687112856618,1.7398929596353565,-0.1433236599160649
1684002538936600600,11.8800009765625,2.256589174118725,1.8317747116407788,-0.7349851130832914
1684002538946642600,11.89004296875,2.181356906940747,1.8209905623859566,-1.2835351229246799
1684002538956684600,11.900085205078126,2.0335443021521895,1.8046665191353723,-1.708160519596782
1684002538966726800,11.910127197265624,1.8133523463928913,1.5327081679761325,-1.9253848791811494
1684002538976768900,11.92016943359375,1.4897685050756646,0.9579792021078194,-1.9344258308624953
1684002538986811100,11.93021142578125,1.0533258915700214,0.4415845870015817,-1.8888571263878475
1684002538996853200,11.940253662109376,0.45578479750652934,-0.0002641677395487769,-1.7739232777002183
1684002539006895300,11.950295654296877,-0.204579710988138,-0.31607913959647704,-1.3232274054156254
1684002539016937400,11.960337890625,-0.7367403508092765,-0.4168252945199365,-0.7712317706531795
1684002539026979600,11.9703798828125,-0.9271420240050631,-0.28032970431422594,-0.3315483331822269
1684002539037021600,11.980422119140623,-0.7438172697436343,-0.0534257888745544,-0.2029942273793803
1684002539047063700,11.990464111328125,-0.2790886760020169,-0.10175895681090881,-0.13193345071286264
1684002539057105800,12.00050634765625,0.28435176597132544,0.024957656813830043,-0.2782670261031443
1684002539067148000,12.01054833984375,0.8188979626532835,0.11223983765278704,-0.43042790892223826
1684002539077190100,12.020590576171877,1.2109417914304719,0.16771316536864306,-0.5039976240183577
1684002539087232200,12.030632568359374,1.3940637110407497,0.2513771056557576,-0.5708602667461471
1684002539097274300,12.0406748046875,1.4467713833509368,0.35367774956508546,-0.6367580294225832
1684002539107316400,12.050716796875,1.4513427017663785,0.4267168045504365,-0.7528725266531916
1684002539117358600,12.060759033203125,1.4814025163825075,0.5277719499004179,-0.8233006596692811
1684002539127400600,12.070801025390624,1.517803788003989,0.48716735840763475,-0.8343793749432485
1684002539137442600,12.0808427734375,1.524419188639317,0.45082473752387,-0.8592777251570083
1684002539147484800,12.09088525390625,1.563072204589426,0.3853683471898307,-0.869078099730106
1684002539157526600,12.100927001953124,1.6092839241014845,0.19539928438062287,-0.9712949989464575
1684002539167568800,12.11096923828125,1.733829736589538,0.04592037214512172,-0.9311215878319317
1684002539177610900,12.12101123046875,1.932334780658345,0.0326108932105664,-0.9891052246158304
1684002539187653000,12.131053466796876,2.1234786510526393,0.021655082570580124,-1.0298168659730984
1684002539197695200,12.141095458984376,2.3290319443032566,0.041871070894721,-1.0488317012772743
1684002539207737300,12.1511376953125,2.46632289896018,0.03600597385571213,-1.062812924509751
1684002539217779400,12.1611796875,2.5491209030754955,0.07585716246521583,-1.049989938623783
1684002539227821600,12.171221923828124,2.5318045616824203,0.13981723795595563,-1.0273618698330216
1684002539237863600,12.181263916015626,2.395773649122812,0.18956184377585583,-0.9950829742561569
1684002539247905600,12.19130615234375,2.2184319495432097,0.20833492279526325,-0.9816312789536666
1684002539257947800,12.20134814453125,2.0582151412142733,0.23435115821687272,-0.9888245463919073
1684002539267989900,12.211390380859376,1.9013085364980697,0.2436571119370578,-1.0449050663170432
1684002539278032000,12.221432373046875,1.7647334336563067,0.3055610657449385,-1.1797808410163921
1684002539288074200,12.231474609375,1.6249072550727222,0.30774307236146614,-1.2626167535097792
1684002539298116300,12.2415166015625,1.4848916529557052,0.36500740059272657,-1.3827314376508637
1684002539308158400,12.251558837890624,1.3099797964165687,0.4079408645631975,-1.448059677944802
1684002539318200600,12.261600830078123,1.1277775763544649,0.42458343524234826,-1.4700570106829118
1684002539328242600,12.27164306640625,0.9769904612963953,0.45793724071936426,-1.4010071755096853
1684002539338284600,12.28168505859375,0.8285005688777741,0.46490478526539775,-1.322951078423507
1684002539348326800,12.291727294921875,0.6283054948636884,0.35473442073631467,-1.2106769085680633
1684002539358368900,12.301769287109376,0.3672393561062473,0.18735027316375752,-1.0476582050198602
1684002539368411100,12.3118115234375,0.05953290322626247,0.08224391931537542,-0.8995800017430632
1684002539378452900,12.321853271484375,-0.1255540251419898,0.07500267021717587,-0.5540001987092739
1684002539388495000,12.3318955078125,-0.034164711747035725,0.0578718185330126,-0.12090474367101675
1684002539398537100,12.3419375,0.2653580308349507,0.1646118164105184,0.2516189515275174
1684002539408579200,12.351979736328126,0.5993921161279631,0.21822166433939702,0.5311824678009148
1684002539418621400,12.362021728515623,0.8708353638422572,0.20930671686032729,0.7238705157745469
1684002539428663500,12.37206396484375,1.0879936217778359,0.19538211830561072,0.8102557658750027
1684002539438705600,12.38210595703125,1.2049773931068137,0.1526298523454468,0.895538806792777
1684002539448747600,12.392148193359375,1.258574843398536,0.11460113525411744,0.9584319590054773
1684002539458789800,12.402190185546877,1.2575663327462234,0.09087371821170862,0.9544157982010163
1684002539468831900,12.412232421875,1.2401701211739569,0.07903957362934926,0.9489384293259452
1684002539478874000,12.4222744140625,1.1756998299812376,0.07667446144192708,0.9058434367069635
1684002539488916100,12.432316650390623,1.1008601186812534,0.05269813547301223,0.8860291837223941
1684002539498958300,12.442358642578125,0.9759291410682212,0.06209564216312956,0.7668132186055175
1684002539509000400,12.45240087890625,0.8569960592836907,0.11434745788403765,0.5110701321783894
1684002539519042600,12.46244287109375,0.7359430789130367,0.13533401490338098,0.2857427597368118
1684002539529084600,12.472485107421877,0.6473438143572356,0.1370887756907133,0.12075801191990244
1684002539539126600,12.482527099609374,0.5658563971659765,0.16027832042164483,0.011427015064667059
1684002539549168800,12.4925693359375,0.5044087171807526,0.2096529007747153,-0.11632077403002425
1684002539559210900,12.502611328125,0.44227886200930805,0.21830844871039076,-0.22156716890187986
1684002539569253000,12.5126533203125,0.41775918017002556,0.14098072055492322,-0.28716605901254916
1684002539579295200,12.522695556640626,0.42311543218399106,0.1617536545015167,-0.41752415898581713
1684002539589337300,12.532737548828123,0.4217219649157428,0.1442279816110693,-0.4231858254436309
