time,seconds_elapsed,z,y,x
1683986262942850700,0.030251220703125,2.734318487263452e-11,-3.5198338909783943e-11,-8.980128099348057e-11
1683986262952891600,0.0402919921875,-0.49926292898329305,0.0034599304368457956,-0.21803236005388252
1683986262962932400,0.050332763671875,-1.9329814911187488,0.06639480598868401,-1.604621410363805
1683986262972973200,0.06037353515625,-2.8524966239172436,0.2374248505526636,0.571781158373471
1683986262983014100,0.07041455078125,0.07485973837414378,-1.3993406294866018,4.260003089894367
1683986262993054900,0.080455322265625,1.4476722478032023,-1.4167776107891572,2.531132697957503
1683986263003095700,0.09049609375,2.126057148058072,-1.0580620765359678,0.5765147209279463
1683986263013136600,0.100536865234375,2.945197105439411,-0.6233649253724224,-0.6797518730986816
1683986263023177400,0.110577880859375,2.759202480316064,-0.5416865346990365,1.1830964088719944
1683986263033218200,0.12061865234375,0.30438816542573593,-2.870764732233651,3.291006088178689
1683986263043259100,0.130659423828125,0.8204581738997043,-1.817610740629043,1.1105327604939044
1683986263053299900,0.1407001953125,0.8789345026235323,-0.27313518515252294,0.835566520695015
1683986263063340600,0.1507412109375,2.037370204848188,0.9840788841396155,1.3402667047457
1683986263073381600,0.160781982421875,2.9781761170378527,1.0323734283103385,2.316050529469323
1683986263083422400,0.17082275390625,3.2082138061458934,0.7573127746376918,4.39001512514512
1683986263093463200,0.180863525390625,3.404767274867358,0.7834558488308113,6.602110385891793
1683986263103504000,0.190904541015625,3.440941572129783,0.7713642120602857,8.145676612813359
1683986263113544900,0.2009453125,2.9783289432716304,1.30266189571721,8.724157333478455
1683986263123585600,0.210986083984375,2.063638210224599,2.2984685897127477,8.264863014152581
1683986263133626600,0.22102685546875,0.7039453982558534,2.87657546993093,7.251432895658015
1683986263143667400,0.23106787109375,-0.5819072724149894,3.4872555732778565,6.513133048953736
1683986263153708200,0.241108642578125,-1.6901271342838293,4.251137733309497,6.471375465424517
1683986263163749000,0.2511494140625,-2.6214461326243135,5.028483390690234,6.174674987728355
1683986263173789900,0.261190185546875,-4.424423694655717,5.764150619513973,5.52101135266797
1683986263183830600,0.271231201171875,-5.692120552040117,6.411375045741932,4.406382560704022
1683986263193871600,0.28127197265625,-7.310454845377084,6.603807449234726,2.8486032485570454
1683986263203912400,0.291312744140625,-11.922598838990165,5.531687736384915,-0.1309375762090666
1683986263213953200,0.301353515625,-11.636129379290583,3.98137187956715,-1.861900329505825
1683986263223994000,0.31139453125,-7.802426814935653,3.4228191376580677,-1.0486936568980827
1683986263234034900,0.321435302734375,-3.6882219314703,3.5887227059150213,-0.828747749261781
1683986263244075600,0.33147607421875,1.8533992766358305,3.5863428115935756,-2.3203401566821755
1683986263254116600,0.341516845703125,1.9927189349878442,1.6765162944879564,-2.461424827638325
1683986263264157600,0.35155810546875,3.5285832880395636,0.2312893867631718,-4.0149068833956
1683986263274198400,0.361598876953125,5.240725517187846,-0.9639968870810981,-5.527729511288287
1683986263284239300,0.3716396484375,6.3206667899566105,-1.7055661678549587,-5.865562439063142
1683986263294280100,0.381680419921875,7.229840278740029,-2.2286319731573827,-5.867248058330433
1683986263304320900,0.391721435546875,7.356091022628493,-3.2786998748516067,-6.47290134445533
1683986263314361800,0.40176220703125,6.135883331239027,-3.011988401357969,-7.679320335278511
1683986263324402600,0.411802978515625,3.2505612373546957,-2.105372190453983,-6.573772907263964
1683986263334443400,0.42184375,0.72919964784641,-2.1651396751902237,-6.030260086227703
1683986263344484300,0.431884765625,-1.7344172001096603,-3.182315587943193,-4.629083633401107
1683986263354525100,0.441925537109375,-0.3642326594420909,-2.2550125122257976,-4.054203510270276
1683986263364565900,0.45196630859375,1.2620134354494421,0.03918075576426829,-3.9062309266697057
1683986263374606800,0.462007080078125,-0.27199804793609167,-0.6450242995493284,-1.48164892194951
1683986263384647600,0.472048095703125,-0.6987996102396393,1.4907321928778974,-0.22333621989674468
1683986263394688400,0.4820888671875,1.5109564064644436,-0.7720751762105613,2.3455104829006945
1683986263404729300,0.492129638671875,2.5699546338070736,-1.9079015254639968,2.891467094429512
1683986263414770100,0.50217041015625,4.297879219053886,-3.0712625981034893,1.5181665419576336
1683986263424810900,0.51221142578125,5.145237922712407,-2.8680696487736625,0.508088111852319
1683986263434851800,0.522252197265625,5.992760181439989,-2.9571599961633046,1.7371606827090922
1683986263444892600,0.53229296875,5.69240808477078,-3.1508381366941007,2.402568817184385
1683986263454933400,0.542333740234375,5.07689714431217,-1.5369749068402836,2.933208465636327
1683986263464974300,0.552374755859375,2.8947129249236387,-2.818445682554577,3.80293846121366
1683986263475015100,0.56241552734375,1.1439412832847908,-0.7244036197329053,3.495471954455262
1683986263485055900,0.572456298828125,-0.8304430247913581,1.1126682759135111,3.1131677627460603
1683986263495096800,0.5824970703125,-2.6928203107034983,1.127063512910089,2.50903034209313
1683986263505137600,0.5925380859375,-2.1862831115850514,1.1995880603311684,1.0452604292851586
1683986263515178400,0.602578857421875,-1.4877493382431504,0.6114618776928881,-1.1836729048348318
1683986263525219200,0.61261962890625,-0.2962075472710706,0.8508517742150974,0.668984413123363
1683986263535260100,0.622660400390625,0.08562827114307042,1.6897743941726864,0.9638624192347578
1683986263545300900,0.632701416015625,0.8119869231545321,1.4679055213827075,0.6696691512846001
1683986263555341700,0.6427421875,1.5847772360416643,1.7946898938015043,-0.01005744937547105
1683986263565382600,0.652782958984375,1.9417971372507357,1.5909264087287696,-0.7350406645650148
1683986263575423400,0.66282373046875,2.250505685655147,2.0640883446437153,-2.0942296981824766
1683986263585464200,0.67286474609375,1.811111688684537,0.7776021957228125,-0.8988084792725081
1683986263595505100,0.682905517578125,0.9929866194678286,-0.10827589039415458,0.11350250226041542
1683986263605545900,0.6929462890625,1.2775809764510744,0.126438617753098,0.41296386734761265
1683986263615586700,0.702987060546875,1.9741084575232675,0.39896583559407345,0.34638786320752873
1683986263625627600,0.713028076171875,2.0671312808862172,0.17582273478288757,-0.2532377242598263
1683986263635668400,0.72306884765625,1.4483221768764967,-0.6649744510283796,-1.0742130279339992
1683986263645709200,0.733109619140625,1.1795289515957372,-1.795006752010553,-2.073040962225331
1683986263655750100,0.743150390625,0.8110133409505594,-3.348316669535498,-3.319512844041259
1683986263665790900,0.75319140625,0.4558858871635306,-4.634418487642534,-3.9147839547516314
1683986263675831600,0.763232177734375,0.2914800644759813,-5.6399698258369035,-3.982108592839476
1683986263685872600,0.77327294921875,0.7215733527337338,-6.538259029413461,-4.245386123571991
1683986263695913400,0.783313720703125,2.8985230923570757,-6.696378707932284,-4.814190387664474
1683986263705954200,0.793354736328125,2.1469752788016447,-5.964795112538195,-2.444865703689163
1683986263715995100,0.8033955078125,2.3853454589707104,-5.196207523319175,-0.7028884887495848
1683986263726035900,0.813436279296875,1.9919317959949898,-4.710807323320814,2.015246391389903
1683986263736076600,0.82347705078125,1.3182885646472633,-4.743255615196381,3.282432556145633
1683986263746117600,0.83351806640625,1.1272487641746982,-4.030196190003719,4.894905090391646
1683986263756158400,0.843558837890625,1.022501230097567,-3.247510910037883,5.405269622674386
1683986263766199200,0.853599609375,1.3793468473929686,-1.9123530387491146,3.4935102464000773
1683986263776240000,0.863640380859375,-1.4232389926105555,-1.6208348274403233,1.0803384781612873
1683986263786280900,0.873681396484375,-3.685954093929652,-1.434526443363522,-0.7397127151182302
1683986263796321600,0.88372216796875,-5.693049907731014,-1.8862452508492635,-1.513612270427625
1683986263806362600,0.893762939453125,-3.096595764172542,-1.8529834746829146,-2.0016207695167405
1683986263816403400,0.9038037109375,0.25388479236173606,-0.9855427740951752,-3.0583176612385183
1683986263826444200,0.9138447265625,1.1805536748396677,-2.533677101170037,-3.3758187294015247
1683986263836485000,0.923885498046875,0.9704349040832223,-2.852218627953942,-2.649059295733695
1683986263846525900,0.93392626953125,0.9024088382753017,-1.7153820991529374,-2.205636978066949
1683986263856566600,0.943967041015625,1.0772864819388146,-0.4263696671353743,-1.965922832501318
1683986263866607600,0.954008056640625,1.236775398111359,0.6531105041550032,-1.9840679168510296
1683986263876648400,0.964048828125,1.3547334670843991,1.2057909963847202,-1.9598994254590314
1683986263886689200,0.974089599609375,1.6208195686466809,1.1964673996255968,-1.7326226233223527
1683986263896730000,0.98413037109375,1.8038823605935008,1.3290171623384557,-0.8508186340758419
1683986263906770900,0.994171142578125,1.812466859756632,1.5597267150557834,0.1263084411642783
1683986263916811600,1.004212158203125,1.6061067581497612,1.7594676016902728,0.4972538949152982
1683986263926852600,1.0142529296875,1.3206083775460238,1.8123574255349708,0.21972846986070593
1683986263936893400,1.024293701171875,1.1345410346281821,1.4505023956902103,-0.11712884897051404
1683986263946934200,1.03433447265625,1.0799956323179596,0.9812712668384658,-0.3939075469100357
1683986263956975000,1.04437548828125,1.0990395545927372,0.4453940391312718,-0.49751281720821
1683986263967015900,1.054416259765625,1.2525033949975057,-0.18996000281929054,-0.5954174996333121
1683986263977056600,1.06445703125,1.6598856449797617,-0.48706769939160627,-0.6159410477720998
1683986263987097600,1.074497802734375,2.2738845347622867,-0.040441513085771395,-0.2032852173444769
1683986263997138400,1.084538818359375,2.536045789743183,0.6644797324827192,-0.0029387473934651205
1683986264007179200,1.09457958984375,2.5964672565092157,1.1879806518322371,-0.27882862091523336
1683986264017220000,1.104620361328125,2.4288399221268975,1.3469977379496543,-0.6270608901787954
1683986264027260800,1.1146611328125,2.0248427392346127,1.2171139717085944,-1.0783193111947134
1683986264037301600,1.1247021484375,1.3377995491854069,0.9522905349813136,-1.211750268943047
1683986264047342600,1.134742919921875,-0.23169708260312866,0.8926467894653968,-1.3239264486699507
1683986264057383300,1.14478369140625,-2.3231453896430736,0.7981882095019516,-1.117375612242405
1683986264067424200,1.154824462890625,-2.7776312827928176,0.871245860940035,-0.6398596764234508
1683986264077465000,1.164865478515625,-1.5930666922288765,1.2054195402452126,-0.18407154086304486
1683986264087505800,1.17490625,-0.36358785621771456,1.7207217216572557,0.015874385846297356
1683986264097546600,1.184947021484375,0.4781451224793754,2.3003249168662965,0.054735660519440676
1683986264107587600,1.19498779296875,0.8901185989535,2.1978235244918194,-0.027628898631336645
1683986264117628300,1.20502880859375,0.8631815912282401,1.8989391327485992,-0.40407705305505937
1683986264127669200,1.215069580078125,0.6529040335847617,1.7423100470207946,-1.228731870577663
1683986264137710000,1.2251103515625,0.6698989868340567,1.732751369341499,-1.7592389583872603
1683986264147750800,1.235151123046875,0.8117473125452197,1.749630451283328,-1.289358138998585
1683986264157791600,1.245192138671875,0.6891915798104575,1.8021926880201,-0.6985826491774385
1683986264167832600,1.25523291015625,0.566037178153107,1.8447456361603232,-0.45737981804531236
1683986264177873300,1.265273681640625,0.7202045916714536,1.9425692559887349,-0.13762426379156825
1683986264187914200,1.275314453125,0.6888813972002544,1.9497570992187991,0.17122316365824936
1683986264197955000,1.28535546875,0.5057091712705013,1.8779916764173648,0.3690605164797239
1683986264207995800,1.295396240234375,-0.09452772137943906,1.6358742714973908,0.5803771019451419
1683986264218036600,1.30543701171875,-0.7103359699492973,0.9765224456466317,0.8490653037673211
1683986264228077600,1.315477783203125,-0.682882308855425,0.5191693306144836,1.0122542380623412
1683986264238118300,1.325518798828125,-0.24635338788287212,0.4309873580303768,0.9250359534345134
1683986264248159200,1.3355595703125,-0.07913470277457159,0.3224101067687182,0.769390106141723
1683986264258200000,1.345600341796875,-0.2118229865658183,0.4003634453523626,0.40816569315633866
1683986264268240800,1.35564111328125,-0.15939497938034125,0.7191677092868498,0.043286323594296745
1683986264278281600,1.36568212890625,-0.002425670511260785,0.9784774780384198,-0.34464240065259216
1683986264288322600,1.375722900390625,0.3476791381725815,1.2287564278370582,-0.5045843125885165
1683986264298363300,1.385763671875,0.7979571820413426,1.5059661865388945,-0.29578256592590885
1683986264308404100,1.395804443359375,1.0354238748571036,2.0644922255113918,0.10467290894141434
1683986264318445000,1.405845458984375,1.4660258292914008,2.8673739432925323,0.12514471994882567
1683986264328485800,1.41588623046875,1.5164614914689523,2.7454276085650147,1.4036880732674286
1683986264338526600,1.425927001953125,1.040049910437166,1.460426330543704,2.827461004244106
1683986264348567600,1.4359677734375,0.8900405168002157,-1.5183115005375696,2.5644693374993195
1683986264358608300,1.4460087890625,-0.18539929395614785,-6.232297897415854,0.1563784032444592
1683986264368649100,1.456049560546875,-1.8916723729073375,-11.727372169450756,-3.0022373199975663
1683986264378690000,1.46609033203125,-1.3263869284807566,-15.444459915265059,-4.486677169761644
1683986264388730800,1.476131103515625,0.025295615059667338,-13.989912986673499,-1.4495279789955948
1683986264398771600,1.486172119140625,0.8764222860181965,-10.835298538151719,1.6021013259848402
1683986264408812500,1.496212890625,0.1906869411467375,-7.380443573048395,2.90465712554744
1683986264418853300,1.506253662109375,-0.2216076254899712,-3.10035991672228,1.7286174298905534
1683986264428894100,1.51629443359375,-0.7971040009432259,0.04698753344325939,0.6496334075250694
1683986264438935000,1.52633544921875,-1.592908143843633,2.3863859176180373,-1.2314496039201752
1683986264448975800,1.536376220703125,0.06728363035866204,3.8833932876857165,-2.328461170160469
1683986264459016600,1.5464169921875,2.7379748819752803,4.556723117786988,-2.4575662611529654
1683986264469057500,1.556457763671875,4.397833824160179,5.216080188783085,-2.842024326467357
1683986264479098300,1.566498779296875,4.999328613309454,5.224418640161479,-3.092922687475478
1683986264489139100,1.57653955078125,5.137350082284895,5.003503799494873,-3.8591852188218736
1683986264499180000,1.586580322265625,4.834420680905423,4.2873082161245994,-4.40290355684968
1683986264509220800,1.59662109375,4.473692416983463,3.320983886556299,-4.535739898746326
1683986264519261600,1.606662109375,4.272136211538903,2.5371437073979233,-4.33968925476018
1683986264529302400,1.616702880859375,3.980002403305572,1.887989044180237,-4.138101577697683
1683986264539343300,1.62674365234375,3.490098953243538,1.2446541784748044,-4.03138875948444
1683986264549384100,1.636784423828125,2.986269474113702,0.8083600999384224,-3.988390445793157
1683986264559424900,1.646825439453125,2.4350087643293823,0.6576709747316398,-3.7632532118357864
1683986264569465800,1.6568662109375,2.013414144432565,0.6116695402812237,-2.7657198905463107
1683986264579506600,1.666906982421875,1.717676401105659,0.6686048509205098,-2.047477245353496
1683986264589547400,1.67694775390625,1.5828975438191275,0.6058845519471012,-1.7397408486090005
1683986264599588300,1.68698876953125,1.0948134659203737,0.505626678512413,-1.322775363908219
1683986264609629100,1.697029541015625,0.3548343777884934,0.6475324629827655,-0.5774145126757638
1683986264619669900,1.7070703125,-0.37567010530492206,1.0730962752934592,0.1023859978584799
1683986264629710800,1.717111083984375,-1.2051260471133882,1.1540684699809842,0.7464847565013822
1683986264639751600,1.727152099609375,-2.2618145943108785,0.9734020233274083,1.3368678093477098
1683986264649792400,1.73719287109375,-2.84316587446067,0.8269510267405763,1.610976219163823
1683986264659833300,1.747233642578125,-2.1462831498049666,1.0395221709907247,1.559080123893892
1683986264669874100,1.7572744140625,-0.8241283895162141,1.412562370306791,1.2155320645657173
1683986264679914900,1.7673154296875,0.09942573308107525,1.430881500226254,0.9598088265698209
1683986264689955800,1.777356201171875,0.6492355467240869,1.0429892539449004,0.5715913772953876
1683986264699996600,1.78739697265625,1.014624714753113,0.3170843123552745,0.33671665193293754
1683986264710037400,1.797437744140625,1.1657652853889109,-0.42674922939515986,0.2836689949840066
1683986264720078300,1.807478759765625,1.22883033753705,-0.6350746154553395,0.7042808532945993
1683986264730119100,1.81751953125,1.1777921915150655,-0.7058811187852335,1.075536727779928
1683986264740159900,1.827560302734375,1.053347468236371,-1.01750755293982,0.919485092110063
1683986264750200800,1.83760107421875,0.8565209507792363,-1.2688694000680427,1.0379700659215219
1683986264760241600,1.84764208984375,0.5030039549801809,-1.3482418059494095,1.5280880926456604
1683986264770282400,1.857682861328125,0.13051706546471373,-1.4050483705463856,1.9825038909180337
1683986264780323200,1.8677236328125,-0.20428347583859732,-0.9481639862820738,2.6437056063941253
1683986264790364100,1.877764404296875,-0.21391564604737545,-0.06494998938396909,2.642306089298698
1683986264800404900,1.887805419921875,-0.17122769351102843,0.6603374479889587,1.8902146816009824
1683986264810445700,1.89784619140625,-0.4420360924081874,0.3435416222725093,0.6164803505507376
1683986264820486600,1.907886962890625,-0.5834782719884319,-0.38566780104777043,-0.10571193701259483
1683986264830527400,1.917927734375,-0.8351980449181483,-0.7389936447475391,0.37236070627971
1683986264840568200,1.92796875,-1.1760812997564967,-0.7833700179170741,0.48777341839582805
1683986264850609100,1.938009521484375,-1.3596017360945247,-0.6372957230066205,0.2583484650143354
1683986264860649900,1.94805029296875,-1.5277559756649517,-0.7481803894057258,0.15044975293650065
1683986264870690700,1.958091064453125,-1.560110330421813,-1.0199413299712103,0.3287801742548678
1683986264880731600,1.968132080078125,-1.4311054944609887,-1.3577060700769612,0.48187303533636533
1683986264890772400,1.9781728515625,-1.2087602615046804,-1.7542381286830886,0.564733505330173
1683986264900813200,1.988213623046875,-0.9923741816682707,-2.0831069945170424,0.6614465714784167
1683986264910854100,1.99825439453125,-0.9164406061479453,-2.3725328446410026,0.6747665404444328
1683986264920894900,2.00829541015625,-1.0094133615516385,-2.6194992066027116,0.5615978240613196
1683986264930935600,2.018336181640625,-1.238651871663548,-2.6694612503041504,0.3456654549823357
1683986264940976600,2.028376953125,-1.4701037407178652,-2.4075222015662336,0.16159677515248544
1683986264951017400,2.038417724609375,-1.6945701836871756,-2.088380813504104,0.08565282817594828
1683986264961058200,2.048458740234375,-1.761073470010262,-2.24518680568356,0.16916990289533917
1683986264971099100,2.05849951171875,-1.6743193864577328,-2.891505241481214,0.3783912658772144
1683986264981139900,2.068540283203125,-1.627831816656297,-3.4203338623550454,0.8609032632051101
1683986264991180600,2.0785810546875,-1.7692449092879126,-3.595282554685416,1.6809253690889168
1683986265001221600,2.0886220703125,-2.2704472541465246,-3.4832792280283815,2.594006061462805
1683986265011262400,2.098662841796875,-2.541462659932633,-3.1837987899394764,3.536962509143739
1683986265021303200,2.10870361328125,-2.5485334396542165,-2.741506576505875,3.863784790189029
1683986265031344000,2.118744384765625,-2.6706733704623713,-2.4464139938048213,3.8769598007288506
1683986265041384900,2.128785400390625,-3.023160219191951,-2.3693370819169135,4.023791790040437
1683986265051425600,2.138826171875,-3.2204041482454158,-2.108094215267491,4.094436645581002
1683986265061466600,2.148866943359375,-3.357895135876133,-1.7661952971773291,3.62822031963993
1683986265071507400,2.15890771484375,-3.7400536536397997,-1.8581237792194303,1.355503082220395
1683986265081548200,2.168948486328125,-3.618655204683074,-1.9458131791536886,-1.5406756401507993
1683986265091589000,2.178989501953125,-2.41677665697823,-1.81073951723239,-4.17810153968857
1683986265101629900,2.1890302734375,-0.45031428341157026,-1.6994304655431984,-5.8439564703647795
1683986265111670600,2.199071044921875,1.3999948499967765,-1.8656320571036744,-6.784836769166642
1683986265121711600,2.20911181640625,3.095791339834758,-2.1207571028859613,-7.47995471942499
1683986265131752400,2.21915283203125,4.57401657113672,-1.9969730376380945,-7.881005287219233
1683986265141793200,2.229193603515625,5.3885526658440375,-1.430475234997229,-7.927898406970308
1683986265151834000,2.239234375,5.357718467691252,-0.7064504623229102,-7.383767128075785
1683986265161874900,2.249275146484375,5.351785659877439,0.7151889800115393,-6.0554080009352305
1683986265171915600,2.259316162109375,5.0497655868580456,2.0612106323067234,-3.6802871228347587
1683986265181956600,2.26935693359375,4.4249610900470095,2.5243024826010876,-1.0672085286883748
1683986265191997400,2.279397705078125,3.8400564194572047,2.7300143240923975,0.12875723832652372
1683986265202038200,2.2894384765625,2.8683009149176817,2.710376739406089,0.9663505553806208
1683986265212079000,2.2994794921875,0.9584769011250838,2.190205573999603,1.8385356663235248
1683986265222119900,2.309520263671875,-0.5644714830627079,1.7997221947596074,2.203632831656042
1683986265232160600,2.31956103515625,-0.7574918269867478,1.6911001205832934,2.060620784747348
1683986265242201600,2.329601806640625,-0.09005093573092317,1.7737727165568151,1.19596076010627
1683986265252242400,2.339642822265625,0.43823552131380467,1.8277945517789087,0.15761446956324182
1683986265262283200,2.34968359375,0.8782715798596185,2.1013126372473696,-0.3676743508589511
1683986265272324000,2.359724365234375,1.3052725792581852,2.331798553319128,-0.6262013912215633
1683986265282364800,2.36976513671875,1.7071803808935886,2.545022964375325,-0.986165046546386
1683986265292405600,2.37980615234375,2.0043520926471694,2.9086971281599157,-1.5023710726963633
1683986265302446600,2.389846923828125,2.463129520277631,3.493237972413785,-1.7845747472652946
1683986265312487300,2.3998876953125,3.080611705714091,4.219360828310371,-1.886604309128514
1683986265322528200,2.409928466796875,3.568473100655513,4.99190902714717,-1.9025273322669964
1683986265332569000,2.419969482421875,3.775157689972183,5.649097919605428,-1.8679509162810501
1683986265342609800,2.43001025390625,3.531499862749805,6.148501396114526,-1.7821331024234006
1683986265352650600,2.440051025390625,3.084300994837485,6.509608268728869,-1.5560986995154775
1683986265362691600,2.450091796875,2.6264259813709265,6.680611133510731,-1.1355652810809371
1683986265372732300,2.4601328125,2.3435466288783497,6.750166416157798,-0.6689782142862433
1683986265382773200,2.470173583984375,2.2326388358077347,6.387228489057232,-0.5036504269247994
1683986265392814000,2.48021435546875,1.4989370109194138,5.65618705765041,-1.0886869430129713
1683986265402854800,2.490255126953125,-0.1909484863579755,4.7270045280128254,-1.8918709753750789
1683986265412895600,2.500296142578125,-1.4444022179468068,3.492029190153237,-2.0299754142350697
1683986265422936600,2.5103369140625,-1.4098513127254642,1.7287974357641844,-1.5295126438272029
1683986265432977300,2.520377685546875,-1.4372282027077639,-0.2552204131691333,-1.5672714709585667
1683986265443018200,2.53041845703125,-2.3039386272596025,-2.611699104241023,-1.1578090191702113
1683986265453059000,2.54045947265625,-4.776505470235117,-5.135882377626512,0.013850688928946002
1683986265463099800,2.550500244140625,-7.693101882924121,-7.384181022752607,2.1157267092795333
1683986265473140600,2.560541015625,-8.056849479654604,-8.871189117592902,4.173513412458944
1683986265483181600,2.570581787109375,-6.220755576919751,-8.949396133457899,5.597372054984232
1683986265493222300,2.580622802734375,-3.5254836082397563,-8.200502395597546,6.133526325213824
1683986265503263200,2.59066357421875,-1.3236346245217294,-7.257184982330403,5.540070056813342
1683986265513304000,2.600704345703125,0.36464071264571524,-5.547208785969855,3.7296504974352036
1683986265523344800,2.6107451171875,1.5768804551085547,-2.7078399659058943,1.4827857018375061
1683986265533385600,2.6207861328125,2.2240552902468744,0.6096954345628229,-0.020183801777602657
1683986265543426600,2.630826904296875,2.3709421158368222,3.2379040717845746,-0.5349864960754179
1683986265553467100,2.640867431640625,2.5175039768753504,4.8648085594768515,-0.4350166320096247
1683986265563507900,2.650908203125,2.360836028989021,5.863364219620341,0.041222095443368884
1683986265573548600,2.66094921875,2.0313341618027905,6.015744685999764,0.48325228684299754
1683986265583589600,2.670989990234375,1.8551542759264585,4.829275131145434,-0.4449298381663739
1683986265593630400,2.68103076171875,1.807983517714537,2.921488285118674,-2.1247758865670754
1683986265603671200,2.691071533203125,1.359309673412531,0.6526145936133599,-3.79226398481823
1683986265613712300,2.70111279296875,0.05411577223958606,-1.942029952930097,-5.214690685345179
1683986265623753100,2.711153564453125,-0.9753913880833517,-4.710265159702567,-6.085353374311327
1683986265633794000,2.7211943359375,-2.177309274495862,-7.195973396395415,-6.567766666595659
1683986265643834800,2.731235107421875,-4.9283237458487275,-9.63977527611741,-5.986002445070854
1683986265653875600,2.741276123046875,-2.0276608467251447,-8.98267269138613,-5.1198272706001715
1683986265663916500,2.75131689453125,0.8777954578916862,-6.745787620596227,-4.997549533895261
1683986265673957000,2.761357421875,2.6067147255154466,-3.5619564056944935,-4.097168922505458
1683986265683997900,2.771398193359375,3.404784679321316,-0.7308349608997364,-2.6431369781601606
1683986265694038600,2.781439208984375,3.3971676826235297,1.5983967782493045,-1.5697965620624854
1683986265704079600,2.79147998046875,3.1231231688689443,3.2473301889125668,-0.28592014305994745
1683986265714120400,2.801520751953125,2.8293066024603206,4.415407657525874,0.7279491423832534
1683986265724161200,2.8115615234375,2.546639919163257,5.389334201813134,1.450882434873455
1683986265734202000,2.8216025390625,2.138919353433709,6.267432212826807,1.8980107307290712
1683986265744242900,2.831643310546875,-0.5838900804844811,9.632321357628625,1.8923437595793688
1683986265754283600,2.84168408203125,-2.5524106025914257,9.816856384274415,0.8256940840349993
1683986265764324600,2.851724853515625,-2.5088770389966104,7.687197685365105,0.166966915071888
1683986265774365400,2.861765869140625,-0.49653160582341904,4.728911876621353,-0.2576985358715908
1683986265784406200,2.871806640625,1.743304133369684,2.1690683365582117,-0.41804170593600437
1683986265794447000,2.881847412109375,2.99594783779957,0.4030656813126285,-0.9494295119948308
1683986265804487900,2.89188818359375,3.4628562927647155,-1.4223423005284703,-1.7911119461204055
1683986265814528600,2.90192919921875,3.9362840653190845,-2.8873500822998133,-2.626860141846709
1683986265824569600,2.911969970703125,4.390529155771095,-3.13214588167921,-2.2373576163605318
1683986265834610400,2.9220107421875,4.602505684003258,-2.2173032760375757,-0.8059105872777337
1683986265844651200,2.932051513671875,4.839140415092701,-0.9414501190770552,-0.20778894438513565
1683986265854692000,2.942092529296875,4.912223815917582,-0.027697563129800002,-0.11685371406046675
1683986265864732800,2.95213330078125,4.617542743570597,0.44258022318350815,0.053963661200273814
1683986265874773600,2.962174072265625,4.113536834655464,0.6383910178041795,0.23876428604514255
1683986265884814600,2.97221484375,3.64005947094259,0.7354383467772434,0.41261196123501703
1683986265894855300,2.982255859375,3.0832364558281173,0.5384101868993382,0.7452917099455387
1683986265904896200,2.992296630859375,1.6050916910243347,0.22280120837074033,0.9025397300180844
1683986265914937000,3.00233740234375,0.2761620281679183,0.06021308885988602,0.7929964067183642
1683986265924977800,3.012378173828125,-0.8742707968190694,-0.04924297331176733,0.8043885230740706
1683986265935018600,3.022419189453125,-2.045740604258724,-0.15734004986033714,0.928940773035347
1683986265945059600,3.0324599609375,-2.7585291863114545,-0.0515747070232411,1.029345512367128
1683986265955100300,3.042500732421875,-2.648866176695133,0.3193645477340703,0.9090814590541589
1683986265965141200,3.05254150390625,-2.0871529577652708,0.4494738578740608,0.5295867918384762
1683986265975182000,3.06258251953125,-1.4743497371833671,0.4825763701814506,-0.02775621420235784
1683986265985222800,3.072623291015625,-0.9571181536654338,0.38268423080317376,-0.3485617638535816
1683986265995263600,3.0826640625,-0.6208485960971735,0.2671737670500618,-0.29898214338710705
1683986266005304600,3.092704833984375,-0.5811781286465283,0.04850006089023511,-0.14306068420303497
1683986266015345300,3.102745849609375,-0.5892378091910911,-0.10788822170003248,0.0866880416925168
1683986266025386200,3.11278662109375,-0.48322987559425035,-0.26374530792089046,0.32215118400064624
1683986266035427000,3.122827392578125,-0.2522245646119978,-0.3728895186476947,0.6754374504550237
1683986266045467800,3.1328681640625,0.09216248979674195,-0.376845836815326,1.0535879135652875
1683986266055508600,3.142908935546875,0.43632239099164816,-0.3253164291350071,1.3231797219453192
1683986266065549600,3.152949951171875,0.7318212986596169,-0.4143133161650928,1.4687285423800525
1683986266075590300,3.16299072265625,0.9047154189159738,-0.6103773117504152,1.4724640845167125
1683986266085631200,3.173031494140625,0.9333228469571054,-0.8821582794614231,1.4525394440058548
1683986266095672000,3.183072265625,0.6926658153552349,-1.1194639207195007,1.3081564902677603
1683986266105712800,3.19311328125,0.19953393940772068,-1.28565645213864,1.2376570700074039
1683986266115753600,3.203154052734375,-0.29177361737366825,-1.4261240959632426,1.0920743942043007
1683986266125794600,3.21319482421875,-0.747436881139392,-1.6648001671996457,1.0518584253165555
1683986266135835300,3.223235595703125,-1.1534889936794348,-1.9461903572458585,1.01256084443085
1683986266145876100,3.233276611328125,-1.5459074975368066,-2.093997478558895,0.940420150714991
1683986266155917000,3.2433173828125,-1.9051828385324892,-2.1955475807703495,0.9840068815976218
1683986266165957800,3.253358154296875,-2.1612467766288472,-2.2152128219446463,1.0366964339597324
1683986266175998600,3.26339892578125,-2.290626049065109,-2.2266364097628686,1.0900893210948825
1683986266186039500,3.27343994140625,-2.3493521213153277,-2.314548015589708,1.1837706566171924
1683986266196080300,3.283480712890625,-2.3800349236891924,-2.5316877365537764,1.234974384205452
1683986266206121100,3.293521484375,-2.3902020453423676,-3.00759458549657,1.1180181502409288
1683986266216162000,3.303562255859375,-2.3473389148822554,-3.7010302544662794,0.8892254828827878
1683986266226202800,3.313603271484375,-2.315606117330845,-4.179330825902545,0.9264006615166631
1683986266236243600,3.32364404296875,-2.342950344137082,-4.45638179791693,1.3153252602441545
1683986266246284500,3.333684814453125,-2.60281085977933,-4.451940059656424,1.8877320290430832
1683986266256325300,3.3437255859375,-3.0381152630685238,-4.443209648135281,2.43507313729681
1683986266266366100,3.3537666015625,-3.460400342954771,-4.4754247666103755,2.915713787244118
1683986266276407000,3.363807373046875,-3.69810128211643,-4.048727035451194,3.5546433925580025
1683986266286447800,3.37384814453125,-3.9467036725752234,-3.3421607017091763,4.006232261767843
1683986266296488600,3.383888916015625,-4.576118469357155,-2.357404708766351,4.056774616368785
1683986266306529500,3.393929931640625,-5.173967361369942,-1.220189094570572,3.161072015792123
1683986266316570300,3.403970703125,-4.976142406295274,-0.04779243467766679,1.4906988144037745
1683986266326611100,3.414011474609375,-4.3010540007413365,0.6307334898283108,-0.1381082534962511
1683986266336652000,3.42405224609375,-3.055647849994606,0.33491230023387825,-2.0318675039961844
1683986266346692800,3.43409326171875,-0.9328758717211763,-0.3260383604435761,-4.046780586314862
1683986266356733600,3.444134033203125,1.5782165526882523,-0.9713563919067723,-5.240620136190543
1683986266366774400,3.4541748046875,3.824488639852867,-1.621417045674324,-5.381670951950345
1683986266376815300,3.464215576171875,5.778856754273768,-2.194140434226425,-5.857866287121903
1683986266386856100,3.474256591796875,8.014364242588695,-2.2643899917054986,-6.702553749248849
1683986266396896900,3.48429736328125,8.508046150159059,-1.6759519577077446,-8.346767425500687
1683986266406937600,3.494337890625,8.377374649083583,-0.678200721595821,-8.8110609054252
1683986266416978400,3.504378662109375,7.7791852951460365,0.11308956145838774,-7.639317512651652
1683986266427019200,3.514419677734375,7.464750766920655,0.8612451554148786,-4.949317455263352
1683986266437060300,3.524460693359375,6.482817649776581,1.486213684085969,-2.494874000550365
1683986266447101100,3.53450146484375,5.167883396152382,1.8041348455863726,-0.7158503531534651
1683986266457141900,3.544542236328125,3.3446993827367435,2.0939626693001725,-0.47552204130318004
1683986266467182800,3.554583251953125,0.10527658465436947,1.8899912832723194,-0.33216810228962595
1683986266477223600,3.5646240234375,-2.4659759998509068,1.3888950347512539,0.3397932052757728
1683986266487264400,3.574664794921875,-2.3085811137150736,1.513764381342671,0.18192577351836361
1683986266497305300,3.58470556640625,-1.2675621510073412,1.9732384680494843,-0.05258798608764217
1683986266507345800,3.594746337890625,0.01583194734402526,2.2083082198393402,0.06877374648685734
1683986266517386600,3.604787109375,1.0625251530842703,2.2990751267342664,0.3081922532421763
1683986266527427600,3.614827880859375,1.8294686078637323,2.418678760617433,0.2616662977573377
1683986266537468300,3.62486865234375,2.570031165983272,2.6288037301398823,0.1828789711628934
1683986266547509200,3.63490966796875,3.233851194210486,2.9496746063050794,0.05012178414522545
1683986266557550000,3.644950439453125,3.7191200255353767,3.3521294594654396,-0.12886047369660908
1683986266567590800,3.6549912109375,3.976042032318273,3.9699897767189567,-0.35808420165899185
1683986266577631600,3.665031982421875,3.898311376697373,4.594374656794053,-0.4684882163891435
1683986266587672600,3.675072998046875,3.5141386986754117,5.265154838472787,-0.6332697868973857
1683986266597713300,3.68511376953125,2.8879120348817136,5.693450927846395,-0.7005643843340819
1683986266607754200,3.695154541015625,2.1016967296157327,5.838223934279115,-0.735229969068036
1683986266617795000,3.7051953125,1.3033378124018113,5.854823589496763,-0.7811732292672042
1683986266627835800,3.715236328125,0.6085369586954296,5.64490318301204,-0.9604053496766203
1683986266637876600,3.725277099609375,-0.19503855703251038,5.180247306905156,-1.153287410805238
1683986266647917600,3.73531787109375,-0.9577679635255546,4.151578903216357,-1.4511213304191164
1683986266657958300,3.745358642578125,-1.1106624603611146,2.6940774918039003,-1.9977035522636946
1683986266667999200,3.755399658203125,-1.72714948666197,0.48522853858037807,-2.150382995701565
1683986266678040000,3.7654404296875,-2.9479923248173323,-2.036682128980966,-1.7315850258202212
1683986266688080800,3.775481201171875,-4.282770633777905,-3.939143180714321,-0.1984128952468521
1683986266698121600,3.78552197265625,-5.106366157667459,-5.0970458984694424,1.67176127430609
1683986266708162600,3.79556298828125,-4.260358810477895,-5.783040046714692,3.1813931464545515
1683986266718203300,3.805603759765625,-3.8111858367754805,-6.1427183151837745,3.992936611292888
1683986266728244100,3.81564453125,-3.010564565701501,-5.709240913307024,4.4053115845258946
1683986266738285000,3.825685302734375,-1.5780758858487676,-4.574703216452246,4.023432731744793
1683986266748325800,3.835726318359375,-0.20568895343076699,-2.861350059395556,2.9911291598533407
1683986266758366600,3.84576708984375,0.9674298762652593,-0.9903402328664873,1.6430842875427065
1683986266768407600,3.855807861328125,1.3149124383194828,0.7224960328202833,0.5061736108519561
1683986266778448300,3.8658486328125,1.139447092899229,2.2700729370478214,0.003970146131168639
1683986266788489100,3.8758896484375,0.8076980114069525,3.4549922943162725,-0.15019130713476153
1683986266798530000,3.885930419921875,0.5456897018835152,4.023875713324552,0.01743793484572814
1683986266808570800,3.89597119140625,0.16001439094097017,4.170395374332637,0.25741386412722195
1683986266818611600,3.906011962890625,-0.47231936444512673,3.8924756050637814,0.3154773712022784
1683986266828652500,3.916052978515625,-0.5556952952650305,2.8184442520021893,-0.31449747089523306
1683986266838693300,3.92609375,0.13200449924832108,1.064759731295463,-1.287957668258959
1683986266848734100,3.936134521484375,0.9953184128547624,-1.0124521255004906,-2.28990888593106
1683986266858775000,3.94617529296875,1.1262377498726888,-2.7897295951495753,-3.5877733230405937
1683986266868815800,3.95621630859375,1.340978860889505,-4.470444679351936,-4.9746937751290154
1683986266878856600,3.966257080078125,1.1707439423461459,-6.223440170383198,-6.5195422171632655
1683986266888897500,3.9762978515625,-1.2517340182558951,-7.999748706880311,-8.157360076989423
1683986266898938300,3.986338623046875,-2.4835991859078717,-9.61034584043958,-7.890934944225633
1683986266908979100,3.996379638671875,0.3465235232593914,-8.169391632014458,-5.661710262272496
1683986266919020000,4.00642041015625,2.4385209083815185,-4.828405380214183,-2.8184046746840035
1683986266929060800,4.016461181640625,3.4259290695245133,-1.659557342567159,-0.9526877404049391
1683986266939101600,4.026501953125,3.787527799577019,0.7600851058037826,-0.057485103637076714
1683986266949142400,4.03654296875,3.6887509824200704,2.5238704681664026,0.516328811661873
1683986266959183300,4.046583740234375,3.2779669760814527,3.77555465693324,1.22982931139381
1683986266969224100,4.05662451171875,2.9337322712663356,4.783861160248531,2.0239150523634617
1683986266979264900,4.066665283203125,2.7993359564493763,5.73532295229886,2.806124925580971
1683986266989305800,4.0767060546875,2.197488784728221,6.597889900216373,3.246967077315743
1683986266999346600,4.0867470703125,1.009106278484027,7.281364440968562,2.8832163809493965
1683986267009387400,4.096787841796875,-0.8141835927794119,7.264361381602431,1.5145878792870768
1683986267019428300,4.10682861328125,-2.111321210818868,5.984019279445842,-0.1481838226160275
1683986267029469100,4.116869384765625,-1.539577960890565,3.837081432313422,-0.6870689391525671
1683986267039509900,4.126910400390625,0.06499731541430281,1.825090408239737,-0.44723081575828577
1683986267049550800,4.136951171875,1.6096031665322017,0.4175395966939759,-0.5661735533398129
1683986267059591600,4.146991943359375,2.562784671788059,-0.6419539451951071,-1.3211493494004647
1683986267069632400,4.15703271484375,3.048813342896937,-1.6514477730416885,-2.328460693329826
1683986267079673300,4.16707373046875,3.373451471377007,-2.3733339308811203,-3.054684638880281
1683986267089714100,4.177114501953125,3.747095108061301,-2.659882068550027,-2.9892263412277913
1683986267099754900,4.1871552734375,4.037686347977122,-2.5311431884844904,-2.214848041587254
1683986267109795800,4.197196044921875,4.150460243317049,-1.919256687103924,-1.1010470390453806
1683986267119836600,4.207237060546875,3.8360848427297745,-1.0105710030213275,-0.48575782769235326
1683986267129877400,4.21727783203125,3.1116828919474675,-0.3476233482612093,-0.5198340415452835
1683986267139918300,4.227318603515625,2.1853280067668366,-0.03467273702765071,-0.07282543183875531
1683986267149959100,4.237359375,0.9833102226462688,0.10851383213297003,0.49379348765450665
1683986267159999900,4.247400390625,-0.5495314597854174,0.2855625153848033,0.8793282508861417
1683986267170040600,4.25744091796875,-1.9043263197663056,0.5054883958175638,1.1112918854163067
1683986267180081300,4.267481689453125,-2.2502059936469916,0.8252153397744582,1.1392040252721078
1683986267190122200,4.2775224609375,-1.6395584343574305,1.0355381965490782,0.9096908568654405
1683986267200163000,4.2875634765625,-0.8007593155099568,1.082362651855541,0.383500099239941
1683986267210203800,4.297604248046875,-0.10373423250873688,1.0437698366009827,-0.17620134347980482
1683986267220244600,4.30764501953125,0.3164455294657466,0.996056556643064,-0.6254324914076445
1683986267230285600,4.317685791015625,0.4432314933176249,0.9628100394650244,-0.8187999725256755
1683986267240326300,4.327726806640625,0.4534515737497491,0.9104866980365658,-0.8646092413775782
1683986267250367400,4.337767822265625,0.5419088601040848,0.8274602890321571,-0.6871428489805699
1683986267260408200,4.34780859375,0.755353689278205,0.6596136094427263,-0.4120945931313846
1683986267270449100,4.357849365234375,0.996687173706812,0.35352993000274413,-0.12506484995802508
1683986267280489600,4.36789013671875,1.2251502275914223,0.046480178858739264,0.17046689982695487
1683986267290530600,4.377930908203125,1.37087333203586,-0.23449087131696122,0.5475807189798783
1683986267300571300,4.3879716796875,1.4154056309396494,-0.4598417283629434,0.866412639625885
1683986267310612100,4.398012451171875,1.3995251656718466,-0.6622853280232064,1.0447959900514256
1683986267320653000,4.408053466796875,1.3170995712788514,-0.8171730039778897,1.1965775488956423
1683986267330693800,4.41809423828125,1.2321431636932287,-0.8785977363251336,1.2874932289690177
1683986267340734600,4.428135009765625,1.119597673480727,-0.8826026917153476,1.3057365416689701
1683986267350775500,4.43817578125,1.0151622295377043,-0.8199348450095725,1.2565026283344018
1683986267360816300,4.448216796875,0.9169657231654504,-0.7359089852515507,1.1349458693897236
1683986267370857100,4.458257568359375,0.8406778575209688,-0.60921382910331,0.8960504531175887
1683986267380898000,4.46829833984375,0.7605168223191486,-0.4498910904631923,0.5429439545596844
1683986267390938800,4.478339111328125,0.6441777944135095,-0.275488853422479,0.1436514854574686
1683986267400979600,4.488380126953125,0.5394883751392592,0.027592658903643128,-0.2599234581065961
1683986267411020500,4.4984208984375,0.40461352464502104,0.3577804564147762,-0.6522574424274242
1683986267421061300,4.508461669921875,0.27314257625806515,0.60685634624032,-1.0730319024279018
1683986267431102100,4.51850244140625,0.2077650130136744,0.719143390635395,-1.442009925721351
1683986267441143000,4.52854345703125,0.1396821438498621,0.751424789324362,-1.650557041145381
1683986267451183800,4.538584228515625,0.09490811822853336,0.7776560784688478,-1.6340818406146504
1683986267461224600,4.548625,0.10040125253411368,0.7384181021962647,-1.4029741286976525
1683986267471265500,4.558665771484375,0.15547937160790248,0.5910620689639097,-1.1013417244731567
1683986267481306300,4.568706787109375,0.3158878086687139,0.34138011925160267,-0.7662582398732797
1683986267491347100,4.57874755859375,0.4984401763229154,0.08595514306214204,-0.39179468150363567
1683986267501388000,4.588788330078125,0.692141413686234,-0.18874502181798863,-0.060322761672119536
1683986267511428800,4.5988291015625,0.874241471253341,-0.41055631635508333,0.15117216119205254
1683986267521469600,4.6088701171875,1.0366077423353615,-0.6057415007326091,0.3191671371921715
1683986267531510400,4.618910888671875,1.1450942755538813,-0.7263579367915994,0.4529838562737499
1683986267541551300,4.62895166015625,1.227532863583616,-0.7962861061118772,0.5452809334536071
1683986267551592100,4.638992431640625,1.2691997289615107,-0.8182673454664942,0.6370058061394253
1683986267561632900,4.649033447265625,1.277204871220772,-0.8355875015962497,0.6805996895769226
1683986267571673800,4.65907421875,1.2664852142444512,-0.8553915023183866,0.7478117941863203
1683986267581714600,4.669114990234375,1.2425563335949925,-0.8229560853126511,0.7767395972820376
1683986267591755400,4.67915576171875,1.2031202316352712,-0.8058533666955628,0.7704792024211086
1683986267601796300,4.68919677734375,1.1519978045535868,-0.7728362082260912,0.850680351270886
1683986267611837100,4.699237548828125,1.0904502867966814,-0.7788262368032675,0.8546490669301318
1683986267621877900,4.7092783203125,1.039489865469706,-0.8097267150578406,0.845006465921091
1683986267631918800,4.719319091796875,0.9937298894292321,-0.834147930148049,0.8214721680382423
1683986267641959600,4.729360107421875,0.9066677687826684,-0.8330106734731769,0.7864766119872207
1683986267652000400,4.73940087890625,0.7466246486333904,-0.8303608895347463,0.7186646463043735
1683986267662041300,4.749441650390625,0.5371510386694553,-0.8711700440473702,0.7084584236286583
1683986267672082100,4.759482421875,0.3198539615977103,-0.9187855721070544,0.7072296142448714
1683986267682122900,4.7695234375,0.16748628016188064,-1.0245637892496091,0.7209415435413506
1683986267692163800,4.779564208984375,0.07962968937513208,-1.2155423163670092,0.6740422248127262
1683986267702204600,4.78960498046875,0.06508032228777146,-1.4681706428440084,0.538570404231424
1683986267712245400,4.799645751953125,0.12989446515471686,-1.6782364845181632,0.36359500895195973
1683986267722286300,4.809686767578125,0.19887611288853294,-1.8387684820209529,0.12795829774835063
1683986267732327100,4.8197275390625,0.20895409577937712,-1.6565685271418646,-0.18668413170784415
1683986267742367900,4.829768310546875,0.11560007190104431,-1.3869957925161098,-0.5619478226322505
1683986267752408800,4.83980908203125,0.012174904348460504,-1.1382527350684377,-1.0044393538960394
1683986267762449600,4.84985009765625,-0.07417920225352528,-0.9015631675434551,-1.3677830694821544
1683986267772490400,4.859890869140625,-0.19727189854569066,-0.6784315109489792,-1.5053081513217264
1683986267782531200,4.869931640625,-0.40697333216759035,-0.42518663396094813,-1.506914615628742
1683986267792572100,4.879972412109375,-0.6418396829403399,-0.1477069855695231,-1.4128613471750162
1683986267802612900,4.890013427734375,-0.7392002940127058,0.15440320972146468,-1.0618233681556608
1683986267812653700,4.90005419921875,-0.6797277925925778,0.6433329580823237,-0.7222509383958782
1683986267822694600,4.910094970703125,-0.5917964576498395,1.1566095353866457,-0.6150031089687376
1683986267832735400,4.9201357421875,-0.4544556737998003,1.417027950216036,-0.5326504707337059
1683986267842776200,4.9301767578125,-0.19486391546505238,1.6453633308061435,-0.5598692893777919
1683986267852817100,4.940217529296875,0.14620053766495428,1.797083377830546,-0.5632114409888895
1683986267862857900,4.95025830078125,0.4528154730967589,1.9525580406859866,-0.6142106056304719
1683986267872898700,4.960299072265625,0.6676371694355463,1.991655826477173,-0.4540281294495299
1683986267882939600,4.970340087890625,0.7605932355484758,1.9806876183648903,-0.1469411849828705
1683986267892980400,4.980380859375,0.6975114345589161,1.8657102585490417,0.24943733216854885
1683986267903021200,4.990421630859375,0.576791763139794,1.5867328642534366,0.5293278695120291
1683986267913062100,5.00046240234375,0.5005848408298472,1.1830458641557313,0.6357369421458152
1683986267923102900,5.01050341796875,0.47923052306552993,0.741603374389704,0.5288224219213307
1683986267933143700,5.020544189453125,0.40244340888684654,0.14226341251553376,0.3411803246373012
1683986267943184600,5.0305849609375,0.24331092823161393,-0.32324695574319484,0.23673725128608786
1683986267953225400,5.040625732421875,-0.047930479189136434,-0.7055759430764663,0.34867429745277595
1683986267963266000,5.050666259765625,-0.44824230684117744,-0.9169025421084497,0.6039242745347192
1683986267973306800,5.060707275390625,-0.9255477190130159,-0.9841885566335951,1.0717110635230942
1683986267983347600,5.070748046875,-1.3827636242885923,-0.9561743736120201,1.426426887440367
1683986267993388500,5.080788818359375,-1.6519660950193482,-0.7976741792634102,1.7723369598867138
1683986268003429300,5.09082958984375,-1.5744631289488085,-0.6647009848035325,1.9709339142179414
1683986268013470100,5.10087060546875,-1.1898236275460543,-0.5069098473370933,2.0161447525929805
1683986268023511000,5.110911376953125,-0.643066883061573,-0.2949948312272431,1.855534076570201
1683986268033551800,5.1209521484375,-0.05725717548451451,-0.15926408762863348,1.6816916465550547
1683986268043592600,5.130992919921875,0.5051602124890637,0.08526039134682631,1.4646735192687867
1683986268053633500,5.141033935546875,0.9987431764238753,0.3045225142327697,1.209456443727016
1683986268063674300,5.15107470703125,1.308969736069377,0.45807981481712784,0.8659420013198275
1683986268073715400,5.16111572265625,1.4832743406055726,0.5221610069646938,0.5533528329583881
1683986268083756200,5.171156494140625,1.479970455096545,0.5041837692890115,0.1759834290764293
1683986268093797000,5.181197509765625,1.396533489200944,0.4220814704914082,-0.09686231614940942
1683986268103837600,5.191238037109375,1.2149317264772168,0.44185209279522797,-0.35379028318227274
1683986268113878400,5.20127880859375,0.9968650341183412,0.6551151276619201,-0.5521140098518917
1683986268123919300,5.211319580078125,0.7580063343807871,0.9185833930989146,-0.9315676689630382
1683986268133960100,5.221360595703125,0.5976678131262358,1.1811475753616654,-1.2222237587075961
1683986268144000900,5.2314013671875,0.5145931242765565,1.3932199477733276,-1.3182415962220453
1683986268154041800,5.241442138671875,0.5292550325658744,1.6362156868750002,-1.1871147155072241
1683986268164082600,5.25148291015625,0.6467716694979749,1.84570074080991,-1.0445046424438666
1683986268174123400,5.26152392578125,0.7785751820352547,1.9757556914543795,-0.9114203451960964
1683986268184164300,5.271564697265625,0.8906799555097266,1.937305450507873,-0.7416615486724966
1683986268194205100,5.28160546875,0.9810575247165582,1.759370803983756,-0.7025575637776641
1683986268204245900,5.291646240234375,0.9864389300420762,1.5182757377783982,-0.6504387854152514
1683986268214286800,5.301687255859375,0.9734848142377909,1.2476243972196162,-0.7219085693149199
1683986268224327600,5.31172802734375,0.8880691528399507,0.9788756370838859,-0.6830248832094857
1683986268234368400,5.321768798828125,0.7186464667292402,0.7627100943847867,-0.6085305213958027
1683986268244409300,5.3318095703125,0.49592047930807887,0.5896878243376442,-0.5463261604110209
1683986268254450100,5.3418505859375,0.2532509565082737,0.5217447279309178,-0.5034484863028755
1683986268264490900,5.351891357421875,0.1142363548766521,0.5870542525382806,-0.4938683509823024
1683986268274531800,5.36193212890625,0.10194456568686883,0.6876525879866281,-0.4817962645406975
1683986268284572600,5.371972900390625,0.18859136114902877,0.8545150756447427,-0.5295510293271118
1683986268294613400,5.382013916015625,0.2453893423052907,0.9604582786373067,-0.6776890756240663
1683986268304654300,5.3920546875,0.26998502003911856,1.0386471747812456,-0.8161139488215722
1683986268314695100,5.402095458984375,0.15501046182493833,1.055449485783746,-0.9684610367268691
1683986268324735900,5.41213623046875,-0.1124459506350777,1.1514301299385703,-1.196140289284839
1683986268334776800,5.42217724609375,-0.352777957864802,1.216455936331402,-1.398212432826511
1683986268344817600,5.432218017578125,-0.48140108577086493,1.2506918907770728,-1.588928699495648
1683986268354858400,5.4422587890625,-0.529423952088851,1.2828755380097,-1.794625282265605
1683986268364899200,5.452299560546875,-0.48279237755609195,1.3224058150851281,-1.7241530418685977
1683986268374940100,5.462340576171875,-0.28920292858724356,1.3906998635471866,-1.4931626318638156
1683986268384980900,5.47238134765625,-0.008843541159059746,1.3683915138754033,-1.274077892343909
1683986268395021700,5.482422119140625,0.2299119234086923,1.2322258948324705,-1.138599395781018
1683986268405062600,5.492462890625,0.386877953856194,1.0619044303293674,-1.0269765853343737
1683986268415103400,5.50250390625,0.4387702943051818,0.9008183477628519,-0.9271545409458964
1683986268425144200,5.512544677734375,0.39108181011905313,0.8007264138848934,-0.8525710106062142
1683986268435185100,5.52258544921875,0.262976705944713,0.7588062287892859,-0.7957687378367546
1683986268445225900,5.532626220703125,0.18093836309546774,0.6844124792803029,-0.6925158501223997
1683986268455266700,5.542667236328125,0.13797986516289767,0.6962800025380148,-0.75057506566323
1683986268465307600,5.5527080078125,0.1286959647332467,0.806992054077795,-0.7200050354238069
1683986268475348400,5.562748779296875,0.12290132035486905,0.8827733992533779,-0.600987911091217
1683986268485389200,5.57278955078125,0.14269673832370885,0.9502072334824732,-0.5082826613425282
1683986268495430100,5.58283056640625,0.165314674367658,0.9733676911025423,-0.4702105523582225
1683986268505470900,5.592871337890625,0.2047492266869595,0.9594988823470306,-0.4029879569200032
1683986268515511600,5.602912109375,0.21609032160264394,0.8729810714316539,-0.3641886711286046
1683986268525552600,5.612952880859375,0.22419846066325405,0.7475199699440906,-0.3563761710713025
1683986268535593400,5.622993896484375,0.2622942925117814,0.6119837761552694,-0.3341684341352926
1683986268545634200,5.63303466796875,0.3241634369452026,0.4806728363555899,-0.34986257544518884
1683986268555675100,5.643075439453125,0.42461681371026466,0.34683370587677786,-0.2982320784104832
1683986268565715900,5.6531162109375,0.5235612394347722,0.23857831958730066,-0.22638320928727235
1683986268575756600,5.6631572265625,0.6216385365928886,0.12779951103499673,-0.18838691696606916
1683986268585797600,5.673197998046875,0.7030078172227886,0.07604360576723598,-0.1345262525890756
1683986268595838400,5.68323876953125,0.7360838054819181,0.033191680905304125,-0.07016181930862882
1683986268605879200,5.693279541015625,0.7651357056005003,-0.0029215813385213073,-0.0005903244996365422
1683986268615920000,5.703320556640625,0.7541265488764274,-0.003637313760122389,0.04993534090184872
1683986268625960900,5.713361328125,0.6930942535427179,0.002418041236460402,0.1025781632909266
1683986268636001600,5.723402099609375,0.6607229709665638,0.03833341598735511,0.13867092120361904
1683986268646042600,5.73344287109375,0.6202075480553944,0.044999599595107506,0.15148496623380328
1683986268656083400,5.74348388671875,0.5751069783940463,0.06513547895055756,0.2265210152030229
1683986268666124200,5.753524658203125,0.49637937550476563,0.1008095742080961,0.2664504052367851
1683986268676165000,5.7635654296875,0.46268582345423753,0.13534927382740558,0.2717471122317107
1683986268686205900,5.773606201171875,0.43397891514492504,0.10763692852424042,0.2687025070089762
1683986268696246600,5.783647216796875,0.43405401702443847,0.08711433421449995,0.19375038145447696
1683986268706287600,5.79368798828125,0.46216952799406563,0.151610851127968,0.15156698240383878
1683986268716328400,5.803728759765625,0.4867035150009752,0.1650948525069717,0.09491729732347703
1683986268726369200,5.81376953125,0.47227168077622567,0.16850852979471512,-0.004218101604765316
1683986268736410000,5.823810546875,0.48077750193131125,0.17348289495405675,-0.046063423226760096
1683986268746450900,5.833851318359375,0.45307481288744095,0.1350975037131834,-0.09740066534005
1683986268756491600,5.84389208984375,0.4065327644319399,0.11499500272931355,-0.13205242154521382
1683986268766532600,5.853932861328125,0.3701394796039175,0.06993532184003913,-0.12884140012254972
1683986268776573400,5.863973876953125,0.3156542776551277,0.011656761261019829,-0.11405086510383826
1683986268786614200,5.8740146484375,0.3395214081125663,-0.022377014005396732,-0.09929847720947245
1683986268796655000,5.884055419921875,0.3668518064692344,-0.02325248733613027,-0.03495216377708047
1683986268806695900,5.89409619140625,0.38978087909558173,0.003699779569352923,-0.022858619827544842
1683986268816736600,5.90413720703125,0.39178133003820115,0.02508211134323082,0.05322074879826456
1683986268826777600,5.914177978515625,0.36407566079706744,0.0668768882790007,0.11212348944502527
1683986268836818400,5.92421875,0.36370086654965245,0.07920360572438886,0.13535785681508544
1683986268846859200,5.934259521484375,0.31944775589887253,0.09332561486122322,0.13050556183319195
1683986268856900000,5.944300537109375,0.28416621669959286,0.0668587685283212,0.1262006758486763
1683986268866940800,5.95434130859375,0.281740427192337,0.09441804887453979,0.011824607972119408
1683986268876981600,5.964382080078125,0.2876473664045417,0.07854747780397867,-0.010567665205644223
1683986268887022600,5.9744228515625,0.29242229463445457,0.050605297093752985,-0.07438468932218292
1683986268897063300,5.984463623046875,0.2991651297459303,0.07723093026716829,-0.08054542540619568
1683986268907104200,5.994504638671875,0.3131353854098716,0.059193134292436576,-0.18115425120328224
1683986268917145000,6.00454541015625,0.28721427923580006,0.0537886618506486,-0.26404094695068453
1683986268927185800,6.014586181640625,0.2828990220781518,0.1170759202507097,-0.3528156281663701
1683986268937226600,6.024626953125,0.31609511373588517,0.15373039237385142,-0.4261379242363833
1683986268947267600,6.03466796875,0.3384854793793516,0.2346076964661262,-0.46281814574495184
1683986268957308300,6.044708740234375,0.3195976017741458,0.29533147799656934,-0.5104923249820457
1683986268967349200,6.05474951171875,0.2824398278518087,0.3642878532968481,-0.5267171860875396
1683986268977390000,6.064790283203125,0.24973869328917916,0.48112773879513215,-0.547436714200823
1683986268987430800,6.074831298828125,0.2356414796306469,0.5554351806778017,-0.49245548232097985
1683986268997471600,6.0848720703125,0.22753012174264892,0.6137685774246537,-0.4876680373080124
1683986269007512600,6.094912841796875,0.20835268502054174,0.6303715704802471,-0.46850585940835
1683986269017553300,6.10495361328125,0.20529437056394595,0.6970090864952275,-0.3615159989443766
1683986269027594200,6.11499462890625,0.18426072596365925,0.6969661713765237,-0.23594951627819324
1683986269037635000,6.125035400390625,0.16077208525103057,0.6198039055739781,-0.1772365570747115
1683986269047675800,6.135076171875,0.17444098010083192,0.530879974230991,-0.19674205770857434
1683986269057716600,6.145116943359375,0.23646700388616648,0.39310789107830857,-0.13803386702214718
1683986269067757600,6.155157958984375,0.3190625906320604,0.31110954267568736,-0.12945651999910987
1683986269077798300,6.16519873046875,0.4353170395054879,0.23942422860564108,-0.09246730805407169
1683986269087839200,6.175239501953125,0.4870281220160062,0.2108306884057789,-0.09134674066009305
1683986269097880000,6.1852802734375,0.4400900602085599,0.21056461328477014,-0.1142768860528408
1683986269107920800,6.1953212890625,0.4139199256869152,0.14641428002954068,-0.14962577808973734
1683986269117961600,6.205362060546875,0.414134263898879,0.15481519692885362,-0.11104679109192848
1683986269128002600,6.21540283203125,0.46494770043041167,0.1830902099248238,-0.13863849639952344
1683986269138043300,6.225443603515625,0.4916479587792066,0.18580484396716776,-0.15981197355969795
1683986269148084100,6.235484619140625,0.5512412784884968,0.12606716150766076,-0.12027072896965296
1683986269158125000,6.245525390625,0.5890241862556702,0.033084869451594875,-0.006843567004625088
1683986269168165800,6.255566162109375,0.6498985290504503,0.010286331242183474,0.07375144971835788
1683986269178206600,6.26560693359375,0.7231243848235489,0.060930729041198256,0.10360240937957242
1683986269188247600,6.27564794921875,0.7620249986213438,0.08039617538305605,0.2156763077301184
1683986269198288300,6.285688720703125,0.7298965453939218,0.1376695632072478,0.1688222884703022
1683986269208329100,6.2957294921875,0.7385334968327405,0.15673828115335536,0.17527008070747574
1683986269218370000,6.305770263671875,0.7702919245380263,0.06578350064765794,0.31112194056163966
1683986269228410800,6.315811279296875,0.8704577087223851,-0.031143188504021792,0.40159797676279624
1683986269238451600,6.32585205078125,1.0101864337610258,-0.10032367707246843,0.5952758789846307
1683986269248492500,6.335892822265625,1.1599471570100377,-0.22897911075007066,0.8244600295246577
1683986269258533300,6.34593359375,1.2567882536745025,-0.32635736470977084,0.9733734131645374
1683986269268574100,6.355974609375,1.275892257707215,-0.3885893821703532,1.0863695143552299
1683986269278615000,6.366015380859375,1.251857638459708,-0.4448561668080964,1.2305660248525123
1683986269288655800,6.37605615234375,1.1810951232970333,-0.44807720186965017,1.3911056519265572
1683986269298696600,6.386096923828125,1.050467729515698,-0.3938565255191891,1.5384960175119722
1683986269308737500,6.396137939453125,0.9813798664187324,-0.3801012038862567,1.7081470488704051
1683986269318778300,6.4061787109375,0.9226902126098974,-0.4079046249355353,1.8533082008212745
1683986269328819100,6.416219482421875,0.9426818489829223,-0.3764214515412615,1.8998899457965122
1683986269338860000,6.42626025390625,0.9260963200372145,-0.39837646486667144,1.834521770356971
1683986269348900800,6.43630126953125,0.8245283365541433,-0.41449260705886576,1.753886699796526
1683986269358941600,6.446342041015625,0.6310997010127185,-0.4707579613700954,1.6420097349809974
1683986269368982400,6.4563828125,0.38572812089561936,-0.5413832664146119,1.5829300881053259
1683986269379023300,6.466423583984375,0.1451971532717139,-0.5765609741790577,1.4735584258574947
1683986269389064100,6.476464599609375,-0.12600123875149688,-0.6556725501027596,1.3518829345813508
1683986269399104900,6.48650537109375,-0.4202555416974417,-0.6477503776181611,1.1937770842669921
1683986269409145800,6.496546142578125,-0.7239605188639768,-0.624383926394616,1.0489754678463399
1683986269419186600,6.5065869140625,-0.9720886945749112,-0.5545749664408945,0.8743424415151082
1683986269429227400,6.5166279296875,-1.1849206684658986,-0.5316529273872364,0.7274451256226891
1683986269439268300,6.526668701171875,-1.3086783885722468,-0.40752649303486366,0.6083679198156383
1683986269449309100,6.53670947265625,-1.3794379234966816,-0.3745207785636448,0.5470619202314323
1683986269459349900,6.546750244140625,-1.4001379012960562,-0.23337793354106312,0.3967604635693196
1683986269469390800,6.556791259765625,-1.3784772157139833,-0.04183578490884326,0.21716117850745328
1683986269479431600,6.56683203125,-1.3491212129614574,0.12267827982389952,0.0376968385018781
1683986269489472400,6.576872802734375,-1.3076653481994929,0.1803703308481579,-0.1669116018675124
1683986269499513300,6.58691357421875,-1.1331610679546196,0.10391092302964619,-0.39801263812615467
1683986269509554100,6.59695458984375,-0.9532185196212213,0.1516561506689761,-0.5252728462001278
1683986269519594900,6.606995361328125,-0.8042913080586688,0.1567511558893061,-0.4776606560653096
1683986269529635800,6.6170361328125,-0.7658932208001806,0.1002311706326691,-0.5822882653988759
1683986269539676600,6.627076904296875,-0.6120576263864194,0.09473085414107693,-0.8963122368154407
1683986269549717400,6.637117919921875,-0.3982170820210299,0.15750169762933536,-1.23152494429114
1683986269559758300,6.64715869140625,-0.2663245500472866,0.18667173386601438,-1.3429327012127266
1683986269569799100,6.657199462890625,-0.27688568849421447,0.3310527801240432,-1.38924884789779
1683986269579839900,6.667240234375,-0.4440245330056322,0.4472527503021331,-1.4448509217049492
1683986269589880800,6.67728125,-0.9003814458110156,0.5726304053882386,-1.7383513449565362
1683986269599921600,6.687322021484375,-1.636305212907452,0.3835682869443436,-2.204084396409724
1683986269609962400,6.69736279296875,-2.7480263709954116,-0.277979373881114,-2.5759296417322735
1683986269620003200,6.707403564453125,-4.015831947382433,-1.1657037735611835,-2.530383587003093
1683986269630044100,6.717444580078125,-4.599031925304349,-2.0041956901180753,-2.1412444115523535
1683986269640084900,6.7274853515625,-4.031438350596598,-2.556796073862388,-1.905448913599534
1683986269650125700,6.737526123046875,-2.665953159327778,-3.1005120276893363,-2.4180960655967616
1683986269660166600,6.74756689453125,-1.3539569377840415,-3.8532395362195513,-3.3214979171653307
1683986269670207400,6.75760791015625,-0.5551964639907111,-4.136501788992721,-4.168900013126082
1683986269680248200,6.767648681640625,-1.7137819526730134,-4.066209316344292,-3.7082958220640547
1683986269690289100,6.777689453125,-4.495876789046856,-1.5085191726805802,-1.346138954195427
1683986269700329900,6.787730224609375,-4.078431606156948,1.3520517348481427,-0.02466917041538053
1683986269710370700,6.797771240234375,-0.6351343393541935,2.600389957279066,0.6417584418823118
1683986269720411600,6.80781201171875,1.8320258855686051,2.5977163314764677,1.098741531370399
1683986269730452400,6.817852783203125,2.630825281075755,2.3297238350128295,1.3937878609218444
1683986269740493200,6.8278935546875,3.207883358088799,1.7126278877758498,1.967773437556619
1683986269750534100,6.8379345703125,3.6525599955432098,0.6887011528009165,2.2410931586127276
1683986269760574900,6.847975341796875,3.2975049017138414,-0.032166480976292045,1.8553218842766104
1683986269770615600,6.85801611328125,3.9418444632989558,-1.6115937233625879,1.0841426849151656
1683986269780656600,6.868056884765625,4.056422710352753,-2.58141279239725,1.5074858665300133
1683986269790697400,6.878097900390625,4.013521194390004,-2.684350967350918,2.10880899411936
1683986269800738200,6.888138671875,3.853048086205477,-2.6147413254259324,2.4766745566972954
1683986269810779100,6.898179443359375,3.6883699893899333,-2.6955814361083252,2.581321716409618
1683986269820819900,6.90822021484375,3.614680528616909,-3.0030016898635976,2.172869682412437
1683986269830860600,6.91826123046875,3.36339926719854,-3.0257010459710187,2.5255570410802615
1683986269840901600,6.928302001953125,2.9032726287543937,-2.9439668655843714,2.6989541054622235
1683986269850942400,6.9383427734375,2.2556080817102164,-2.656359672410882,2.35214424116403
1683986269860983200,6.948383544921875,1.2796084881449228,-2.3243322371779125,2.0002441407747793
1683986269871024000,6.958424560546875,0.25393131363788185,-2.1877846717522744,1.527623176596702
1683986269881064900,6.96846533203125,-0.42603370548339203,-1.8279056548139658,1.2624664306550828
1683986269891105600,6.978506103515625,-0.6485378742776117,-1.5645689963107965,1.1830058097258753
1683986269901146600,6.988546875,-0.6575950979515727,-1.2394099236255962,1.3072481155412923
1683986269911187400,6.998587890625,-0.5422144532149326,-0.7030854225806284,1.5560150146052958
1683986269921228200,7.008628662109375,-0.34236082440123206,-0.25507736213027166,1.40569877630828
1683986269931269000,7.01866943359375,-0.15931817895226622,-0.13140630709146428,0.9910607336976426
1683986269941309900,7.028710205078125,0.0001544356656593405,0.09055185310673225,0.7299990654884313
1683986269951350600,7.038751220703125,0.3296816347244182,-0.1320261956414801,0.6517152785520717
1683986269961391600,7.0487919921875,0.6622649431213251,-0.73329544069989,0.6169109344927046
1683986269971432400,7.058832763671875,0.8151238561247592,-1.1607604025962557,0.8136434554432145
1683986269981473200,7.06887353515625,0.8894228934784032,-1.4311327933900488,0.8629002570626724
1683986269991514000,7.07891455078125,0.8754641413258587,-1.580444812838194,0.8122210502684579
1683986270001554900,7.088955322265625,0.767861962324346,-1.7294297218333736,0.6246747971076545
1683986270011595600,7.09899609375,0.6682200432464468,-2.062754154154238,0.4593496321482505
1683986270021636600,7.109036865234375,0.6140478848915824,-2.168618202356796,0.8150396347685469
1683986270031677400,7.119077880859375,0.517357170592997,-2.271138191190721,1.3385529518292578
1683986270041718200,7.12911865234375,0.33414864554595053,-2.3025455474941823,1.7180972098249025
1683986270051759000,7.139159423828125,0.05357128379063541,-2.0736021994764537,2.0176386833547646
1683986270061799900,7.1492001953125,-0.21885734799353998,-1.9357757568889138,2.191444873778127
1683986270071840600,7.159240966796875,-0.4149801134106626,-1.910533428182919,2.275578498812872
1683986270081881600,7.169281982421875,-0.5539924501743085,-2.110300540948808,2.0705804825191563
1683986270091922400,7.17932275390625,-0.6761943102590717,-2.2429623604681472,1.9935164451326535
1683986270101963200,7.189363525390625,-0.6746475101563081,-2.1344180108314887,1.696197033005516
1683986270112004000,7.199404296875,-0.6635996700654936,-1.831693172535923,1.624365329875332
1683986270122044800,7.2094453125,-0.6615756749546287,-1.4304838180729256,1.4279041290131314
1683986270132085600,7.219486083984375,-0.5818183422826088,-1.1262855529860656,1.1752157211947232
1683986270142126600,7.22952685546875,-0.5589096545819594,-0.7917861938775503,1.4172377585885727
1683986270152167300,7.239567626953125,-0.5701757073548103,-0.6504473686109594,1.360918045035909
1683986270162208200,7.249608642578125,-0.6495764255784738,-0.6052417754505378,1.3186421394064423
1683986270172249000,7.2596494140625,-0.6676664353070834,-0.7364339826670288,1.2107596396800246
1683986270182289800,7.269690185546875,-0.708551645387359,-0.6160473825178938,1.658333778435159
1683986270192330600,7.27973095703125,-0.747711658513636,-0.2949223518116881,2.227995395521543
1683986270202371600,7.28977197265625,-0.7102675439542125,-0.8701081276400172,1.7002372741211573
1683986270212412300,7.299812744140625,-0.5929419995679154,-1.0548138618539011,1.2676100729687445
1683986270222453200,7.309853515625,-0.4468267559583316,-0.7608537674638103,1.7743072509516735
1683986270232494000,7.319894287109375,-0.40201735501768077,-1.178132533912429,1.475732803306768
1683986270242534800,7.329935302734375,-0.4101426005639424,-0.9781227111291305,1.7279267311159476
1683986270252575600,7.33997607421875,-0.550579964996247,-0.5920600890250179,2.48883008973855
1683986270262616600,7.350016845703125,-0.6395254134789403,-0.8867559434096381,2.067456245500078
1683986270272657300,7.3600576171875,-0.6863151192120905,-1.6855616570554515,1.3988900184637707
1683986270282698200,7.3700986328125,-0.5785654186988205,-1.8692231178432768,1.3238196373871551
1683986270292739000,7.380139404296875,-0.4179760814463539,-2.6539273260707,0.07929611210483434
1683986270302779800,7.39018017578125,-0.18554615980623032,-2.9161462782527736,-0.17143058772139472
1683986270312820600,7.400220947265625,-0.06849932670348649,-2.3424172400486354,0.5683760643081283
1683986270322861600,7.410261962890625,-0.30553698541209656,-1.6943664549465505,0.9789180754117925
1683986270332902300,7.420302734375,-0.6543624995850186,-1.5229158402328689,0.7706193925692639
1683986270342943200,7.430343505859375,-0.9177789092127144,-1.5903286934489624,0.5264763832920297
1683986270352984000,7.44038427734375,-1.0475944280416827,-1.8230433464466034,0.32693624509836167
1683986270363024800,7.45042529296875,-1.0231355429273357,-2.378007888694111,0.03542757016846948
1683986270373065600,7.460466064453125,-0.916073322388877,-3.0314612388693605,-0.2228817941322091
1683986270383106600,7.4705068359375,-0.812811255462726,-3.7585797310706472,-0.4189848900463151
1683986270393147300,7.480547607421875,-0.8998873234084286,-4.126127243075636,-0.14660167696652704
1683986270403188100,7.490588623046875,-1.103037118962672,-4.388051032954975,0.3377695083269769
1683986270413229000,7.50062939453125,-1.4330885411998853,-4.8092932700865925,0.5383677483370646
1683986270423269800,7.510670166015625,-1.6956043242453647,-5.266576290003854,0.43441247936654137
1683986270433310600,7.5207109375,-2.1313917638308686,-4.351189136490642,1.4705085754601557
1683986270443351600,7.530751953125,-2.965410947726222,-4.377190589931411,1.2871794700873764
1683986270453392300,7.540792724609375,-4.8040857314658405,-4.687858104614661,0.15226507198424225
1683986270463433100,7.55083349609375,-8.442225456240731,-4.337805271190932,-1.4872055052431892
1683986270473474000,7.560874267578125,-11.566278457545502,-2.5541882516696255,-3.1453409194826887
1683986270483514800,7.570915283203125,-11.197814941425419,-0.919996738300355,-3.674481391853215
1683986270493555600,7.5809560546875,-8.734210014290717,0.49969530106680793,-3.973042011096433
1683986270503596600,7.5909970703125,-5.736590385513472,1.2644510270120426,-4.559726715057116
1683986270513637600,7.601037841796875,-2.5439705847964795,1.5376853943439392,-4.774651527343962
1683986270523678400,7.611078857421875,0.019262075328174443,1.749131679533734,-3.70810031884323
1683986270533719200,7.62111962890625,2.3164536953610875,2.0818748474629074,-2.161521434844082
1683986270543760000,7.631160400390625,4.418072223565528,2.179243564528485,-0.17328596120343387
1683986270553800900,7.641201171875,6.11353826525223,1.7478055952780553,1.0151395797742597
1683986270563841600,7.6512421875,7.2535524369412325,1.2412867547071873,0.8082532881923095
1683986270573882600,7.661282958984375,7.140449524003809,0.5767869951131199,-0.16784143451863578
1683986270583923400,7.67132373046875,7.804414272301134,-0.36209344854798153,-1.7228002547807388
1683986270593964200,7.681364501953125,7.808858871569996,-1.1447401046833376,-2.2918939591806127
1683986270604005000,7.691405517578125,6.893181800777125,-1.494946479728355,-2.3533468245254596
1683986270614045900,7.7014462890625,5.910786628806191,-1.863544464200088,-2.508069515342414
1683986270624086600,7.711487060546875,4.224280357240105,-1.8125419615485978,-2.6266064644267066
1683986270634127600,7.72152783203125,1.4200632570736293,-1.5010876656364283,-2.3102784156213074
1683986270644168400,7.73156884765625,-1.8365952967688162,-1.1067047118819482,-1.7398409843835043
1683986270654209200,7.741609619140625,-3.614884138266737,-0.7496070861708439,-1.2577838898023699
1683986270664250000,7.751650390625,-3.693706512432445,-0.4346089361493535,-1.1521806716838399
1683986270674290900,7.761691162109375,-2.8056468964344754,-0.026226997387466852,-0.7340283393023492
1683986270684331600,7.771732177734375,-1.2210428713874844,0.48765707017478344,-0.053994178776625316
1683986270694372600,7.78177294921875,0.49958109853835303,1.009493827780245,0.7657127380628627
1683986270704413400,7.791813720703125,1.8720614910354165,1.3797001838609366,1.4666500090842827
1683986270714454200,7.8018544921875,2.7538671493875495,1.5862078666366095,2.0939280986497915
1683986270724495000,7.8118955078125,3.241186857209831,1.4790935515726935,2.3861403464043964
1683986270734535900,7.821936279296875,3.7874038220895705,1.1201963424667545,2.306725502145162
1683986270744576600,7.83197705078125,4.2337355614096195,0.8471179009051776,2.207002878074917
1683986270754617600,7.842017822265625,4.61866521833261,1.0411381722629318,1.99095344555017
1683986270764658400,7.852058837890625,4.74367523203302,1.1191220281864096,2.268611431030344
1683986270774699200,7.862099609375,4.697180271224016,1.0737371446125819,2.5682430266279446
1683986270784740000,7.872140380859375,4.672700881933913,0.994907379134815,2.290021419545136
1683986270794780800,7.88218115234375,4.576565742418045,1.2413492202059753,1.7859473229002827
1683986270804821600,7.89222216796875,3.5394644737397023,1.5101876258405995,1.1202239988418319
1683986270814862600,7.902262939453125,2.1624832153630456,1.4224166870675474,-0.11736059188468506
1683986270824903300,7.9123037109375,0.02955603597262805,1.205125331935689,-0.8607540130443118
1683986270834944200,7.922344482421875,-2.2516267299955484,0.6050333977382035,-1.5412893295464554
1683986270844985000,7.932385498046875,-3.677970171092891,-0.06044006349774063,-2.607557773552047
1683986270855025800,7.94242626953125,-3.6599767208142375,-1.5976195334976198,-3.4380083083827073
1683986270865066600,7.952467041015625,-3.2790999413615216,-3.1845231055743626,-3.9483761786934624
1683986270875107600,7.9625078125,-3.2227439880237987,-3.509040355869955,-3.6461482049573393
1683986270885148300,7.972548828125,-3.3040363787918494,-2.170886993326662,-1.991872787301092
1683986270895189200,7.982589599609375,-3.5166728496077946,-1.5243663788052344,-1.672777175882588
1683986270905230000,7.99263037109375,-3.7519485948709996,-0.3952274322155546,-0.5984559057767035
1683986270915270800,8.002671142578125,-3.563771009449354,0.47222661984518427,-0.284951209991793
1683986270925311600,8.012712158203126,-2.659067869274472,0.6948065757769677,-0.7017841338277476
1683986270935352600,8.0227529296875,-2.5130887032626377,0.586778163842641,-1.5207281112394364
1683986270945393300,8.032793701171874,-2.192425966369987,0.23834657660155384,-1.6333045960376593
1683986270955434200,8.04283447265625,-1.8673210143724206,-0.26021432867245736,-1.436149120437551
1683986270965475000,8.05287548828125,-2.0161845683777218,-0.003929615052254252,-0.6958179474548328
1683986270975515800,8.062916259765625,-2.248811721874655,0.8472990990080421,0.15281295774226542
1683986270985556600,8.07295703125,-1.7124958037836593,1.876649856589838,0.7972207069946025
1683986270995597600,8.082997802734376,-0.717238903092542,2.5791568757214773,1.5288791656164984
1683986271005638300,8.093038818359375,-0.18626976027294803,3.79885721195778,2.5557730199041573
1683986271015679200,8.10307958984375,-0.16514730447878007,5.098091125560937,3.9051356316335744
1683986271025720000,8.113120361328125,-0.6179180146320682,6.623320579472493,5.512544155120714
1683986271035760800,8.1231611328125,-0.9734535219168449,7.675807475856788,6.137118816354196
1683986271045801600,8.1332021484375,-1.1230099201390182,8.079786300723718,5.833912372700695
1683986271055842600,8.143242919921875,-1.0664570330127623,6.640550613407054,4.200118065010781
1683986271065883300,8.15328369140625,-0.9990227221985919,4.581145286469398,1.749197483037575
1683986271075924100,8.163324462890625,-1.2203032970327865,2.561030626124086,-0.8343987463635835
1683986271085965000,8.173365478515626,-1.1605243683987767,0.687405586170047,-2.355247974447819
1683986271096006100,8.183406494140625,-0.9203715324871936,-0.4371385573491739,-2.6204113960052307
1683986271106046900,8.193447265625,0.22350025171566226,-1.0752949714673072,-1.6997752189405166
1683986271116087600,8.203488037109375,1.7053422927451298,-1.2946677206679251,-1.0172257424663151
1683986271126128600,8.213529052734375,2.682018995329001,-1.7852163315396163,-1.3063235282513916
1683986271136169400,8.22356982421875,2.6685328483500625,-2.624798774743031,-2.652668476084389
1683986271146210200,8.233610595703125,-1.0915598869720442,-4.395926952353438,-4.7795968054085405
1683986271156251100,8.2436513671875,-0.5150063037016919,-5.173619747162702,-5.755360126442992
1683986271166291900,8.2536923828125,1.9287586212263006,-4.236537933356573,-4.317032814033213
1683986271176332600,8.263733154296874,3.8901500701898764,-2.546601772232651,-2.2919373511868333
1683986271186373600,8.27377392578125,4.727149963471494,-0.33783435815276114,-1.0933690072731288
1683986271196414400,8.283814697265624,5.493865966887112,1.1148519514649087,-0.7573170661048846
1683986271206455200,8.293855712890625,5.681893348691346,1.7695932388341635,-0.5593757631046401
1683986271216496000,8.303896484375,5.272267341711571,2.434161186252045,-0.2292604446456512
1683986271226536900,8.313937255859376,5.107512950928086,3.1545464992026973,0.5222482680591815
1683986271236577600,8.32397802734375,5.049615383118091,3.594949245482381,1.1037907598673398
1683986271246618600,8.33401904296875,4.642154693678827,3.3087615967411783,1.3287134168702062
1683986271256659400,8.344059814453125,3.914430141387102,2.2871527672725214,0.672871112908295
1683986271266700200,8.3541005859375,3.3946611883037483,1.2265601158660584,-0.2437396051372856
1683986271276741000,8.364141357421875,3.125588417022123,0.4055881499202695,-0.8288369178405371
1683986271286781900,8.374182373046875,3.038723468768954,-0.20022153852445754,-1.062364578200753
1683986271296822600,8.38422314453125,3.0076322556049155,-0.5092735289290188,-1.1060795784128445
1683986271306863600,8.394263916015625,2.9390504361863887,-0.610539436410134,-1.1156125067722436
1683986271316904400,8.4043046875,2.839206695478442,-0.5871315003243802,-1.0989913942065777
1683986271326945200,8.414345703125,2.7093408107956756,-0.5998206136994437,-1.122679233507872
1683986271336986000,8.424386474609374,2.538774967137307,-0.5649719238242985,-0.9335417747528307
1683986271347026900,8.43442724609375,2.3015460966837438,-0.4322695733384452,-0.40960359586184875
1683986271357067600,8.444468017578124,1.6979515553832092,-0.38784170151313674,0.5631356238468559
1683986271367108600,8.454509033203125,0.0800292492642637,-0.8918428421532248,1.7644109725135988
1683986271377149400,8.4645498046875,-2.2454030515111714,-0.7201509476310537,2.7262401580304765
1683986271387190200,8.474590576171876,-3.964120864904668,-0.24740362169721095,3.1641688346826733
1683986271397231000,8.48463134765625,-3.3243992328019774,0.9670262337162113,2.954272270207772
1683986271407271900,8.49467236328125,-1.2547929287023891,1.9254488943772563,2.383446693361075
1683986271417312600,8.504713134765625,0.5516144036714329,1.5983510016462823,1.6911559105069893
1683986271427353600,8.51475390625,1.4476304055033697,0.6767396927623675,1.3450040817178373
1683986271437394400,8.524794677734375,1.7345402240500016,-0.04438209530199955,0.245071888063697
1683986271447435200,8.534835693359375,1.8793101311324243,-0.3412866593370413,-0.10339260092159525
1683986271457476000,8.54487646484375,1.8738441465824867,-0.7256550788754392,0.08924293525073422
1683986271467516800,8.554917236328125,1.805667638656181,-1.1253499985819189,0.43449926375550274
1683986271477557900,8.564958251953126,1.6569236517644104,-1.765587329905537,0.5315470695843683
1683986271487598800,8.574999267578125,1.4517220258658474,-3.018069267200225,-0.07881069181705175
1683986271497639600,8.5850400390625,1.079329013773787,-3.8807148933957145,0.28261232371372313
1683986271507680400,8.595080810546875,0.53865057235584,-4.671971321074481,0.6733646393212637
1683986271517721300,8.60512158203125,-0.17236641051133358,-5.321340560983198,0.9800400732911138
1683986271527762100,8.61516259765625,-0.9667069315753847,-5.78598260890654,1.2848758697469373
1683986271537802900,8.625203369140625,-1.6394429207617147,-6.249587059063387,1.2864198683855088
1683986271547843800,8.635244140625,-2.0637316704811357,-6.360910415596445,1.3916578293105923
1683986271557884600,8.645284912109375,-2.19757080082559,-5.816072940833604,2.1422982214611994
1683986271567925400,8.655325927734374,-2.198921680441654,-5.030285358327863,2.9778470992277537
1683986271577966300,8.66536669921875,-2.3866677284405666,-3.8787641525585927,3.482536315977764
1683986271588007100,8.675407470703124,-2.5958750246878526,-2.5747818946673795,3.3423647881016403
1683986271598047900,8.6854482421875,-2.6416225433441243,-1.543924808448831,2.8208718299585103
1683986271608088800,8.6954892578125,-2.3777363301505985,-0.8765234948301143,2.206886291583684
1683986271618129600,8.705530029296876,-1.8562971352412059,-0.7986478805425445,1.5289335251033906
1683986271628170400,8.71557080078125,-1.228028297403742,-1.2697052954806511,0.9138617515417594
1683986271638211200,8.725611572265626,-0.6045100688076032,-1.914137363440016,0.49489021290416585
1683986271648252100,8.735652587890625,-0.15699332963538312,-2.482207775175374,0.13346099856502838
1683986271658292900,8.745693359375,-0.048154354098925274,-2.8722710609975204,-0.2709498404031613
1683986271668333700,8.755734130859375,-0.08080691096549783,-3.100260257787647,-0.7200627327052527
1683986271678374600,8.76577490234375,-0.3437380193278918,-3.3585505486419436,-1.3705124854823796
1683986271688415400,8.77581591796875,-0.9479157925685191,-3.684932708701231,-2.068047046642837
1683986271698456200,8.785856689453125,-1.545668363475264,-4.150691032420573,-2.437844753255638
1683986271708497100,8.7958974609375,-1.8208948373065603,-4.792985916154753,-2.467966556502921
1683986271718537900,8.805938232421875,-1.926909446629266,-5.353913307008587,-1.9178671836823549
1683986271728578700,8.815979248046874,-2.196537256181955,-5.387568473765736,-0.6431684493519717
1683986271738619600,8.82602001953125,-2.68755006798215,-5.425305843389534,0.5812220573795543
1683986271748660400,8.836060791015624,-3.0109829902469825,-5.610156059107963,1.3515267371059185
1683986271758701600,8.846101806640625,-3.2040748595480637,-4.946193218200261,1.8232030868661107
1683986271768742300,8.856142822265625,-3.9188783168119294,-4.293893337317042,2.479355812162825
1683986271778783200,8.86618359375,-5.166108608298735,-4.163781642902866,3.0745444297160454
1683986271788824000,8.876224365234375,-5.811678886570972,-2.839695930454075,3.0165667533700113
1683986271798864800,8.88626513671875,-5.427728653053294,-1.2271361351836936,2.20656156543699
1683986271808905600,8.89630615234375,-4.343200683516461,-0.299288272930745,1.3404507637587084
1683986271818946600,8.906346923828124,-2.484400272455067,-0.08235120764220652,0.42160463331005193
1683986271828987300,8.9163876953125,0.31443321699400756,0.10556364045393384,-0.6113734244258855
1683986271839028100,8.926428466796875,3.275441408244478,0.027984619075359138,-0.5090975761396098
1683986271849069000,8.936469482421876,5.88728618613515,-0.5552492141382349,-0.7287807463959455
1683986271859109800,8.94651025390625,7.342276096452204,-1.41968488691148,-1.9203238488552874
1683986271869150600,8.956551025390626,8.018527984680848,-1.9894375801036672,-3.9053912163635003
1683986271879191600,8.966591796875,8.49484634391433,-1.8912143707247868,-5.5875730514778805
1683986271889232300,8.9766328125,7.8676710128362854,-1.7827501295957002,-6.775816917500318
1683986271899273100,8.986673583984375,6.286671638324215,-1.9009633064477314,-6.135325431921623
1683986271909314000,8.99671435546875,4.584656238589787,-1.2293329238106054,-3.9198718071048706
1683986271919354800,9.006755126953125,3.2542362214549554,-0.26105737681414265,-1.3794665336158634
1683986271929395600,9.016796142578125,2.0776457786898743,0.4586911202237792,0.43879222854344885
1683986271939436500,9.0268369140625,1.153046607980071,0.8384938241819025,1.4088091850510727
1683986271949477300,9.036877685546877,0.42776370037885114,0.8260936736605873,1.74285888659983
1683986271959518100,9.04691845703125,-0.192098856090822,0.5441293716599674,1.1351060867529237
1683986271969559000,9.05695947265625,-0.25152349457876094,0.28081846234184527,0.2504744528514586
1683986271979599800,9.067000244140624,0.09620833381905645,0.2502350808993303,0.010206222370234674
1683986271989640600,9.077041015625,0.6903872490962907,0.4105906487101543,0.2350831030899697
1683986271999681600,9.08708203125,1.1794774532685355,0.4426264763559627,0.6194820405163544
1683986272009722600,9.097123046875,1.4724338055177115,0.22216320032059286,0.8438224792738549
1683986272019763400,9.107163818359377,1.9867020844279413,0.13955307006170534,1.0053262711158562
1683986272029804200,9.11720458984375,2.705557584781138,0.21166944507668722,1.1158256531245678
1683986272039845000,9.127245361328123,3.475943088395776,0.5156259536078343,1.2337923049154247
1683986272049885900,9.137286376953124,4.164853572897228,1.14594507214049,1.2316594123810232
1683986272059926600,9.1473271484375,4.49683713901034,1.848012924284223,1.1041011810537944
1683986272069967600,9.157367919921874,4.659473419219893,2.652239799538405,0.9652290344831667
1683986272080008400,9.16740869140625,4.67640924459672,3.4839744568697313,0.9336857795839356
1683986272090049200,9.17744970703125,4.624563217238779,4.164963722269433,1.3403425218227323
1683986272100090000,9.187490478515626,4.459342003054222,4.650031089665312,1.668052196532706
1683986272110130900,9.19753125,4.168072223613324,5.029664039620609,1.7387065887719118
1683986272120171600,9.207572021484374,3.6387569903370136,5.184506893060414,1.5142655370856144
1683986272130212600,9.217613037109375,3.033722162198646,5.086636543273693,0.7421956062444285
1683986272140253400,9.22765380859375,2.3360452652943478,4.581802368159814,-0.3530254364447065
1683986272150294200,9.237694580078124,0.9433262347145872,3.2628242971112025,-1.9128026962708269
1683986272160335000,9.2477353515625,-1.3924348355162812,1.3542671202400565,-3.293050289237037
1683986272170375900,9.2577763671875,-4.887486457891038,-1.136492729196899,-3.8019018173244237
1683986272180416600,9.267817138671877,-9.123126029899977,-3.9753708838788566,-3.024766445253815
1683986272190457600,9.27785791015625,-10.250209808273556,-6.2006435393772605,-1.3775477409199393
1683986272200498400,9.287898681640623,-8.715003967240174,-7.694835662862904,0.7291893959359043
1683986272210539200,9.297939697265624,-5.5647830962737155,-8.052206039517346,2.3163113594725346
1683986272220580300,9.307980712890624,-2.9579968453237417,-7.183217048713426,2.099955558887028
1683986272230621100,9.318021484375,0.004055976964734276,-4.933702468999594,1.6637897491239397
1683986272240661900,9.328062255859376,3.00530433663021,-2.5514373779610997,1.9662361146036709
1683986272250702800,9.338103271484377,5.569746971171106,-0.665961742476709,2.6307392119728177
1683986272260743600,9.34814404296875,6.846406936492725,0.7080097197868211,2.9781684876828343
1683986272270784400,9.358184814453123,6.8639655112089315,1.7502784728795258,2.7709994316271325
1683986272280825300,9.3682255859375,6.132392883200918,2.502521753335595,2.732915401461433
1683986272290866100,9.3782666015625,4.999418735448717,3.1080353260107976,2.734264373722729
1683986272300906900,9.388307373046874,4.087721824688459,3.6046223641107753,2.370146751518437
1683986272310947800,9.39834814453125,3.358113288906101,3.6759176254540034,1.861417770388939
1683986272320988600,9.408388916015625,2.5386075974312643,3.3114280701624246,1.683860778872885
1683986272331029400,9.418429931640626,1.6227742433650827,2.594717025759654,1.6516318321698311
1683986272341070300,9.428470703125,0.9143779279186154,1.2907824516700224,1.494694709896647
1683986272351111100,9.438511474609374,0.6478767393236251,-0.4128913879192225,0.8135056496005759
1683986272361151900,9.44855224609375,1.0022068022724704,-2.164260864214577,-0.5151014329442032
1683986272371192800,9.45859326171875,2.025564670499622,-3.908275604298152,-2.7265367508573015
1683986272381233600,9.468634033203124,3.323000430986687,-5.620632648492452,-5.935918331276164
1683986272391274400,9.4786748046875,4.177872657752017,-7.287915706707595,-9.568222999619753
1683986272401315200,9.488715576171876,3.8749566077342252,-8.79062080381028,-13.264329910394926
1683986272411356100,9.498756591796877,1.6054778097979834,-9.612211227543735,-15.208303451492695
1683986272421396900,9.50879736328125,1.884110689124231,-7.300130367230975,-11.409260749781152
1683986272431437700,9.518838134765623,3.1765379905475877,-3.6870899199043596,-7.063300132636425
1683986272441478600,9.52887890625,2.8429851532018753,-0.8596506119645396,-3.4977760314862416
1683986272451519600,9.538920166015624,1.8387874364161783,1.0296730994838503,-0.7841434479064954
1683986272461560600,9.5489609375,0.6245403290164647,2.336657524120927,1.317393779667573
1683986272471601300,9.559001708984376,-0.5738965272689058,3.612848997020469,3.1595058440952046
1683986272481642200,9.56904248046875,-1.0535686015357997,4.426478385929818,4.850446224131618
1683986272491683000,9.57908349609375,-0.2594435215901149,4.600013732901579,6.479128360822617
1683986272501723800,9.589124267578123,1.3843593598514938,4.613545417788524,7.60905599595035
1683986272511764600,9.5991650390625,2.654078483573136,4.20634508145408,7.741360187539014
1683986272521805600,9.609205810546875,3.4999291896361666,3.2196035384983923,6.098128318795566
1683986272531846300,9.619246826171874,3.709948301405143,1.5615973471327422,3.741337299368315
1683986272541887200,9.62928759765625,3.566912651069114,-0.22697877892419807,2.162337779887765
1683986272551928000,9.639328369140625,3.495234727940507,-1.5552783013152647,0.6159553526227749
1683986272561968800,9.649369140625,3.514558076863929,-2.547407150290997,-0.9849548340219443
1683986272572009600,9.65941015625,3.5244913101909745,-3.153564453075088,-2.4291391372016173
1683986272582050600,9.669450927734376,3.5770449637959425,-3.388140678371622,-3.674093723244941
1683986272592091300,9.67949169921875,3.0174233912304924,-2.7502155302619977,-3.8729429245072033
1683986272602132100,9.689532470703124,0.9944486022391055,-1.1173191070284465,-2.732247829449392
1683986272612173200,9.69957373046875,-1.9210567475066525,0.22582244865635576,-1.9439601897210728
1683986272622214100,9.709614501953125,-3.194666862479829,1.0430145264178783,-1.3756966590305229
1683986272632254900,9.7196552734375,-2.718162298100143,1.5883831976766258,-0.6648025513617226
1683986272642295600,9.729696044921877,-1.3996841908744984,2.0428054331898227,-0.22521305091731372
1683986272652336600,9.739737060546876,-0.17947834733355453,1.9768586158958292,0.2692122459353918
1683986272662377400,9.74977783203125,0.5801634789387995,1.5619192124246795,0.6628828049439653
1683986272672418200,9.759818603515624,0.9098919034086512,1.0465488434101626,1.0763068199315164
1683986272682459100,9.769859375,0.976384222362285,0.3374099730667011,1.4187202453020242
1683986272692499900,9.779900390625,0.9014515876067264,-0.3473014832774411,1.6469321250767646
1683986272702540600,9.789941162109375,0.8258642555251586,-0.7686400415427818,1.7848691939462626
1683986272712581600,9.79998193359375,0.927306592386863,-0.9919643402687521,1.8401942253326833
1683986272722622400,9.810022705078126,1.0243990420958755,-1.0800514220436521,1.7823977469918346
1683986272732663200,9.820063720703123,0.9910632371403372,-1.08706665031412,1.560276031431165
1683986272742704000,9.8301044921875,0.9534358382614035,-0.9915008544559956,1.453338146254778
1683986272752744900,9.840145263671875,0.9520168303998018,-0.8648629188780506,1.195620536716784
1683986272762785600,9.85018603515625,0.9763725398870906,-0.7746925353926307,0.7447772025784872
1683986272772826600,9.86022705078125,1.028984546611387,-0.7212457657896875,0.3738374709888249
1683986272782867400,9.870267822265625,0.9391737581399917,-0.752573967011625,-0.04844999316149677
1683986272792908500,9.880308837890626,0.7698349356612009,-0.799611568452277,-0.2567820549302641
1683986272802949300,9.890349609375,0.5145316122944563,-0.7789559364798492,-0.36413192761740765
1683986272812990100,9.900390625,0.2420067192611325,-0.8317637445229479,-0.4258732795104077
1683986272823031000,9.910431396484377,0.08407557002044462,-0.7627115249059594,-0.4151401519444474
1683986272833071800,9.92047216796875,-0.03698343046231043,-0.6696352959068146,-0.324503421788929
1683986272843112600,9.930512939453124,-0.15974956740943452,-0.5682811735835276,-0.2306418419785753
1683986272853153500,9.940553955078125,-0.2659765182757876,-0.3514237404408839,-0.1308603287721734
1683986272863194300,9.9505947265625,-0.3310282232261108,-0.14925432202839767,-0.11552047724569758
1683986272873235100,9.960635498046877,-0.4746899008700198,-0.09796142591544858,-0.07025480276323055
1683986272883276000,9.97067626953125,-0.7733954192338693,-0.15654945359336325,0.02846193301323889
1683986272893316800,9.98071728515625,-1.1304476261126157,-0.4728593826114499,0.19532489779893508
1683986272903357600,9.990758056640624,-1.4666359423977393,-1.0885753631620676,0.2587571144456329
1683986272913398400,10.000798828125,-1.6249268053995807,-1.8443059921617433,0.31244564054460644
1683986272923439300,10.010839599609374,-1.630892753429285,-2.5264167785957015,0.4279112816695306
1683986272933480400,10.020880859375,-1.4228074550490941,-3.0238132478212156,0.6442089080747336
1683986272943521200,10.030921630859376,-1.1648454666049832,-3.425546646094552,0.8346147538015147
1683986272953562000,10.04096240234375,-0.9670711755649692,-3.8704972267386513,0.7866854667977702
1683986272963602900,10.051003173828123,-0.8717737792760792,-4.339802265153736,0.49429798127130964
1683986272973643600,10.061044189453124,-1.053974390106594,-4.645945072179722,0.2842459676879318
1683986272983684600,10.0710849609375,-1.4833545684060785,-4.595521927046425,0.4714746474200137
1683986272993725400,10.081125732421874,-1.9633060693377051,-4.325561046537914,0.8953495025994987
1683986273003766200,10.09116650390625,-2.0343933105134444,-4.413331985544697,0.77548933030402
1683986273013807000,10.10120751953125,-1.571871399955861,-4.492505073534507,0.15686750421669995
1683986273023847900,10.111248291015626,-0.994285583565188,-4.184266567262367,-0.5501503942860974
1683986273033888600,10.1212890625,-0.6138105988288484,-3.2735624312667277,-1.3124980925848735
1683986273043929600,10.131329833984376,-0.3445612789331766,-2.095977783166789,-2.0121788978394086
1683986273053970400,10.141370849609377,-0.2183840274817711,-0.943378448452941,-2.3569464683283474
1683986273064011200,10.15141162109375,-0.2858721613462207,0.017204761595308007,-2.645509243042623
1683986273074052000,10.161452392578123,-0.2649282811567912,0.8571224214230865,-2.757250308926616
1683986273084092800,10.1714931640625,0.20993804938336877,1.3229846955008886,-2.4922041893312175
1683986273094133600,10.1815341796875,1.1289207934850958,1.6393709182441194,-2.0307726860584028
1683986273104174800,10.1915751953125,2.279662609060208,2.1443314551883526,-1.8115587232991885
1683986273114215600,10.201615966796876,3.417914152239992,2.344487666999145,-1.9377360343009238
1683986273124256400,10.21165673828125,4.205121040373651,2.560081958874216,-2.311947345609242
1683986273134297300,10.22169775390625,4.354078292949119,2.67036867157279,-2.6445908546301746
1683986273144338100,10.231738525390623,4.037542343226821,2.7799556254988023,-2.5347881315451537
1683986273154378900,10.241779296875,3.6311264038224267,2.769932508645161,-2.0391602516732266
1683986273164419800,10.251820068359375,3.189899444642219,2.552148580406886,-1.0473642348833636
1683986273174460600,10.261861083984376,2.737823009492401,2.2084646224394464,0.03104162218089148
1683986273184501400,10.27190185546875,2.3456494808800863,1.8441259860955475,0.7763543129394731
1683986273194542300,10.281942626953125,2.1240644453808635,1.5510115622514207,1.0936799049074242
1683986273204583100,10.2919833984375,2.1039922235928805,1.5429639816158303,1.003728866552352
1683986273214623900,10.3020244140625,1.9930951595150126,1.6066594123795375,0.7300782203989509
1683986273224665000,10.3120654296875,1.7772841454037767,1.4723525046212718,0.5241031647176562
1683986273234705800,10.322106201171875,1.4884952306499801,1.3199529648389319,0.3259620666103643
1683986273244746600,10.33214697265625,1.1635016201162414,1.2233929635048992,0.11930513375594208
1683986273254787600,10.34218798828125,0.8766855001562177,1.1400661467888367,0.05855846411244339
1683986273264828300,10.352228759765625,0.6667435170097583,1.0999994279310528,-0.07023668300011646
1683986273274869200,10.36226953125,0.5529913902363429,1.114665031476533,-0.25736427317020194
1683986273284910000,10.372310302734377,0.6247923374383866,1.0775084496561274,-0.3399963378793284
1683986273294950800,10.382351318359374,0.8293240071343349,1.0546875000791311,-0.43582773193222357
1683986273304991600,10.39239208984375,0.9736709595413416,1.0431742667762596,-0.48991680143948524
1683986273315032600,10.402432861328125,1.0391968488619945,1.0257058145128044,-0.456919670038656
1683986273325073300,10.4124736328125,1.0662405490292173,1.0178041457492053,-0.3179516792971796
1683986273335114200,10.4225146484375,1.0173791647407717,1.051433563326549,-0.13647222525027905
1683986273345155000,10.432555419921876,0.9811720848538823,1.091288089634934,0.1002950668098796
1683986273355195800,10.44259619140625,1.0454521178885265,1.1950817107748308,0.33383035663467514
1683986273365236600,10.452636962890624,1.146040797191206,1.172101020807032,0.5372161864087508
1683986273375277700,10.46267822265625,1.0987349749081674,0.9896340368936409,0.7149724961044378
1683986273385318600,10.472718994140624,0.8433842657745527,0.7841191291160753,0.8649950027264556
1683986273395359400,10.482759765625,0.4275195598155438,0.5508008002829412,1.0471773147166021
1683986273405400200,10.492800537109376,-0.22956800454025095,0.20139408115063503,1.1657276154085385
1683986273415441100,10.502841552734376,-0.9724609850384225,-0.24384260179983727,1.0732336044644017
1683986273425481900,10.51288232421875,-1.8364530802170838,-0.7009520531079192,0.8810315131795288
1683986273435522700,10.522923095703124,-2.719999790123616,-1.1828103065326907,0.9194478988918474
1683986273445563600,10.5329638671875,-3.2628204822252522,-1.6365389824205194,0.8271937370739944
1683986273455604400,10.5430048828125,-3.4891099928952514,-2.0680055619436093,0.7753276824568163
1683986273465645200,10.553045654296875,-3.3881750105543493,-2.328403472771845,0.6618294716407815
1683986273475686100,10.56308642578125,-2.9255332946145343,-2.301312446556586,0.5835485458657282
1683986273485726900,10.573127197265626,-2.2644367217102257,-2.0210280418463427,0.6065797805947085
1683986273495767700,10.583168212890625,-1.3962382079317417,-1.5311279297302336,0.7586159704945362
1683986273505808800,10.593209228515626,-0.3706935644341746,-0.9212160109094067,0.7384738922276898
1683986273515849600,10.60325,0.7713879346884762,-0.3143796920358496,0.7556295394563117
1683986273525890600,10.613290771484374,1.9339697360425163,0.2062129973869959,0.7347211839138711
1683986273535931300,10.623331787109375,2.992900371684651,0.6063227654729603,0.6408948899606522
1683986273545972100,10.63337255859375,3.72212648387126,0.8793878555447352,0.4522314072025401
1683986273556013000,10.643413330078126,3.819880008711798,1.0660405160764808,0.22147798540352795
1683986273566053800,10.6534541015625,3.5476021765853236,1.1474595070227573,0.08003473278170768
1683986273576094600,10.6634951171875,3.1538491249210785,1.1185469627827866,-0.1053156854193481
1683986273586135600,10.673535888671877,2.509528160039541,1.3202266693603695,-0.6342582701318711
1683986273596176300,10.68357666015625,1.627288579979867,1.5973734855173365,-1.328516483300391
1683986273606217100,10.693617431640623,0.5077653527469467,1.8462581634733572,-2.027213096760379
1683986273616258200,10.70365869140625,-0.8100389242352115,2.0640983581993875,-2.8210773466809873
1683986273626299100,10.713699462890624,-1.5277194975790427,1.9892134667636017,-3.3237709999787937
1683986273636339900,10.723740234375,-1.2236398457393802,1.6897139550286708,-3.3554582595430844
1683986273646380600,10.733781005859376,-0.26536142826132186,1.1173434255999166,-3.0516796111341815
1683986273656421600,10.743822021484377,0.8888761997825971,0.5215587616840004,-2.681858539572427
1683986273666462400,10.75386279296875,1.8310194015294672,0.13744974143145672,-2.0700182914764826
1683986273676503200,10.763903564453123,2.539980411636866,-0.21284580238612258,-1.4072241782498762
1683986273686544000,10.7739443359375,3.037732601157968,-0.3113861083699399,-0.6745982169062492
1683986273696584900,10.7839853515625,3.3889894486146996,-0.2942495346014101,-0.17970514310052932
1683986273706625600,10.794026123046876,3.59768104549516,-0.004928588781026772,0.08309078222985286
1683986273716666600,10.80406689453125,3.92893457413378,0.11681699750864204,0.5239930152438695
1683986273726707400,10.814107666015625,4.093486308923084,0.3431944845750301,0.9262433051248775
1683986273736748500,10.82414892578125,3.9384202958431676,0.421081542906282,1.2498736381004134
1683986273746789300,10.834189697265623,3.176853656766347,0.29198217393732073,1.330651283273656
1683986273756830100,10.84423046875,2.3420577050302254,0.1588768958691275,1.4601678848979003
1683986273766871000,10.854271240234375,1.888643026435719,0.2351307869134703,1.5480885505527018
1683986273776911800,10.864312255859376,1.8064383268398,0.3875598907598963,1.519951343509057
1683986273786952600,10.87435302734375,1.7921202181980096,0.4262361527431874,1.3282537460113244
1683986273796993500,10.884393798828125,1.7157728672775199,0.303964138064197,0.9217967988199456
1683986273807034300,10.8944345703125,1.6424105167443173,0.17733383182931386,0.3843202591063244
1683986273817075100,10.9044755859375,1.5593266487980921,-0.025765418927775122,-0.09467601777172621
1683986273827116000,10.914516357421874,1.5012490747616318,-0.2743539810321168,-0.500944614407027
1683986273837157000,10.924557373046875,1.275323986968699,-0.7502250672049404,-0.9157118796858817
1683986273847197900,10.934598388671876,1.0484803914269294,-1.204684257451007,-1.2527627945684205
1683986273857238600,10.94463916015625,0.8686809539370076,-1.6063060760172732,-1.4527344704113552
1683986273867279600,10.954679931640625,0.5919371843394026,-1.9526090621021959,-1.8145256042747155
1683986273877320400,10.964720703125,0.1362229882959788,-1.997775077706172,-2.099080562600911
1683986273887361200,10.97476171875,-0.48619917046432587,-1.6205639839919916,-1.994085311775807
1683986273897402000,10.984802490234374,-1.1937410831372102,-0.8643836975452543,-1.2902746200530475
1683986273907442900,10.99484326171875,-1.6023987531421384,-0.19258975991769356,-0.6214995383597259
1683986273917483600,11.004884033203124,-1.5077817440160932,0.23257398617062686,-0.24961280816505463
1683986273927524600,11.014925048828124,-0.9498810768311101,0.4495539664933395,-0.03072357178352453
1683986273937565400,11.0249658203125,-0.2640380262290301,0.42492580405798824,0.12121582040614444
1683986273947606200,11.035006591796876,0.44399780020737534,0.21851682673924924,0.19204521189549442
1683986273957647300,11.045047607421877,1.0479611159893596,-0.05523538581624091,0.22297430022953418
1683986273967688100,11.055088623046874,1.4427354335723417,-0.30318450923390916,0.3049783705945756
1683986273977728900,11.06512939453125,1.666251659511983,-0.5011610984315421,0.4208436012926338
1683986273987769800,11.075170166015624,1.7840814588972378,-0.6250257493879179,0.6440529822844429
1683986273997810600,11.0852109375,1.77794706806293,-0.7125878334302153,0.7897987365923437
1683986274007851400,11.095251953125,1.6795949935458012,-0.6984939576501725,0.933854579921412
1683986274017892300,11.105292724609376,1.4613590239881817,-0.6372022628427906,0.9753203391522193
1683986274027933100,11.11533349609375,1.2017524242542776,-0.49802684787048823,0.9026579855973659
1683986274037973900,11.125374267578126,0.9016841054855522,-0.31463623036809685,0.8020024298261843
1683986274048014800,11.135415283203123,0.6135248541815775,-0.17032527928655036,0.5249218941104493
1683986274058055600,11.1454560546875,0.316006064430087,0.037950515631765776,0.1123847960791262
1683986274068096600,11.1554970703125,0.08722877502331117,0.20442342760507187,-0.3580513001629045
1683986274078137600,11.165537841796874,-0.11845743662088755,0.35445022579734037,-0.7919559478808803
1683986274088178400,11.175578857421876,-0.2454753518940844,0.5209736823696798,-1.2151093483186013
1683986274098219200,11.18561962890625,-0.3641474545610787,0.6862392426244489,-1.6099472047130154
1683986274108260000,11.195660400390626,-0.4634403883453384,0.8536481857836754,-1.886944294161096
1683986274118300800,11.205701171875,-0.5444092750755711,0.9960145950396622,-1.9808850287872553
1683986274128341600,11.2157421875,-0.5997681022145127,1.0678019522320703,-1.9633736610294152
1683986274138382600,11.225782958984375,-0.5240470171726194,0.9570569991919878,-1.762866496998334
1683986274148423300,11.23582373046875,-0.3568480313254551,0.5855293275002655,-1.3010306357374435
1683986274158464400,11.24586474609375,-0.18996465207906676,0.1382818221798293,-0.7632808684884331
1683986274168505300,11.25590576171875,-0.11584633585331809,-0.24784135821863076,-0.26318645474714364
1683986274178546100,11.265946533203126,-0.16952413327830917,-0.572379112307989,0.13871955886230372
1683986274188586900,11.2759873046875,-0.2905387281667324,-0.8565135001559137,0.44709205625319043
1683986274198627800,11.286028076171876,-0.4206414222521444,-1.0451874732955915,0.6908636094207261
1683986274208668600,11.296069091796875,-0.4856564997318008,-1.1740584373295035,0.8604321479899442
1683986274218709400,11.30610986328125,-0.47270154940866205,-1.2406187057475841,0.9486055374048513
1683986274228750300,11.316150634765624,-0.33230137835270585,-1.268805503802654,0.93153429038521
1683986274238791100,11.32619140625,-0.10596224666014668,-1.1822733879179441,0.8834118843271539
1683986274248831900,11.336232421875,0.10106980804949058,-1.055228710151634,0.8137283324642126
1683986274258873000,11.3462734375,0.3027937112814363,-0.8830385207769663,0.6914710998976278
1683986274268913800,11.356314208984376,0.4812154768900254,-0.7377071381654405,0.6124434471786881
1683986274278954600,11.36635498046875,0.6133911608747712,-0.6148190500228009,0.6103053093253599
1683986274288995600,11.37639599609375,0.6959956883730369,-0.5818533898385703,0.6591987609772227
1683986274299036300,11.386436767578124,0.7115684747148758,-0.6631460188794452,0.7118697167884069
1683986274309077200,11.3964775390625,0.7167781591014741,-0.7703070640002657,0.7184090615500989
1683986274319118000,11.406518310546875,0.743012487910202,-0.9722676277167018,0.8052949904687555
1683986274329158800,11.416559326171877,0.808510362991789,-1.1918721200171851,0.9336934090184895
1683986274339199600,11.42660009765625,0.9151526093896666,-1.4046530723862372,1.1006231307581207
1683986274349240600,11.436640869140623,1.07798850540276,-1.5456080436232127,1.2959260940193635
1683986274359281600,11.446681884765624,1.2363007068373382,-1.5812544823526087,1.3736348152446414
1683986274369322400,11.456722900390623,1.366909742394492,-1.5573167800914725,1.4511518479278442
1683986274379363200,11.466763671875,1.4742952585733409,-1.473996162266157,1.5142192842222786
1683986274389404100,11.476804443359375,1.5660524368310924,-1.3172726630617302,1.5606355667925456
1683986274399444900,11.48684521484375,1.5991559030501958,-1.1832842827117032,1.559793949018821
1683986274409485700,11.49688623046875,1.6239567993867827,-1.0363655090825912,1.514394283256829
1683986274419526600,11.506927001953123,1.5924953221685552,-0.9722375868475314,1.3458909989015397
1683986274429567400,11.5169677734375,1.5333464145496551,-0.9069919585083465,1.2741975784189428
1683986274439608600,11.5270087890625,1.480709552816374,-0.8670067787795602,1.2107796668341615
1683986274449649300,11.5370498046875,1.4284275769701347,-0.8613371847820879,1.2196664810674007
1683986274459690200,11.547090576171875,1.3823131321567048,-0.8462510108953918,1.1782522201313579
1683986274469731000,11.55713134765625,1.3717012404719482,-0.8524165152068076,1.076719284010967
1683986274479771800,11.567172119140626,1.4067203998958764,-0.8200707436165611,0.9581489563974495
1683986274489812600,11.577213134765625,1.4158998728120882,-0.8303971290550767,0.848719596806573
1683986274499853600,11.58725390625,1.4271346331791763,-0.8853282929201712,0.7457408904090624
1683986274509894300,11.597294677734377,1.4585361480542895,-0.8197278978143676,0.5582823753590352
1683986274519935200,11.60733544921875,1.4525737763117845,-0.7863211632769315,0.5321884154788643
1683986274529976000,11.61737646484375,1.495342254809032,-0.6219120025770798,0.5374894140576282
1683986274540017100,11.62741748046875,1.5527244806462435,-0.43141031249861767,0.5665774344103749
1683986274550057900,11.637458251953126,1.5805091857977371,-0.19552898401582713,0.6025810240235433
1683986274560098700,11.6474990234375,1.5776485206498085,-0.036333084097253346,0.63618469231051
1683986274570139600,11.6575400390625,1.4591238499516184,0.08448219310466748,0.6055564880056338
1683986274580180400,11.667580810546877,1.2548797130421363,0.022794723456395362,0.4807658196093483
1683986274590221200,11.67762158203125,0.8554460406769372,-0.05962610254652522,0.31791210173125917
1683986274600262100,11.687662353515623,0.2532744408787306,-0.21233415604351433,0.029928684281819034
1683986274610302900,11.697703369140624,-0.49735945459898667,-0.3947334289479147,-0.2406840323184903
1683986274620343600,11.707744140625,-1.2683894634198578,-0.47429943076467224,-0.5927467345334679
1683986274630384800,11.71778515625,-1.9481718540905897,-0.6017951965544224,-0.7014055252669479
1683986274640425600,11.727825927734376,-2.5246024132523095,-0.8451642990468963,-0.5317826269692897
1683986274650466600,11.737866943359377,-3.4383640290484125,-1.245821475882616,-0.30762577048725825
1683986274660507300,11.74790771484375,-4.296219349029418,-1.7189898490676274,0.010093212308447367
1683986274670548100,11.757948486328123,-4.394484519886069,-2.1025261879406516,0.39987945565585237
1683986274680589000,11.7679892578125,-3.783234596238816,-2.4110651016108378,0.8925995825433787
1683986274690629800,11.7780302734375,-2.5685684681908056,-2.4848742485667707,1.4912796020309906
1683986274700670900,11.7880712890625,-1.5764473676601563,-2.2827000617750093,1.5038552284340863
1683986274710711600,11.798112060546876,-1.2906832694285533,-2.04846763611741,0.8701095580956048
1683986274720752600,11.808153076171877,-1.2265644072132915,-1.7499847410936469,0.2632112502604054
1683986274730793400,11.81819384765625,-0.8596947193786013,-1.6254653930667977,-0.029717922276037905
1683986274740834200,11.828234619140623,-0.33138418192895747,-1.7480678559287537,-0.20401573184368896
1683986274750875100,11.838275390625,0.2567226886263231,-1.950337410010638,-0.16701221468300007
1683986274760915900,11.84831640625,0.6088812351940577,-2.23508930193463,-0.06320285778866382
1683986274770956600,11.858357177734376,0.7232732773292776,-2.423597812583266,-0.046533584708318164
1683986274780997600,11.86839794921875,0.779578447258073,-2.4333839417702543,-0.056462287914857384
1683986274791038600,11.87843896484375,0.8612276315851707,-2.2193632125826306,0.2355151175697327
1683986274801079500,11.88847998046875,0.9022493361949924,-1.8371233940083656,0.6261291505093275
1683986274811120300,11.898520751953123,0.8364628553796849,-1.2934398651835792,0.6407880783488393
1683986274821161100,11.9085615234375,0.8364225625917713,-0.7276320456558084,0.42884349817520534
1683986274831202000,11.918602294921875,1.1730387210309423,-0.17108774183637265,0.04735612867793621
1683986274841242800,11.928643310546876,1.589508533567345,0.39350271227882927,-0.33461809144718946
1683986274851283600,11.93868408203125,2.013473510808828,0.9963884352788634,-0.646656990216355
1683986274861324500,11.948724853515625,2.354037761709722,1.5593452453657957,-0.7212815284358538
1683986274871365300,11.958765625,2.483725547862471,1.9860315323074893,-0.7443804741192208
1683986274881406400,11.968806884765623,2.4872050285703904,2.196992397282295,-0.6945915223391715
1683986274891447200,11.97884765625,2.3750536442089536,2.3484208584477924,-0.5968608855077016
1683986274901488000,11.988888427734375,2.2662785053197823,2.435096263813393,-0.3732256888142358
1683986274911528900,11.99892919921875,2.015431881020211,2.3565955162711765,-0.029661178423000544
1683986274921569600,12.00897021484375,1.7177610398297012,2.2168002128677626,0.4175796507344993
1683986274931610600,12.019010986328125,1.180849433051202,1.8969879150485818,0.34610462171407463
1683986274941651400,12.0290517578125,0.27835083013398054,1.3567771909976343,0.04024791720370422
1683986274951692200,12.039092529296877,-0.47460246098780584,1.0911054611156934,-0.47178077703096427
1683986274961733000,12.049133544921874,-0.7403368949202949,0.860941410082334,-0.8899755478909315
1683986274971774100,12.059174560546875,-0.5257422923786439,0.6339473725490284,-1.0580077171990494
1683986274981815000,12.06921533203125,-0.05136227598057083,0.6919932364596518,-1.057335376682992
1683986274991855800,12.079256103515624,0.3151916265452994,0.9077506067165401,-0.9700946807989735
1683986275001896600,12.089297119140625,0.6142282486479557,1.0919175147844264,-0.5841202735681148
1683986275011937500,12.099337890625,0.919097065964932,1.2446775435950643,-0.23588418957671248
1683986275021978300,12.109378662109377,1.0864803791665383,1.4568405151653252,-0.13601303103020818
1683986275032019400,12.119419677734374,1.0600104333103026,1.5937342641987153,-0.16120672233303757
1683986275042060200,12.129460693359375,1.06186521049184,1.771198272701795,-0.038980960866700075
1683986275052101000,12.13950146484375,0.9026257992498528,1.9573216438566183,0.0671401023454819
1683986275062141900,12.149542236328124,0.612910389913177,2.027789115793605,-0.14086484904559518
1683986275072182600,12.1595830078125,0.23884427543001988,2.024411678233874,-0.24194574347935233
1683986275082223600,12.1696240234375,-0.15942239760455876,1.9510440826590683,-0.25662755962295813
1683986275092264400,12.179664794921877,-0.4700683355547464,1.8573265075620669,-0.34085130689853604
1683986275102305200,12.18970556640625,-0.6425793170134803,1.6976380346965105,-0.2585353851295684
1683986275112346300,12.19974658203125,-0.6862906216530815,1.5419812201310727,-0.06823825853837859
1683986275122387100,12.20978759765625,-0.640732884370553,1.4053635597863483,0.13134288794947774
1683986275132428000,12.219828369140624,-0.5372188091180986,1.3766264916290074,0.21843290346358066
1683986275142468800,12.229869140625,-0.34143126011824904,1.379948139245753,0.2625508309059204
1683986275152509600,12.239909912109376,-0.08299982553367274,1.4333696363904607,0.17221069342017659
1683986275162550400,12.249950927734377,0.09990060336062502,1.342067718542465,-0.017347335844587464
1683986275172591300,12.25999169921875,0.08783352363371272,1.1549177170041989,-0.1755003930585905
1683986275182632100,12.270032470703123,-0.3426889180965499,0.8788785934441566,-0.35471963880673696
1683986275192673200,12.280073486328124,-0.7766906022892329,0.6043801307689453,-0.39478540424536746
1683986275202714000,12.290114501953123,-1.0724617242646877,0.3599033356165123,-0.4371843337617015
1683986275212754900,12.3001552734375,-1.2131507397611858,0.07860803607095974,-0.533546924521053
1683986275222795600,12.310196044921875,-1.112475871922361,-0.2976999282405971,-0.5942678451791731
1683986275232836600,12.32023681640625,-1.0577924251684472,-0.7490859032569633,-0.34661245344768454
1683986275242877400,12.33027783203125,-1.2047401667201396,-1.1625819206101315,0.017044544168550037
1683986275252918200,12.340318603515623,-1.5476930142521745,-1.6296525001977953,0.4523587225178671
1683986275262959300,12.350359619140624,-2.210916757577179,-2.0923638343568616,0.8375897407398458
1683986275273000100,12.360400390625,-3.024177551196165,-2.4867491722575976,1.0596938132841833
1683986275283040900,12.37044140625,-3.638649701948467,-2.8155827522306667,0.9655370710941742
1683986275293081800,12.380482177734375,-3.5568261145808,-3.0944128035356484,-0.3066749572945361
1683986275303122600,12.39052294921875,-2.994992256154133,-3.245099067589447,-1.9122757910988275
1683986275313163400,12.400563720703126,-2.080017089696637,-3.0052843093330637,-3.2458529472559605
1683986275323204300,12.410604736328125,-0.5690774917962638,-2.5206007956691905,-4.40459156044774
1683986275333245400,12.420645751953124,0.8971070647873501,-2.080914497361317,-5.646718502073372
1683986275343286200,12.4306865234375,1.461461186376679,-1.8752522467828292,-6.832833290258981
1683986275353327000,12.4407275390625,0.673685967812948,-1.5194315911937415,-7.43747949597487
1683986275363367900,12.450768310546875,0.5252888202366148,-0.08747339249823212,-5.022081375259389
1683986275373408600,12.46080908203125,2.117568254588524,1.0306158064127755,-1.973415851698198
1683986275383449600,12.470849853515626,3.455852031703907,1.3034162522447093,-0.1772112847222375
1683986275393490400,12.480890869140625,3.9467301370080317,1.6443166733096881,1.037832260180452
1683986275403531200,12.490931640625,3.87876391402873,2.2598838804991224,1.9073162077650434
1683986275413572300,12.50097265625,3.4895317554084313,2.957910537831608,2.6599502562931128
1683986275423613100,12.511013427734374,3.1205928326402192,3.7119643689573794,3.4002325536113434
1683986275433653900,12.521054443359375,2.8100628852093523,4.265986442762107,4.077909946343816
1683986275443694800,12.53109521484375,2.6411378383694197,4.5626325606728,4.443704605268018
1683986275453735600,12.541135986328126,2.6224346161574243,3.9769630433482543,3.32005524628776
1683986275463776400,12.5511767578125,2.5794854165305248,2.68327760693885,1.1190319061063667
1683986275473817300,12.5612177734375,2.6490654946919476,1.4866209029880268,-0.46649694427763977
1683986275483858100,12.571258544921877,2.7789795397415755,0.527993202243766,-1.8222751616938047
1683986275493899200,12.581299560546874,2.825692653663192,-0.12459135051276364,-2.9130210876614604
1683986275503940000,12.59134033203125,2.784080505190042,-0.48722982394144937,-3.6229901315241237
1683986275513980800,12.60138134765625,2.672498941563322,-0.4780254364007699,-3.72583341590271
1683986275524021600,12.611422119140624,2.570229292075138,-0.12256956110313057,-3.1795306205778195
1683986275534062600,12.621462890625,2.4013533591854563,0.43034076683091377,-2.5680789947530513
1683986275544103600,12.63150390625,2.0281496048338075,0.8701701164837311,-1.9510483741816083
1683986275554144400,12.641544921875,1.4215655327507235,1.1562538146664636,-1.3734431266614195
1683986275564185300,12.651585693359374,0.4159230590718943,1.452084064402888,-1.0318236351460441
1683986275574226100,12.66162646484375,-1.15644907945985,1.6178255081729511,-0.9112672805556895
1683986275584266900,12.671667236328124,-2.96190357210873,1.6263904571259327,-1.021648407082429
