time,seconds_elapsed,z,y,x
1684006682436113600,0.034513916015625,1.0290282508462819e-10,3.217754697172762e-11,-3.101409087037043e-11
1684006682446154600,0.04455517578125,-0.0610051154328862,0.10747671121915128,0.18984842289931267
1684006682456195600,0.054595947265625,0.13597631460306767,0.3799910544018716,-0.0884604454903207
1684006682466236600,0.064636962890625,0.11893939970255551,0.3920907974743363,-0.22197246537909565
1684006682476277600,0.074677978515625,0.3683228492264545,0.36699771877528126,0.01641392705057809
1684006682486318600,0.084718994140625,0.534714221983121,0.28696727755375423,-0.2190721034532469
1684006682496359600,0.094760009765625,0.29929208748619657,-0.08108711258580956,-0.7251801489391514
1684006682506400600,0.104801025390625,0.566102981398747,-0.22537231458661855,-0.6402409077211471
1684006682516441800,0.11484228515625,0.5309443474318537,-0.3560557366254611,-0.8842525482588293
1684006682526482600,0.124883056640625,0.7049770355285717,-0.4067111014700427,-0.612751722382778
1684006682536523600,0.134924072265625,1.0364933014757047,-0.5166130064385954,-0.29116511342773727
1684006682546564800,0.144965087890625,0.9479379655255602,0.11387968064218269,-0.24474430089240473
1684006682556605900,0.15500634765625,0.3109502793568361,0.26321125032075476,-0.3037819862209974
1684006682566646600,0.165047119140625,-0.30578899380101787,-0.42933702470885493,0.34433650965122814
1684006682576687800,0.175088134765625,0.27390336990414227,0.5504746438953078,0.7612206936455154
1684006682586728900,0.18512939453125,0.38657426831276515,0.7410149573229527,0.8760836125194262
1684006682596769600,0.195170166015625,0.5893974305495433,0.35075616844428065,0.703253030820106
1684006682606810800,0.205211181640625,0.10856771464554188,0.24205970778454416,0.492414474514907
1684006682616851900,0.215252197265625,0.2169928550817242,0.31556653967116055,-0.1202921866222236
1684006682626893000,0.22529345703125,0.43086624153417313,-0.7701630591647843,0.6631698610053033
1684006682636933800,0.235334228515625,0.573002815299454,-0.249122619605433,0.2833576202331949
1684006682646974900,0.245375244140625,-0.08112525942740963,0.24871873864248925,-0.16767787940585932
1684006682657016000,0.25541650390625,-0.43311309815623633,0.038098812130507025,-0.09024858474957861
1684006682667057100,0.26545751953125,-0.653337001845629,0.76766347885082,-0.6690349578572794
1684006682677097900,0.275498291015625,-1.256649971018244,-0.22008228299260243,0.21642255783336073
1684006682687139000,0.285539306640625,-0.8781614305207345,-0.0415096282419073,0.45038604729757764
1684006682697180100,0.29558056640625,-0.06395244611394266,0.4338626862905232,0.2701663972085507
1684006682707220900,0.305621337890625,0.765271186893878,0.6460027693300726,0.20395326608108996
1684006682717262000,0.315662353515625,0.5280671119865832,0.3379807472647785,0.5209131240791238
1684006682727303100,0.325703369140625,0.741561412672324,0.4594678880143489,0.6287202834664086
1684006682737343900,0.335744384765625,0.04029798510223566,0.7204618454333904,0.5275807380051476
1684006682747385000,0.345785400390625,-0.9820256232915748,0.6914749145979504,0.015454292297785326
1684006682757426100,0.355826416015625,-1.7830042838860725,0.24938297275336999,0.21426630018828938
1684006682767467200,0.36586767578125,-1.450259446998064,0.19134187709627057,0.5314903258495176
1684006682777508300,0.37590869140625,-1.1131331922554586,0.2620768546413514,1.0733356476605114
1684006682787549100,0.385949462890625,-1.0426952838868129,0.3076119423640956,1.2910199164848966
1684006682797590200,0.395990478515625,-0.9416050911119244,0.11784505840609229,1.155514717210499
1684006682807631300,0.40603173828125,-1.3384392260578286,-0.8585624695863998,0.06188392633687769
1684006682817672100,0.416072509765625,0.4877262114910368,-1.1824574469400626,0.5860528946819998
1684006682827713200,0.426113525390625,1.1348180770034875,-1.29018497474308,0.12258434301128542
1684006682837754300,0.43615478515625,0.6816029548818856,-1.3725600243702891,-0.3579530715895187
1684006682847795100,0.446195556640625,-1.4292620419881639,-1.3360133170920074,-2.1090865134631356
1684006682857836200,0.456236572265625,-1.2616441249841321,-1.2845578195144756,-0.41706418993545813
1684006682867877300,0.466277587890625,0.9020755291275402,-1.4021253585911397,0.675230979777066
1684006682877918400,0.47631884765625,0.6932830810505042,-1.7534666061803041,0.4553580283542454
1684006682887959200,0.486359619140625,0.8963599205800574,-1.7314977646106748,0.23495817182550643
1684006682898000300,0.496400634765625,1.0783469677286988,-2.081553459170717,-0.1928868293616287
1684006682908041400,0.50644189453125,1.054083108848886,-2.009271145022489,-0.36425352096832425
1684006682918082600,0.51648291015625,0.8515335322389738,-1.1616678236611642,-1.1245379447875563
1684006682928123300,0.526523681640625,-0.5529001951179867,-0.33483886718220607,-1.1313905716179562
1684006682938164400,0.536564697265625,0.21248102181131287,-1.2575230597165301,0.24142074581017184
1684006682948205600,0.54660595703125,1.7384412288500006,-0.5787358282320239,0.7873640060186345
1684006682958246300,0.556646728515625,1.2974016667209956,-0.657665729561202,0.04857921600913321
1684006682968287400,0.566687744140625,0.909889697983327,-0.12946271909831528,-0.5628657341739013
1684006682978328600,0.57672900390625,0.02199673643419509,0.6576457023945393,-0.6415843963319225
1684006682988369600,0.58677001953125,-0.2732286454453949,1.1542620657771006,-0.05539417254261795
1684006682998410400,0.596810791015625,1.8234570025831505,0.7539334297102841,1.5888319014189332
1684006683008451600,0.606851806640625,4.314011573823806,1.989562511441449,3.991854190739086
1684006683018492600,0.61689306640625,0.2566692829942687,1.0891523361475741,0.30308008190873864
1684006683028533600,0.62693408203125,-4.427324771945097,2.4072661401124984,-3.375751018509257
1684006683038574600,0.636974853515625,-6.771905422218993,2.288096666370951,-2.595473766289985
1684006683048615600,0.64701611328125,-1.6184675694383202,2.095563888497653,1.1135334969413009
1684006683058656600,0.65705712890625,0.8490412236018693,1.793640136681404,1.4309735298056427
1684006683068697600,0.667097900390625,-0.5341606139394587,1.031438827579034,0.4052000046291175
1684006683078738600,0.677138916015625,-0.5837750435841171,0.8666195868378774,0.16525602357696473
1684006683088779600,0.68718017578125,-0.4279255867884179,0.5639276503673694,0.3022446632167561
1684006683098820800,0.69722119140625,-0.534329652768518,0.206458568625849,0.10955238336252629
1684006683108861600,0.707261962890625,-0.2579576969962026,-0.19079923627312895,0.015089988699847491
1684006683118902600,0.71730322265625,0.0569772719070863,0.056942939783658664,-0.14699649808385618
1684006683128943800,0.72734423828125,-0.1307682991638959,-0.03827285755394068,-0.5222148896441239
1684006683138984900,0.73738525390625,0.14589834216634148,-0.02951240546613938,-0.4442954064476071
1684006683149025600,0.747426025390625,0.32223987581635305,-0.0804176331235562,-0.20098781593576154
1684006683159066800,0.75746728515625,0.18597030630477224,0.10278844815934311,-0.0922298430164275
1684006683169107900,0.76750830078125,0.32987546929443534,0.14358758941258956,0.05038881308500607
1684006683179148600,0.777549072265625,0.44652795786803495,-0.04571104052572861,-0.23502016076305585
1684006683189189800,0.787590087890625,0.783678531686617,-0.0505547523428871,-0.2839789389880134
1684006683199230900,0.79763134765625,1.0820226670976774,-0.2996854781037439,-0.33139324188889374
1684006683209272000,0.80767236328125,1.1024470328926719,-0.4027996063135197,-0.5462598801059735
1684006683219312800,0.817713134765625,1.4234299660178795,-0.4444131852041308,-0.6609296799076168
1684006683229353900,0.82775439453125,1.292382240240446,-0.39842700954900595,-0.45813417445034565
1684006683239395000,0.83779541015625,0.8029294014346415,-0.020247936054245495,-0.5807847975554362
1684006683249436100,0.84783642578125,0.21324157730221607,0.10667610159444668,-0.5748786927968316
1684006683259476900,0.857877197265625,0.3100438119296407,0.10617017743823083,-0.5779910086322609
1684006683269518000,0.86791845703125,0.2533769606961556,0.15776681901586634,-0.5390691757814973
1684006683279559100,0.87795947265625,0.15936231609122176,0.19002151492830607,-0.4799709320115894
1684006683289599900,0.888000244140625,0.37445163726580577,0.07268905643219606,-0.23229169855471468
1684006683299641000,0.89804150390625,0.4245276451272767,0.06120538704226197,-0.07504129394534384
1684006683309682100,0.90808251953125,0.41012763966345694,0.04241466530712035,-0.034357070767693294
1684006683319723200,0.91812353515625,0.49239206317123685,-0.04011344920106362,-0.11795139322268758
1684006683329764000,0.928164306640625,0.23445367822785262,0.11029720308158104,-0.07708024984873033
1684006683339805100,0.93820556640625,-0.010416507683115214,0.12123346334368537,-0.1912164688058664
1684006683349846200,0.94824658203125,-0.0148224830822516,0.20354938498699712,-0.3860354423217108
1684006683359887300,0.95828759765625,-0.09995818151227694,0.11975812915663982,-0.4208068847112558
1684006683369928100,0.96832861328125,-0.11188793184817494,0.132742881885745,-0.3308634758813094
1684006683379969200,0.97836962890625,-0.06758594515485329,0.03757143029942834,-0.24346113220097165
1684006683390010300,0.98841064453125,-0.003819465626411231,-0.14161586762111741,-0.14323234554750708
1684006683400051100,0.998451416015625,0.1980915069044006,-0.3304853439212709,-0.06239080435268037
1684006683410092200,1.00849267578125,0.33992433542672673,-0.2997403145795589,0.10102462765836696
1684006683420133300,1.01853369140625,0.11182212833703646,-0.4093761444468056,0.4483532904843392
1684006683430174400,1.02857470703125,-0.07711267466097296,-0.4098639487108656,0.5106158255959126
1684006683440215200,1.03861572265625,-0.2050421237592795,-0.36353445043945154,0.6303601264290261
1684006683450256300,1.04865673828125,-0.47992277156863183,-0.2382445336102428,0.43266677854093377
1684006683460297400,1.05869775390625,-0.43266415593745217,-0.25426340086215826,0.3141970633403522
1684006683470338600,1.06873876953125,-0.2794568538781305,-0.2967014311877405,0.19780206693099742
1684006683480379300,1.07877978515625,-0.039586543889165896,-0.3911314009581584,0.02153110511603
1684006683490420400,1.08882080078125,0.016972541757636076,-0.49475526815483284,0.006893634986000923
1684006683500461600,1.09886181640625,-0.015320777865581158,-0.35179901116821327,-0.23329591749074133
1684006683510502300,1.10890283203125,-0.0810317992634607,-0.3051595688353375,-0.11887788790650204
1684006683520543400,1.11894384765625,-0.21151113503734256,-0.24074363709229765,0.1739873886020524
1684006683530584600,1.12898486328125,-0.06781148915282921,-0.1875929831931943,0.2775039672742092
1684006683540625600,1.13902587890625,0.16210460649483266,-0.22981691346577576,0.41474771510195807
1684006683550666400,1.14906689453125,0.22789478307790176,-0.18072938917818224,0.23257398606682905
1684006683560707600,1.15910791015625,0.11516809470403136,-0.0734848976799314,0.1471385956535707
1684006683570748600,1.16914892578125,0.041798114795231225,0.03265285486698306,0.029385089974754284
1684006683580789400,1.17918994140625,0.0481982231012751,0.09769344335463978,-0.09952068329501661
1684006683590830600,1.18923095703125,0.062252044655464175,0.18295383462799836,-0.14310312273637743
1684006683600871600,1.19927197265625,0.13520574584176,0.22292804710661465,-0.21406316751194304
1684006683610912600,1.20931298828125,0.14715194690088462,0.395760059455422,-0.23457431790284738
1684006683620953600,1.21935400390625,0.216491222272429,0.5526309013490679,-0.29285430899587284
1684006683630994600,1.22939501953125,0.1420421599962572,1.1861593724165511,-1.052806377525917
1684006683641035600,1.23943603515625,-0.29729008682212926,1.2346968651892922,-0.9032807349044006
1684006683651076800,1.249477294921875,0.12304663650428,1.2726726532407118,-0.5178160666704856
1684006683661117600,1.25951806640625,0.4115777014531758,1.5713551044542733,-0.5771522521671277
1684006683671158600,1.26955908203125,0.4177761078609698,1.75085473048289,-0.8483052252615197
1684006683681199800,1.27960009765625,0.45823264131051117,1.7835233209714965,-1.0918264389165737
1684006683691240600,1.28964111328125,0.7389855384550673,1.904248714434391,-1.175028324152512
1684006683701281600,1.29968212890625,1.02973771084774,2.0586624145369843,-0.9918432234963055
1684006683711322800,1.30972314453125,1.0742471217434202,2.1533060074213757,-0.8883996010025033
1684006683721363900,1.319764404296875,0.4427733421712603,2.1945500375727836,-0.9084730148365254
1684006683731405000,1.329805419921875,-0.34175562839390006,2.125797987060019,-0.8981065750677742
1684006683741445800,1.33984619140625,-0.5341367721553765,1.9194846154646412,-0.8613348006389823
1684006683751486900,1.34988720703125,0.46441745757388225,1.893424511016794,-1.191279411327102
1684006683761528000,1.359928466796875,0.35171914091142836,0.9537696838217878,-2.6032829285542296
1684006683771568800,1.36996923828125,-0.6064733268513025,0.16127681743758307,-1.792921066212615
1684006683781609900,1.38001025390625,-0.590357184397671,0.17352151890366607,-1.1589241027093002
1684006683791651000,1.390051513671875,0.1558613778389061,-0.12828397761581992,-0.5970153806953865
1684006683801691800,1.40009228515625,0.7308700084740659,-0.7967853544581069,0.3871488571983297
1684006683811732900,1.41013330078125,1.790712475728412,-1.0692701338639368,1.5156412124402312
1684006683821774000,1.42017431640625,2.378654479888053,-0.8754415513019096,2.617759704697246
1684006683831815100,1.430215576171875,2.150055885310657,-0.6062531471221395,3.2291145323530692
1684006683841856200,1.440256591796875,1.1728466749854116,-0.7013444901120287,3.353109359652868
1684006683851897000,1.45029736328125,0.30864435436485643,-1.1477651595360123,3.277279853672218
1684006683861938100,1.46033837890625,-0.6777443886078899,-2.3180165292725956,2.7142333985280347
1684006683871979200,1.470379638671875,-1.4188539983461956,-1.4527177809182443,1.0184049606932817
1684006683882020000,1.48042041015625,-1.1944003105189924,-2.0297689437231425,1.922135353208329
1684006683892061100,1.49046142578125,0.32260790479576623,-3.3273811340186534,1.1582984924333504
1684006683902102200,1.500502685546875,0.32056117046246846,-2.9257922171222686,1.3762664794822859
1684006683912143300,1.510543701171875,0.08998128760017007,-1.9352111815631978,0.19435501090191573
1684006683922184100,1.52058447265625,-0.795784711887886,-1.358826637171104,-0.8551630974562329
1684006683932225200,1.53062548828125,-1.3084156514437852,-1.361083984350438,-1.4047222137425532
1684006683942266300,1.540666748046875,-0.8871254921567624,-1.2720737456264497,-0.770527362827755
1684006683952307400,1.550707763671875,0.023115940546827075,-1.138971328749931,0.5915765762736686
1684006683962348200,1.56074853515625,0.03098884966191773,-1.98151254667195,1.4021711348740455
1684006683972389300,1.570789794921875,-1.0335152149540812,-2.2143158911954104,0.9630489347993567
1684006683982430400,1.580830810546875,-1.2920030356222236,-1.765170574255537,0.9734077453165554
1684006683992471200,1.59087158203125,-0.7460226416892911,-0.8825082779096861,1.0313072205337552
1684006684002512300,1.60091259765625,-0.35675752156132357,-0.5292849540217354,1.4559116361800695
1684006684012553400,1.610953857421875,-0.2774000466190659,-0.4297485350360024,1.3243093489729958
1684006684022594600,1.620994873046875,0.2298505604124164,-0.5971250533825355,1.3270425796580498
1684006684032635300,1.63103564453125,0.3896060882340806,-0.8903851509570871,1.5125007630915994
1684006684042676400,1.641076904296875,0.5925636887634612,-1.238729000189131,1.4020957947520332
1684006684052717600,1.651117919921875,0.5960121154429547,-1.418629646264991,1.1856679916961066
1684006684062758600,1.661158935546875,0.6014482379039173,-1.075921058577312,1.1444978714294307
1684006684072799400,1.67119970703125,0.28953692326325947,-0.49496936791065566,0.744044303918902
1684006684082840600,1.681240966796875,0.307739824207135,0.09935331349960094,0.844850540262736
1684006684092881600,1.691281982421875,0.017589300937763265,0.5035333632956223,0.8105211257507638
1684006684102922400,1.70132275390625,-0.10641004158140993,1.113130569464812,0.3408355713805152
1684006684112963600,1.711364013671875,-0.1991861015652353,1.2725622652536193,-0.41582393640872545
1684006684123004600,1.721405029296875,-0.8500757217358951,1.682698726644696,-2.463826656348739
1684006684133045600,1.731446044921875,-0.8975270391608361,2.0439348221086164,-3.7263684271100814
1684006684143086600,1.74148681640625,-0.5052894353816837,2.1466994286161145,-4.167249679689564
1684006684153127600,1.751528076171875,-0.11823543167624859,2.4912114143818753,-4.031099796396314
1684006684163168600,1.761569091796875,0.12361415480434951,2.7663137911306306,-3.698138236857302
1684006684173209800,1.771610107421875,0.3675063847997111,2.539197206457725,-1.595913887177634
1684006684183250600,1.781651123046875,0.4887833893784517,2.582887649416068,-0.4033813477026017
1684006684193291600,1.791692138671875,0.1667025088251023,2.596503019442204,-0.4291706085810167
1684006684203332800,1.801733154296875,0.11383096863940691,2.347119093040185,-0.49500846859420844
1684006684213373900,1.811774169921875,0.09523873777180179,1.8835034371981016,-0.578380107768118
1684006684223414600,1.821815185546875,0.38697132468405593,1.4970774650703296,-0.9881963730706832
1684006684233455800,1.831856201171875,0.42182734624186763,0.997885704122381,-1.4924039841004104
1684006684243496900,1.841897216796875,-0.2526911198710095,0.3135304450715532,-2.4003190993269015
1684006684253537600,1.851938232421875,-0.02498292933884985,0.9805979729680071,-3.1260819435739196
1684006684263578800,1.861979248046875,-0.5255571602975311,1.4355866907546486,-2.6881046294593247
1684006684273619900,1.872020263671875,-0.8440601824993235,0.9827609063084707,-1.8147888184375887
1684006684283661000,1.882061279296875,-0.36959299435751974,0.1817207337143129,-0.6594209671938253
1684006684293701800,1.892102294921875,0.25075957176736285,-0.697345256934751,1.0336904525502444
1684006684303742900,1.902143310546875,0.28873994933454417,-1.310902118774375,3.4461469651509713
1684006684313784000,1.912184326171875,-0.050752818595702756,-1.061594009575851,3.5496463775811353
1684006684323825100,1.9222255859375,-0.6347010135763895,-0.7744350432413513,3.373756885718877
1684006684333865900,1.932266357421875,-0.3540439604576216,-0.863149642938581,2.5513248442911722
1684006684343907000,1.942307373046875,-0.2699937820169003,-1.0919356344903597,1.8066353797943318
1684006684353948100,1.952348388671875,0.08061641442441782,-1.0871453284576333,0.8610687256904872
1684006684363988900,1.962389404296875,0.22021159535997764,-1.0010013580440753,0.46225690839864303
1684006684374030000,1.972430419921875,-0.2426066400280679,-0.7292227743816043,0.509517669633565
1684006684384071100,1.982471435546875,-0.1438096762652701,-0.3599686622948858,0.1450638770178696
1684006684394112200,1.9925126953125,0.6120015382749868,0.1451764107044503,-0.4230732917880337
1684006684404153000,2.002553466796875,0.9293047785403326,0.30177116393895237,-0.7938671112292122
1684006684414194100,2.012594482421875,0.5933741331552335,-0.5348334312464136,0.33706569672611514
1684006684424235200,2.022635498046875,0.5024152397053608,-1.0104317665363243,1.0929622651209554
1684006684434276300,2.0326767578125,0.4208263157625287,-0.7383618355714108,0.2219600678336959
1684006684444317100,2.042717529296875,-0.18688940996786904,-1.143088340685311,-0.4642477035723013
1684006684454358200,2.052758544921875,-0.715409755664078,-1.0012617110968611,-0.7030944823983993
1684006684464399300,2.062799560546875,-0.8234286308269066,-0.9410319328651469,-0.8634772299165101
1684006684474440400,2.0728408203125,-0.5352231262946425,-0.7059650420923316,-1.0107612609738257
1684006684484481200,2.082881591796875,-0.5146569013599595,-0.5513834952063,-0.6562409401598105
1684006684494522300,2.092922607421875,-0.539332985772926,-0.38535261165876017,-0.17379856116046966
1684006684504563400,2.1029638671875,-0.43092298495623393,0.09592008595872319,0.4186191559861441
1684006684514604500,2.1130048828125,-0.03890872009347721,0.6441593169180144,0.994731426262079
1684006684524645300,2.123045654296875,0.8743096590579229,1.0330171585125636,1.3550620079693783
1684006684534686400,2.133086669921875,1.7544012069662374,1.1975822448046067,1.824735164597357
1684006684544727600,2.1431279296875,1.93819832785712,1.1593627930233417,2.2711086272835894
1684006684554768300,2.153168701171875,1.668704390493157,0.997441291718067,2.2070212363566473
1684006684564809400,2.163209716796875,1.3578276634720168,1.0175313950891398,2.0069603920291055
1684006684574850600,2.1732509765625,0.9862127303710514,1.2723431586782685,1.5550146103477909
1684006684584891600,2.1832919921875,0.35671925543621513,1.5209064482176393,0.7239012717527377
1684006684594932400,2.193332763671875,-0.620717287229389,0.9629430772146336,0.10253381731546975
1684006684604973600,2.203373779296875,-1.2639713288288719,0.22096586226089904,-0.043100833967950225
1684006684615014600,2.2134150390625,-1.2063809633487108,0.24328851705603463,-0.04474306114819158
1684006684625055600,2.2234560546875,-1.1376721858718775,-0.055072784427369466,0.21052265159105257
1684006684635096600,2.233496826171875,-0.8032442332318558,-0.7360410689505446,0.8961625098770094
1684006684645137600,2.2435380859375,-0.42513096316554594,-1.0293145181290972,1.869248866914064
1684006684655178600,2.2535791015625,0.44299548880463546,-1.420437335851106,3.775796890237963
1684006684665219800,2.2636201171875,0.8489974736159113,-0.4213633536792544,3.02639722821445
1684006684675260600,2.273660888671875,0.41593801983108175,-0.5477566718842173,1.5386996268053317
1684006684685301600,2.2837021484375,0.2753734589555077,-0.37744331344704196,-0.06174659736893717
1684006684695342800,2.2937431640625,-0.29259192962018976,-1.673480033863342,-1.225460529176589
1684006684705383600,2.303783935546875,-0.47170901313306474,-3.074690341969439,-1.3644080161920729
1684006684715424600,2.3138251953125,0.13932037355863977,-3.4850597381687716,-1.086935520034171
1684006684725465800,2.3238662109375,0.9650608897601258,-1.835406780242833,-1.4651203156224666
1684006684735506900,2.3339072265625,0.8886904715399306,-1.0561046601058766,-1.9744944572300065
1684006684745547600,2.343947998046875,0.3356301784783287,-1.1721034049886652,-2.3987874983642774
1684006684755588800,2.3539892578125,-0.13425564764548215,-0.9747371673451937,-2.426129817842881
1684006684765629900,2.3640302734375,-0.48875856394593853,-0.5835700034250988,-2.186265468576019
1684006684775671000,2.3740712890625,-0.8418508768203093,-0.3406310082628277,-2.207277774838828
1684006684785711800,2.3841123046875,-1.161628007901472,-0.31438589097210023,-1.9299387931908252
1684006684795752900,2.3941533203125,-1.2347999809677124,-0.4380893707065464,-1.4925632476979969
1684006684805794000,2.4041943359375,-1.0491894482631954,-0.5746846199957926,-1.335894584558121
1684006684815834800,2.414235107421875,-0.6287071705550242,-0.6710991859253977,-1.0006246566734707
1684006684825875900,2.4242763671875,-0.07501077654113725,-0.8064608573146317,-0.47175645840965225
1684006684835917000,2.4343173828125,0.3530129194662289,-0.8814334869225781,-0.02072000488229341
1684006684845958100,2.4443583984375,0.5728679895815828,-0.7949919701251786,0.3032855987628302
1684006684855999200,2.454399658203125,0.5694500207345955,-0.8530211447512751,0.40967369090443884
1684006684866040000,2.4644404296875,0.36041557787074663,-0.7154350281079426,0.5727667808649444
1684006684876081100,2.4744814453125,0.02595675001594907,-0.5661730767214416,0.5862269401238241
1684006684886122200,2.4845224609375,-0.3004043102492784,-0.522522926274864,0.1336889267082889
1684006684896163000,2.4945634765625,-0.43996727460461293,0.5905966757496438,0.15764045722818953
1684006684906204100,2.5046044921875,-0.6165592670049311,0.18727684039645948,0.20531749713348654
1684006684916245200,2.5146455078125,-0.6106510162272353,-0.20394039169214248,0.14568281176454667
1684006684926286300,2.524686767578125,-0.2488551139496343,-0.017231464345986026,0.17486572258707184
1684006684936327100,2.5347275390625,0.3031427860074597,0.33715772621148343,0.036845207161323806
1684006684946368200,2.5447685546875,0.4302119016865214,0.4412307739023036,-0.2927255629596653
1684006684956409300,2.5548095703125,0.5906053781343562,0.6888480187292036,0.20627021777349544
1684006684966450400,2.564850830078125,0.6451293231256156,0.8631753920676195,0.2607321739731626
1684006684976491200,2.5748916015625,0.739672660897962,0.8703522682730392,0.30128192912464996
1684006684986532300,2.5849326171875,0.754448890657237,0.7389087677297657,0.39867544167428853
1684006684996573400,2.594973876953125,0.6059180497675917,0.7743105888282042,0.5794129372131549
1684006685006614400,2.605014892578125,0.5125325919043433,0.8720569612114207,0.5505418777407035
1684006685016655300,2.6150556640625,0.4111165999727137,0.9525003433033299,0.3181400299171952
1684006685026696400,2.6250966796875,0.22372543795552263,0.6817970276508487,0.23744153983454822
1684006685036737500,2.635137939453125,0.06908488274918402,0.39035940157548976,0.11258840564947942
1684006685046778300,2.6451787109375,-0.08752012260621508,-0.015423297837042526,-0.013741970059754947
1684006685056819400,2.6552197265625,-0.14808225616872003,-0.404544830251873,-0.13195467008483536
1684006685066860500,2.6652607421875,0.013494372367383163,-0.4865174293573491,-0.23058509832947194
1684006685076901600,2.675302001953125,0.15425264829406288,-0.4511284828517745,-0.3585987090077461
1684006685086942400,2.6853427734375,0.3978129624748465,-0.6635713577156419,-0.5462875366653762
1684006685096983600,2.6953837890625,0.6227380037933905,-1.1460852622745061,-0.6660494804019161
1684006685107024600,2.705425048828125,1.037694930870896,-1.4398093223378075,-0.7013125419483971
1684006685117065600,2.715466064453125,1.555416583996296,-0.9722070693635202,-1.0378413199848329
1684006685127106600,2.7255068359375,1.3936728238106477,-0.9275245668476547,-1.3615727424240853
1684006685137147600,2.7355478515625,0.7315330505139975,-0.8424339294788876,-1.6392922402016308
1684006685147188600,2.745589111328125,-0.038559079081257504,-0.6863379478234308,-1.9889078139483538
1684006685157229700,2.755630126953125,-1.1352732181189265,-0.7860527037339712,-2.2000584601183437
1684006685167270600,2.7656708984375,-2.1936697960597304,-0.8963456152959203,-2.248561859123772
1684006685177311600,2.775712158203125,-2.8553614615913325,-0.818472385400137,-1.837838649689398
1684006685187352800,2.785753173828125,-2.859123230053388,-0.4868369101712135,-1.1787352562874427
1684006685197393800,2.795794189453125,-2.3841602803870843,-0.1688466072562469,-0.5597848893191136
1684006685207434600,2.8058349609375,-1.5550272464804402,-0.25677013397872495,-0.3128209112806619
1684006685217475800,2.815876220703125,-0.7583835125031353,-0.23134565363427764,-0.12385129926095673
1684006685227516800,2.825917236328125,-0.15611982348712264,0.10192966461950305,0.09713506704788154
1684006685237557600,2.8359580078125,0.14158284666162213,-0.19282150273755924,0.7503738404291679
1684006685247598800,2.845999267578125,0.17780184738422786,0.1905193330403248,0.9243021012395278
1684006685257639900,2.856040283203125,0.08466398714835187,0.5186600686476622,0.9967617988682832
1684006685267680900,2.866081298828125,-0.14123845092403842,0.6462888715791796,0.8795309068332612
1684006685277721800,2.8761220703125,-0.3349609375803931,0.6644706726156733,0.6818819046609734
1684006685287762900,2.886163330078125,-0.22765517222480855,0.6883969305903538,0.6658730507560523
1684006685297804000,2.896204345703125,0.2555671931083135,0.8527684211422033,0.8856487273229473
1684006685307845000,2.906245361328125,0.756383359399967,0.7576222419079057,0.7298932074638168
1684006685317885900,2.916286376953125,0.934883236986513,0.588960647516842,0.6130342483336522
1684006685327927000,2.926327392578125,0.4876475334612257,0.43119716644378114,0.15633344653180678
1684006685337968000,2.936368408203125,-0.07658553113988921,0.340036392382972,-0.5948100090449969
1684006685348009100,2.946409423828125,-0.48518383488992345,0.5145411491671312,-1.1753802298964648
1684006685358050000,2.956450439453125,-0.9246619939316925,0.44322633741401335,-1.5422439574819007
1684006685368091100,2.966491455078125,-1.123535275438419,0.6443290710355655,-1.0178403854922486
1684006685378132100,2.976532470703125,-1.0382846593780848,0.6559724808923555,-0.49209356318606523
1684006685388173000,2.986573486328125,-0.89960968488231,0.6149821281116399,-0.49365520476814784
1684006685398214100,2.996614501953125,-0.9422059060591986,0.25992155072425316,-0.573760032622515
1684006685408255200,3.006655517578125,-0.7921438217413774,-0.6571822166011386,-0.29295492159394876
1684006685418296200,3.016696533203125,-0.32222259042800777,-0.8987307548636844,0.3806257248482201
1684006685428337300,3.02673779296875,0.5060691832701287,-0.7524099350634694,1.0586681367071444
1684006685438378200,3.036778564453125,1.14441084852455,-0.48773956289348636,0.9275140763474892
1684006685448419200,3.046819580078125,0.8581164481114795,0.16813611992823718,0.15129089366528128
1684006685458460300,3.05686083984375,0.03684377666597905,0.25785160060652884,-0.18556880939624573
1684006685468501200,3.066901611328125,-0.6847784519854214,0.02731847763051134,-0.49841070168632345
1684006685478542300,3.076942626953125,-1.0055558682871244,0.07179260239221447,-0.5389051437734609
1684006685488583300,3.086983642578125,-1.0923238993814433,0.025211334045479965,-0.33448219307933313
1684006685498624400,3.09702490234375,-1.0205968619282586,0.00902509695594318,-0.2929048538056701
1684006685508665300,3.107065673828125,-0.7136380673253655,-0.28525447839154255,-0.06070709240152503
1684006685518706400,3.117106689453125,-0.2516400814078654,-0.009280681465165103,0.07648372644208419
1684006685528747400,3.12714794921875,0.3932864666479853,0.6034855843524347,0.05821943295771279
1684006685538788600,3.13718896484375,0.2747434376872863,0.6211438180581784,-0.14394712445458935
1684006685548829400,3.147229736328125,-0.08420097831130474,0.5218286512789403,-0.17926597602356792
1684006685558870400,3.157270751953125,-0.051248311990083194,0.6773848534044111,-0.36365032201696273
1684006685568911600,3.16731201171875,0.005734086092335393,1.2716422081403493,-0.6817650794689816
1684006685578952600,3.17735302734375,-0.10851728908869218,0.7340402603862672,-0.5923256872543918
1684006685588993500,3.187393798828125,0.025219559722931727,0.025509357460000288,-0.40409231178156213
1684006685599034600,3.19743505859375,-0.07252454764023453,-0.034637451124379194,-0.07092618930070503
1684006685609075600,3.20747607421875,-0.17062044154520695,-0.1056761740851565,0.10719966897872749
1684006685619116500,3.217516845703125,-0.189575076150953,0.02545595162036346,-0.028599262144619074
1684006685629157600,3.227557861328125,-0.2435574532209084,0.03442764287491643,-0.3255867958587959
1684006685639198600,3.23759912109375,-0.586909770918766,-0.5912337304630251,-0.6872153281500218
1684006685649239700,3.24764013671875,-0.9021801949875354,-1.136947631902045,-0.985951900431487
1684006685659280800,3.25768115234375,-1.1697809696225059,-1.5412364006561363,-1.1356015203977794
1684006685669321600,3.26772216796875,-1.5246012210863793,-0.7230429650338247,-1.3367958067199894
1684006685679362700,3.27776318359375,-1.099577784504672,-0.008006095980607005,-0.6888871192948185
1684006685689403800,3.28780419921875,-0.49734294402409873,0.08220624922522501,-0.12257385250274874
1684006685699444600,3.297844970703125,-0.17745983603941629,0.1041641234232417,-0.008000373702430806
1684006685709485700,3.30788623046875,-0.1954303979511871,0.08068895349653135,0.05148506172447894
1684006685719526800,3.31792724609375,-0.43021762373023875,0.17690563209665117,0.0317301749990992
1684006685729567900,3.32796826171875,0.18659877769793595,0.7611041068388712,0.9290528297010193
1684006685739608800,3.338009033203125,0.01270008088860624,0.16513824454670695,0.8841695784454975
1684006685749649800,3.34805029296875,-0.9874521492797296,-0.1083974838793951,0.1314191817284418
1684006685759690900,3.35809130859375,-2.0361998079366965,-0.7167763708954333,-0.0764322279421972
1684006685769732000,3.36813232421875,-2.591242313247528,-1.9987974166159233,0.07966566085967623
1684006685779772800,3.37817333984375,-1.6704432964700155,-1.1836218834456613,-0.12507963184201876
1684006685789813900,3.38821435546875,-0.2907052040799108,0.1224155427041701,-0.1883573531743914
1684006685799855000,3.39825537109375,0.2543785571873633,0.4680504797930546,0.10500621788484607
1684006685809896100,3.408296630859375,0.614452362132544,0.7209076880533369,0.32164430606590694
1684006685819936900,3.41833740234375,0.17505705369251787,-0.03776550300821515,0.4323849676811955
1684006685829978000,3.42837841796875,0.4411631822091041,-0.5918216705033399,0.6310391427519199
1684006685840019100,3.43841943359375,0.8151509762174116,-0.7313284874143356,0.6340665818181417
1684006685850060000,3.44846044921875,1.0855238437004495,-0.8439579009932564,0.7490220070076588
1684006685860101000,3.45850146484375,0.9758024215430525,-0.7441525459877242,0.8535199165360368
1684006685870142100,3.46854248046875,0.36736440667444265,-0.0037932395922601887,1.6397981644404094
1684006685880183200,3.47858349609375,-0.1795136927934747,0.03010034568729469,0.6550540924264643
1684006685890224300,3.488624755859375,-0.1872390508211228,0.327500820133515,-0.06513357167475467
1684006685900265100,3.49866552734375,-0.12255454064641218,0.3088402748196734,-0.4252734183392448
1684006685910306200,3.50870654296875,0.0412625074713597,0.27894735343863747,-0.7500834465655917
1684006685920347300,3.518747802734375,0.47324013700554257,0.12727165221840767,-0.9211201667322615
1684006685930388100,3.52878857421875,0.7259461879829577,-0.1540746689396811,-1.1149115562851004
1684006685940429200,3.53882958984375,0.7919158935228089,-0.542236328101718,-1.0795712471204986
1684006685950470300,3.54887060546875,0.9196670653191407,-0.6357436181580088,-0.7574810982800817
1684006685960511400,3.558911865234375,0.8839458823001913,-0.5787291526007834,-0.5711255073957948
1684006685970552200,3.56895263671875,0.6167482138693117,-0.6508932113173665,-0.7018346786478606
1684006685980593300,3.57899365234375,0.706383466773447,-0.6720318794787383,-0.31316709516845626
1684006685990634400,3.589034912109375,0.685641169478102,-0.6767930986388361,0.42519712451776015
1684006686000675600,3.599075927734375,0.5662961006791807,-0.49591064465466866,0.663042068524925
1684006686010716300,3.60911669921875,0.29370403291372804,-0.43810415264668956,0.4995627402382021
1684006686020757400,3.61915771484375,0.014615297354123737,-0.14598226538512823,0.17473030088148986
1684006686030798600,3.629198974609375,0.018717884882614746,0.07579231258395215,-0.10351943971891729
1684006686040839600,3.639239990234375,0.25616806750752,0.0563001631603915,-0.054662704545465325
1684006686050880400,3.64928076171875,0.4222434162262803,-0.020152568886860574,-0.02823257462838377
1684006686060921600,3.659322021484375,0.4348673820620898,-0.04327917091216463,0.04508352267487845
1684006686070962600,3.669363037109375,0.34685069314776446,-0.09008598329256379,0.37396860136741583
1684006686081003400,3.67940380859375,0.4690309763178412,-0.15463542924322501,0.6187982559364735
1684006686091044600,3.68944482421875,0.589526176317098,-0.1409864424827744,0.6912245748600919
1684006686101085600,3.699486083984375,0.6105688811528747,-0.05837917336472354,0.4329795836699565
1684006686111126600,3.709527099609375,0.6010346411860085,0.027194022973523545,-0.03355693826246892
1684006686121167600,3.71956787109375,0.47915035485051016,-0.09773731221682147,-0.1540155410481616
1684006686131208600,3.729609130859375,0.44608944654368615,0.09161710741915527,-0.5384941100523031
1684006686141249600,3.739650146484375,0.479407727778375,0.004487991350662136,-1.0149431228576709
1684006686151290800,3.749691162109375,0.6629523040000858,-0.24941015231261993,-1.0284399986637893
1684006686161331600,3.75973193359375,0.9874459505618527,-0.3558373452006094,-0.4576821328823379
1684006686171372600,3.769773193359375,1.2427612543625788,-0.3407888413963598,-0.26117038739910253
1684006686181413800,3.779814208984375,1.3955965042809984,-0.47510147076756104,-0.5035610200051901
1684006686191454900,3.789855224609375,1.3145036697259738,-0.4590597153301611,-0.41375875461304684
1684006686201495700,3.799896240234375,1.1208653450505572,-0.3043403625016226,-0.4641733170049147
1684006686211536800,3.809937255859375,0.9716622830381456,-0.2088065146520132,-0.5917339324859324
1684006686221577900,3.819978271484375,0.919832944869238,-0.31011056899119294,-0.592897415034768
1684006686231619000,3.830019287109375,1.0592656134439136,-0.37736988064167615,-0.44057798388108715
1684006686241659800,3.840060302734375,1.2090001105299872,-0.40235662470078953,-0.37533950795854787
1684006686251700900,3.850101318359375,1.4026041032054208,-0.396177768690487,-0.5326886178426161
1684006686261742000,3.860142333984375,1.188420772515065,-0.5576896665977618,-0.11713981614642603
1684006686271783100,3.87018359375,1.068095088008645,-0.4752364158789078,-0.14638710036979166
1684006686281823900,3.880224365234375,1.092517018383173,-0.2743401528729403,-0.44569396983077875
1684006686291865000,3.890265380859375,0.9888890386120218,-0.302261352703146,-0.5089302063923107
1684006686301906100,3.900306396484375,1.123811006375151,0.21482563021639745,-0.5616750717216382
1684006686311946900,3.910347412109375,1.0101954937225066,-0.01555538187976857,0.3835096359420653
1684006686321988000,3.920388427734375,0.86206567294159,0.025856971752474582,0.6076564788459545
1684006686332029100,3.930429443359375,0.7876238822610023,0.057287216080125034,0.7530608177436274
1684006686342070200,3.940470703125,0.666314125120959,0.0873608589747686,0.5315804482109252
1684006686352111300,3.95051171875,0.7084373236746203,0.12284517283932356,0.14832639693640162
1684006686362152100,3.960552490234375,0.7522710561610952,0.006970405714315403,-0.20676708232998267
1684006686372193200,3.970593505859375,0.8358626366142647,-0.055240631160342266,-0.36944818493822457
1684006686382234300,3.980634765625,0.9788714051582659,-0.10136699682520538,-0.4298934936705187
1684006686392275100,3.990675537109375,0.8887577056070101,-0.15518856050302743,-0.6626467704913004
1684006686402316200,4.000716552734375,0.7679630517036143,-0.3835000991145205,-0.7233343124188745
1684006686412357300,4.0107578125,0.5236245393967522,-0.3801693916527293,-0.9495248794437724
1684006686422398400,4.020798828125,0.2610388399333214,-0.3199853896903692,-0.8558044434623009
1684006686432439200,4.030839599609375,-0.18289840225965354,-0.5761566161542594,-0.46765518191324024
1684006686442480300,4.040880615234375,0.4235065578887033,0.24923086158589522,-0.1510367393751523
1684006686452521400,4.050921875,0.6656567453951616,0.4256210326771657,0.21934032440753162
1684006686462562600,4.060962890625,0.729982674154376,0.3968849181882575,0.3143329618677198
1684006686472603300,4.071003662109375,0.4733284713070332,0.29667282114481164,0.1683239937079087
1684006686482644400,4.081044921875,0.3576945067622144,0.09708118431608906,0.40369367596660494
1684006686492685600,4.0910859375,0.23678851130364112,-0.1432218552438187,0.21996116635428142
1684006686502726600,4.101126953125,0.2511836291212197,-0.2188415527531689,-0.06207418452160582
1684006686512767400,4.111167724609375,0.34846675408226924,-0.016272068055964102,0.1306447983132617
1684006686522808600,4.121208984375,0.10950073586066325,-0.2309069632523168,0.3458027840345207
1684006686532849600,4.13125,0.12811756140660718,-0.053663253658496356,0.361791133846172
1684006686542890400,4.141290771484375,-0.07506549352655213,-0.1578989028787699,0.3473281860679168
1684006686552931600,4.151331787109375,-0.13176238542651403,-0.13804245003186066,0.2084436417490785
1684006686562972600,4.161373046875,0.06727412324515711,-0.013041496348742816,0.17517805093453429
1684006686573013600,4.1714140625,0.20997583868576428,-0.13908243179602844,0.11568069451865061
1684006686583054800,4.181455078125,0.1971122322936454,-0.17831277835287826,-0.08639955515229857
1684006686593095600,4.19149609375,0.12304791792430764,-0.017175197651618627,-0.3051295281149177
1684006686603136600,4.201537109375,0.03478384031522077,-0.013705253487018766,-0.342657565999342
1684006686613177800,4.211578125,0.012538850257873504,-0.10024738311559542,-0.3490471839927333
1684006686623218600,4.221618896484375,0.00977084046835252,0.04644632340361229,-0.49289274222182017
1684006686633259600,4.23166015625,-0.059748470940963555,-0.054822444832684204,-0.4536557198059687
1684006686643300800,4.241701171875,0.07747092829886189,0.13823270804546994,-0.36023283007066176
1684006686653341900,4.2517421875,0.2722587285928677,0.1409678458558954,-0.13059139246960436
1684006686663383000,4.261783447265625,0.2933321893523932,0.1444687843989929,0.09393215180471222
1684006686673423800,4.27182421875,0.24495163543232112,0.035674095005994666,0.3180751799447489
1684006686683464900,4.281865234375,-0.09144967791336107,-0.5479617118411872,0.2782940865013196
1684006686693506000,4.29190625,0.3272954226588501,0.1495575905781751,-0.11849737170801959
1684006686703546800,4.301947265625,0.3285866678501551,0.4303283691012108,-0.17155361180073658
1684006686713587900,4.31198828125,0.294224441022159,0.6275396346599396,-0.5045847892625175
1684006686723629000,4.322029296875,0.406039923416969,1.0301113128255586,-0.7987079618818008
1684006686733670100,4.332070556640625,0.27960371973973824,0.3608050345411196,-0.5532054900115446
1684006686743710900,4.342111328125,0.3576458394343419,0.24752998349633654,-0.4633827210089767
1684006686753752000,4.35215234375,0.7079006433021297,0.03862094862231319,0.05177116376360429
1684006686763793100,4.362193359375,0.7514863015322663,0.03371191025946131,0.32754755028374993
1684006686773833900,4.372234375,0.39638918625128533,0.031486511250888784,0.3305215835804259
1684006686783875000,4.382275390625,0.015839263805742233,0.13702726370680285,0.085893630854005
1684006686793916100,4.39231640625,0.5877114534477758,0.6863040924802343,-0.2021660803731382
1684006686803957200,4.402357666015625,0.009945981099733619,-0.3445768357874164,0.07520103438758366
1684006686813998300,4.412398681640625,0.6259292960506024,0.4622116089331098,-0.6266775131994615
1684006686824039100,4.422439453125,0.6753540038177245,0.34387302405013503,-0.4135365485630068
1684006686834080200,4.43248046875,0.104584567296376,-0.028010368368334856,-0.5921502112260028
1684006686844121300,4.442521728515625,-0.07947389780737205,1.2797241211503285,-0.8588113785292918
1684006686854162400,4.452562744140625,-0.4045236408618978,0.7461595534730615,-0.41741991040079646
1684006686864203200,4.462603515625,-0.1377702204642076,-0.16556167591561363,-0.5578022003470748
1684006686874244300,4.472644775390625,0.5466405152682772,-0.23777103437390087,-0.5023064613986131
1684006686884285400,4.482685791015625,1.059902310352113,-0.48867797839172217,0.19276857390082627
1684006686894326400,4.492726806640625,1.268933653795699,-0.5075874329574591,1.0233778953890913
1684006686904367300,4.502767578125,1.3975182772421504,-1.2645454405687817,2.4405193327646595
1684006686914408400,4.512808837890625,1.6858733891649536,-1.745438575613513,3.489717483535957
1684006686924449500,4.522849853515625,1.7867292166836497,-1.393218994017636,4.466322421985442
1684006686934490600,4.532890869140625,0.9231862426537217,-0.900312423636089,4.091838359783063
1684006686944531400,4.542931884765625,-0.19000823791671267,-0.4864645004009059,1.705133914879936
1684006686954572500,4.552972900390625,-1.1173758506251066,-0.18572044376694635,-0.0350561142659615
1684006686964613600,4.563013916015625,-1.4564540387402887,0.2873830794248399,-1.1168692111615788
1684006686974654400,4.5730546875,-0.795415997492405,0.13476753237237546,-1.6502370834602111
1684006686984695500,4.583095947265625,-0.11937595895518717,-0.5100393296340471,-1.1887426376666625
1684006686994736600,4.593136962890625,0.9693010450640581,-0.5074586867542235,-0.3492794037120647
1684006687004777600,4.603177978515625,0.8031375407936195,-0.4851036070725141,0.6027293205370038
1684006687014818600,4.613218994140625,0.2903301715277178,-0.07248306282229401,1.0451765059629659
1684006687024859600,4.623260009765625,-0.0569464564458376,0.12469577796664207,1.0664019584222355
1684006687034900600,4.633301025390625,-0.30244258033256827,0.1791009902499573,0.7684712411302904
1684006687044941700,4.643342041015625,-0.13058193015383981,1.0951519012441968,0.4647178649217106
1684006687054982600,4.653383056640625,0.2447846829564634,0.16121482837358184,0.7652430534303889
1684006687065023600,4.663424072265625,0.6379439831620188,-0.7200689316892976,1.1390113830020119
1684006687075064800,4.673465087890625,0.5086462497291713,-0.4765892029156575,1.0362963676759145
1684006687085105800,4.68350634765625,-0.04332771903730497,-0.4596242904540666,0.4742054939085001
1684006687095146600,4.693547119140625,-0.43174052228440996,-0.28965568534589353,-0.05328464521136701
1684006687105187800,4.703588134765625,-0.5269234181014594,-0.3434333802094487,-0.5560865400802658
1684006687115228800,4.713629150390625,-0.31352424611257046,-1.0967235564051074,-1.3477103710835152
1684006687125269900,4.72367041015625,-0.18083834655866513,-0.6893129347919645,-1.5061421393589474
1684006687135310800,4.733711181640625,-0.3232752680899093,-0.042145729161024305,-1.0310339926748429
1684006687145351900,4.743752197265625,-0.5432472227658718,0.1754035948626277,-0.6162505149522891
1684006687155392900,4.75379345703125,-0.4710060356935475,0.3619699478275462,-0.39364814753043154
1684006687165434000,4.76383447265625,-0.20434206729262067,0.38868808751183276,-0.19149065016686223
1684006687175474900,4.773875244140625,0.1507366002466516,0.22453498843199093,-0.23296546927218892
1684006687185516000,4.783916259765625,0.32425218802947614,0.21514129634492102,-0.21145677569533652
1684006687195557000,4.79395751953125,0.46752226366380856,0.19636630993407933,-0.05054140085258449
1684006687205597900,4.803998291015625,0.18068316587336228,0.3899660110958087,0.02201890954980421
1684006687215639000,4.814039306640625,0.18741190434816118,0.33414649970395,-0.23561096189607492
1684006687225680000,4.82408056640625,0.5059991478797303,0.0891809462867282,-0.333298206474527
1684006687235721100,4.83412158203125,0.9157098530362252,0.3822755814247622,-0.27476453770539
1684006687245762200,4.84416259765625,0.4830171167429788,0.5507049560320657,0.28342723849809115
1684006687255803100,4.854203369140625,0.13878859589988657,0.6984953882059356,0.7351331709791714
1684006687265844100,4.86424462890625,0.09575542806534139,0.9215965272137274,0.8693580627227687
1684006687275885200,4.87428564453125,-0.17418313015140777,-0.1596527098977831,0.6581225394416045
1684006687285926100,4.884326416015625,-0.04598345990988629,-0.08017635346205783,0.19007349024454592
1684006687295967200,4.894367431640625,0.4435931146770765,0.5927977562050417,-0.11566638943427868
1684006687306008200,4.90440869140625,1.4283671379271448,2.6503176688637473,-0.5673799515913884
1684006687316049300,4.91444970703125,0.13732755191040866,0.5830268860564181,-1.0681018828901399
1684006687326090200,4.924490478515625,-0.7952134609861259,-0.45526313777434846,-1.0433592797781404
1684006687336131200,4.93453173828125,-0.6623157859448278,0.08565235139286573,-0.8639450073087882
1684006687346172300,4.94457275390625,-0.5627731085854771,-0.46443557737339536,-1.0933873652739592
1684006687356213400,4.95461376953125,-0.27434897413650766,-0.5399436951228982,-0.8987021446466611
1684006687366254300,4.964654541015625,-0.1425691546099549,0.3208227157709824,-0.7567000390459298
1684006687376295300,4.97469580078125,-0.37690919647465726,-0.5474109650361192,-0.11650800708587832
1684006687386336400,4.98473681640625,-0.28698381784331994,-0.483992576517893,0.46162414563787263
1684006687396377600,4.99477783203125,-0.12413889164409715,-0.39535140992917034,1.06003999713537
1684006687406418400,5.00481884765625,0.1766155213143694,-0.18207454677232288,0.9940624238222154
1684006687416459400,5.01485986328125,0.31207650901087175,-0.29369354246637325,0.9015316962751528
1684006687426500600,5.02490087890625,0.3652437626953685,-0.2271862029323575,0.6182036398330419
1684006687436541600,5.03494189453125,0.5584164857861823,0.06315708156723379,0.5972619056840449
1684006687446582400,5.04498291015625,0.49542519447337263,-0.0344362258976487,0.4872760774044612
1684006687456623600,5.05502392578125,0.45480456949021136,0.027820587094605,0.3743920326181957
1684006687466664600,5.06506494140625,0.3062598706257529,-0.06879329684760785,0.4628505708245612
1684006687476705600,5.075106201171875,0.1863569319861795,-0.10770225525080264,0.42959880827354485
1684006687486746600,5.08514697265625,0.11271709194868955,-0.26664257037383365,0.6457920074036748
1684006687496787600,5.09518798828125,0.017473995512292288,-0.1408519744788692,0.6450166703689784
1684006687506828600,5.10522900390625,0.05497157570486673,0.25777435300945933,0.5609645842550961
1684006687516869800,5.115270263671875,-0.2428303956230688,0.016633033777647844,-0.05145502093382898
1684006687526910600,5.12531103515625,-0.5286340117435376,-0.351481437610253,0.04005432119063766
1684006687536951600,5.13535205078125,-0.2315359116940989,-0.4050493240290012,0.3207368849474584
1684006687546992800,5.145393310546875,0.025269687307961634,-0.5537519455236294,0.3156385422905419
1684006687557033600,5.15543408203125,0.15516150002791745,-0.41550922394547724,0.40973472593019683
1684006687567074700,5.16547509765625,-0.1137103436727306,-0.4615936277955174,0.0957884788389347
1684006687577115800,5.17551611328125,-0.14470452079737278,-0.3092288969945094,-0.2975473404699492
1684006687587156900,5.185557373046875,-0.09756237269919092,-0.07203197483795339,-0.5237236022860612
1684006687597198000,5.195598388671875,-0.06609845171965181,-0.30710315706300084,-0.5727286338735305
1684006687607238800,5.20563916015625,-0.031040072302667178,-0.4246816634805881,-0.6986384391722047
1684006687617279900,5.215680419921875,0.2132638096180236,-0.20209598543401955,-0.3392229081792887
1684006687627321000,5.225721435546875,0.2146396039212678,-0.26648998260978146,-0.3138418197940007
1684006687637361800,5.23576220703125,0.07231205708475819,-0.0995664597013577,-0.12283277508007824
1684006687647402900,5.24580322265625,-0.1359748243312997,0.18901062008774916,-0.3000297546180777
1684006687657444000,5.255844482421875,-0.18632251026557126,0.6295285225613022,-0.6624660491913886
1684006687667485100,5.265885498046875,-0.05089437970704247,0.4144840241723695,-0.4554767607875045
1684006687677525900,5.27592626953125,0.011171102345323878,0.22041893003952764,-0.04468822481157444
1684006687687567000,5.285967529296875,-0.13840740935272178,0.15573692313611412,0.10958909982059556
1684006687697608100,5.296008544921875,-0.4556121825722697,-0.017132758989983506,0.349310398188705
1684006687707649200,5.306049560546875,-0.47561484568132095,-0.30017566672850143,0.9665293692663659
1684006687717690000,5.31609033203125,-0.1680234671085685,-0.07837104802700376,0.6612138748947632
1684006687727731100,5.326131591796875,0.03525286907708165,0.0838804245466231,0.04975795751137763
1684006687737772200,5.336172607421875,0.3073120713249847,0.1435680389852841,0.599856853359401
1684006687747813300,5.346213623046875,0.21402686830393614,0.04578399651108977,-0.26578950877309115
1684006687757854100,5.356254638671875,0.5419908761354606,0.3251743316258138,0.355130195749711
1684006687767895200,5.366295654296875,0.7043813466799013,0.3690776824907458,-0.06131553648579188
1684006687777936300,5.376336669921875,0.5384266377154966,0.5275764465502999,0.07490491868703078
1684006687787977400,5.386377685546875,-0.013734340636326241,-0.5507440566934788,-0.18293595298559126
1684006687798018200,5.396418701171875,0.29312437774187844,-1.236069679170914,0.2588090896111633
1684006687808059300,5.406459716796875,0.5173544883669058,-2.0951013564378704,-0.4090926647582175
1684006687818100400,5.416500732421875,0.547374069707989,-1.4699888229288194,-0.016493558761216463
1684006687828141600,5.4265419921875,0.12834620478719494,-0.9601478576431861,0.08160614976617568
1684006687838182300,5.436582763671875,-0.7014459372422578,-0.638804435556653,-0.4030823708037897
1684006687848223400,5.446623779296875,-1.2544723749804232,-0.3029155730686847,-0.7739620208449777
1684006687858264600,5.456664794921875,-1.2880320548273203,-0.28469181048848147,-1.312794208534044
1684006687868305600,5.4667060546875,-0.8897531032456926,-1.0119714737047032,-0.8993818761040222
1684006687878346400,5.476746826171875,-0.41597235210328043,0.009860992485396892,-0.7043213844374684
1684006687888387600,5.486787841796875,-0.022344231711976976,0.2985315322913958,-0.7797918319418689
1684006687898428600,5.4968291015625,0.24881374835196163,0.15297412872679653,-1.013428926643082
1684006687908469400,5.506869873046875,0.2110642195588561,0.3831548690166284,-0.7721333504680677
1684006687918510600,5.516910888671875,0.1526246070899415,0.41351699815459586,-0.10095167158474498
1684006687928551600,5.526951904296875,0.09971129893432686,-0.1728191374269043,0.29005241402409343
1684006687938592600,5.5369931640625,0.17732834805469255,-0.4806098939073078,0.9597527980176975
1684006687948633800,5.5470341796875,0.02529740342298989,-0.4857120513607476,1.6218307018116838
1684006687958674600,5.557074951171875,-0.27652907365139423,-0.8955068587293437,1.6433138847384081
1684006687968715600,5.5671162109375,-0.19054853904094726,-0.6009550094740091,0.914778232696734
1684006687978756800,5.5771572265625,-0.05320978166566013,-0.44247722624842695,-0.036533117333249696
1684006687988797600,5.587197998046875,0.09467339516787528,-0.412699699322253,-0.29794526091133094
1684006687998838600,5.597239013671875,0.7690385578920047,-0.2908248899992702,-0.39169430736489874
1684006688008879800,5.6072802734375,1.3612600563927646,-0.3116340638259066,-0.29013538371421715
1684006688018920900,5.6173212890625,1.6343268156705255,0.04498386365560352,-0.217316150642904
1684006688028962000,5.6273623046875,1.6481195687636518,0.3353261948319877,-0.4617440699490951
1684006688039002800,5.6374033203125,1.4951620102820289,0.3940153121335821,-0.4981055260727285
1684006688049043900,5.6474443359375,1.235974907862093,0.4460573197137858,-0.10607886314114798
1684006688059085000,5.6574853515625,0.451561093229341,0.6770391464409508,-1.2209734916232626
1684006688069125800,5.667526123046875,-0.30766451354463326,0.4882059098709739,-1.900535821877491
1684006688079166900,5.6775673828125,-0.9343987704023409,-0.28482341768400754,-2.242952823573346
1684006688089208000,5.6876083984375,-1.279420852614475,-0.1210288999939977,-0.7199463844320052
1684006688099249100,5.6976494140625,-1.1469488145653661,-1.0601530075953003,4.497007369948734
1684006688109289900,5.707690185546875,0.7281637191926466,-1.0944404603859241,4.754024505608624
1684006688119331000,5.7177314453125,1.6395754812653835,-1.2953567506195809,2.612505912766106
1684006688129372100,5.7277724609375,1.9089672563616444,0.3352689743090975,-0.5435872077273312
1684006688139413200,5.7378134765625,0.9034448862404972,1.8142056465175982,-2.610764503592246
1684006688149454000,5.7478544921875,-0.5376546383277023,2.777658939321542,-3.0208280087744224
1684006688159495100,5.7578955078125,-1.4054813383792208,2.2437548637205325,-2.0287632942822618
1684006688169536200,5.7679365234375,-1.608278036058875,1.5477418899505533,-0.9287710190023547
1684006688179577300,5.777977783203125,-1.4757266043675445,1.500185966551633,-0.4364790917225349
1684006688189618100,5.7880185546875,-1.264657974402452,1.7040529250613305,-0.308737993217389
1684006688199659200,5.7980595703125,-1.340656757346616,1.8059730530714349,-0.5394539832420275
1684006688209700300,5.8081005859375,-1.3929960726586665,1.502366066025975,-0.5455431936983255
1684006688219741400,5.818141845703125,-1.302543878451537,1.1224279404366657,-0.29845094676142325
1684006688229782200,5.8281826171875,-1.3603882789536053,1.441704750059845,-0.674347162346985
1684006688239823300,5.8382236328125,-1.358088970199438,1.4220190049115637,-0.6275019645141029
1684006688249864400,5.8482646484375,-1.244570970426207,0.9799966811529115,-0.5751695632902168
1684006688259905500,5.858305908203125,-0.9101111889390597,0.8457083702169672,-0.4847583771247154
1684006688269946300,5.8683466796875,-0.5691165923647812,0.5079135893797078,-0.5835480691201382
1684006688279987400,5.8783876953125,-0.3082532883388579,0.19539928434872897,-0.6562287808537964
1684006688290028500,5.888428955078125,-0.5145125389098213,-0.5295562745648941,-1.0435228347953844
1684006688300069600,5.898469970703125,-0.28386116008067,-0.06762790688539312,-1.4484574795030714
1684006688310110400,5.9085107421875,-0.1040799618278754,-0.15202617644344413,-1.1081192492146752
1684006688320151600,5.9185517578125,-0.14571285243376597,0.08004760738037468,-1.2494785787095182
1684006688330192600,5.928593017578125,0.31497311593266347,0.7214145659945951,-1.0073513984225488
1684006688340233400,5.9386337890625,0.7279691696824349,1.2796449661080895,-1.0143798590040134
1684006688350274600,5.9486748046875,0.661332130438822,1.609949588780465,-1.4139108656478003
1684006688360315600,5.958716064453125,0.6300258635471458,2.306733131546401,-2.0530290603206125
1684006688370356600,5.968757080078125,0.18111991874125966,2.8207478522623015,-2.235713481836272
1684006688380397700,5.978798095703125,-0.1901309489667165,1.307844161966408,-1.8305481672277921
1684006688390438600,5.9888388671875,-0.009364366528043419,0.8118677138948008,-1.9701566697499306
1684006688400479600,5.998880126953125,0.12406659120603322,1.1258707047588492,-1.584657907636723
1684006688410520800,6.008921142578125,0.29175853729583107,0.5571632385292057,-1.138099551271505
1684006688420561600,6.0189619140625,0.8402104377789814,-1.3079900741905546,-0.6479403971827601
1684006688430602600,6.029003173828125,0.37713003173410015,-0.8758249283185726,-0.3117599487355417
1684006688440643800,6.039044189453125,0.30548357972029017,-1.027658462490924,-0.009939193802489841
1684006688450684800,6.049085205078125,1.0944700240004734,-1.6328964233081602,0.38962423812966984
1684006688460725600,6.0591259765625,1.1695106030485432,-2.060612678608399,1.7659125328420895
1684006688470766800,6.069167236328125,0.19839000700066456,-3.7506599427307994,2.3395032881272684
1684006688480807900,6.079208251953125,-0.41357398044816257,-4.910285949809396,2.903354406371887
1684006688490848900,6.089249267578125,0.012330293784837517,-7.030825614912236,3.03883719452966
1684006688500889800,6.099290283203125,0.5428197383346154,-6.569526672378996,3.221960544595947
1684006688510930900,6.109331298828125,1.951268792257538,-3.7302312849775863,4.10501575476502
1684006688520972000,6.119372314453125,2.714841365877453,-0.877392768845038,3.570612668985726
1684006688531013000,6.129413330078125,2.20955181127554,0.04151630382683283,2.155759096072855
1684006688541053900,6.139454345703125,1.0084400177792208,-0.49765872956858337,0.288375914098001
1684006688551095000,6.149495361328125,-0.6869654655806164,-0.9422645568329101,-1.7140913008848475
1684006688561136000,6.159536376953125,-2.3366682529457967,-0.6342267989000008,-3.1717183589638536
1684006688571177100,6.16957763671875,-3.29040503498038,0.06218814839816662,-3.7789402009258217
1684006688581218000,6.179618408203125,-3.24589180937601,0.6665153504210591,-3.3279790879093323
1684006688591259100,6.189659423828125,-3.014028549350717,0.7327175141047398,-2.5689725874635285
1684006688601300100,6.199700439453125,-2.11371803284542,0.598926544019477,-1.730482578370266
1684006688611341200,6.20974169921875,-1.4499065877685717,0.4113073349001251,-1.1108776330341381
1684006688621382100,6.219782470703125,-0.8544778824610562,0.1256208421575791,-0.4687528013950883
1684006688631423200,6.229823486328125,-0.32784938798368074,0.07951641081449323,0.18324851989571153
1684006688641464200,6.23986474609375,0.031132459521058163,0.17953681944775302,0.4927726686039493
1684006688651505300,6.24990576171875,0.2259619236599278,0.17687606800662228,0.4754521846620262
1684006688661546200,6.259946533203125,0.2748713493577556,0.12906455993688226,0.2851236164231424
1684006688671587200,6.269987548828125,0.19372439382464443,0.13161659247556778,0.026938498040581738
1684006688681628300,6.28002880859375,-0.00018811228314221987,0.02846622462070631,-0.02009892460410457
1684006688691669400,6.29006982421875,-0.10148787510055375,0.08671951304317571,0.0842936635342847
1684006688701710300,6.300110595703125,-0.15741372108380972,0.08840084080678862,0.17494761939107006
1684006688711751300,6.31015185546875,-0.17217350008053725,0.11939144141549882,0.3093802928726591
1684006688721792400,6.32019287109375,-0.26221847548603944,0.11246299750058217,0.48694729806615655
1684006688731833600,6.33023388671875,-0.2645897865325086,-0.005762100400114638,0.492325782761926
1684006688741874400,6.340274658203125,-0.242053508749808,-0.21026325234472892,0.4214906097371407
1684006688751915400,6.35031591796875,-0.28100514393591985,-0.0731678008249435,0.4122194053014154
1684006688761956600,6.36035693359375,-0.5389873980828699,0.02174854283361136,0.38235002740586993
1684006688771997600,6.37039794921875,-0.6963996886807133,-0.05965805044052264,0.26057934759113854
1684006688782038400,6.38043896484375,-0.8714351653884892,-0.1670513153193858,0.2217108605531955
1684006688792079600,6.39047998046875,-0.7590119837760133,-0.30014324183802066,0.2288082839730886
1684006688802120600,6.40052099609375,-0.3473796845992265,-0.12321281421829171,0.40963011969576174
1684006688812161500,6.410561767578125,-0.2546725273614124,-0.24808311468959665,0.2917312980443224
1684006688822202600,6.42060302734375,0.031053543144514036,-0.3147544861138442,0.10518467441499516
1684006688832243600,6.43064404296875,0.37208652493197414,0.03033351895661965,0.0985445380144236
1684006688842284600,6.44068505859375,0.47381687163397396,0.23145389565180116,-0.0949099062323397
1684006688852325800,6.450726318359375,0.6278622150514018,0.49210166920967857,-0.06616902352651532
1684006688862366600,6.46076708984375,0.6400952338343597,0.09830856332738203,0.04102712858581967
1684006688872407700,6.47080810546875,0.439749002542135,-0.047303199690618754,-0.044137597098483264
1684006688882448800,6.48084912109375,0.24103641514899177,0.21813488007433426,-0.5996751189055333
1684006688892489600,6.49089013671875,0.035721063664994425,-0.3179998398535859,-0.7307446598396815
1684006688902530700,6.50093115234375,-0.0672705173864709,-0.360148429881269,-0.5798447131281188
1684006688912571800,6.51097216796875,-0.09284520157213721,0.15385913850231794,-0.3643890023314982
1684006688922612900,6.521013427734375,-0.2022657394705779,0.09445953357899119,-0.35922735925389654
1684006688932654000,6.531054443359375,-0.015097379551339054,0.02713870997628812,-0.1150145530904609
1684006688942694800,6.54109521484375,-0.10768961907811697,0.04106807708360304,0.0887540578764569
1684006688952735900,6.55113623046875,-0.20165610307894968,-0.02874565110073193,0.26644647125882176
1684006688962777000,6.561177490234375,-0.2886850833591577,-0.36090850818057807,0.32536661635164016
1684006688972818100,6.571218505859375,-0.22522640216821238,-0.34141349788584835,0.2371935845151896
1684006688982858900,6.58125927734375,-0.11458683019821322,-0.3722038270276614,0.17693173883363633
1684006688992900000,6.591300537109375,0.09513401992911583,-0.2856101988872172,0.01196920866471324
1684006689002941100,6.601341552734375,0.27818608273772455,-0.4531641006364382,-0.37832367412302104
1684006689012981900,6.61138232421875,0.5311996937489315,-0.5310525894466651,-0.40609145162888527
1684006689023023000,6.62142333984375,0.6674389839069391,-0.3977899552512342,-0.2701929212334523
1684006689033064100,6.631464599609375,0.7666485308988549,-0.3657913208113866,-0.206333875740045
1684006689043105200,6.641505615234375,0.9186024665980468,-0.42878437052313534,-0.023349523617468834
1684006689053146300,6.651546630859375,0.8504474162835242,-0.5196990964957873,0.013982057607366899
1684006689063187100,6.66158740234375,0.7183775900509393,-0.6112976073610638,0.012080907932960325
1684006689073228200,6.671628662109375,0.575383663125066,-0.5997648240371944,0.016382098193668135
1684006689083269300,6.681669677734375,0.3803303242012205,-0.7244653703092728,0.004978775833136954
1684006689093310100,6.69171044921875,0.18024063123986256,-0.7604608535780629,0.12242639062561587
1684006689103351200,6.701751708984375,0.44233775149447085,-0.12483406081005084,0.24407613287559954
1684006689113392300,6.711792724609375,0.5542621613612633,0.4633064269891894,0.33175301536272145
1684006689123433400,6.721833740234375,0.47492074958569974,0.7627725599696827,0.45153063531299686
1684006689133474200,6.73187451171875,0.43073606503809386,0.7990818024592596,0.7240511775001256
1684006689143515300,6.741915771484375,0.37998318685848287,0.5646963120271329,1.136166095728682
1684006689153556400,6.751956787109375,0.22263407696977172,0.3549680709472,1.4241969584834353
1684006689163597600,6.761997802734375,0.20967841146780525,0.44212722771136925,1.6435148715598353
1684006689173638300,6.772038818359375,0.044022798695768715,0.591557502771464,1.7552711963685999
1684006689183679400,6.782079833984375,-0.33181309700841494,0.7464590073320748,1.7479137183511628
1684006689193720600,6.792120849609375,-0.6297154426919789,0.898880004866632,1.498943567386455
1684006689203761600,6.802161865234375,-0.8367841243301577,0.8360910416181214,1.0992392301189355
1684006689213802400,6.812202880859375,-0.9148190022832059,0.6355419157735253,0.5372226237918755
1684006689223843600,6.822243896484375,-1.003138780765007,0.2618675230906082,0.041300415941413975
1684006689233884600,6.832284912109375,-0.9852735997616409,-0.07657718654569555,-0.3079017102470815
1684006689243925600,6.842326171875,-0.8625054361212697,-0.3048982619041142,-0.5527622104361835
1684006689253966600,6.852366943359375,-0.6216688156867876,-0.3717908859748295,-0.5887246131628396
1684006689264007600,6.862407958984375,-0.3644969463774054,-0.39106273652228646,-0.550653219161042
1684006689274048600,6.872448974609375,-0.1390318871314693,-0.3071517944026337,-0.4238788188200852
1684006689284089800,6.882490234375,0.005675315759711544,-0.20358467097543487,-0.28922933340628854
1684006689294130600,6.892531005859375,0.03884434713025139,-0.1498441695456837,-0.1173536179787712
1684006689304171600,6.902572021484375,0.007201909883864933,-0.08665657047386242,-0.027364790464392278
1684006689314212800,6.91261328125,-0.0569944382068193,-0.08132171628361404,0.04960989956019989
1684006689324253900,6.922654296875,-0.09569478037437865,-0.06219482427687215,0.09044378980422012
1684006689334294600,6.932695068359375,-0.14908814433054768,-0.09385490425467187,0.11274486793403751
1684006689344335800,6.942736083984375,-0.1599214077624423,-0.039944648788610454,0.06949847927159342
1684006689354376900,6.95277734375,-0.16704058647458944,-0.017482757569497142,-0.0006517766984537823
1684006689364418000,6.962818359375,-0.17800784105172232,-0.045385360687686734,-0.033378362620327506
1684006689374458800,6.972859130859375,-0.16702079786362553,-0.035054206714959506,-0.11757475152522978
1684006689384499900,6.982900390625,-0.1343550683275477,-0.05815219878282446,-0.17430853857286258
1684006689394541000,6.99294140625,-0.13250136367810025,-0.07878303523050673,-0.24879515172938851
1684006689404582100,7.002982421875,-0.09920763971158678,-0.07307624807983941,-0.26678156860110325
1684006689414622900,7.013023193359375,-0.06576395035125047,-0.03634262073465641,-0.2505853177771978
1684006689424664000,7.023064453125,-0.02065086360163196,-0.02832984918233543,-0.24905437240489817
1684006689434705100,7.03310546875,0.04283070570982669,-0.025016784625500506,-0.22941869489782019
1684006689444746200,7.043146484375,0.06730413437829628,-0.026350975171426243,-0.23913890126058462
1684006689454787000,7.0531875,0.07420659065472168,-0.06802177435026485,-0.2607437967994857
1684006689464828100,7.063228515625,0.09206676487242041,-0.03053188315344499,-0.22789865745634286
1684006689474869200,7.07326953125,0.13672733301599038,0.04532623300997706,-0.15281778561087325
1684006689484910300,7.083310546875,0.19734668739095668,0.10461425789486857,-0.10279166686112848
1684006689494951100,7.0933515625,0.2633664606476024,0.1642217636446244,-0.09577620032236993
1684006689504992200,7.103392578125,0.28920054447507154,0.1333818436163634,-0.08163285260305887
1684006689515033300,7.11343359375,0.2678642272850729,0.08867454542606118,-0.15552473068763592
1684006689525074400,7.123474853515625,0.16684961311727461,-0.08697795884078949,-0.3055090905096083
1684006689535115200,7.133515625,0.0071570872294891225,-0.283592224130372,-0.37530571224307396
1684006689545156300,7.143556640625,-0.0903019905761609,-0.26007652287921595,-0.43218553054729586
1684006689555197400,7.15359765625,-0.17702269564372763,-0.2583971022691827,-0.44409531357632565
1684006689565238400,7.163638916015625,-0.22161507609431444,-0.19003677369777686,-0.543569981986974
1684006689575279300,7.1736796875,-0.2994699479556767,-0.21758651729172074,-0.6210794448278435
1684006689585320400,7.183720703125,-0.3828885556381693,-0.2166509628384649,-0.7031728625594418
1684006689595361500,7.193761962890625,-0.5174286365339111,-0.2568264006968551,-0.6826902627813078
1684006689605402300,7.203802734375,-0.5343348981276762,-0.15948963162245336,-0.4945535660435491
1684006689615443400,7.21384375,-0.4681897164237468,-0.0685882568605156,-0.3247961997743451
1684006689625484500,7.223884765625,-0.3504555224387047,-0.05545139319478787,-0.2864685056772706
1684006689635525600,7.233926025390625,-0.20113396631095667,-0.06657791133678198,-0.27998805052245046
1684006689645566600,7.243967041015625,-0.06077361095317981,-0.10598659519332224,-0.3432511688078994
1684006689655607500,7.2540078125,0.007695198105929904,-0.14473152165792602,-0.32111465927013444
1684006689665648600,7.264049072265625,0.019046783472702528,-0.10649967203445257,-0.27369797229691506
1684006689675689600,7.274090087890625,0.0028412342219883073,-0.1401596069399686,-0.29005658608509255
1684006689685730700,7.284131103515625,-0.05129218094587109,-0.15669536592377128,-0.26898598661955336
1684006689695771600,7.294171875,-0.07440924650583496,-0.19635963444938773,-0.25300431238992216
1684006689705812600,7.304213134765625,-0.12150359156629771,-0.2210407257133154,-0.23522710797801957
1684006689715853700,7.314254150390625,-0.1176865099621304,-0.23556327832701252,-0.20234656346390825
1684006689725894800,7.324295166015625,-0.13302278529826894,-0.20443534851151948,-0.26942908776543933
1684006689735935600,7.334336181640625,-0.179970025988253,-0.2818336487728774,-0.2087930439772747
1684006689745976800,7.344377197265625,-0.20276165016686867,-0.20977973934905983,-0.20226562029678144
1684006689756017800,7.354418212890625,-0.18968844408861338,-0.17915821076686606,-0.2015665768314632
1684006689766058900,7.364459228515625,-0.17171645171544667,-0.20814514153624908,-0.1969262362075844
1684006689776099800,7.374500244140625,-0.12882328038839275,-0.3000612260272154,-0.1266524793093113
1684006689786140800,7.384541259765625,-0.012661457110429604,-0.2035188673832422,-0.060558200073410146
1684006689796181900,7.394582275390625,0.06601071341323539,-0.13084983818681903,-0.12805128109533095
1684006689806222800,7.404623046875,0.032649516910273256,-0.21668434143418622,-0.026193022875832927
1684006689816263900,7.414664306640625,0.14007663721306124,-0.07069110862177959,-0.03780829902811105
1684006689826304900,7.424705322265625,0.22556400301292517,-0.09722042092787765,-0.31429135796655827
1684006689836346000,7.434746337890625,0.19405364990474858,-0.22321319574922324,-0.5655180215310492
1684006689846387100,7.44478759765625,0.14150166506573855,-0.15984725955658494,-0.7203981279735915
1684006689856428000,7.454828369140625,0.08954381937324232,0.0004253387389265659,-0.7489180564647667
1684006689866469000,7.464869384765625,-0.07273554812497804,0.06335926060513085,-0.6716474294695522
1684006689876510100,7.47491064453125,-0.30269861208025206,0.16546154018418813,-0.5468673110110417
1684006689886551200,7.48495166015625,-0.5358724592535757,0.26187705991003174,-0.28233492387342757
1684006689896592000,7.494992431640625,-0.6978123187231138,0.15011405958429247,-0.01477599149028819
1684006689906633100,7.505033447265625,-0.8733472825274401,-0.08663082122157902,-0.1116173267532506
1684006689916674200,7.51507470703125,-1.0062370299342895,-0.41836547851388456,-0.3589081764118252
1684006689926715100,7.525115478515625,-1.0717203616933753,-0.643865585331036,-0.5821097492943738
1684006689936756100,7.535156494140625,-1.062302827799624,-1.1357402802133538,-0.4619234799567678
1684006689946797200,7.54519775390625,-0.9405434132741867,-1.259222030653807,-0.4879127740743741
1684006689956838300,7.55523876953125,-0.7719118594974421,-1.1634445189772349,-0.6616816520553332
1684006689966879400,7.56527978515625,-0.5720231532593492,-1.1197872160732578,-0.8422051667868694
1684006689976920200,7.575320556640625,-0.3925342560112407,-1.0024805068844727,-1.0238690376958333
1684006689986961300,7.58536181640625,-0.25202107443879734,-0.7800970077951812,-1.0927567481593532
1684006689997002400,7.59540283203125,-0.06627273555424402,-0.46603488904889095,-1.0705929994615107
1684006690007043600,7.60544384765625,0.17776393877518334,-0.10838699350410258,-0.9140551090108726
1684006690017084300,7.615484619140625,0.34753203394321147,0.05260372153821941,-0.7297402622221912
1684006690027125400,7.62552587890625,0.5609662533759991,0.13597488399095667,-0.46148979663307566
1684006690037166600,7.63556689453125,0.752843856860997,0.30580043807659235,-0.1582900285065242
1684006690047207300,7.645607666015625,1.018680810896593,0.3191184996475525,0.19351094973053637
1684006690057248400,7.65564892578125,1.3693423271305243,0.2464962006070863,0.6022961140612181
1684006690067289600,7.66568994140625,1.4931191205252934,0.2872028350128038,0.742254018827466
1684006690077330600,7.67573095703125,1.3122401237770212,0.2663240432737946,0.6751039028971716
1684006690087371600,7.685772216796875,0.8402035235652281,0.20546245572391342,0.8002740144529936
1684006690097412600,7.69581298828125,0.34065628040361057,0.2749233245843706,1.0274829863844006
1684006690107453600,7.70585400390625,-0.12432765949966089,0.17438983912308675,1.1921334266719634
1684006690117494600,7.71589501953125,-0.4839189053231926,0.1275310516658121,1.3648270368546196
1684006690127535800,7.725936279296875,-0.5183200835882206,0.2010574340961347,1.5115680693418114
1684006690137576600,7.73597705078125,-0.26741647729903867,0.32176971424548817,1.5364089011691702
1684006690147617600,7.74601806640625,0.0925028325491224,0.4294795990334998,1.5169826746797488
1684006690157658800,7.75605908203125,0.3600511551532171,0.49488639826690056,1.4380304812785267
1684006690167699600,7.76610009765625,0.4331767558680818,0.5233888625483645,1.4141554832321042
1684006690177740600,7.77614111328125,0.3420336245922901,0.5026178359778994,1.363812446534455
1684006690187781800,7.78618212890625,0.17273235325397643,0.4485750199546019,1.2331405876941337
1684006690197822900,7.796223388671875,-0.000930786145530029,0.365434646616098,1.0584958790546455
1684006690207864000,7.806264404296875,-0.015911579157934348,0.3629884719180307,0.889339804533185
1684006690217904800,7.81630517578125,0.11508750912104147,0.44848823551725037,0.6395535470267303
1684006690227945900,7.82634619140625,0.36394524584503424,0.46245098113617644,0.41924643505709647
1684006690237987000,7.836387451171875,0.6354732512807874,0.4607191086914749,0.26274329429108856
1684006690248027800,7.84642822265625,0.8440618514105731,0.4297609329407745,0.14854246382116953
1684006690258068900,7.85646923828125,0.9026513100637829,0.3724575042614487,0.049706041746307536
1684006690268110000,7.866510498046875,0.8379037379386894,0.26729488391898576,0.027342140649988904
1684006690278151100,7.876551513671875,0.6677379609468029,0.226267814671762,0.1215823293564369
1684006690288192200,7.886592529296875,0.40404057494617757,0.29154586810159494,0.2088829278503273
1684006690298233000,7.89663330078125,0.17370700826235552,0.40720272045653594,0.30740702140163373
1684006690308274100,7.906674560546875,0.004831075509322511,0.44836521160607273,0.38934624194875733
1684006690318315200,7.916715576171875,-0.1305527687149434,0.39342594140194664,0.44023060817114534
1684006690328356300,7.926756591796875,-0.29415512078965694,0.32362651822101,0.3952172995442302
1684006690338397100,7.936797607421875,-0.4256596564188434,0.13858985901498688,0.24792039392575363
1684006690348438200,7.946838623046875,-0.5643873215414503,0.000661850058361771,0.028331637468554365
1684006690358479300,7.956879638671875,-0.6448614597268815,-0.014124870296773116,-0.04069507125659582
1684006690368520100,7.96692041015625,-0.5384178163153899,0.08194828027873635,0.027877211705091148
1684006690378561200,7.976961669921875,-0.21580004690835114,0.20056056979799583,0.15378785148235619
1684006690388602300,7.987002685546875,0.1673808097861459,0.25396823870280705,0.2953854800941819
1684006690398643400,7.997043701171875,0.5275053979477206,0.262187957766441,0.4162703753395586
1684006690408684500,8.0070849609375,0.7480721473148825,0.26661872877830556,0.5019855500460926
1684006690418725300,8.017125732421874,0.8158652782284785,0.30607223509447,0.5381741522296996
1684006690428766400,8.027166748046875,0.7593090535343637,0.3137779236335216,0.5293028354203045
1684006690438807600,8.037207763671875,0.6811661720573583,0.3280143736158369,0.5032471417396224
1684006690448848600,8.0472490234375,0.5604658126188553,0.36047458658599785,0.4547976255385979
1684006690458889400,8.057289794921875,0.4364340304763448,0.312828063809146,0.3980629443739658
1684006690468930600,8.067330810546874,0.34139418594719706,0.18721294394527704,0.3523085118333539
1684006690478971600,8.0773720703125,0.24520492552464226,0.10050868998905159,0.2509229184490135
1684006690489012600,8.0874130859375,0.12017989163471957,-0.03610897067396449,0.1488233805338496
1684006690499053600,8.097453857421876,0.014378547732968287,-0.0960502623902804,0.13180935369483585
1684006690509094600,8.107494873046875,-0.012513875966368486,-0.06998062123085473,0.08490025993865942
1684006690519135600,8.1175361328125,0.029451370232869648,0.07313919056308901,0.011421084356920077
1684006690529176800,8.1275771484375,0.09777235987226052,0.16372776049792773,-0.013257265092084866
1684006690539217600,8.137617919921874,0.20135545722610876,0.27458190916349146,-0.07141578189327022
1684006690549258600,8.1476591796875,0.2590146064396946,0.3679246902537562,-0.049157619489182625
1684006690559299800,8.1577001953125,0.2427761554821,0.35471248622126034,-0.0963832735920172
1684006690569340800,8.1677412109375,0.17747521415707432,0.3684978484680705,-0.08731192335633306
1684006690579381600,8.177781982421875,0.0338926316256732,0.3450851441256052,-0.08854877941336924
1684006690589422800,8.1878232421875,-0.12406325340962047,0.2752189634639591,-0.09263122066870304
1684006690599463900,8.1978642578125,-0.27076625841458113,0.18488407119229414,-0.0412086249323856
1684006690609504900,8.2079052734375,-0.3513112068412332,0.08108043664312305,0.03328943248420483
1684006690619545800,8.2179462890625,-0.3196201325154715,0.022798538310031077,0.13451755039442703
1684006690629586900,8.2279873046875,-0.18775296223267895,-0.046964645477571836,0.19131612785078134
1684006690639628000,8.2380283203125,-0.021682262382852327,-0.1537322997378195,0.33560860157338107
1684006690649669000,8.2480693359375,0.1277513504986357,-0.19303321826307368,0.39400136479357917
1684006690659709900,8.2581103515625,0.20351529125168893,-0.1515312195092274,0.3709456920045361
1684006690669751000,8.2681513671875,0.189933538560924,-0.11512756338310945,0.3790212868841641
1684006690679792000,8.2781923828125,0.12370753281002787,-0.041387558023310365,0.3795754909350541
1684006690689833100,8.288233642578126,0.011357307494480709,-0.004247665397021413,0.40303695210463
1684006690699874000,8.2982744140625,-0.09126639373810562,0.036611556928254546,0.4041078090363192
1684006690709915100,8.3083154296875,-0.18130803101994197,0.010281562838880268,0.4300856591279829
1684006690719956100,8.3183564453125,-0.25849795333257786,-0.016363143877394744,0.4144374131422692
1684006690729997200,8.328397705078125,-0.32483196253850205,0.017731666673794468,0.35798871511665353
1684006690740038100,8.3384384765625,-0.34254646302558794,0.06682109850906964,0.3515771627526817
1684006690750079200,8.3484794921875,-0.3030769824806458,0.057739257912805854,0.3147381543376493
1684006690760120200,8.358520751953124,-0.2531161308884233,0.09302806846364343,0.28117227539359596
1684006690770161300,8.368561767578125,-0.2058012484203507,0.10643196099437811,0.2605075835376993
1684006690780202200,8.3786025390625,-0.19915771492552248,0.13140583047213655,0.250166654461873
1684006690790243200,8.3886435546875,-0.25319910059910883,0.09458923338235278,0.28740143765871506
1684006690800284300,8.398684814453125,-0.29285502426948096,0.0790157319256992,0.30973029131748514
1684006690810325400,8.408725830078126,-0.3386745451428968,0.0392808914281324,0.3547081946945506
1684006690820366300,8.4187666015625,-0.310392379771712,-0.02425956716204431,0.3583997487952431
1684006690830407300,8.428807861328124,-0.22621655468806265,-0.05690670025592511,0.33329069615270024
1684006690840448400,8.438848876953125,-0.156577825555882,-0.056386947479815874,0.2920637130017362
1684006690850489600,8.448889892578125,-0.09966945635180122,-0.09360599507224329,0.2116270065627361
1684006690860530600,8.458930908203126,-0.06745576850532382,-0.09719562536711479,0.1324869395402879
1684006690870571400,8.468971923828125,-0.06624770156810576,-0.12436389908508876,0.05666947360751079
1684006690880612600,8.479012939453124,-0.0574829578472248,-0.12070941929432126,-0.044275045415087255
1684006690890653600,8.489053955078125,-0.0462493894616263,-0.09136104581496236,-0.1133325695971073
1684006690900694400,8.4990947265625,-0.03050351142901869,-0.06491565712066619,-0.15576869251425443
1684006690910735600,8.509135986328126,0.03159976002286962,-0.0058507919340199215,-0.17900359636420146
1684006690920776600,8.519177001953125,0.05637121202265469,0.0007228851656356213,-0.17387217294827725
1684006690930817600,8.529218017578126,0.042118787908853414,0.03574180594827901,-0.16882002340890406
1684006690940858600,8.539259033203125,0.00877833377784703,0.020898819038508633,-0.1167647242514245
1684006690950899600,8.549300048828124,-0.035454749999933866,0.055657386777218536,-0.0558583735824105
1684006690960940600,8.559341064453125,-0.0708847045073001,0.07304573052418445,-0.02395200730366079
1684006690970981800,8.56938232421875,-0.024385452342846278,0.07325267798160733,-0.011105179790799335
1684006690981022900,8.57942333984375,0.022220850014007813,0.08494853988724044,-0.03112125390907875
1684006690991063700,8.589464111328125,0.08961248411353272,0.05162048330313965,-0.06926798814947861
1684006691001104800,8.599505126953124,0.11110639572497123,0.01419162742881413,-0.1534020901570845
1684006691011145900,8.60954638671875,0.12263083450213631,0.0033779144145956595,-0.13685882085625073
1684006691021186700,8.619587158203124,0.1362671853530855,0.009239196921343047,-0.14168685683275903
1684006691031227800,8.629628173828126,0.15675878528519882,0.022045135542500496,-0.1134644747564098
1684006691041268900,8.63966943359375,0.1556169986387028,0.02990818015406172,-0.1214479208248656
1684006691051310000,8.64971044921875,0.15668439877203816,0.009378433331183215,-0.08036082975486261
1684006691061350800,8.659751220703125,0.16212940210800653,0.04102706893760251,-0.09696030614646471
1684006691071391900,8.669792236328124,0.15535664557217307,0.07926082605254564,-0.10679686057457224
1684006691081433000,8.67983349609375,0.13628959655304063,0.15233898169679322,-0.1333589553683377
1684006691091474100,8.68987451171875,0.13082408911406412,0.15617179874444306,-0.15747749806236125
1684006691101515200,8.69991552734375,0.1455135346623851,0.11318016052150393,-0.13000780355148966
1684006691111556000,8.709956298828125,0.15663170818353772,0.07354545595151411,-0.08695894492301934
1684006691121597100,8.71999755859375,0.1925082206182145,0.0701684952351713,-0.04507684693516204
1684006691131638200,8.73003857421875,0.23863553993939376,0.07180976865247796,0.004893898947150991
1684006691141679000,8.740079345703125,0.27360868454983645,0.0807428361640788,0.08387958986835124
1684006691151720100,8.75012060546875,0.28316164018295426,0.09697818755199619,0.12093329444405025
1684006691161761200,8.76016162109375,0.29344391821383914,0.049860000694216824,0.11705386646858833
1684006691171802300,8.77020263671875,0.24145030971903425,0.04151058196989468,0.15330386160354895
1684006691181843400,8.780243896484375,0.2180943488534397,0.04056835166175736,0.17046868792802042
1684006691191884200,8.79028466796875,0.20188093176276556,0.032711982811580054,0.18287825583785064
1684006691201925300,8.80032568359375,0.1974277497394601,0.05808925621983356,0.2049245835311281
1684006691211966400,8.81036669921875,0.19754719721889308,0.040822029069885,0.16849172109429814
1684006691222007500,8.820407958984376,0.19491124153380474,0.026421546924844976,0.05575203879278703
1684006691232048300,8.83044873046875,0.16582512854508666,-0.006276130573600355,-0.009599447296970706
1684006691242089400,8.84048974609375,0.12703299522570907,-0.005118370098577767,-0.08017963172540922
1684006691252130600,8.85053076171875,0.09989953038147877,-0.0012998580667363795,-0.10664182905773659
1684006691262171600,8.860572021484375,0.07019758235608536,-0.011397361847689485,-0.06635355943890556
1684006691272212400,8.87061279296875,0.04521727554960011,0.03533744806009523,-0.02438294883512598
1684006691282253600,8.88065380859375,0.03434753409238565,0.14496994015347395,0.05191028134965261
1684006691292294600,8.890695068359374,0.03249049193299315,0.22934246064434247,0.060261964856962995
1684006691302335600,8.900736083984375,0.032247066458956315,0.14301013944121738,0.06559586536248031
1684006691312376600,8.91077685546875,0.03835654272841595,0.06072521207209852,0.05922663207383735
1684006691322417600,8.92081787109375,0.032129764628883,0.03651809687425704,0.0840334892873642
1684006691332458600,8.930859130859375,-0.0374031066930804,0.017428398049595818,0.11371707917755783
1684006691342499800,8.940900146484376,-0.10973572744843862,0.03143405907836535,0.10357534900164334
1684006691352540600,8.95094091796875,-0.17975473402765973,0.0707511901560711,0.11975324143857494
1684006691362581600,8.960982177734374,-0.19811296457195754,0.14430046087810536,0.06446123124801051
1684006691372622800,8.971023193359375,-0.18686175346989298,0.16672420503599378,0.006821870768765608
1684006691382663900,8.981064208984375,-0.09258604035536094,0.12248325350039826,-0.03186690812448412
1684006691392704600,8.99110498046875,-0.011348486068364442,0.05287647254625178,-0.0543516874094039
1684006691402745800,9.001146240234375,0.04467439648126088,-0.0038146973447676868,-0.09870189429794803
1684006691412786900,9.011187255859374,0.05207276357621253,-0.06180286393598851,-0.14781308186344738
1684006691422828000,9.021228271484375,0.023692608047198343,-0.10230731964944326,-0.15203517669024907
1684006691432869000,9.03126953125,-0.046511650031375654,-0.16813468937139872,-0.14974254362612555
1684006691442909900,9.041310302734376,-0.08447575569140242,-0.18364524834682,-0.10563445103699455
1684006691452951000,9.051351318359377,-0.12787342086027276,-0.20865249630666965,-0.07167720785029714
1684006691462992000,9.061392333984376,-0.13170242322496117,-0.2029619216307245,-0.04471266265307582
1684006691473032900,9.071433349609377,-0.12936925892409498,-0.20006847384486368,0.0040177107422289925
1684006691483074000,9.081474365234374,-0.10475087165700614,-0.1716098784868155,0.0457502601942522
1684006691493115100,9.091515380859375,-0.08227944388015034,-0.10610103603065194,0.12030434619364538
1684006691503156100,9.101556640625,-0.050543308270858685,-0.05115222925859468,0.14910793300298347
1684006691513197000,9.111597412109376,-0.016920566657773167,0.021687507751697498,0.16797626009249086
1684006691523238100,9.121638427734377,0.016255617248767777,0.04383468619723176,0.1724063158558848
1684006691533279200,9.131679443359374,0.04410815242343377,0.035037040533656846,0.20744597922342548
1684006691543320200,9.141720703125,0.02417111392023578,0.04766559599436474,0.17608225338444278
1684006691553361300,9.15176171875,0.01845145223842335,0.04133319840361683,0.1617629526662963
1684006691563402200,9.161802490234376,0.00790071477945855,0.061110496645042436,0.1950341463394032
1684006691573443200,9.17184375,0.004372119777495426,0.045356750384442694,0.20924127110759244
1684006691583484300,9.181884765625,0.007958650639055357,0.06524562829003495,0.23317825793692215
1684006691593525400,9.19192578125,0.019149541962097356,0.016394615053649114,0.26433432092203246
1684006691603566300,9.201966552734374,0.031043291127388982,0.024658203026108886,0.2369546890371827
1684006691613607300,9.2120078125,0.05055236809803902,0.03965854635073065,0.2223440408935679
1684006691623648400,9.222048828125,0.08400797846139271,0.0850086213744808,0.17538857461529317
1684006691633689600,9.23208984375,0.1278817654002118,0.13693332673568892,0.12214279178942108
1684006691643730400,9.242130859375,0.14160251602884308,0.13419151304669086,0.05052113538425213
1684006691653771400,9.252171875,0.12352800377911231,0.05879306787648029,-0.006180047998340778
1684006691663812600,9.262212890625,0.08647465712506858,0.010722160224221226,-0.07823443401185899
1684006691673853600,9.27225390625,0.06423830999316497,-0.02003860469273529,-0.08507800113658957
1684006691683894400,9.282294921875,0.0190358162439221,-0.0008840561281667214,-0.10329818716938337
1684006691693935600,9.2923359375,-0.020811557809601724,0.008557319731568246,-0.14722758534034458
1684006691703976600,9.302376953125,-0.041627883766463834,0.043854713551107094,-0.18133711805971497
1684006691714017600,9.312418212890623,-0.048400402180980795,0.062164306646728264,-0.21541601410247857
1684006691724058600,9.322458984375,-0.05289983750401617,0.08722400671219999,-0.20244288446235448
1684006691734099600,9.3325,-0.05989646929212646,0.10715007781884815,-0.19036209577909693
1684006691744140600,9.342541015625,-0.02914834011985962,0.06314659110565848,-0.12708091736232502
1684006691754181800,9.352582275390626,-0.0343871117137056,0.024645805396669225,-0.07422494904726684
1684006691764222900,9.362623291015623,-0.03032112139202417,-0.02960205088352359,0.0062003135184833975
1684006691774263600,9.3726640625,-0.045260429328741296,-0.05465602860005108,0.06884086123974649
1684006691784304800,9.382705322265624,-0.0551390648089847,-0.05579280853082631,0.1421344279333117
1684006691794345900,9.392746337890625,-0.05007720006853687,-0.0688848495305617,0.1743391753453052
1684006691804387000,9.402787353515626,-0.053546190301724424,-0.06322956083410992,0.19444811332686618
1684006691814427800,9.412828125,-0.018528222846459875,-0.06259918208041106,0.21217298519910255
1684006691824468900,9.422869384765624,0.02574491498174142,-0.05269908906475915,0.23672854898773618
1684006691834510000,9.432910400390623,0.09272813793574522,-0.04295063011429345,0.2536706924841318
1684006691844550800,9.442951171875,0.1296803951389055,-0.06142425548004807,0.21589338779824732
1684006691854591900,9.452992431640626,0.13210868844942186,-0.0722513199585234,0.16190063953730688
1684006691864633000,9.463033447265625,0.1266241072509675,-0.07088470455070837,0.0826370715666638
1684006691874674100,9.473074462890626,0.09701275834637824,-0.0245943068197785,0.04462456694224341
1684006691884715200,9.483115478515623,0.015886306636400043,0.023336410634286976,-0.021113753393565526
1684006691894756000,9.493156494140624,-0.02128863341153862,0.04918861391180282,-0.04821729675145283
1684006691904797100,9.503197509765624,-0.038507938269388156,0.1168012618519091,-0.15737783918161086
1684006691914838200,9.513238525390625,-0.022104740177340258,0.12194061278953382,-0.17769074447690145
1684006691924879300,9.52327978515625,-0.03155803680140215,0.10333156584877508,-0.1907384394652186
1684006691934920100,9.533320556640623,-0.019561529325967192,0.028478622428943653,-0.2649153470082056
1684006691944961200,9.543361572265624,-0.014820575733501758,-0.028668403568200534,-0.2909119130170358
1684006691955002300,9.553402587890623,-0.0004198550257744835,-0.037884712084902836,-0.2858605384088904
1684006691965043400,9.56344384765625,-0.004575014048034679,-0.0070581435561196185,-0.2428774834956853
1684006691975084500,9.57348486328125,0.02516365065691494,0.034797668463532154,-0.1600682139270101
1684006691985125300,9.583525634765625,0.04108953478111022,0.04984474170147881,-0.09462893004834344
1684006691995166400,9.59356689453125,0.06436181065168613,0.02213287354605635,-0.05338752269955064
1684006692005207600,9.60360791015625,0.07341885553857173,-0.07108783711548611,0.027587652166884014
1684006692015248600,9.61364892578125,0.05401730532782376,-0.1650819779416198,0.05783963211102119
1684006692025289400,9.623689697265624,0.03487586966785135,-0.18919086463283724,0.05719637868911895
1684006692035330600,9.63373095703125,0.018462419551001766,-0.19167232518800498,0.066437005974611
1684006692045371600,9.64377197265625,0.011976480542059657,-0.17063045494098747,0.1015950441603816
1684006692055412400,9.653812744140623,-0.0037059783880495087,-0.11940383904163324,0.08649230006980728
1684006692065453600,9.66385400390625,-0.007508993162511469,-0.06432533267380765,0.09002697464016021
1684006692075494600,9.67389501953125,0.023709774069050997,-0.026571273847471596,0.08841884147335718
1684006692085535600,9.68393603515625,0.05142736445001538,-0.008104324335992879,0.07947337626604022
1684006692095576800,9.69397705078125,0.09686112403266446,-0.0014877319607830692,0.10602855693673693
1684006692105617600,9.70401806640625,0.10779118548427202,-0.022939682117627536,0.13467013853251708
1684006692115658600,9.71405908203125,0.0871825219478633,0.0033349990705703074,0.10183835021609805
1684006692125699800,9.72410009765625,0.047331809905623794,0.03651618956777197,0.08153760423895044
1684006692135740800,9.734141357421874,-0.025370121007557565,0.026955604461418318,0.05448150625063658
1684006692145781600,9.74418212890625,-0.06668090819522228,0.07187080370904327,0.03985607607668422
1684006692155822800,9.75422314453125,-0.09365105628395612,0.09034633641724509,0.009334564193118565
1684006692165863900,9.76426416015625,-0.09691643696684309,0.08748054497644212,-0.017871618308886107
1684006692175904900,9.774305419921877,-0.09555912022246946,0.07301425951219138,-0.025188088375948013
1684006692185946000,9.784346435546874,-0.06353974341041746,0.05412864666911939,-0.034134268791953686
1684006692195986900,9.79438720703125,-0.027203321650112897,0.05439186103246868,-0.011913895727748827
1684006692206028000,9.804428466796876,0.010884523399293225,0.05702590941724499,0.005411505714610325
1684006692216069000,9.814469482421876,0.022222042144967622,0.13500118267839092,0.008146047690814506
1684006692226110100,9.824510498046877,0.06091618536942349,0.21418666837955203,-0.022789239941081695
1684006692236151000,9.83455126953125,0.09343504913083203,0.2710714340766758,-0.04671943193408233
1684006692246192000,9.844592529296875,0.10577225687331626,0.2283630371341523,-0.08468723283681145
1684006692256233100,9.854633544921874,0.09118700037912172,0.12073993671799962,-0.05361282836346256
1684006692266274200,9.864674560546876,0.06184864049193422,0.050550460828306214,-0.05570673935413679
1684006692276315100,9.874715576171877,-0.007526874445862676,0.021756172223637613,-0.00799703594098167
1684006692286356100,9.884756591796876,-0.07584047322438472,0.009951591545934358,0.03190755825889142
1684006692296397200,9.894797607421877,-0.15194797509384345,0.02172470087437794,0.0712007284615014
1684006692306438300,9.904838623046874,-0.20927953721615913,0.021163940611875695,0.14027476306240688
1684006692316479200,9.914879638671875,-0.2313256263955708,-0.02228450781681222,0.1300247908688719
1684006692326520200,9.924920654296876,-0.25386643405212234,-0.04910087579873383,0.14758241173889394
1684006692336561300,9.934961669921876,-0.19950890553813969,-0.08771324145316368,0.12892127038403503
1684006692346602400,9.9450029296875,-0.12435007091463357,-0.16123390197239687,0.08648943892498545
1684006692356643200,9.955043701171874,-0.043637037274223224,-0.24052906048290976,0.08930718888604934
1684006692366684300,9.965084716796875,0.0067820548982379545,-0.19347953809334267,0.09222543227320475
1684006692376725400,9.975125732421876,0.024749755850029382,-0.144532203543992,0.10209953787007732
1684006692386766600,9.9851669921875,0.0037353038735217026,-0.0019235610537035304,0.07393372063973214
1684006692396807300,9.995207763671877,-0.04592871670039475,0.08914566029682588,0.07470762746072122
1684006692406848400,10.005248779296876,-0.11346888540908771,0.204634666364562,0.13031864180769978
1684006692416889600,10.0152900390625,-0.19065594662881274,0.1837701796133355,0.2540333271204591
1684006692426930600,10.0253310546875,-0.19713640228889992,0.162939071594046,0.3126606941596475
1684006692436971600,10.0353720703125,-0.15067815778405072,0.09745979315540734,0.3285505771436841
1684006692447012600,10.045412841796876,-0.09031939516073516,0.06832981106534819,0.33343076703668034
1684006692457053600,10.0554541015625,0.011271953725016498,0.05395221710863051,0.41903626922255005
1684006692467094600,10.0654951171875,0.08903694165128231,0.06136226654350534,0.4164772034505053
1684006692477135800,10.0755361328125,0.14061355597774697,0.08563327773082834,0.3838088512047662
1684006692487176600,10.085576904296875,0.16836380945338672,0.11725711821508722,0.34313905237321846
1684006692497217600,10.0956181640625,0.1914372443980694,0.1796598434588727,0.31329107268601253
1684006692507258800,10.1056591796875,0.20548558225869343,0.21569919590846362,0.28915715224422256
1684006692517299900,10.1157001953125,0.19215035442062517,0.22802448267747477,0.27276003362283135
1684006692527341000,10.125741455078124,0.16609382619650678,0.26168346398247005,0.2259269953183292
1684006692537381800,10.1357822265625,0.15085864077451314,0.2833557130112542,0.22627758962522057
1684006692547422900,10.1458232421875,0.10872077944492237,0.27431297299787943,0.20201039306661134
1684006692557464000,10.155864501953126,0.0899457932272659,0.22083854688719579,0.15843057627675
1684006692567505100,10.165905517578125,0.09246492385786982,0.16351985937930888,0.14565646650572084
1684006692577545900,10.1759462890625,0.11881232261114903,0.13290786747963027,0.07884800425839136
1684006692587587000,10.1859873046875,0.1872477531795989,0.13575172415559497,0.032496571555052714
1684006692597628100,10.196028564453124,0.303645372412271,0.08697414380273953,-0.07311153406631915
1684006692607669200,10.206069580078124,0.3768784999447815,0.04658126837194246,-0.13313895460403857
1684006692617710000,10.2161103515625,0.4231321812461038,-0.011157989532655897,-0.25421726719575044
1684006692627751100,10.2261513671875,0.42790865911103476,0.027293205359534816,-0.4092215894232076
1684006692637792200,10.236192626953123,0.3563401698004812,0.1133298874180567,-0.6207317114516382
1684006692647833300,10.246233642578124,0.2522642610867872,0.18953990952133332,-0.859663009650745
1684006692657874100,10.2562744140625,0.13133716578240157,0.18745899206517264,-1.0339628456501366
1684006692667915200,10.266315673828124,-0.0003330706423248653,0.1645298003599756,-1.1141002179197446
1684006692677956300,10.276356689453126,-0.1325650215848704,0.179799079951566,-1.174297451971196
1684006692687997400,10.286397705078125,-0.2206768989708451,0.18089675907154662,-1.193011879825472
1684006692698038200,10.2964384765625,-0.3053138255895475,0.09965801252043169,-1.0233271121060619
1684006692708079300,10.306479736328123,-0.30416274079128525,0.1233882904098095,-0.8289030193841049
1684006692718120400,10.316520751953124,-0.21613097182424426,-0.01349449146929959,-0.5148850679058206
1684006692728161500,10.326561767578124,-0.11278319351385825,-0.11549282076440989,-0.25151360034258674
1684006692738202300,10.336602783203125,-0.05961394303814521,-0.17169284820331657,0.0005682706703421278
1684006692748243400,10.346643798828126,-0.022131443068944864,-0.21593856817268106,0.15475428109252112
1684006692758284500,10.356684814453123,-0.016971111251097196,-0.16347599029524082,0.19000458712711252
1684006692768325600,10.366725830078124,-0.022642850877153627,-0.21589469908582762,0.25961244089762436
1684006692778366600,10.37676708984375,-0.04431700701185902,-0.17117881791419512,0.2639310358970799
1684006692788407500,10.386807861328125,-0.0888845919704957,-0.14631080629319465,0.24342101808864197
1684006692798448600,10.396848876953126,-0.15331554411387105,-0.060946464539718304,0.1731443405256669
1684006692808489600,10.40689013671875,-0.20846557606582738,-0.05980491642766882,0.077777504958061
1684006692818530700,10.41693115234375,-0.23061227787485972,-0.04262065894246215,-0.043696403454019275
1684006692828571600,10.426971923828123,-0.27094554908912827,-0.10886001579337146,-0.0010649561824468128
1684006692838612600,10.437012939453124,-0.251061677882188,-0.10656070692868634,-0.013992547968326765
1684006692848653700,10.44705419921875,-0.19586420059522433,-0.1261844635722864,-0.0855708719112392
1684006692858694800,10.45709521484375,-0.17723417296619975,-0.15542984000723706,-0.12070569405887326
1684006692868735900,10.46713623046875,-0.15296816808070426,-0.21986007683938483,-0.20029538877751057
1684006692878776800,10.47717724609375,-0.18494606019119464,-0.2928647995085038,-0.29794412852142127
1684006692888817800,10.48721826171875,-0.27628636359558556,-0.37010765073533547,-0.39542227983525513
1684006692898858900,10.49725927734375,-0.3904371262515504,-0.3996572494132612,-0.5099797844964917
1684006692908900000,10.507300537109376,-0.5055034162312717,-0.3625841140587254,-0.6005340815531027
1684006692918940800,10.51734130859375,-0.5803117751587126,-0.37618827821008183,-0.6406480073714016
1684006692928981900,10.52738232421875,-0.6333339214055304,-0.35692882525534086,-0.6710989476057144
1684006692939023000,10.53742333984375,-0.6304409503362838,-0.34088230149578846,-0.6467720270910328
1684006692949064100,10.547464599609375,-0.5909802914064864,-0.3280210495304008,-0.5845694542623419
1684006692959104900,10.55750537109375,-0.536969423271666,-0.2704629898406822,-0.512930750948424
1684006692969146000,10.56754638671875,-0.48295950892693296,-0.25185108188905836,-0.4839308857277697
1684006692979187100,10.57758740234375,-0.42882680907705945,-0.2267980575461224,-0.3437601030094009
1684006692989228200,10.587628662109376,-0.3536107539212644,-0.1307277679516611,-0.2887749075110076
1684006692999269300,10.597669677734377,-0.2894845009217073,-0.07484912860184814,-0.2591530680539362
1684006693009310100,10.60771044921875,-0.23007130611688167,-0.039021492172770914,-0.2458853721810906
1684006693019351200,10.617751708984375,-0.1848852636066584,-0.20650863639018024,-0.08636371794258385
1684006693029392300,10.627792724609376,-0.20253086085767968,-0.22332954397875157,0.0032183677260916575
1684006693039433400,10.637833740234376,-0.19468116764641935,-0.16972637180591774,0.02650634947146947
1684006693049474200,10.64787451171875,-0.19441246986551664,-0.1411180495551859,0.03189449020243515
1684006693059515300,10.657915771484374,-0.2228362561344158,-0.0688104628858715,-0.012875124928087634
1684006693069556400,10.667956787109375,-0.16479778293376493,-0.028700828628371953,-0.06645055852579983
1684006693079597600,10.677997802734374,-0.13345861437260698,0.0412311552804759,-0.14900642619684482
1684006693089638300,10.688038818359376,-0.07066559787785263,0.08193492886980332,-0.20773708816663838
1684006693099679400,10.698079833984377,-0.03897786135488761,0.11295032496454761,-0.3393107055921482
1684006693109720600,10.708120849609376,-0.014431714888317832,0.10151576994597364,-0.44993883373277355
1684006693119761600,10.718161865234377,0.015286922309702718,0.017614364678050942,-0.43713220959562105
1684006693129802400,10.728202880859374,0.05334854132188497,-0.07187843336317583,-0.40541830670085605
1684006693139843600,10.738243896484375,0.1281518935062594,-0.07512474065488486,-0.433275341977583
1684006693149884600,10.748284912109376,0.23639392871395593,-0.08057498921347435,-0.36238905774432634
1684006693159925600,10.758326171875,0.34600448591068605,0.08392238608841111,-0.4272402524599801
1684006693169966600,10.768366943359377,0.43452787396549,0.15927028657259137,-0.481294274243698
1684006693180007600,10.778407958984374,0.49420690531214784,0.2979183195893456,-0.4993799926131884
1684006693190048600,10.788448974609375,0.5321745872441896,0.37652015701293023,-0.40781855579155946
1684006693200089800,10.798490234375,0.5724812746008596,0.40783405306391396,-0.3105865418977728
1684006693210130900,10.80853125,0.6225414276917484,0.43728256227496887,-0.15646842124847635
1684006693220171600,10.818572021484377,0.6306596994947626,0.48131465918861627,-0.08320575964608894
1684006693230212800,10.82861328125,0.6163041591294472,0.5020246506100903,-0.034952581075688556
1684006693240253900,10.838654296875,0.5513166189764934,0.4786729812834356,0.02886715529027281
1684006693250295000,10.8486953125,0.46838450429849615,0.5323076249112175,0.06662378455651766
1684006693260335800,10.858736083984375,0.2732036113066868,0.5440044402876976,0.08399972316769905
1684006693270376900,10.86877734375,0.010722875655221351,0.4153614045479339,0.11445987231316782
1684006693280418000,10.878818359375,-0.2638783454664272,0.21168804181608217,0.23041796684897178
1684006693290459100,10.888859375,-0.33139324181080737,-0.00046062469222581164,0.4447509049253622
1684006693300500100,10.898900634765624,-0.1774523258467753,-0.1247549057137374,0.7208436131886053
1684006693310541000,10.90894140625,-0.03839516643584949,-0.15804290773124813,0.8970129489996963
1684006693320582100,10.918982421875,0.014582395517000434,0.06550598146077101,0.7839428185528998
1684006693330623200,10.9290234375,0.12240648269830628,0.27834987657734106,0.5735065340431714
1684006693340664200,10.939064697265623,0.2713868618363726,0.30903530127312323,0.5468811989472806
1684006693350705100,10.94910546875,0.4532316922660215,0.3090105055379315,0.5346208216049835
1684006693360746200,10.959146484375,0.59160256382061,0.3471097946106386,0.4773689211254666
1684006693370787200,10.969187744140624,0.685898900063454,0.34052848806132957,0.3505664766168839
1684006693380828300,10.979228759765626,0.7092226744225868,0.4080085754339704,0.12529274831860346
1684006693390869200,10.98926953125,0.6020491123107722,0.454421997112362,-0.25263184309097775
1684006693400910300,10.999310546875,0.4909086226466953,0.3670768737466295,-0.49704104660358633
1684006693410951300,11.009351806640623,0.36344885815642236,0.23248481739089802,-0.6889072655950338
1684006693420992400,11.019392822265624,0.20821535592666618,0.05324459083403451,-0.895826399299044
1684006693431033600,11.029433837890624,-0.0036401747817725195,-0.03364086159706484,-1.0482534170198035
1684006693441074400,11.039474853515625,-0.2272131443929142,-0.1500673295691033,-1.083364248247838
1684006693451115400,11.049515869140626,-0.4061172009328452,-0.18286037444559908,-1.0382816790350395
1684006693461156600,11.059556884765623,-0.5869278908034786,-0.21687889094891188,-1.0308051110454064
1684006693471197600,11.069597900390624,-0.7255741357018606,-0.3596439361459663,-0.8969646691186108
1684006693481238400,11.079638916015623,-0.8107185362925019,-0.3722057341100912,-0.8848225474637847
1684006693491279600,11.089679931640624,-0.8016432524011055,-0.4291114807897254,-0.9491479992907838
1684006693501320600,11.099720947265626,-0.6836742162655979,-0.4248247147367892,-1.0437266826981464
1684006693511361600,11.10976220703125,-0.4988684655502911,-0.4736089706793395,-1.1816109419511474
1684006693521402800,11.11980322265625,-0.358728885545077,-0.5485897064311718,-1.1999924182286525
1684006693531443600,11.129843994140623,-0.21645069105045975,-0.6421756745371893,-1.2499790192537714
1684006693541484600,11.139885009765624,-0.1633641720643365,-0.6444835661631204,-1.1689749955866306
1684006693551525800,11.14992626953125,-0.18093079326157555,-0.6013650895160831,-1.032122969564853
1684006693561566900,11.15996728515625,-0.26368886231609423,-0.4941635131271237,-0.9406527279792859
1684006693571607700,11.170008056640626,-0.35340988629540243,-0.43794250482064273,-0.7835587859362281
1684006693581648800,11.18004931640625,-0.3973746896977191,-0.4112310409135292,-0.6075409651376549
1684006693591689900,11.19009033203125,-0.3612503409169935,-0.3423032759438439,-0.5417845250561112
1684006693601731000,11.20013134765625,-0.29090118389399705,-0.3648834227152813,-0.3334878980234752
1684006693611771800,11.210172119140625,-0.17647111409285507,-0.34717464442560997,-0.20287075635220517
1684006693621812900,11.22021337890625,-0.06630492203437666,-0.26277828219621646,-0.09445530174795223
1684006693631854000,11.23025439453125,0.05648100370416663,-0.2215642929210793,0.04201811566930129
1684006693641895100,11.24029541015625,0.10736805207419861,-0.18278598786997657,0.17978879827767344
1684006693651936200,11.250336669921875,0.1276822983940898,-0.158443451063621,0.28329008817245244
1684006693661977000,11.26037744140625,0.1327762305561799,-0.15813446040930756,0.3456858694804795
1684006693672018100,11.27041845703125,0.1305736601692135,-0.1579771041490319,0.4173583984538386
1684006693682059200,11.28045947265625,0.12380293015720231,-0.1699438095055419,0.42300310738725133
1684006693692100300,11.290500732421876,0.10702851413321346,-0.13428783413839523,0.3923226594665895
1684006693702141100,11.30054150390625,-0.011902123758298059,-0.1633291245313161,0.3186240195495727
1684006693712182200,11.31058251953125,-0.13957899816835953,-0.2902946472225577,0.2171843946203112
1684006693722223300,11.320623779296875,-0.369103372207723,-0.9233007430974959,0.2953635156848849
1684006693732264400,11.330664794921876,-0.592461466827552,-1.4282999039872313,0.15749856838272022
1684006693742305500,11.340705810546876,-0.8816174866117417,-2.0565414427289426,0.11552167689595609
1684006693752346300,11.35074658203125,-1.089537143766025,-2.0365104675584544,-0.10989042371700392
1684006693762387400,11.360787841796874,-1.3158086537283142,-1.539369583162913,-0.4615213572345908
1684006693772428500,11.370828857421875,-1.5020991563834953,-0.7906131743705795,-0.7526145576650662
1684006693782469600,11.380869873046874,-1.516574382767958,-0.12498569473378972,-0.9729282259672789
1684006693792510400,11.390910888671876,-1.325716018731525,0.12115573885141341,-1.060339689399489
1684006693802551500,11.400951904296877,-0.8091399670815432,0.213991164982522,-1.077935218795885
1684006693812592600,11.410992919921876,-0.20482575889143306,0.28043556206513737,-1.0289095639883326
1684006693822633600,11.421033935546877,0.3502276242131505,0.437480926577573,-0.9064339996406767
1684006693832674600,11.431074951171874,0.7146471738300035,0.5988616942810409,-0.7753726841493397
1684006693842715600,11.441115966796875,0.9622195364374745,0.6546859740930816,-0.5956174135771236
1684006693852756600,11.451156982421876,1.0902979372138517,0.5956697464361617,-0.3239463569072348
1684006693862797700,11.4611982421875,1.1005654333897728,0.4006090163450118,0.0035206004945454394
1684006693872838800,11.4712392578125,1.0056878326803305,0.16296195996341836,0.28593063341278796
1684006693882879600,11.481280029296874,0.8336136341408921,0.06428241744584134,0.5333886742078953
1684006693892920800,11.491321044921875,0.5967733860136404,-0.07012653352517682,0.7652440666058923
1684006693902961800,11.5013623046875,0.3942514657395463,-0.1303081513355554,1.038598299161848
1684006693913002900,11.5114033203125,0.2149636595786191,-0.20478153222475834,1.366985917076425
1684006693923043800,11.521444091796877,0.07836484911703064,-0.22183799744570887,1.6467872857796582
1684006693933084800,11.5314853515625,-0.06434600059849842,-0.3892984389476256,2.007536649645459
1684006693943125900,11.5415263671875,-0.10814495377296958,-0.38185882579511327,2.2052867411507626
1684006693953167000,11.5515673828125,-0.06343168024182985,-0.2500343322271617,2.2480883600131363
1684006693963208100,11.5616083984375,0.052108466698814276,-0.0801324844798876,2.269290685589521
1684006693973248900,11.5716494140625,0.21867510680473234,0.12768077841693543,2.2956323623468564
1684006693983290000,11.5816904296875,0.35465887179776473,0.30877304081738477,2.2959995268322566
1684006693993331100,11.5917314453125,0.45830291513484106,0.40586853030573833,2.3224754335105535
1684006694003372200,11.601772705078124,0.5522799492388509,0.4287090302576466,2.317341566173694
1684006694013413000,11.6118134765625,0.5925171375546814,0.3965435027272759,2.319428920848923
1684006694023454100,11.6218544921875,0.6450920701445055,0.2831926345518759,2.296064615216783
1684006694033495200,11.6318955078125,0.6501293181177957,0.2034683227115828,2.2399804590767802
1684006694043536300,11.641936767578123,0.6849666833732488,0.09042739870849544,2.194006204669443
1684006694053577400,11.651977783203124,0.6522442102274282,0.013402938857418367,2.1149606705292863
1684006694063618200,11.6620185546875,0.5977248547902569,-0.05637073514996465,1.9766896963259577
1684006694073659300,11.672059814453124,0.5049028395710614,-0.11415195475871148,1.7881727220080685
1684006694083700400,11.682100830078124,0.39141878499934113,-0.13130760187689913,1.4511263369317648
1684006694093741600,11.692141845703125,0.2782652675168963,-0.1294031144776357,1.0554969309647018
1684006694103782600,11.702182861328126,0.20454558742239534,-0.07504081717497017,0.6941385268116638
1684006694113823400,11.712223876953123,0.11350452895655565,-0.1999664306763844,0.35380199537603757
1684006694123864600,11.722264892578124,0.07975044859900338,-0.3245763780398753,0.10609127582880729
1684006694133905600,11.732305908203124,0.02939814327024507,-0.4345073701457072,-0.07315751901594161
1684006694143946600,11.74234716796875,0.014363825400418582,-0.3936862944886407,-0.2573854029397583
1684006694153987600,11.752387939453126,0.005350530078461169,-0.3075809479981047,-0.33366391067974527
1684006694164028600,11.762428955078123,-0.0070434212087103825,-0.21926498401272515,-0.3214713633922315
1684006694174069600,11.772469970703124,-0.007893145248016277,-0.16690826409122075,-0.2526232302018914
1684006694184110800,11.78251123046875,0.0007967353869724007,-0.11934089656779238,-0.14894577857603503
1684006694194151900,11.79255224609375,0.02341842644785408,-0.09805488570336975,0.02956634016458544
1684006694204192600,11.802593017578126,0.06131166219109238,-0.06483459490023222,0.21256373819199767
1684006694214233800,11.81263427734375,0.08739608516319292,-0.0555744171254309,0.3470644651414795
1684006694224274900,11.82267529296875,0.11567652239630932,-0.053522110068454025,0.48751819128100443
1684006694234316000,11.83271630859375,0.10077673196507743,-0.06344413763163116,0.5427497625178387
1684006694244356800,11.842757080078124,0.12136834856453815,-0.06144714344355554,0.5609610677019978
1684006694254397900,11.85279833984375,0.08199959995003381,-0.10008430483537441,0.4571497141854864
1684006694264439000,11.86283935546875,0.09315085413303359,-0.08607959749565858,0.4424379766239873
1684006694274480000,11.87288037109375,0.10509526737851352,-0.09117889412913338,0.4014387130231674
1684006694284521100,11.882921630859377,0.13019680964535404,-0.13201713568963336,0.2699168622925486
1684006694294562000,11.89296240234375,0.13033521177764726,-0.18699836722568888,0.21328340470979817
1684006694304603100,11.90300341796875,0.15327501301946683,-0.2919063569062506,0.15022799379212773
1684006694314644100,11.91304443359375,0.21526777749083956,-0.23170852663763575,0.13333913694366664
1684006694324685200,11.923085693359376,0.26849633450007554,-0.1859331132448783,0.12620078036654972
1684006694334726100,11.93312646484375,0.307097434925251,-0.2141895294949794,0.20319026718198913
1684006694344767200,11.94316748046875,0.32900017500073464,-0.13001632680764383,0.1271921546870053
1684006694354808200,11.953208740234375,0.4307280184056819,-0.12005901338177537,0.013923183096769027
1684006694364849300,11.963249755859374,0.5385435819648182,-0.2296314238866482,-0.10281901055999658
1684006694374890200,11.97329052734375,0.6464341878018163,-0.3844881058519845,-0.19908472884565498
1684006694384931200,11.98333154296875,0.7072659732173474,-0.3123731614784676,-0.38409334415576335
1684006694394972300,11.993372802734376,0.6680613755784519,-0.02823066707589628,-0.43567135920444267
1684006694405013400,12.003413818359377,0.5470512508271383,0.14034271234577658,-0.5654217600639928
1684006694415054600,12.013454833984374,0.38912689689488167,0.19141674049072696,-0.6707358956858668
1684006694425095300,12.023495849609375,0.20573735243747437,0.08723831174659505,-0.6528252363257773
1684006694435136400,12.033536865234376,0.03238511096161169,-0.028356552020893506,-0.5308004019917797
1684006694445177600,12.043577880859376,-0.06504923103914528,-0.1480941772184924,-0.3777294159807127
1684006694455218600,12.053618896484377,-0.0388764740489885,-0.16212654117103495,-0.27123451225875933
1684006694465259400,12.063659912109374,0.07694858296323488,-0.221362113778861,-0.24241332714286765
1684006694475300600,12.073700927734375,0.22583901891576166,-0.3404121398840391,-0.30145302410233166
1684006694485341600,12.083741943359374,0.2392644285515831,-0.4117565154362383,-0.1659682691343212
1684006694495382600,12.093783203125,0.22508651027995205,0.0017366408240504557,0.2360699475626469
1684006694505423800,12.10382421875,0.220780313008664,0.6171655654496114,0.5883892775218333
1684006694515464600,12.113864990234376,0.2630183695332882,0.7462673188104447,1.063261628005166
1684006694525505600,12.123906005859377,0.21839940557987067,0.6384048461053515,1.729910016075652
1684006694535546800,12.133947265625,0.0375332235135459,0.42537784568274895,2.3235285282770723
1684006694545587900,12.14398828125,-0.24694550048332917,0.3870496749963412,2.448850154884779
1684006694555629000,12.154029296875,-0.5657871962422714,-0.10947608956100327,2.3706974982739113
1684006694565669800,12.1640703125,-0.7912599443785885,-0.6566791533947087,2.0217404364571494
1684006694575710900,12.174111328125,-0.8589290976205504,-0.9749927521349933,1.7116826773218643
1684006694585752000,12.18415234375,-0.7748557924772727,-0.9889211656050563,1.338596701635828
1684006694595793100,12.194193359375,-0.5984380841315733,-0.651830673192487,0.8193176389400292
1684006694605833900,12.204234375,-0.4443776309668824,-0.3991556166782747,0.3000591098905453
1684006694615875000,12.214275390625,-0.30925491463838445,-0.3402605056651978,-0.07493978751696295
1684006694625916100,12.22431640625,-0.11323642729310805,-0.22865581515037744,-0.33242079619080117
1684006694635957200,12.234357666015624,0.09975087644878157,-0.12917041780161345,-0.5168803334080221
1684006694645998300,12.244398681640623,0.33226454249692183,-0.018144607465929493,-0.6510315537720268
1684006694656039100,12.254439453125,0.4952639341482429,-0.04617214200661688,-0.6577274799392799
1684006694666080200,12.26448046875,0.6057746410579847,-0.1435461045908169,-0.5961816907556443
1684006694676121300,12.274521728515625,0.7161183952238624,-0.1881322861697956,-0.471323698741468
1684006694686162400,12.284562744140626,0.8274818659640195,-0.16330814360737067,-0.29390621193865046
1684006694696203200,12.294603515625,0.9668402672554032,-0.06465435028556414,-0.12076887482672671
1684006694706244300,12.304644775390624,1.0382993220912589,0.026245117268038073,0.030211567960001257
1684006694716285400,12.314685791015624,1.000318050479757,0.1141271590523221,0.13503456110079642
1684006694726326400,12.324726806640625,0.8569171429604111,0.13938426968421333,0.22506928443608137
1684006694736367600,12.334767822265626,0.6652763484837435,0.19784164431553397,0.29615449908988073
1684006694746408400,12.344808837890625,0.4934449790704398,0.1891851425902817,0.40351068982955585
1684006694756449500,12.354849853515624,0.30366808182611227,0.10878849040570475,0.4508341549994546
1684006694766490600,12.364890869140623,0.14198994632851844,0.07147026058081066,0.4689833520287707
1684006694776531600,12.37493212890625,0.0045869946427341095,0.00793075567226305,0.4461284281284786
1684006694786572500,12.384972900390624,-0.11144411552643126,-0.02910995484017891,0.3560643196651757
1684006694796613600,12.395013916015625,-0.17378661043793095,-0.001369476384071627,0.16149735450410016
1684006694806654600,12.405054931640626,-0.19764041887109018,-0.1382875442581337,0.07077455522356903
1684006694816695600,12.41509619140625,-0.17554727201993361,-0.11957454694714895,0.028576850972853524
1684006694826736800,12.42513720703125,-0.18504309643722136,-0.1582241059084148,0.05150955913913303
