time,seconds_elapsed,z,y,x
1684179796360163200,0.025563720703125,1.8596888825618022e-11,5.420318419275422e-11,-8.103122168993191e-11
1684179796370204100,0.0356044921875,0.16582584374258375,0.050743579775513734,0.161548614397768
1684179796380245200,0.0456455078125,0.11834049233703181,0.14478611929200227,0.1510853766614694
1684179796390286000,0.055686279296875,0.11721706400193531,0.14856004727858482,0.3507730960452178
1684179796400327100,0.0657275390625,0.3032703399678576,0.14108324064947536,0.45034742350531154
1684179796410368200,0.0757685546875,0.12962913503049836,0.20535516743877938,-0.008196353760749148
1684179796420409000,0.085809326171875,-0.3392963409871695,0.13939309123386473,0.07398366936088199
1684179796430450100,0.0958505859375,-0.33902835852468904,0.1583142281305124,0.2139658928943819
1684179796440491200,0.1058916015625,0.1270799636764225,0.1483285427223938,-0.017562866153509413
1684179796450532000,0.115932373046875,0.06200981149199504,0.08154892929279933,-0.358092307990063
1684179796460573100,0.125973388671875,-0.37286043170748856,-0.16352057457626312,-0.5414822100369885
1684179796470614200,0.1360146484375,0.5669031142784978,0.21120071399556356,-0.2637171745104022
1684179796480655000,0.146055419921875,-0.5758428573570492,0.19236207010447764,-0.8821370599826056
1684179796490696100,0.156096435546875,-0.8973851203993464,-0.4913620949036907,-0.44646358497468736
1684179796500736900,0.166137451171875,-0.1511011123102795,-0.19508147228357794,-0.47887277618468416
1684179796510778000,0.176178466796875,0.32996177673486154,0.10702562326086888,-0.7905979157185213
1684179796520819100,0.186219482421875,0.4907975196571085,0.26568746556468326,-0.26171541208628263
1684179796530860000,0.19626025390625,1.3713121415150178,3.2003664970919803,-0.9601826669066374
1684179796540901000,0.206301513671875,1.4204874039252449,0.12764287000437424,1.0758509636792473
1684179796550942100,0.216342529296875,0.7521657943769308,-0.9641752243159345,0.09515810010660114
1684179796560983000,0.22638330078125,0.040065288431723564,-0.9126567839734273,-0.96007204056694
1684179796571024000,0.236424560546875,0.29375648505526347,-1.105078220390966,-1.320470809891049
1684179796581065100,0.246465576171875,0.7850551605062345,-1.0133500098000947,-1.8790707588274418
1684179796591106000,0.25650634765625,1.1840395926097051,-1.280177593379075,-1.4275774955221976
1684179796601147100,0.26654736328125,1.5142216680819771,-1.9223132135094405,-0.2989845275426601
1684179796611188100,0.276588623046875,2.0693678855839592,-1.2030088902370393,-0.6392393112066055
1684179796621229000,0.28662939453125,0.5851926803103918,-0.8145735264514284,0.9079880716147403
1684179796631270100,0.29667041015625,-0.7361526489785762,-0.14387989041614585,-0.13719177251957304
1684179796641310900,0.306711181640625,-1.1413545607181441,-0.04407429706275676,-0.4953279496181793
1684179796651352000,0.31675244140625,-1.4017488956591193,-0.08605909352256433,-0.07117319098023785
1684179796661393100,0.32679345703125,-1.586553096894163,1.161511182732642,-0.09172487244512587
1684179796671433900,0.336834228515625,-1.7587969302310213,0.1760594844277652,0.5902709960443405
1684179796681475000,0.34687548828125,-1.8154685497026024,-0.1459701061823648,0.5787177085846927
1684179796691516100,0.35691650390625,-1.6385593413247341,-0.2556772231860285,0.13551330560804106
1684179796701556900,0.366957275390625,-1.3962793349341185,-0.6030349731193784,-0.07175064076945056
1684179796711598000,0.376998291015625,-0.7988519669191364,-0.7534394264694153,0.048962593145872556
1684179796721639100,0.38703955078125,-0.21398353577314042,-0.7481532095892283,-0.19807815537797085
1684179796731679900,0.397080322265625,0.020550489449153456,-0.7582497598079151,-0.20701122280337603
1684179796741721000,0.407121337890625,-0.08098959917395279,-0.5919156074112693,-0.1485710144161051
1684179796751762100,0.41716259765625,-0.3686869143446812,-0.28022861468872573,-0.15257930751505105
1684179796761802900,0.427203369140625,-0.6776049138305508,0.031647682208911995,-0.11836719517234134
1684179796771844000,0.437244384765625,-0.7362773418584042,0.2668056487618442,-0.20714950563460974
1684179796781884800,0.44728515625,-0.6702739000342398,0.4199755192629814,-0.36305332193422307
1684179796791925900,0.457326416015625,-0.7553303242000957,0.6646986007356773,-0.29285049443395134
1684179796801967000,0.467367431640625,-0.6115933657143601,0.8851804734363196,-0.15641593926733538
1684179796812007900,0.477408203125,-0.5727363825207432,0.7999219893690791,-0.1555690764173769
1684179796822048900,0.487449462890625,-0.7042504550375651,0.39895534508015706,0.022378921606384036
1684179796832090000,0.497490478515625,-0.7051680088150775,0.3104133605030643,-0.18687820441598246
1684179796842130900,0.50753125,-0.3761000634857402,0.09544253352937813,-0.3049516676929323
1684179796852172000,0.517572265625,-0.09383308869791372,-0.19171452517848853,-0.021640777611653714
1684179796862213000,0.527613525390625,-0.03076577189202086,-0.1394267083041354,0.15117836001588258
1684179796872253900,0.537654296875,0.15240323549187854,0.03613829616902061,0.5299224852710386
1684179796882295000,0.5476953125,0.16824722295060243,0.13243818281326794,0.9591865541035619
1684179796892336000,0.557736328125,0.03484070284832423,0.059834718833227524,1.1911678313046816
1684179796902376900,0.56777734375,-0.03389620784759062,-0.029014348871003643,0.9584093094100994
1684179796912418000,0.577818359375,-0.19414317600269093,0.008421420944601757,-0.06452846522678912
1684179796922458800,0.587859130859375,-0.6263681649154214,-0.34107375140013374,-0.3418083190838064
1684179796932499900,0.597900390625,-0.5983580947173902,-0.6927013396433392,0.21639347080816096
1684179796942541000,0.60794140625,0.18159830572643737,-0.60728168485872,0.843255996744097
1684179796952582100,0.617982421875,0.6675765512991755,-0.4143304825373953,1.3501739502488
1684179796962622900,0.628023193359375,0.8159891961736445,-0.6071414947431386,1.7412967681350078
1684179796972664000,0.638064453125,0.7150577902619382,-0.7032480239406566,1.9879465103543574
1684179796982704800,0.648105224609375,0.18335133799976097,-0.33736801144185047,1.856962203965557
1684179796992745900,0.658146240234375,-0.5393218993715957,-0.11505126948490119,1.9379053115022
1684179797002787000,0.6681875,-0.8745677470141886,0.07349824903646013,1.606932640064755
1684179797012827800,0.678228271484375,-0.5729681851184049,0.08616495136758294,1.0275774002229812
1684179797022868900,0.688269287109375,-0.020490497509371052,0.17396974571716264,0.4911565781981875
1684179797032910000,0.698310302734375,0.007364392457886087,0.015700340232255788,0.2959527969804693
1684179797042950800,0.708351318359375,-0.17534665751965686,-0.5635251999700571,-0.09144783015138898
1684179797052991900,0.718392333984375,0.2650388777013695,-0.4063434599910806,-0.34366035450177357
1684179797063033000,0.728433349609375,0.5191865564406578,-0.1905035973444948,-0.7009620665407006
1684179797073073800,0.73847412109375,0.6618590354719993,-0.09964895248067672,-0.6613101958872811
1684179797083114900,0.748515380859375,0.8409323096773145,0.12656116483519098,-0.48675537110480743
1684179797093156000,0.758556396484375,0.741518735877302,-0.06626796724979665,0.24098491670653643
1684179797103196800,0.76859716796875,0.5342975855590769,-0.20985937129402457,0.8820343018815796
1684179797113237900,0.778638427734375,0.1349415182018252,-0.14858245841563247,0.8963375092056635
1684179797123278800,0.78867919921875,-0.29318359490244084,-0.2603173255025458,0.3469171525712671
1684179797133319900,0.79872021484375,-0.7646065951050673,-0.25949335103764226,-0.2542839049839564
1684179797143360900,0.80876123046875,-0.5680966377572079,-0.041782379190159286,-0.5059537888896903
1684179797153401800,0.81880224609375,-0.14820231484908303,0.2930927276604793,-0.6322937012102837
1684179797163442900,0.82884326171875,0.3210127352769795,0.4485044478228205,-0.39492416363012534
1684179797173484000,0.83888427734375,0.47947955124717634,0.3943834305270111,-0.11450099932655053
1684179797183524800,0.84892529296875,0.49689632635989806,0.26664495477740324,-0.13711929318383284
1684179797193565900,0.85896630859375,0.4727025330777954,0.09185123443674457,-0.20492649083589584
1684179797203607000,0.86900732421875,0.2599167227711529,-0.23768138896309957,-0.25008678433978765
1684179797213647800,0.879048095703125,0.592370629399986,-0.2888846397163971,0.06430816668166431
1684179797223688900,0.88908935546875,0.9951401948816454,-0.07863903053195836,0.36214923852478487
1684179797233730000,0.89913037109375,1.0061644313803075,0.1070475577339258,0.5859785080214469
1684179797243770800,0.909171142578125,0.6513320206393935,0.22437238704522117,0.14866638196485346
1684179797253811900,0.91921240234375,0.1781524420905379,0.27733993527646167,-0.1133737563068022
1684179797263853000,0.92925341796875,-0.175289973667134,0.36923217762279964,-0.12724399567642944
1684179797273893800,0.939294189453125,-0.34119367608302126,0.17606210707746436,-0.06876659380164192
1684179797283934900,0.949335205078125,-0.49823558327657225,0.02370262155686179,-0.15942764275021493
1684179797293975700,0.959376220703125,-0.4131399392463101,-0.2629399299900242,0.044302940348225434
1684179797304016800,0.969417236328125,0.02839482939533112,-0.29976081863566323,0.0051584242813993465
1684179797314057900,0.979458251953125,0.4244489967390907,-0.03062295903570318,-0.28439235678260827
1684179797324099000,0.98949951171875,0.6317666768991208,-0.004755020029085638,-0.17138195044431584
1684179797334139800,0.999540283203125,0.7972494362375406,-0.016350269345618867,0.5380020141178278
1684179797344180900,1.009581298828125,0.8076170087003655,0.19885158548733078,0.5232648848950955
1684179797354221700,1.0196220703125,0.5852353572128893,0.2371425628712507,0.29369354240079204
1684179797364262800,1.029663330078125,-0.03191936008150942,-0.2277889250849138,0.20657348641887915
1684179797374303900,1.039704345703125,-0.1292176247712233,-0.3346428869740204,0.10377407073840987
1684179797384344800,1.0497451171875,0.17750459897559928,-0.05451536186389555,-0.16856575026127213
1684179797394385800,1.0597861328125,-0.27226659661328095,-0.4822974205265751,-0.45426464082629225
1684179797404426900,1.069827392578125,-0.671741128081378,-0.6623172761317415,-0.9008431435180136
1684179797414467800,1.0798681640625,-0.7846160530179307,-0.6457695961022187,-1.2259826660014326
1684179797424508800,1.0899091796875,-0.837930142937602,-0.4742631911188954,-1.16365242013718
1684179797434549900,1.099950439453125,-0.5083895921187394,-0.08564472199585789,-1.245767593360875
1684179797444590800,1.1099912109375,-0.20152503248763112,-0.5161480905258578,0.12931776055551045
1684179797454631900,1.1200322265625,0.05530679220919697,-0.8465862274630443,1.24204826343053
1684179797464672900,1.1300732421875,0.04047966012251381,-0.47215604775921777,0.9802479744697834
1684179797474713800,1.1401142578125,0.008118748585503871,0.08593702312319429,0.7541685103263062
1684179797484754900,1.1501552734375,0.16978001590800296,0.10540390014604221,1.1383461952659573
1684179797494796000,1.1601962890625,0.4994401932038383,0.3641486168730306,0.8441562652494594
1684179797504836800,1.1702373046875,0.9043167829025253,0.5570573807019978,0.9720411299997327
1684179797514877900,1.1802783203125,1.6275480986772397,0.6973581315351676,1.6430754661764941
1684179797524918600,1.190319091796875,2.375778675100217,-0.9804902076919433,3.2553653716946944
1684179797534959800,1.200360107421875,1.8444871903736761,-0.5535116197229314,2.411499500236561
1684179797545000900,1.2104013671875,1.4697536230130546,0.518033504537387,1.762771129647924
1684179797555041600,1.220442138671875,1.2060327529120145,1.6718626022296625,1.0362863540425564
1684179797565082800,1.230483154296875,0.8042986988583772,2.1346006392168926,0.8099970817060672
1684179797575123900,1.240524169921875,0.5554672480954037,2.105960845841504,0.768576145021921
1684179797585165000,1.2505654296875,0.3883893489803556,1.1266098022304607,0.9570412635406008
1684179797595205800,1.260606201171875,0.9264973998588696,0.6363625525335225,1.0393590926450271
1684179797605246900,1.270647216796875,1.7236580849443095,0.38173675532305695,1.2357993126507707
1684179797615287600,1.280688232421875,1.9003853799045043,-0.1344232558408246,0.5982356071110766
1684179797625328800,1.290729248046875,2.1197640896675862,-0.48979854584325133,-0.350005626544288
1684179797635369900,1.300770263671875,2.315601825555471,-0.7198004721388286,-0.9906330109447015
1684179797645410700,1.31081103515625,2.7998328208098577,-0.5918998717370646,-1.1254868506898028
1684179797655451800,1.320852294921875,2.685072898789283,0.12304496755395171,-0.8835258482665472
1684179797665492900,1.330893310546875,2.089470624966913,0.3761997221452092,-1.0969014168809803
1684179797675533700,1.34093408203125,1.346042394697583,0.19103384023802147,-1.4112877845648846
1684179797685574800,1.350975341796875,0.46604084963754683,0.17925262443903062,-1.3533749581107872
1684179797695615900,1.361016357421875,-0.23379769929395,0.3512845039257759,-0.8435416222367558
1684179797705656800,1.37105712890625,-0.5929855107969669,0.3834390639399997,-0.08216810224008968
1684179797715697800,1.38109814453125,-0.7108665705040917,0.21444416050560366,0.34090518948043647
1684179797725738900,1.391139404296875,-1.2179930210183414,0.17960834499457753,0.3693294526142447
1684179797735779800,1.40118017578125,-1.8645131587829122,0.21595573442975768,0.2788052557856339
1684179797745820800,1.41122119140625,-2.0677959918696334,0.1516928671933749,0.03205776210362733
1684179797755861900,1.421262451171875,-1.5623860358884791,-0.4057784079389039,-0.8608002661056677
1684179797765902800,1.43130322265625,-0.8938001394211208,-1.0434670447487069,-1.6382803917729873
1684179797775943900,1.44134423828125,-1.1391752957576722,-0.8476023675112595,-1.5445151329372362
1684179797785984600,1.451385009765625,-1.4660100936225686,-0.6307482718613778,-1.1435122490059448
1684179797796025800,1.46142626953125,-0.7265511750885004,-0.2935461998242825,-0.6023030281325723
1684179797806066900,1.47146728515625,-0.482086092205193,-0.4430866242886708,0.030623912808342032
1684179797816108000,1.48150830078125,-0.43060496447684676,-0.06428241715526267,0.7343201635836734
1684179797826148800,1.491549072265625,-0.8441854713654753,-0.19051647181149092,0.7950534821403743
1684179797836189900,1.50159033203125,-1.1962531803914727,-0.3743104934681124,0.7519445419033983
1684179797846231000,1.51163134765625,-1.1218705176699932,-0.4712486267415535,0.7855086326012094
1684179797856271800,1.521672119140625,-0.38195502759412286,-0.2876501083478142,0.7208337784245238
1684179797866312900,1.53171337890625,-0.14167213441178553,-0.061616897722306024,0.7244725227381766
1684179797876353600,1.541754150390625,-0.024333421120034383,-0.4279775618160468,0.763349056251877
1684179797886394800,1.551795166015625,0.039901670062034954,-0.5192403793837519,0.32614326468419014
1684179797896435900,1.561836181640625,-0.20602630073661823,-0.38168001165531235,-0.11717271806544666
1684179797906476600,1.571877197265625,-0.7758772968860219,-0.33652162562323323,-0.4936060904988481
1684179797916517800,1.581918212890625,-0.9500449896183114,-0.49908781058418206,-0.3051986693229671
1684179797926558900,1.591959228515625,-1.244697809269106,-0.1445040702982551,0.054085731520559434
1684179797936600000,1.60200048828125,-1.2857850788897107,0.3046007156058776,0.33039140711862497
1684179797946640800,1.612041259765625,-1.1748465299368263,-0.11156940468668443,-0.4359092714001638
1684179797956681900,1.622082275390625,-0.26405733809651616,-0.4747185707362334,-0.6479096413775043
1684179797966722700,1.632123046875,0.5011170508100276,-0.5913767814238217,-0.7659635543008103
1684179797976763800,1.642164306640625,0.8122890591553158,-0.6227474211489036,-0.8268952368915429
1684179797986804900,1.652205322265625,0.6408941744183618,-0.974159240749225,-0.6137957572467283
1684179797996845700,1.66224609375,0.09137415890171807,-1.244676589887932,-0.7926063538267901
1684179798006886800,1.672287353515625,-0.7792396546060311,-1.743299961103645,-0.6912951468380977
1684179798016927900,1.682328369140625,-1.6695935725936628,-2.073152542060075,-0.7525534631319218
1684179798026968800,1.692369140625,-1.9000592230342748,-1.9647903441297536,-1.0905785560571517
1684179798037009800,1.70241015625,-1.9051411151989612,-1.5851702689362783,-0.9342594147355828
1684179798047050900,1.712451416015625,-1.4127378464036664,-1.0037894248961448,-0.9684615133466881
1684179798057091800,1.7224921875,-1.217000722730408,-1.4582352638487275,-0.8005585670676486
1684179798067132800,1.732533203125,-0.9315650463699264,-1.715567111901339,-0.7988281249694
1684179798077173900,1.74257421875,-0.48067355152731045,-1.2986955641764497,-1.026679992815986
1684179798087214800,1.752615234375,-0.2166178225160678,-1.0579538345002133,-0.8180122376675396
1684179798097255900,1.76265625,-0.10005021094759055,-0.7417716978589495,-0.7717061043227673
1684179798107296900,1.772697265625,0.19732260719569872,-0.6189761162179236,-0.42613601681790514
1684179798117337800,1.78273828125,0.6973118782171976,-0.1307353973696059,-1.0504517556330095
1684179798127378900,1.792779296875,0.8336360453862428,0.28097152723757646,-1.7728271483546116
1684179798137420000,1.8028203125,0.9448952676469914,0.911134719781707,-2.7332434654677793
1684179798147460800,1.812861083984375,0.7830758094153188,1.1150846479953878,-2.8652276993882158
1684179798157501900,1.82290234375,0.34034275993044266,0.5312585830790085,-2.294927120093382
1684179798167542600,1.832943115234375,-0.14510536207217276,-0.38241052610542225,-1.6837205888034052
1684179798177583800,1.842984130859375,1.0066342352952724,-0.07261943835584117,-1.4009575842348863
1684179798187624900,1.853025390625,1.9561710356120927,0.09989881533749907,-0.3307867049877044
1684179798197666000,1.86306640625,1.8819956780862719,-0.10325431830056495,0.8437213897674234
1684179798207706800,1.873107177734375,0.9759542941985907,0.26368665692063237,0.5658855437455402
1684179798217747900,1.883148193359375,0.09281969067693484,0.28294515610182047,-0.24397516236665837
1684179798227789000,1.893189453125,-0.17712855327372695,0.22323179236790472,-0.7305417061020837
1684179798237829800,1.903230224609375,-0.16525125506250457,0.1961355210742743,-1.0219240187870486
1684179798247870900,1.913271240234375,-0.32860517507262704,-0.16953849788071615,-0.7902898789561174
1684179798257911600,1.92331201171875,-0.34808301926848967,-0.3847413064111337,-0.211524009757995
1684179798267952800,1.933353271484375,-0.22052454950229658,-1.2378382681404045,0.6825561523144625
1684179798277993900,1.943394287109375,0.18111777288168138,-1.3126697541494605,1.0321183206049003
1684179798288034700,1.95343505859375,-0.12712240225663696,-0.9280195236622978,1.137771606324246
1684179798298075800,1.963476318359375,-0.7353432178816364,-0.981400966829069,0.8671617508818181
1684179798308116900,1.973517333984375,-1.530133009100326,-0.9169545172890481,0.6036748886729901
1684179798318158000,1.983558349609375,-1.9125657083042802,0.11340570461828729,-0.13947391497388134
1684179798328198800,1.99359912109375,-1.3661406040064596,-0.05469226850558798,-0.2885866164928344
1684179798338239900,2.003640380859375,-0.8181405066587083,1.1801767350319743,-0.5431156159812868
1684179798348280800,2.01368115234375,-0.8290679454398572,-0.20834493633120899,-0.1726031303828981
1684179798358321800,2.02372216796875,0.368760347498735,-0.49135589590036644,-0.6513714790598418
1684179798368362900,2.033763427734375,0.4847223759447356,-0.7581486702405319,-0.9660043715214148
1684179798378403800,2.04380419921875,0.45475721362392574,-0.7491321563629436,-0.6579246519722322
1684179798388444800,2.05384521484375,0.41695785518249306,-0.45450449009119737,-0.4400954247787026
1684179798398485900,2.06388623046875,0.22291350359018858,-0.48150444019737826,-0.023475646804976824
1684179798408526800,2.07392724609375,0.0926201344429311,-0.4625511169877247,0.5764384268632564
1684179798418567900,2.08396826171875,0.21812510484908731,-0.16571569428193558,0.46687984462717275
1684179798428608900,2.09400927734375,-0.14600658409067874,-0.1301822662765337,-0.2986516952346712
1684179798438649800,2.10405029296875,0.006991863266728836,-0.6960096360699801,-0.4882040023145254
1684179798448690900,2.11409130859375,-0.05154013649539661,-0.2140135764679781,-0.9882802964011429
1684179798458732000,2.12413232421875,0.12853407854309912,0.3276829719406975,-1.1121907234230761
1684179798468772800,2.134173095703125,0.12728047366719586,0.12811183928332245,-0.7154107094296177
1684179798478813900,2.14421435546875,-0.01812767963616905,0.845605373426315,-0.9733767509272552
1684179798488855000,2.15425537109375,-0.40508794798364456,0.2309527397599079,-0.5117325782848708
1684179798498895800,2.164296142578125,-0.3685934541696136,0.5956964492802462,-0.7401771544405394
1684179798508936900,2.174337158203125,-0.022539138754643657,0.4838800430355681,-0.9517459869132778
1684179798518978000,2.18437841796875,0.4221141339090111,0.5984477996245464,-1.2818155289724695
1684179798529018800,2.194419189453125,0.6566021442489984,0.6832122802013202,-1.4259905814386258
1684179798539059900,2.204460205078125,0.5715985298286764,0.6207885741201772,-1.5366353987051382
1684179798549101000,2.21450146484375,0.5091887712668922,0.6558804511960328,-1.6491990090049182
1684179798559141800,2.224542236328125,0.23686075224212227,1.4521398543823827,-1.5300669669603602
1684179798569182900,2.234583251953125,-0.6004920005593553,1.9668264388511356,-1.3552579878938216
1684179798579224000,2.244624267578125,-1.0152885912933733,2.6537890434683558,-0.7311015129553312
1684179798589264800,2.254665283203125,-1.6023328304280733,1.171287059856632,-0.8695287704003593
1684179798599305900,2.264706298828125,-2.0772564410606225,-0.5714311599343744,-0.9821934699974366
1684179798609347000,2.274747314453125,-1.5819349289423321,-1.0100374222197135,-1.5166769027427192
1684179798619387800,2.284788330078125,-0.8276820181160778,-1.3833537101532118,-1.4233107566756225
1684179798629428900,2.294829345703125,0.01746034606020066,-0.9976215363266321,-1.4706530570554994
1684179798639470000,2.304870361328125,0.4292862414004244,-0.7070193291629514,-0.8945727349045246
1684179798649510800,2.3149111328125,0.14444661134263115,-0.9109668731642011,-0.05093669878428249
1684179798659551900,2.324952392578125,-0.5085597038137273,-1.0793795585561032,0.44173812874260426
1684179798669593000,2.334993408203125,-0.7788269519624543,-0.9085178374207701,0.3457717894788456
1684179798679633800,2.3450341796875,-0.6409456731568589,-0.6454420090153646,-0.0918865203095509
1684179798689674900,2.355075439453125,-0.47317266463218605,-0.28326225280154643,-0.6943154335188405
1684179798699716000,2.365116455078125,-0.13859605795891414,0.3358230590214919,-0.7500925065195572
1684179798709756800,2.3751572265625,-0.487990379455785,0.14792156236123646,-0.8481717110888856
1684179798719797900,2.3851982421875,-1.2188434601777143,-0.14831113818588526,-0.7189164161391083
1684179798729839000,2.395239501953125,-1.8659613132704103,-0.6405096053890815,-0.18519306183359086
1684179798739879900,2.4052802734375,-2.586346864683033,-1.1493449211024385,0.47790241243966014
1684179798749920900,2.4153212890625,-2.6692368983859343,-1.61278820034116,1.8257384301415935
1684179798759962000,2.425362548828125,-1.7248449326667048,-0.7267041206215934,3.442421436257426
1684179798770002900,2.4354033203125,-2.0895349978981885,-1.0686192511490544,3.209092616842002
1684179798780044000,2.4454443359375,-2.161039352546077,-0.6281008719324308,2.702149868004798
1684179798790085000,2.4554853515625,-3.2164320945570815,-0.8172636032790607,1.5674161909988205
1684179798800125900,2.4655263671875,-2.525301933285441,-0.6346263885098279,-0.05579900731607984
1684179798810167000,2.4755673828125,-1.1675314902529332,-0.8400082588037878,-1.3308682440519097
1684179798820208000,2.4856083984375,0.840173721245238,-0.9326105116758562,-1.7991869449687128
1684179798830248900,2.495649169921875,2.513545751637199,-1.2677230834091946,-1.717956066292798
1684179798840290000,2.5056904296875,3.0466899870678823,-2.008373260562845,-0.8427286149685032
1684179798850331100,2.5157314453125,3.198037624532271,-1.094787597614563,-0.3425621987743311
1684179798860371900,2.525772216796875,1.8968080281939599,-0.6877460478034386,0.6035227776448661
1684179798870413000,2.5358134765625,-0.27268147453119557,-0.9746890067383248,1.3884053229750841
1684179798880454100,2.5458544921875,-1.040701150841427,-0.11509799955593156,1.1630282400888101
1684179798890494900,2.555895263671875,-0.37783622726467575,0.9651298522819797,0.6235790253278944
1684179798900536000,2.565936279296875,0.4957869052506043,2.1274104119168307,0.4231324195073638
1684179798910577100,2.5759775390625,0.1585552691701034,0.9092702866970849,-0.28240108484601056
1684179798920617900,2.586018310546875,0.028240680717898876,-0.06611680978083254,-1.3946418761993884
1684179798930659000,2.596059326171875,0.7800923584659061,-0.2223839760199354,-1.48699617373835
1684179798940700100,2.6061005859375,1.6877964734264677,-0.3499565123219785,-0.9353466034212371
1684179798950740900,2.616141357421875,2.217667579582505,-0.5351309774822186,-0.7838425635893076
1684179798960782000,2.626182373046875,2.4237418174381626,-0.5289192201548657,-0.6110548971421828
1684179798970823100,2.636223388671875,2.444316387072105,-0.33429718011330556,-0.05747270600609965
1684179798980863900,2.646264404296875,2.111312866205489,0.03012275693917645,0.04906082145055546
1684179798990905000,2.656305419921875,1.6338920593105175,1.5504989623683536,-0.05721473702492544
1684179799000946100,2.666346435546875,-0.17073416717338633,-0.019903182991660266,-0.9096555709576606
1684179799010986900,2.67638720703125,-0.42012262338556816,-0.14130973803880023,-0.5158624649920821
1684179799021028000,2.686428466796875,-0.5086452960240171,-0.02320289613239029,-0.4848165511216151
1684179799031069100,2.696469482421875,-0.4804127813054756,-0.47504329681989726,-0.5441546438626281
1684179799041109900,2.70651025390625,-0.3528410793188356,-0.7345857620776685,-0.5576558112754781
1684179799051151000,2.716551513671875,0.5368026495372699,-2.238214492783409,0.24649047857913342
1684179799061192100,2.726592529296875,0.8962507844558283,-1.3880977631224576,0.46581506731873457
1684179799071232900,2.73663330078125,-0.7991925478346338,-0.3154783248924831,-0.4208011626485752
1684179799081274000,2.74667431640625,-2.0572104455040625,-0.17962932590708963,-1.3540506361837221
1684179799091315100,2.756715576171875,-1.2573986054499007,-0.12632846814491536,-2.0020637511114625
1684179799101356000,2.76675634765625,0.1493918597190632,0.127641677904569,-2.281922340292055
1684179799111397000,2.77679736328125,1.129812717388028,-0.06180286406783881,-2.261011123522754
1684179799121438100,2.786838623046875,1.9447835683681336,-0.07723522190762154,-2.178821086934921
1684179799131479000,2.79687939453125,2.262169361017163,-0.2000875474098531,-2.043314456952988
1684179799141520000,2.80692041015625,2.0515360831898564,-0.2257785796638583,-1.8002979755832433
1684179799151561100,2.81696142578125,1.763905763539426,0.022058486866416045,-1.266458511281486
1684179799161602000,2.82700244140625,1.613309860346311,0.5185470582212928,-0.6337637900327598
1684179799171643100,2.83704345703125,1.2373763323945646,0.3587064742164691,-0.3495020866425773
1684179799181684100,2.84708447265625,0.6384464501786019,-0.10621452329733871,-0.09133911121793584
1684179799191725000,2.85712548828125,1.2947931289427725,2.086444377928398,-0.4299135207637161
1684179799201766100,2.86716650390625,1.2339463234893184,2.521381378202642,-0.32006454470465867
1684179799211807200,2.87720751953125,0.20917755356186712,2.5286121368343224,-0.8492269517294734
1684179799221848000,2.887248291015625,-0.41681036363381807,1.0755906104649597,-0.7838587761274086
1684179799231889100,2.89728955078125,-0.2572424113752577,-1.8263473510566077,-0.8719162940716344
1684179799241930200,2.90733056640625,0.17264595608186312,-4.484492301915048,-0.5813527107683297
1684179799251971000,2.917371337890625,0.5865421890919744,-6.376505851646772,-0.4595837593755107
1684179799262012100,2.92741259765625,2.249019146004292,-3.521759033239432,-0.44580793387153356
1684179799272053200,2.93745361328125,2.830738306057649,-0.6663484574384853,0.3452687263009976
1684179799282094000,2.947494384765625,1.6506106853857365,0.10585403457053025,0.90576887130772
1684179799292135100,2.957535400390625,0.6008899212592413,0.18236160275252422,1.130764007702943
1684179799302176200,2.96757666015625,0.04369336358090814,0.009523391575173226,0.8660717011149826
1684179799312217000,2.977617431640625,-0.0030430555306592507,0.32929706570215667,0.4258584975216981
1684179799322258100,2.987658447265625,0.09049057963354473,0.7513790129185279,-0.022570609996188346
1684179799332299200,2.997699462890625,0.1891973018590927,0.8653674126397084,-0.35934448245130923
1684179799342340000,3.007740478515625,0.31254672998531796,0.8705973625638183,-0.5817816256586716
1684179799352381100,3.017781494140625,0.48775437475237854,0.4989233017216113,-0.895774364334954
1684179799362422200,3.027822509765625,0.6124812364679705,0.17265415187673216,-0.9553706645632112
1684179799372463000,3.037863525390625,0.542585372862164,-0.3631143568575308,-1.0197257996050813
1684179799382504100,3.047904541015625,0.5568329094917505,-0.6630859375006354,-0.6445825099519638
1684179799392545200,3.057945556640625,0.6541627644951475,-0.7446451186901394,0.03758430477582067
1684179799402586300,3.067986572265625,0.5182745454962545,-0.9375724792132039,0.643397331377523
1684179799412627100,3.078027587890625,0.5235568880213959,-0.8045063019949243,1.0415468214852033
1684179799422668200,3.088068603515625,0.4990982411770454,-0.7627096174385303,1.2977461814370719
1684179799432709000,3.098109375,0.6274857519923271,-1.0103874207502468,1.449464559658338
1684179799442750100,3.108150634765625,1.252233981989984,-0.47511005390001115,1.8653900623979796
1684179799452791200,3.118191650390625,0.8375112415161161,-0.6128482818018233,1.2049028872165914
1684179799462832000,3.128232421875,0.5657473803309258,-0.8104343414536357,0.32818865775408923
1684179799472873100,3.1382734375,0.9084731340028995,-0.17697811136859953,-0.055023670050332346
1684179799482914200,3.148314697265625,0.8802884817877717,0.36887931820304654,-0.24186873441094395
1684179799492955100,3.15835546875,0.4994108080859023,0.39544868469715044,-0.2249467373589676
1684179799502996100,3.168396484375,0.20813626036204308,-0.10717010512970801,0.15033125881185455
1684179799513037200,3.178437744140625,0.1408088207290116,-0.373355865467655,0.5201935769608693
1684179799523078300,3.188478759765625,0.341293990760899,-0.46673679355758124,0.7726500035424285
1684179799533119200,3.19851953125,0.5049661397217452,-0.9778261185486278,0.948017358866428
1684179799543160200,3.208560546875,1.0473036766451211,-0.6580533981074272,1.1214239598026534
1684179799553201300,3.218601806640625,1.4422694444504132,-0.23371124266231222,1.1013822554964017
1684179799563242200,3.228642578125,1.606863498599991,-0.10978508002369311,0.9052429198256114
1684179799573283200,3.23868359375,1.7209234239265803,-0.05517482754476716,0.5527453423946754
1684179799583324300,3.248724853515625,1.7536282539645598,0.057629585308920164,0.3613021373792281
1684179799593365200,3.258765625,1.7603958844380012,0.14265537267139064,0.3403341770381594
1684179799603406300,3.268806640625,1.749623894682809,0.1136322022411896,0.4385645389702222
1684179799613447300,3.27884765625,1.8079061508011423,0.19487667076436735,0.6310784817097109
1684179799623488200,3.288888671875,1.8997781276817614,0.27667427073033857,0.6721341610289104
1684179799633529300,3.2989296875,1.8938221931993298,0.40050888054346634,0.6591267585221986
1684179799643570100,3.308970458984375,1.7365180254702557,0.21825313560002832,0.8588850498472855
1684179799653611200,3.319011474609375,1.5561271905833716,0.4496374130401807,0.6692650318106783
1684179799663652300,3.329052734375,1.1702448129769945,-0.024417877176104306,0.4831795691912636
1684179799673693400,3.33909375,0.7230870724584741,-0.1450338363558804,0.7529284954668954
1684179799683734200,3.349134521484375,0.25643849383830436,-0.23262596137735195,1.1426279544302296
1684179799693775300,3.35917578125,-0.21491634853941352,-0.3870096207862514,1.6930167675713435
1684179799703816400,3.369216796875,-0.4530532360101915,-0.13268184665491362,1.6731231214153548
1684179799713857200,3.379257568359375,-0.7864574194672053,0.3596353530915655,1.023349761921279
1684179799723898300,3.389298583984375,-0.6171301604376768,0.9182605743146447,0.24245977412784422
1684179799733939400,3.39933984375,-1.0766808986233152,0.13093662249489132,-0.1630260945357123
1684179799743980200,3.409380615234375,-0.5261562466290227,1.2475361824332476,-0.8062403200506495
1684179799754021300,3.419421630859375,-0.2883114815645025,0.6261081694724513,-0.4741740226668797
1684179799764062400,3.429462890625,0.3871169685862226,0.423124313324372,-0.04901671408913685
1684179799774103200,3.439503662109375,1.9431519509159259,2.1995425224736853,0.164870977539832
1684179799784144300,3.449544677734375,1.4831997154681775,3.529528617889814,0.05685067166669698
1684179799794185400,3.459585693359375,1.2381726504340875,3.232470989095861,0.04324245456347198
1684179799804226200,3.469626708984375,1.101277112940546,2.4555015564682883,0.09589171399611698
1684179799814267300,3.479667724609375,0.918109834296294,2.224800109960701,-0.22818183892761051
1684179799824308400,3.489708740234375,0.5535794496186278,1.8991231917588731,-0.5858895779217452
1684179799834349200,3.49974951171875,0.19197797776810238,1.2540183066951602,-0.9826889037563241
1684179799844390300,3.509790771484375,0.11750280866320624,-0.014969825814691891,-1.246853828487995
1684179799854431400,3.519831787109375,0.4134318828449384,-1.8650712967326837,-1.2180430888188178
1684179799864472200,3.52987255859375,0.755304515366361,-3.8501081466893683,-0.9758441449301899
1684179799874513300,3.539913818359375,1.1054148674037394,-5.199928283747189,-0.8398985861776624
1684179799884554400,3.549954833984375,1.2271258831087106,-4.8361406326729135,-0.6285171510132149
1684179799894595600,3.559995849609375,1.8281391859232405,-1.2054567336030353,0.25804829593469736
1684179799904636300,3.57003662109375,1.2400182485537568,0.4869422912022559,0.4796943664743726
1684179799914677400,3.580077880859375,-0.04102969168473665,0.019412040659365727,-0.11596393583866633
1684179799924718600,3.590118896484375,-0.6100935935602193,0.46448326108043625,-0.339201688612016
1684179799934759300,3.60015966796875,-0.7192133665414222,0.7864141465000797,-0.7030634880278773
1684179799944800400,3.610200927734375,-0.46580803403439575,1.0672636032390355,-1.2061252593588454
1684179799954841600,3.620241943359375,-0.11720335471128192,1.059718131962454,-1.5433667897857077
1684179799964882400,3.63028271484375,-0.39530313013109125,0.2375173568649733,-2.1449451446424543
1684179799974923400,3.64032373046875,-0.4804593325436703,-0.43590259558106537,-2.4831030369031377
1684179799984964300,3.65036474609375,-0.3640038967310048,-1.0311775206356482,-2.329342126984801
1684179799995005400,3.66040576171875,0.008079886375420613,-1.2603740692469272,-1.9826577901592768
1684179800005046400,3.67044677734375,0.4608002900777855,-1.333783149638347,-1.6573703289899553
1684179800015087600,3.680488037109375,0.7100334169213774,-1.272645950439108,-1.4249275922870939
1684179800025128400,3.69052880859375,0.6348506212134616,-1.1395702361542461,-1.337361335672522
1684179800035169500,3.70056982421875,0.37575483331338516,-1.1166687011161587,-1.314060926313275
1684179800045210600,3.71061083984375,0.14227581015485088,-1.0919218063324794,-1.1766210795798207
1684179800055251400,3.72065185546875,-0.2706272602425421,-1.2205209732440319,-1.082859754641619
1684179800065292500,3.73069287109375,-0.6054611205030237,-1.1919403076036554,-0.8988075255458949
1684179800075333600,3.74073388671875,-0.821501970292025,-1.276157379072075,-0.6930389404097103
1684179800085374400,3.75077490234375,-0.9340674878308199,-1.4480581285210257,-0.6640191078079928
1684179800095415500,3.76081591796875,-0.8408615588723866,-1.1983108521023007,-0.47993063942391156
1684179800105456600,3.77085693359375,-0.7459928989459124,-0.7731056214202902,-0.6355240346020429
1684179800115497400,3.780897705078125,-0.70503592481967,-0.3478469849131151,-0.9723072053310116
1684179800125538600,3.79093896484375,-0.5797669886755359,0.05291652665552659,-1.0813918113271763
1684179800135579600,3.80097998046875,-0.6701102256054661,0.06180000306771353,-0.9446322918385174
1684179800145620400,3.811020751953125,-1.0305507183418159,-0.24764537794219643,-0.9329106809180173
1684179800155661600,3.821061767578125,-1.1178457737468679,0.06993865974096948,-0.9297628404030641
1684179800165702600,3.83110302734375,-1.2380566595855917,0.3146562576194639,-0.7867085934199483
1684179800175743400,3.841143798828125,-0.8875849245613704,0.5888795852056586,-0.6148109436007934
1684179800185784600,3.851184814453125,-0.4204475880591822,1.1223330498779012,-0.5146851539622299
1684179800195825600,3.86122607421875,-0.23656558985356627,1.0004386901108013,-0.4668312073429507
1684179800205866400,3.871266845703125,0.11188960080765893,0.9123411179466233,-0.42758131043298647
1684179800215907600,3.881307861328125,0.329140901523208,0.7990179060973099,-0.2655584810549155
1684179800225948600,3.891348876953125,0.374452352504973,0.37151718136534645,0.051098346807460615
1684179800235989400,3.901389892578125,0.07971668228205968,-0.004829406655326244,0.5909223556055209
1684179800246030600,3.911430908203125,-0.250624895153504,-0.11657524116876063,0.9776914119891554
1684179800256071600,3.921471923828125,-0.6391282081585317,0.1079187392293347,1.6276464462088618
1684179800266112600,3.93151318359375,-0.9284152985366217,0.044982910102538166,2.302733898135048
1684179800276153600,3.941553955078125,-0.7689304352335525,0.18970108031493543,2.517992496552846
1684179800286194600,3.951594970703125,-0.6741404534495492,0.39565944681111664,2.396599769657325
1684179800296235600,3.961635986328125,-0.7637887000004768,0.045970916756997444,2.4906075001037586
1684179800306276600,3.971677001953125,-0.09323239322006963,0.316769599789098,2.2732000351862203
1684179800316317600,3.981718017578125,0.329512596138095,-0.040806770352139636,2.3614060879150993
1684179800326358600,3.991759033203125,0.6112520695621408,-0.41011714937464944,2.421023607284431
1684179800336399600,4.001800048828125,0.6196972130430972,-0.3129549026099209,2.552767276731237
1684179800346440600,4.011841064453125,0.5316715241686382,-0.03929424279461547,2.264150142643551
1684179800356481600,4.021882080078125,0.2831227780693882,0.026429176380101674,1.6088848115485224
1684179800366522800,4.031923095703125,0.22154569621628198,0.31019592282648767,0.977714538573985
1684179800376563600,4.041964111328125,-0.04869699480930147,-0.009966850141388567,0.07029366500794675
1684179800386604600,4.052005126953125,-0.38049674041207626,-0.2517662047803616,-0.47612905502314024
1684179800396645600,4.0620458984375,-0.807123422605781,-0.16428947446680764,-0.6334317921965478
1684179800406686600,4.072087158203125,-1.2124521731949072,-0.0012426377089840937,-0.5674992799528018
1684179800416727700,4.082128173828125,-1.4995775222563748,0.29814910888204915,-0.5453584193250031
1684179800426768600,4.0921689453125,-1.1611163615363722,1.2668657302356456,-0.701612949328777
1684179800436809600,4.1022099609375,-1.5616123677207436,0.695968627858005,-0.07209825518317893
1684179800446850700,4.112251220703125,-1.4190325736413933,0.39119720468093155,0.12911248218764448
1684179800456891600,4.1222919921875,-1.037756085272879,0.10188102730527723,0.03187012677780936
1684179800466932600,4.1323330078125,-0.6401429176823559,-0.039514541739634604,-0.1476972103438189
1684179800476973700,4.1423740234375,-0.28050303458712866,-0.055853843665039704,-0.2372734546638895
1684179800487014800,4.152415283203125,0.013286232893047345,0.09958648684726823,-0.15399241450107096
1684179800497055600,4.1624560546875,0.10168814662362322,0.1094436644615979,0.06817853456453801
1684179800507096800,4.1724970703125,0.04682397836243502,0.0354766845414703,0.25493907928434584
1684179800517137800,4.182538330078125,-0.04988408084836918,0.05840969080132828,0.34157288057487917
1684179800527178600,4.1925791015625,-0.11651551732328527,0.06277656547964502,0.29355216027279823
1684179800537219800,4.2026201171875,-0.24430537231036645,0.10826492299473388,0.12245047106151011
1684179800547260800,4.2126611328125,-0.2593293190068773,0.14277648927022454,0.07270598419575586
1684179800557301600,4.2227021484375,-0.3184822797430955,0.13103199022372677,0.16026020055571205
1684179800567342800,4.2327431640625,-0.3239400388384395,0.16866588595828158,0.41079294683607714
1684179800577383900,4.2427841796875,-0.31004214304554123,0.2860403060962299,0.6952345371946118
1684179800587424600,4.2528251953125,-0.26057696327899404,0.2912998200530725,0.8919477461825835
1684179800597465800,4.2628662109375,-0.14985215661695814,0.21115398397345622,0.9801552295790342
1684179800607506900,4.2729072265625,0.023433446895196913,0.1612567899912293,1.0762716531879262
1684179800617548000,4.2829482421875,0.12310171128302667,0.31922435768619006,1.161316394847773
1684179800627588800,4.2929892578125,0.24781525133267107,0.534898757947741,1.3537182808422976
1684179800637629900,4.3030302734375,0.3802917003029829,0.6534252167510538,1.5129933355989904
1684179800647671000,4.3130712890625,0.3875175714749912,0.6032705307504188,1.6840651033842504
1684179800657711800,4.3231123046875,0.2937344313842205,0.47285366045002214,1.7535706758069471
1684179800667752900,4.3331533203125,0.2247257232324424,0.4963226318225169,1.6546058655992482
1684179800677794000,4.3431943359375,0.1348274946875682,0.5229644774595054,1.6154446603576584
1684179800687834800,4.353235107421875,0.052918672375007934,0.5884847640445103,1.6137094496576705
1684179800697875900,4.3632763671875,-0.04137146491230749,0.630333900496247,1.6717193126640046
1684179800707917000,4.3733173828125,-0.19850397109223802,0.7030277252707167,1.6883112193203875
1684179800717957800,4.383358154296875,-0.33290624618367753,0.8132781982164048,1.6943522692055024
1684179800727998900,4.3933994140625,-0.39811170094877196,0.8318529129778008,1.7046813964028111
1684179800738040000,4.4034404296875,-0.4483126400591376,0.7803936003433868,1.66064810750791
1684179800748080800,4.413481201171875,-0.4689766169381171,0.7569923401860988,1.5772544145481513
1684179800758121900,4.423522216796875,-0.39820504188914424,0.7376785278455066,1.523136615663514
1684179800768163000,4.4335634765625,-0.3371286391535759,0.7750329971689449,1.4064528943043597
1684179800778203800,4.443604248046875,-0.21125316620299495,0.8453226089527365,1.2524195909108218
1684179800788244900,4.453645263671875,0.0138585567298684,0.8702440261945705,1.198155879970934
1684179800798286000,4.463686279296875,0.20628809915029345,0.8813610076420384,1.1013256311463757
1684179800808327100,4.4737275390625,0.2723822593509,0.8476810455032178,1.0308364630946525
1684179800818367900,4.483768310546875,0.23298370850182298,0.7856903075413899,0.9534390569562249
1684179800828409000,4.493809326171875,0.12427592288446328,0.6878232955736112,0.8511165975824222
1684179800838450100,4.5038505859375,0.06771504879910292,0.5491151809344493,0.7256103157530502
1684179800848490900,4.513891357421875,-0.007227540083316362,0.37439727783760657,0.5317085979854975
1684179800858532000,4.523932373046875,0.15018987671924744,0.41448402385426486,0.6920326351893319
1684179800868573100,4.533973388671875,0.36279964443152485,0.4375238417684424,0.5988302231287419
1684179800878613900,4.544014404296875,0.513364672813185,0.34141254423502226,0.526530861853885
1684179800888655000,4.554055419921875,0.6504778860280537,0.30361747741747086,0.5247443913760461
1684179800898696100,4.564096435546875,0.7114863396272478,0.32196044918068206,0.4192264080744
1684179800908736900,4.574137451171875,0.8255692719861218,0.29613590247942173,0.3884398938908992
1684179800918778000,4.584178466796875,0.9230914116707051,0.2787990570086829,0.2842621804474452
1684179800928819100,4.594219482421875,0.8082091210376535,0.2053909302230062,0.0639467241066653
1684179800938860000,4.60426025390625,0.4421502351597424,0.17851352686417263,-0.23131632810656347
1684179800948901000,4.614301513671875,-0.1380913258701472,0.011444091756027223,-0.5311758518277776
1684179800958942100,4.624342529296875,-0.6945476530069783,-0.18830585479411596,-0.7654584049991621
1684179800968983200,4.634383544921875,-1.1064728497389245,-0.2704381941031765,-1.021549344147751
1684179800979024000,4.644424560546875,-1.359620809444828,-0.29026794416860935,-1.2270019053266459
1684179800989065100,4.654465576171875,-1.3020234107226765,-0.15244293226470293,-1.3497384787288376
1684179800999106200,4.664506591796875,-0.9638637901248231,-0.08657264705859645,-1.3160358667160446
1684179801009147100,4.67454736328125,-0.624094426775555,-0.10706615450010754,-0.997360766052167
1684179801019188100,4.684588623046875,-0.32355481370741,-0.17107772821060466,-0.7049599885880562
1684179801029229200,4.694629638671875,-0.18084186308532219,-0.14989566793668696,-0.6178879142097121
1684179801039270100,4.70467041015625,-0.09934687625113975,-0.17067432398436078,-0.6652069091551518
1684179801049311200,4.714711669921875,-0.19328874342755778,-0.1641025542726334,-0.8887507915227059
1684179801059352200,4.724752685546875,-0.23004680883325485,-0.12759590147966735,-1.1045916081838372
1684179801069393100,4.73479345703125,-0.17494732147509912,-0.24969196330197954,-1.1556351184597888
1684179801079434200,4.74483447265625,-0.18383425467749442,-0.3579635619834966,-1.2273544074439675
1684179801089475200,4.754875732421875,-0.2383362651079908,-0.38069915771478907,-1.245812892841015
1684179801099516300,4.764916748046875,-0.21869570013356543,-0.4134302139373007,-1.2047262192086536
1684179801109557200,4.77495751953125,-0.22026497141642143,-0.7972288133132096,-1.0980894564697403
1684179801119598300,4.78499853515625,-0.2813965080982722,-1.3444328308166682,-0.9585672616794328
1684179801129639300,4.795039794921875,-0.5035804512017398,-1.8391275405612475,-0.8533481956670365
1684179801139680200,4.80508056640625,-0.8764856458586152,-2.3171491622440357,-0.694823384373822
1684179801149721300,4.81512158203125,-1.4581131934625777,-2.623748779179792,-0.40857934964213916
1684179801159762400,4.825162841796875,-2.1499009132701583,-2.936496734736604,-0.2754919529555772
1684179801169803200,4.83520361328125,-2.4295985698847566,-2.2267704011595355,0.061011791384092295
1684179801179844300,4.84524462890625,-2.4539971352465706,-1.0111932755963287,0.17210865021977356
1684179801189885400,4.85528564453125,-2.0178031922202933,-0.2775135040660764,0.29149019713147667
1684179801199926200,4.86532666015625,-1.1775512694567822,0.12360286710414975,0.44922578341925495
1684179801209967300,4.87536767578125,-0.2506885528537663,0.057161331025888315,0.6930102109624063
1684179801220008400,4.88540869140625,0.633807659276629,0.09310436253999946,0.8592197896565633
1684179801230049500,4.895449951171875,1.2564103601993217,0.27449321746756283,0.847588539247391
1684179801240090300,4.90549072265625,1.6458576916356777,0.9856767654771712,0.6995214223641175
1684179801250131400,4.91553173828125,1.7195198535125147,1.9889631272362465,0.5619858504855871
1684179801260172500,4.92557275390625,1.451263904683568,2.8201894760102384,0.5792019367251631
1684179801270213300,4.93561376953125,0.8019791842102157,1.5951023101164363,0.4795321226041933
1684179801280254400,4.94565478515625,0.31078729034445896,0.8121814726799157,0.5286061762923763
1684179801290295500,4.95569580078125,-0.09191817040819848,0.3438949586703135,0.8208520413562893
1684179801300336300,4.96573681640625,-0.4303315878795316,0.08688735951555737,0.8008965254132426
1684179801310377400,4.97577783203125,-0.6872572898884567,-0.05229187007385744,0.8010410070455812
1684179801320418600,4.98581884765625,-0.880228996213817,-0.07628059381526459,0.620902776753461
1684179801330459600,4.99585986328125,-0.9716567397273078,-0.04031753541839738,0.2650696039249603
1684179801340500400,5.00590087890625,-0.9194882511494845,-0.20961666103045276,-0.278586983548619
1684179801350541600,5.01594189453125,-0.7914267778394135,-0.22060012811372495,-0.818750321819915
1684179801360582600,5.02598291015625,-0.6253159641282414,0.16749191270313946,-1.1410763263252053
1684179801370623400,5.03602392578125,-0.3484878242513263,0.5974617004238163,-1.0837584734111927
1684179801380664600,5.04606494140625,-0.04588490733241963,0.7609148025099969,-0.8186087607610261
1684179801390705600,5.05610595703125,0.2688728570859829,0.5922985077396354,-0.5948926806632826
1684179801400746400,5.066146728515625,0.6587679386108055,0.10715675349705948,-0.3095937967258708
1684179801410787600,5.07618798828125,1.020460247995767,0.06782627104021871,-0.10301792610388001
1684179801420828600,5.08622900390625,1.3657218219393676,0.15770816787620243,0.09024107442700895
1684179801430869400,5.096269775390625,1.5464452505219746,0.1329641341346278,0.22035551063091327
1684179801440910600,5.106310791015625,1.6543457508284576,-0.0465488433764349,0.39817023274237207
1684179801450951600,5.11635205078125,1.7571271657964973,-0.06514167797393579,0.6499729157661823
1684179801460992600,5.12639306640625,1.8104151487770503,0.20327377315674333,0.8697018622153817
1684179801471033600,5.136433837890625,1.8235206602849112,0.6836729051222169,1.15339374541985
1684179801481074600,5.14647509765625,1.840559720877556,0.9977636337310577,1.4503450393760446
1684179801491115600,5.15651611328125,1.839602231906959,0.6202983857165468,1.7493954897411428
1684179801501156600,5.166556884765625,1.7856110334474962,-0.09115219111241726,2.046214103636686
1684179801511197600,5.176597900390625,1.7336736917704172,-0.689043045081294,2.3873414992112623
1684179801521238600,5.18663916015625,1.6349443197334759,-0.9298353194988026,2.6021547317043687
1684179801531279600,5.196679931640625,1.3845047950053126,-0.7757520675555143,2.7100076674347977
1684179801541320600,5.206720947265625,0.6819452643252514,-0.2508859635884576,2.7411508559230433
1684179801551361600,5.21676220703125,0.03899618232399764,0.33822250363612993,2.757310390521182
1684179801561402600,5.226802978515625,-0.19829072060551883,0.6005315781464485,2.8166947365159016
1684179801571443600,5.236843994140625,-0.3117426037462794,0.7146139145201107,2.567664623229892
1684179801581484600,5.246885009765625,-0.47048401830769393,0.7741632460553372,2.057321071503918
1684179801591525800,5.25692626953125,-0.6710667013057423,0.7086124421162365,1.4180449247846656
1684179801601566600,5.266967041015625,-0.7507257462640906,0.390156745869571,0.9429092408518605
1684179801611607700,5.277008056640625,-0.6417818069033031,0.22569847106090343,0.5862052440685538
1684179801621648800,5.28704931640625,-0.36569619175499435,0.34835052490409263,0.3670880794088182
1684179801631689600,5.297090087890625,-0.006760627059173834,0.42278385157919385,0.28479230409255546
1684179801641730700,5.307131103515625,0.2812349498361227,0.532684326312955,0.3031945229748311
1684179801651771800,5.317172119140625,0.428060382566942,0.5275707243751059,0.34783029556940454
1684179801661812600,5.327213134765625,0.4166015982372561,0.31703090652829913,0.3800501823265125
1684179801671853700,5.337254150390625,0.30173072207589324,0.13091850286743556,0.35455679891499076
1684179801681894800,5.347295166015625,0.18436473620288585,0.12243080135219611,0.32859933367555194
1684179801691935900,5.35733642578125,0.19149863723381105,0.09547042833317065,0.46531391147421974
1684179801701976800,5.367377197265625,0.26055183997802484,0.025905609203119177,0.6480841636590848
1684179801712017800,5.377418212890625,0.3449845015187036,-0.06507682802437466,0.7196063996908002
1684179801722058900,5.387459228515625,0.48524680737644565,0.15904998783186408,0.6984255313598264
1684179801732099800,5.397500244140625,0.5993257165942182,0.5372085571337653,0.6053340434777595
1684179801742140800,5.407541259765625,0.642797350987201,0.4074497222776108,0.45957767965332524
1684179801752181900,5.417582275390625,0.6338425876431215,-0.2878408431566653,0.31064486496377963
1684179801762222800,5.427623046875,0.6127684116457554,-0.9489517211275009,0.0999926328439929
1684179801772263900,5.437664306640625,0.5883404016817521,-1.2052202222931072,-0.05235338204292968
1684179801782304900,5.447705322265625,0.5932825207796115,-0.962601661546533,-0.13895356661761998
1684179801792345800,5.45774609375,0.6225557328507706,-0.149415016182543,-0.07904028898664615
1684179801802386900,5.467787353515625,0.6649484634145096,0.46081447600317366,0.013480186425319831
1684179801812428000,5.477828369140625,0.7114226222972396,0.8014411924490972,0.1463111640075703
1684179801822469000,5.487869384765625,0.7122451067952309,1.0119113922806993,0.2318851947952777
1684179801832509900,5.49791015625,0.713960945498516,0.9304485320560948,0.45308601868287235
1684179801842551000,5.507951416015625,0.6580829621565522,0.736765861448501,0.7231719495012677
1684179801852592000,5.517992431640625,0.5377080438933923,0.540756225439164,0.9051389692521238
1684179801862632900,5.528033203125,0.3866904377677249,0.31356906880099933,0.9700735806439579
1684179801872674000,5.538074462890625,0.15712749958927186,0.253472328304303,0.9781011341798553
1684179801882715100,5.548115478515625,-0.019779980238289564,0.33867549896830285,0.9249168634623947
1684179801892755900,5.55815625,-0.15742489710255575,0.6001024246510052,0.8182798625103337
1684179801902797000,5.568197265625,-0.20447921759414325,0.9084005356288678,0.7220458985496946
1684179801912838100,5.578238525390625,-0.21054989088506842,0.8263950348010991,0.790255904241075
1684179801922879200,5.588279541015625,-0.14350697389884723,0.49853420256249825,0.7984416484778671
1684179801932920000,5.5983203125,-0.04767262939204864,-0.09567451472956996,0.8778054714227426
1684179801942961100,5.608361572265625,0.058970630285011,-0.5707969664602067,0.9205851553665292
1684179801953002200,5.618402587890625,0.15994358066497036,-0.8481578826969621,0.9909222126305705
1684179801963043000,5.628443359375,0.24819761525922607,-0.6967077255178138,1.0369205475299867
1684179801973084100,5.638484375,0.24043625600288346,0.017968177694406322,1.0156433583923905
1684179801983125200,5.648525634765625,0.15799772736894807,0.5058822631267111,0.9841909407427757
1684179801993166000,5.65856640625,0.027954340053233977,1.1213550568389004,0.7020885944330237
1684179802003207100,5.668607421875,-0.05842214829825751,1.0905113220540212,0.7050347326882033
1684179802013248200,5.678648681640625,-0.15698027626129993,0.7827024460867015,0.6931419371420106
1684179802023289300,5.688689697265625,-0.16140642773841277,0.2872867584145698,0.7605600357335653
1684179802033330100,5.69873046875,-0.10848629483901083,-0.16091537493537042,0.7694530485431328
1684179802043371200,5.708771484375,-0.026855945645455032,-0.4353046416186909,0.7611098289489233
1684179802053412300,5.718812744140625,0.09206414213864535,-0.5312576293611909,0.6631016731453727
1684179802063453100,5.728853515625,0.20620447403890227,-0.637682914809419,0.6251029966764347
1684179802073494200,5.73889453125,0.382922291809788,-0.7809095383022847,0.714105129241063
1684179802083535300,5.748935791015625,0.4405141472808776,-0.45714664448569003,0.6599287986884832
1684179802093576400,5.758976806640625,0.41268301005724256,0.1150655746389017,0.5137617587498086
1684179802103617200,5.769017578125,0.3442081213292958,0.29208374036483087,0.4858926533559184
1684179802113658300,5.77905859375,0.26056849956618655,0.00962066658289255,0.6482148170866744
1684179802123699400,5.789099853515625,0.12853080034289802,-0.24667835247358197,0.6086411474423777
1684179802133740200,5.799140625,-0.04925805345467495,0.023287773199192032,0.343245506275609
1684179802143781300,5.809181640625,-0.11307364705311636,-0.11697006225571967,0.2770938874132712
1684179802153822400,5.819222900390625,-0.07416963579980887,-0.49427318571747086,0.47748458369396624
1684179802163863600,5.829263916015625,0.006806373605545218,-0.786344528220643,0.6874418258549974
1684179802173904300,5.8393046875,-0.0026239155480412045,-0.5849742890936195,0.6284751890915464
1684179802183945400,5.849345703125,0.03514081255368298,-0.4648866653201559,0.7490572929380582
1684179802193986600,5.859386962890625,0.1168503761355064,-0.452878952033088,0.9185228347952911
1684179802204027300,5.869427734375,0.1823650599938079,-0.4346609115029245,1.0711041687896283
1684179802214068400,5.87946875,0.24797046174890106,-0.38659572603106773,1.1504231692123412
1684179802224109600,5.889510009765625,0.27067291731982335,-0.42802429215053406,1.2024925947681093
1684179802234150300,5.89955078125,0.3149088620937785,-0.5370388031146704,1.2593950033272343
1684179802244191400,5.909591796875,0.30662953860148634,-0.8111429215418264,1.3128223420471248
1684179802254232600,5.9196328125,0.31518518928620504,-1.0993299484269212,1.3994243146175682
1684179802264273300,5.929673828125,0.3402493596578206,-1.3107519149120512,1.46461617941128
1684179802274314400,5.93971484375,0.3377887607248508,-1.402649879464975,1.429800748799746
1684179802284355600,5.949755859375,0.26425731196510044,-1.112485885592149,1.224683403908434
1684179802294396600,5.959796875,0.2680836917001166,-0.6583538056022983,1.0489890576110774
1684179802304437400,5.969837890625,0.29528671517302724,-0.44892120352177534,0.9243512154284144
1684179802314478600,5.97987890625,0.34631520497739104,-0.6172075271479497,0.9313527345237137
1684179802324519600,5.989919921875,0.4280016423823337,-0.6008644102953777,0.8766769171083166
1684179802334560400,5.9999609375,0.4522939324596805,-0.464575767615437,0.7144043445176675
1684179802344601600,6.010001953125,0.5065329669680394,-0.029427528262318217,0.509293913915515
1684179802354642600,6.02004296875,0.5419911741612145,0.31928539283676044,0.29456353197991575
1684179802364683600,6.030083984375,0.5459510087673318,0.18720245353024842,0.31637692455536703
1684179802374724600,6.040125,0.4817474485472637,0.13625240316689494,0.3156882523483824
1684179802384765600,6.050166015625,0.4175859093872412,0.1711730957123949,0.25287532809396734
1684179802394806600,6.06020703125,0.27860057358160567,0.3161296844715596,0.2655173539875358
1684179802404847800,6.070248291015625,0.08120805018569995,0.5686569214396893,0.28048956385886487
1684179802414888600,6.0802890625,-0.21892470128618172,0.7446718216589607,0.5106021166324037
1684179802424929600,6.090330078125,-0.33989268532096634,0.9633083343555422,0.6984615326388395
1684179802434970800,6.10037109375,-0.4238800706044606,1.221915245027427,0.7728561161570284
1684179802445011600,6.110412109375,-0.2236870823737073,1.021047592147292,1.0515508650667458
1684179802455052600,6.120453125,0.08737480635649121,0.7988185884319872,1.1910098791374093
1684179802465093800,6.130494140625,0.3890507219875794,0.13038349156962062,1.3583419321986516
1684179802475134600,6.14053515625,0.6369879246834318,-0.037533760244152246,1.5232024193023324
1684179802485175600,6.150576171875,0.7344106435880449,-0.26275825507297973,1.562254548078011
1684179802495216800,6.1606171875,0.7433881758371824,-0.5403251647931168,1.7315347196055386
1684179802505257900,6.170658203125,0.6282017232593864,-0.648037910466645,1.8692336083327534
1684179802515298700,6.18069921875,0.4062593580255793,-0.5958471298669825,1.876465559087427
1684179802525339800,6.190740234375,0.24233257773904102,-0.47734165193301825,1.9859321116544508
1684179802535380900,6.20078125,0.11293655634135662,-0.6555881500626867,1.9998184443314775
1684179802545421700,6.210822265625,0.03984278434071421,-0.8597545623162727,1.9733493328147416
1684179802555462800,6.22086328125,0.2002389729331484,-0.7579345702064204,1.929975390478645
1684179802565503900,6.230904296875,0.31007647517512454,-0.7857122421271951,1.847957849532136
1684179802575544800,6.240945068359375,0.512197792566004,-1.129050254920738,1.7691420316511233
1684179802585585800,6.250986328125,0.6938917636849692,-1.27381515503329,1.7386269568237191
1684179802595626900,6.26102734375,0.8646900653395825,-1.5094852447606926,1.5759555101025133
1684179802605668000,6.271068359375,0.9596589802262804,-1.0690956116759607,1.2874417304873003
1684179802615708800,6.281109130859375,1.1727008819779088,-0.74701690673122,0.9352228642843945
1684179802625749900,6.291150390625,1.3293232917273854,-0.16539096847643808,0.5374010800786057
1684179802635791000,6.30119140625,1.3610372544016707,0.36487865445906087,0.15961408625487128
1684179802645832100,6.311232421875,1.1822063921849988,1.0469732285386921,-0.10143262158571681
1684179802655872900,6.3212734375,0.6362880468192358,1.508017539847458,-0.27191191905739587
1684179802665914000,6.331314453125,0.16479656083037214,1.3090038298687667,-0.24721020447938782
1684179802675955100,6.34135546875,-0.48063999412207037,1.156065940865349,-0.27158725265780836
1684179802685996000,6.351396240234375,-0.7735021112994475,1.0184135437438784,-0.40465730432762625
1684179802696037000,6.3614375,-0.986704587848404,0.9656000138218401,-0.5136615038204299
1684179802706078100,6.371478515625,-0.6238819359485736,1.3173179625627478,-0.5809339879738326
1684179802716119000,6.381519287109375,-0.24216514823192806,1.9552087784215415,-0.6285688280535996
1684179802726160000,6.391560546875,0.20007079829325508,2.288314819297469,-0.4443840682029732
1684179802736201100,6.4016015625,0.44755709167824204,3.1053557395219262,-0.3972516357760687
1684179802746242200,6.411642578125,0.5072768927195194,3.808014392995444,-0.22226426004244146
1684179802756283100,6.421683349609375,0.521143674918207,4.4035115241395575,0.08380162700920368
1684179802766324100,6.431724609375,0.3324332534872302,4.437998771659846,0.5295494199239535
1684179802776365200,6.441765625,0.06415173417849335,2.9454560278757485,0.9903916118788318
1684179802786406100,6.451806396484375,-0.13251066215737115,1.8406105041652128,0.8752429485247796
1684179802796447200,6.46184765625,-0.19993850593774584,1.2614402770861801,0.774142146041087
1684179802806488200,6.471888671875,-0.17055988305385866,1.0515260695599091,0.7973819971791165
1684179802816529300,6.4819296875,-0.18892724821697654,1.0260286330243602,0.7841515541779521
1684179802826570200,6.491970458984375,-0.1717531232598121,1.033961295946478,0.8402348757284487
1684179802836611200,6.50201171875,-0.2023065538089735,0.9366416930517582,0.881750643191195
1684179802846652300,6.512052734375,-0.28140604490836907,0.8871068955038457,0.856190025802375
1684179802856693400,6.52209375,-0.28492358327086686,0.8517866133201454,0.8653430938931668
1684179802866734300,6.532134765625,-0.25590795264364324,0.7996454239675951,0.8145323992257834
1684179802876775300,6.54217578125,-0.27912706141939614,0.6854295729896333,0.6993701458386522
1684179802886816400,6.552216796875,-0.2558419703254753,0.69561481463515,0.6368495225838156
1684179802896857300,6.562257568359375,-0.296195506977197,0.8728933333576365,0.5351620315381643
1684179802906898400,6.572298828125,-0.242340192262092,0.46217536912719326,0.6483333706205976
1684179802916939400,6.58233984375,-0.2452357261376094,0.21003055577193583,0.5931662322291437
1684179802926980300,6.592380615234375,-0.34110701073162647,0.06351280215137263,0.5388107895083046
1684179802937021400,6.602421875,-0.40133181218959546,-0.11383342752177382,0.5476217866651683
1684179802947062400,6.612462890625,-0.4200066625259924,-0.2719507217748588,0.5992543695750314
1684179802957103600,6.62250390625,-0.538372159096444,-0.4134950639136757,0.6501140594435849
1684179802967144400,6.632544677734375,-0.7715455891417725,-0.6677236556655267,0.640059769160605
1684179802977185500,6.6425859375,-0.8474312423197329,-1.008282661374171,0.5917810202044391
1684179802987226600,6.652626953125,-0.7547556759003549,-1.2988948822546096,0.4506565928802058
1684179802997267600,6.66266796875,-0.6636205317105993,-1.3868989943008776,0.29818812008724993
1684179803007308500,6.672708984375,-0.6278795600779454,-1.4042911529899886,0.2483408004415921
1684179803017349600,6.68275,-0.6488199233928765,-0.9406557083162788,0.19294510782204927
1684179803027390600,6.692791015625,-0.6619818806151326,-0.42251205442469797,0.2705118954464479
1684179803037431500,6.702831787109375,-0.6202777625455287,0.07562065128356694,0.30713880052294323
1684179803047472600,6.712873046875,-0.4843186140179187,0.34579658516119405,0.4157698155911979
1684179803057513600,6.7229140625,-0.3023778200343577,0.4697837831169065,0.4076012670573568
1684179803067554600,6.732954833984375,-0.17929768573469554,0.16877555849135423,0.26127362236746493
1684179803077595600,6.742995849609375,-0.15886032578507006,-0.4556522369976327,0.10501492029044288
1684179803087636600,6.753037109375,-0.04823040955096687,-0.9342842101591634,-0.05605351933332209
1684179803097677700,6.763078125,0.16227293019579767,-1.1928405763550174,-0.2808843256118004
1684179803107718600,6.773118896484375,0.3487130403910358,-1.250533104056171,-0.5054824351284674
1684179803117759600,6.78316015625,0.5024093389750321,-1.2648191452200381,-0.6642854809772593
1684179803127800800,6.793201171875,0.6823176145783763,-1.2820615766881343,-0.6775037050619765
1684179803137841800,6.8032421875,0.6100176572761983,-1.2557630538576,-0.8768293261744983
1684179803147882600,6.813282958984375,0.5090792180394115,-1.357737541235509,-1.1783894301376443
1684179803157923800,6.82332421875,0.4732557534713416,-1.4754762648552173,-1.4413157700759904
1684179803167964800,6.833365234375,0.47632157796106056,-1.613829612760934,-1.615597963276876
1684179803178005600,6.843406005859375,0.435011744512463,-1.663043975882928,-1.695248126859125
1684179803188046800,6.853447265625,0.4561343191952705,-1.5021305085478043,-1.785536646928619
1684179803198087900,6.86348828125,0.5271946192410824,-0.8149967193211243,-1.6991397142586593
1684179803208128900,6.873529296875,0.5879316329153033,0.013732910203471735,-1.5137301682632465
1684179803218169800,6.883570068359375,0.5916218756240373,0.6344671249721842,-1.2153106927747126
1684179803228210900,6.893611328125,0.548541307447993,1.0382318496612957,-0.7866904736393938
1684179803238252000,6.90365234375,0.4765990973858022,1.2662858963440125,-0.44020360712660084
1684179803248293000,6.913693359375,0.33721685413441366,1.4311609266960619,-0.12452805033671571
1684179803258333900,6.923734375,0.25178003321550974,1.5494403838900104,0.07482111445134891
1684179803268375000,6.933775390625,0.2775480747627313,1.6163873673162548,0.14658594140314127
1684179803278416000,6.94381640625,0.3503377437834824,1.5799674988022543,0.06545686718465213
1684179803288456900,6.953857177734375,0.32913994784866646,1.3955783843428713,-0.09076815833259416
1684179803298498000,6.9638984375,0.21052885047950648,1.125990867577459,-0.3120357393063759
1684179803308539100,6.973939453125,-0.009709835005141887,0.8311090468009935,-0.5009357332916617
1684179803318580100,6.98398046875,-0.20401215569726672,0.6422824860222283,-0.5659711955553889
1684179803328621000,6.994021484375,-0.314442157843004,0.43263435351669904,-0.6117134094118113
1684179803338662100,7.0040625,-0.38157224648637605,0.27390861524591475,-0.7088850141609243
1684179803348703200,7.014103515625,-0.37725281712491865,-0.0034370422235783147,-0.8172653318351765
1684179803358744000,7.024144287109375,-0.3788328169849327,-0.09083747864698956,-0.7840858100317787
1684179803368785100,7.034185546875,-0.3211071491407927,-0.10061550135300819,-0.7905140517810779
1684179803378826200,7.0442265625,-0.2680952549619342,-0.28078746793037274,-0.591247379696354
1684179803388867200,7.054267578125,-0.35123419772573544,-0.37840557096859917,-0.44990730275508817
1684179803398908100,7.06430859375,-0.35284852981686154,-0.36579990385813504,-0.43691796050010745
1684179803408949200,7.074349609375,-0.2694904803981433,-0.22707748417993381,-0.42774713033700074
1684179803418990300,7.084390625,-0.03190374363488284,-0.06775379192357901,-0.19956147689705359
1684179803429031100,7.094431396484375,-0.11859560023911453,0.04168319706945045,0.15797319994929243
1684179803439072200,7.10447265625,0.010245323092166336,0.21923542020799983,-0.4171064496543489
1684179803449113300,7.114513671875,0.32304859157248705,0.24619388572683265,-0.7060319185727464
1684179803459154400,7.1245546875,0.24550747868883932,0.4422178269060049,-0.15889224393083942
1684179803469195200,7.134595703125,-0.13416838629806294,0.6732616423441509,-0.09783732898372577
1684179803479236300,7.14463671875,-0.17147684085069206,0.6368026733314716,-0.27871218326086833
1684179803489277400,7.154677734375,-0.15141391750819325,0.3925752639508376,0.023625522827259073
1684179803499318200,7.164718505859375,-0.28195190435077244,-0.0035276413163618688,0.44432646043421964
1684179803509359300,7.174759765625,-0.4957361219963339,-0.012554168527939617,1.120598793159229
1684179803519400400,7.18480078125,-0.4885816573148139,0.12163734440194272,1.2814841271448274
1684179803529441500,7.194841796875,-0.3457598687280117,0.19910049445091274,1.2553191186222101
1684179803539482300,7.204882568359375,-0.15944886216590698,0.2886848449110617,1.297750234761084
1684179803549523400,7.214923828125,0.06880617153615279,0.4027595520454924,1.2284634113942088
1684179803559564500,7.22496484375,0.2929153442101319,0.487297058048612,1.0561404227729534
1684179803569605600,7.235005859375,0.36247444156146236,0.6338977813272083,0.9066680670129139
1684179803579646400,7.245046875,0.37798047050580375,0.6594190598225221,0.6880966425034691
1684179803589687500,7.255087890625,0.2872684003047522,0.6128034589876624,0.5247449278504136
1684179803599728600,7.26512890625,0.13788676270406802,0.5352010727297064,0.3615342676395414
1684179803609769400,7.275169677734375,0.04214286797381913,0.45304489125962544,0.062017321633159025
1684179803619810600,7.2852109375,0.006690502209509833,0.5335235596537469,-0.19995021822751124
1684179803629851600,7.295251953125,-0.11022710801964279,0.530362129238225,-0.33728283654405145
1684179803639892600,7.30529296875,-0.23178315158661794,0.5010004044344223,-0.4484284520573551
1684179803649933600,7.315333984375,-0.3906104563289878,0.4069652558430758,-0.5761342049209649
1684179803659974600,7.325375,-0.5659222602174507,0.2859916686373526,-0.7144832016009698
1684179803670015600,7.335416015625,-0.7481148243032655,0.2901048659680204,-0.6161255837090208
1684179803680056800,7.34545703125,-0.9518015385803477,0.34914875026498104,-0.40176486972607994
1684179803690097600,7.355498046875,-1.1014096737316683,0.3958053589161736,-0.20926642416970617
1684179803700138600,7.3655390625,-1.2979607582535764,0.43666267391019153,-0.09929037075644476
1684179803710179800,7.375580078125,-1.3853158952416103,0.4499120711869854,-0.012539625198091481
1684179803720220600,7.38562109375,-1.4207644462699844,0.4146718978061443,0.0949849485589592
1684179803730261600,7.395662109375,-1.492952585331134,0.48444747924648374,0.12033438671148061
1684179803740302800,7.405703125,-1.4865260123946502,0.637769699186889,0.18521845336028514
1684179803750343900,7.415744140625,-1.426581621064539,0.7790622711805932,0.32138618834812277
1684179803760384600,7.42578515625,-1.2612700462039583,0.865451812609065,0.5117253066179651
1684179803770425800,7.435826171875,-1.1152639389727057,0.8421125412834363,0.5816316604785897
1684179803780466900,7.4458671875,-0.950727701228388,0.6687793731782512,0.6164747476387128
1684179803790508000,7.455908447265625,-0.5834698677579516,0.23408889772599759,0.5048961639266222
1684179803800548800,7.46594921875,-0.37100148211406814,-0.46826934815042004,0.31779342896047513
1684179803810589900,7.475990234375,-0.6153316497865253,-1.1042842863460305,0.12466847895719457
1684179803820631000,7.48603125,-1.0904428959207204,-1.5774173737290227,-0.001263618609156028
1684179803830672000,7.496072509765625,-1.2947432994329269,-1.9218235015076295,-0.21160304549963896
1684179803840712900,7.50611328125,-1.2076517343136612,-2.4138746263010886,-0.28252506260928584
1684179803850754000,7.516154296875,-1.9022318125623052,-3.0490655899991803,-0.40439438814508166
1684179803860795100,7.526195556640625,-3.668039798664325,-3.614843368547727,-0.10169661045432435
1684179803870835900,7.536236328125,-4.434725761422096,-3.4269533156137206,0.5974730252681246
1684179803880877000,7.54627734375,-2.7503247259723023,-2.457738876285766,1.2055826188367729
1684179803890918100,7.556318359375,0.3069409130740239,-0.9984207152074448,1.3062808514737159
1684179803900959200,7.566359619140625,2.625075578586388,0.14464664455454004,1.1268868445343956
1684179803911000000,7.576400390625,3.501269340606356,0.6152935026762132,0.9028052688315549
1684179803921041100,7.58644140625,3.431599617094144,0.8354053495948797,0.5452268719693312
1684179803931082200,7.596482666015625,3.0954928398250643,0.9348821639274866,-0.057687044101269125
1684179803941123200,7.606523681640625,2.6533510685794672,1.1808938978445997,-0.4968384505482772
1684179803951164100,7.616564453125,1.9605203866584535,1.5309677125000782,-0.8323296309509863
1684179803961205200,7.62660546875,0.4491140841993089,1.835095882375322,-1.1855961084517992
1684179803971246300,7.636646728515625,-1.5021220445351509,1.8959436416105762,-1.7025185822038602
1684179803981287100,7.6466875,-2.3330640792721127,1.6476116180726548,-1.6724705697178772
1684179803991328200,7.656728515625,-1.7332453728378865,1.1293601988671893,-0.9438499213785023
1684179804001369300,7.666769775390625,-0.4851475955161497,0.355448722891337,-0.33473837385373156
1684179804011410400,7.676810791015625,0.649543106558279,-0.1944026947890055,0.03962886326211916
1684179804021451200,7.6868515625,1.5444040298906323,-0.5366458893358788,0.39806383856490946
1684179804031492300,7.696892578125,2.1813197135879037,-0.6093797683169349,0.5278175472946378
1684179804041533400,7.706933837890625,2.4928159712431084,-0.31297588341428084,0.4210743905903902
1684179804051574400,7.716974853515625,2.46540117256097,0.08147907252035566,0.2976747750704134
1684179804061615300,7.727015625,2.2422609328282044,0.5399818421632656,0.20146405710241858
1684179804071656400,7.737056884765625,1.9584870337511573,0.8400039673038705,0.12387692942611095
1684179804081697500,7.747097900390625,1.6732947825945401,1.0439434051263319,0.09926247602089679
1684179804091738300,7.757138671875,1.3360950947619423,1.0325202943498333,0.039969205765401805
1684179804101779400,7.7671796875,0.8762355446477588,0.8297805784935072,-0.051190018699157395
1684179804111820500,7.777220947265625,0.44571873549101243,0.3785800935549716,-0.13226413743206195
1684179804121861600,7.787261962890625,0.2859707475213384,-0.10341262823712356,-0.301229357635003
1684179804131902600,7.797302978515625,0.49239081156581194,-0.37028980261612454,-0.45579946037190033
1684179804141943500,7.80734375,0.9925779104759846,-0.5775575638594865,-0.5302693845240236
1684179804151984600,7.817385009765625,1.4345834253879048,-0.758359908974718,-0.5120269059450134
1684179804162025600,7.827426025390625,1.694893598476262,-0.883638381997454,-0.4598909616122183
1684179804172066600,7.837466796875,1.7566435337610893,-0.8004961014928195,-0.3729196788490336
1684179804182107600,7.847508056640625,1.6891776323063006,-0.4159364701817083,-0.2659776212387731
1684179804192148600,7.857549072265625,1.5541905164649765,-0.11998462661740422,-0.3636865614759885
1684179804202189700,7.867590087890625,1.28074431413554,0.04662990572404699,-0.47507834440098073
1684179804212230600,7.877630859375,0.8200604321190945,0.13873958576692424,-0.52233147611948
1684179804222271600,7.887672119140625,0.3542016746002058,0.1896753309950296,-0.4382228851515254
1684179804232312800,7.897713134765625,0.039302617225856255,0.20179557798255904,-0.2967060804151859
1684179804242353800,7.907754150390625,-0.014769285817492137,0.17994308472756007,-0.20470821845807569
1684179804252394600,7.917795166015625,0.1060828268269329,0.06694793689327114,-0.13540184485378645
1684179804262435800,7.927836181640625,0.26074093584348795,0.0016288757143786846,-0.1410577297933984
1684179804272476800,7.937877197265625,0.3876380920327736,0.03154563899350459,-0.13672065742224287
1684179804282517600,7.94791796875,0.45721268651773267,0.1564826965205089,-0.11510765567027605
1684179804292558800,7.957959228515625,0.5240539907970428,0.19234371183289414,-0.09548962116340011
1684179804302599900,7.968000244140625,0.5205475091124937,0.2325563431201057,-0.006591558442968393
1684179804312640900,7.978041259765625,0.47214841839694693,0.23419380190535355,0.04826247679008731
1684179804322681800,7.988082275390625,0.3619679212060218,0.28576564792037096,0.1331862211192721
1684179804332722900,7.998123291015625,0.2049711793742216,0.22966289517192032,0.22539544105873835
1684179804342764000,8.008164306640625,0.12133102119266322,0.24287605285687006,0.2793519496218075
1684179804352805000,8.018205322265626,0.047350294998468566,0.1771697998077873,0.28307342539835295
1684179804362845900,8.028246337890625,0.01921034986697472,0.016074180545797703,0.291206717470993
1684179804372887000,8.038287353515624,0.018006350823943987,-0.19262218470925863,0.2527941465361677
1684179804382928000,8.048328369140625,-0.030707867924284118,-0.11224079136839638,0.3745598793605479
1684179804392969100,8.05836962890625,-0.05262231081308835,-0.22813224777305857,0.5354973077157367
1684179804403010000,8.068410400390626,-0.003238081840504411,-0.19561195371269732,0.4706323147051376
1684179804413051100,8.078451416015625,0.009586323007156792,-0.04404067985475441,0.3597612977306473
1684179804423092100,8.088492431640624,0.07049500933739386,-0.16566848767805056,0.4128516316541557
1684179804433133000,8.098533447265625,0.11863298720018965,-0.05580043779054297,0.6929750442229162
1684179804443174100,8.108574462890624,0.13388612856985893,0.18201541890749462,0.9744156598846044
1684179804453215200,8.118615478515625,0.13586439198012853,0.07703590388028082,1.7484165431466392
1684179804463256200,8.12865673828125,-0.053307942960599916,-0.3878860473484637,1.8864312171767157
1684179804473297300,8.13869775390625,-0.24991081648350047,-0.2518186567810444,1.6915804146706004
1684179804483338200,8.148738525390625,-0.35876816521580146,-0.18750667566639956,1.53867638104204
1684179804493379200,8.158779541015624,-0.3196151256561383,-0.17804908739699668,1.1600553988577336
1684179804503420300,8.16882080078125,-0.26542633774592134,-0.1472635270204174,0.8188959359068376
1684179804513461200,8.178861572265625,-0.2689921556556713,-0.009318351730163241,0.7017319201994694
1684179804523502300,8.188902587890626,-0.3394458293550179,0.03749847409142884,0.7112802266520023
1684179804533543300,8.19894384765625,-0.39697918281419037,0.04356479631709785,0.6444076300348899
1684179804543584400,8.20898486328125,-0.41267353298379167,0.0495061873621178,0.7644910812355532
1684179804553625300,8.219025634765625,-0.36288854489459677,0.002669334394505434,0.8711684941949984
1684179804563666400,8.229066650390624,-0.2651940881298473,-0.06575870496540351,1.035905837986806
1684179804573707400,8.23910791015625,-0.2695874869668957,-0.1577701569547094,1.0727219582745748
1684179804583748600,8.24914892578125,-0.20045071835936798,-0.09653663638509181,0.9962629674953865
1684179804593789400,8.259189697265626,-0.0321303903512842,-0.0351829529816153,0.9709755777192433
1684179804603830400,8.26923095703125,0.05127257116497588,-0.0812005996808603,0.9420448541870106
1684179804613871600,8.27927197265625,0.18018588439583383,-0.2440862655811167,0.7934710978940399
1684179804623912600,8.28931298828125,0.25580066433813703,-0.34229946138275846,0.5936927795740954
1684179804633953500,8.299353759765625,0.20723211764457986,-0.34037876119481836,0.5828371047925612
1684179804643994600,8.30939501953125,0.06977477672653432,-0.21455574042997513,0.7599561213207682
1684179804654035600,8.31943603515625,-0.0022689102523810946,-0.16086769107970383,0.9881522059540712
1684179804664076500,8.329476806640624,-0.003986686423699139,-0.13859939573376284,1.1345809696539504
1684179804674117600,8.33951806640625,-0.005392968711577252,-0.010615348785865182,1.172362089206122
1684179804684158600,8.34955908203125,0.055741041960647525,0.05170059217037824,1.2519831657108274
1684179804694199600,8.35960009765625,0.03630691758877509,0.09902954105312753,1.268191099117023
1684179804704240800,8.36964111328125,0.0034042895676581982,0.0821752547803744,1.1679198742895778
1684179804714281600,8.37968212890625,0.03975605968822252,0.04459667199516986,1.058976173321822
1684179804724322700,8.38972314453125,0.07361283891973527,0.010211944493738731,1.0284483433547933
1684179804734363800,8.39976416015625,0.12091043600946272,0.021286010665830277,0.9810503722387279
1684179804744404900,8.409805419921875,0.2109842301904937,-0.05714130408255109,0.9546148179230662
1684179804754445700,8.41984619140625,0.2435825764017181,-0.15526676178583937,0.9084315298522087
1684179804764486800,8.42988720703125,0.2884300946596169,-0.26575088493083043,0.8126162886657992
1684179804774527900,8.43992822265625,0.3414734899300036,-0.36971569048885505,0.796168625218799
1684179804784568800,8.44996923828125,0.4168492256406946,-0.5590724944383086,0.8694892527476422
1684179804794609800,8.46001025390625,0.46632245181430093,-0.6628608703742597,0.9931004046806159
1684179804804650900,8.47005126953125,0.49910727140816824,-0.8095264434653981,1.1301114557985579
1684179804814692000,8.480092529296876,0.4942319095641789,-0.9392547606826802,1.1353703737976617
1684179804824732800,8.49013330078125,0.4362329244237541,-1.1252307891825135,1.0271658896562559
1684179804834773900,8.50017431640625,0.3095902205024828,-1.2278699873593235,0.9835137725085166
1684179804844815000,8.51021533203125,0.2346350847844544,-1.352071762128945,0.9120550751463266
1684179804854856100,8.520256591796874,0.19634312393004053,-1.593992233198694,0.8726338146905877
1684179804864896900,8.53029736328125,0.21489819870057578,-1.749092101987444,0.9627587795499263
1684179804874938000,8.54033837890625,0.2723650634665179,-1.7420768736631216,1.060901165086998
1684179804884979100,8.550379638671876,0.3006758689499603,-1.6338911056840366,1.0597810745152043
1684179804895020200,8.560420654296875,0.18731096380402162,-1.4917707442754624,0.8718866109035599
1684179804905061000,8.57046142578125,0.007423877852806227,-1.2825574874655885,0.6355718372963289
1684179804915102100,8.58050244140625,-0.21869063386669213,-0.9083461760601517,0.5034538507107047
1684179804925143200,8.590543701171875,-0.6155365705263404,-0.4409952162894828,0.28843975071792827
1684179804935184300,8.600584716796876,-1.1538023948753335,0.04504680637821714,0.06146240245185258
1684179804945225100,8.61062548828125,-1.4529353380513768,0.5350389480472475,-0.11373686792468633
1684179804955266200,8.62066650390625,-1.1468324661273903,0.8637523649649702,-0.20791292193847166
1684179804965307300,8.630707763671875,-0.6496821046060512,1.0956153869211405,-0.35878980164753754
1684179804975348400,8.640748779296874,-0.4961787165248168,1.4095830918875758,-0.6097650528321543
1684179804985389200,8.65078955078125,-0.6673923134642468,1.5998315811390562,-0.827801823635099
1684179804995430300,8.660830810546875,-1.009437203323976,1.6402664185678544,-1.0176531078077005
1684179805005471400,8.670871826171876,-0.9366271495462472,1.6100597382215698,-1.018610000744292
1684179805015512600,8.680912841796875,-0.4688839615829715,1.4784154892906642,-0.8497689964052154
1684179805025553300,8.69095361328125,0.011984974186606436,1.3245029449590218,-0.6466122865480322
1684179805035594400,8.700994873046875,0.3435215056327332,1.1748275756319617,-0.44393301015166603
1684179805045635600,8.711035888671875,0.4134419561936541,1.0053949354548817,-0.4157360792400802
1684179805055676600,8.721076904296876,0.2674214839613527,0.8541984556786216,-0.5064172743659987
1684179805065717400,8.731117919921875,0.07164508105253403,0.5870008469315909,-0.6654934883625353
1684179805075758600,8.741158935546874,0.04240190989490948,0.2921447755216412,-0.7861056329489234
1684179805085799600,8.751199951171875,0.25047457211217966,-0.04930782320546367,-0.8978620769296801
1684179805095840600,8.761240966796874,0.5039632916798235,-0.31260490421125714,-0.9437828064646853
1684179805105881600,8.771281982421876,0.6833031176131609,-0.6191062927463886,-1.0504459142014768
1684179805115922600,8.781322998046875,0.6526516676039152,-0.9373245240076132,-1.2521816491483426
1684179805125963600,8.791364013671876,0.5436024666736878,-1.1882743834040748,-1.4235353470411198
1684179805136004800,8.8014052734375,0.46358108530786885,-1.3767576216697055,-1.6256000994242161
1684179805146045600,8.811446044921874,0.509850263660903,-1.4192209242813798,-1.8396784066455578
1684179805156086600,8.821487060546875,0.592567324623042,-1.3419208526282074,-1.911818742735545
1684179805166127800,8.831528076171875,0.6650853157187231,-1.139750480667348,-1.843234777553652
1684179805176168900,8.8415693359375,0.6244256496198517,-0.8959846495822218,-1.69887518886655
1684179805186209600,8.851610107421875,0.4758882522951069,-0.6652059555220718,-1.4003440141421868
1684179805196250800,8.861651123046874,0.35706377013134244,-0.32577133183487705,-1.047624588021311
1684179805206291900,8.8716923828125,0.43882846846197066,-0.04100704205732254,-0.6338549853279615
1684179805216333000,8.8817333984375,0.7017949820346715,0.2369318007212874,-0.12438029055504908
1684179805226373800,8.891774169921876,0.9855028391254912,0.5513887405113297,0.31106352805631143
1684179805236414900,8.901815185546875,1.1982804537686962,0.8304901123298843,0.5419815182353239
1684179805246456000,8.9118564453125,1.2781313658317335,1.0307970045659787,0.5093387363960815
1684179805256497100,8.9218974609375,1.3180373905966316,1.1950540542746244,0.5215899348799864
1684179805266537900,8.931938232421874,1.37339162822168,1.3615255355365221,0.46575805550562427
1684179805276579000,8.9419794921875,1.4405074119718813,1.439767837661787,0.25371840588401884
1684179805286620100,8.9520205078125,1.361288428181214,1.410963058482962,0.02984714524671013
1684179805296661200,8.9620615234375,1.1818150282329418,1.2918806076178784,-0.24677121642281435
1684179805306702000,8.972102294921875,0.9298623799465371,1.113381385952545,-0.6172345875465742
1684179805316743100,8.9821435546875,0.6671074629548905,0.9348316192081515,-0.8034033179232677
1684179805326784200,8.9921845703125,0.3757040500715696,0.7201366423437173,-0.9588048457936151
1684179805336825300,9.0022255859375,0.09936428073343011,0.4764137268240444,-1.0408604144732976
1684179805346866100,9.0122666015625,-0.060286998659640004,0.20407676697278884,-0.9648710490372095
1684179805356907200,9.0223076171875,-0.1953108311579117,0.025287628112208572,-0.7817821503554477
1684179805366948300,9.0323486328125,-0.2976911068868209,-0.1320781707630688,-0.7067210674810929
1684179805376989400,9.0423896484375,-0.2591202258642734,-0.3160505296106034,-0.5489958524968178
1684179805387030200,9.0524306640625,-0.13227200510870152,-0.3689470289979461,-0.29345041512187126
1684179805397071300,9.0624716796875,0.07064199459740785,-0.4534435271834086,-0.1346412897400494
1684179805407112400,9.0725126953125,0.19211125361016324,-0.4931020736973362,0.09638473394038273
1684179805417153500,9.082553955078126,0.28796076775515766,-0.5264444351845334,0.298673480773428
1684179805427194300,9.0925947265625,0.33450126639190536,-0.4914579392531123,0.369264990108111
1684179805437235400,9.1026357421875,0.37919545186748904,-0.47895526879346595,0.32686796783718625
1684179805447276500,9.1126767578125,0.40006399163878503,-0.2691087723155742,0.055250138051531596
1684179805457317600,9.122718017578125,0.40379142770397264,0.1542892456271711,-0.4659199417475424
1684179805467358400,9.1327587890625,0.46300697315944545,0.5330924987841738,-0.820287823519527
1684179805477399600,9.1427998046875,0.49935650832404976,0.7437543870613111,-1.1075580118881334
1684179805487440600,9.152841064453124,0.5014126299140678,0.7013359069935811,-1.4132256507331566
1684179805497481600,9.162882080078123,0.5556869506806754,0.6722307204757285,-1.658819079573546
1684179805507522600,9.1729228515625,0.5888650418156485,0.71669101715109,-1.7018177508594778
1684179805517563600,9.1829638671875,0.5672359465853076,0.7344017028614833,-1.5907107591363963
1684179805527604600,9.193005126953125,0.44753170015481203,0.6435651780327646,-1.4937987326595477
1684179805537645700,9.203046142578126,0.4705088137694719,0.4224205017501636,-1.2297469377395287
1684179805547686600,9.2130869140625,0.6093020439279089,0.2672634123707181,-0.8292936086723572
1684179805557727600,9.223128173828124,0.6663968563870628,0.1305341720041599,-0.39616024490710366
1684179805567768800,9.233169189453124,0.4644680023690224,0.10465049738234916,0.16736322626440017
1684179805577809800,9.243210205078125,0.05756950369445921,0.03240966807344939,0.9622701406398136
1684179805587850600,9.2532509765625,0.1618669032684079,-0.21948528284254448,1.164842844197582
1684179805597891800,9.263292236328123,0.6846094130999356,-0.3979024887030376,0.986933588966207
1684179805607932800,9.273333251953124,0.8839170932347544,-0.5426416398179278,0.5150809287439593
1684179805617973900,9.283374267578123,0.7097160816845419,-0.20596218109451261,0.7431014180818799
1684179805628015000,9.29341552734375,0.6978893281534079,0.23311424260704275,0.6627118587725749
1684179805638055900,9.303456298828126,0.7353470326363819,0.35170078271433763,0.5701109171785006
1684179805648096900,9.313497314453125,0.5562415123490357,0.16977691653432692,0.15693831435731884
1684179805658138000,9.323538330078126,0.169817447834244,0.2580804824247421,-0.015843927852765505
1684179805668178900,9.333579345703123,-0.12077188499310104,0.4477529525560937,-0.5688680411022953
1684179805678220000,9.343620361328124,-0.04504299174918332,0.5860919951754529,-0.8127698301873375
1684179805688261000,9.353661376953124,0.15032410632272916,0.5675077438051954,-0.38385635618792935
1684179805698302100,9.36370263671875,0.4900095462040981,0.3840303419959583,-0.584220290146995
1684179805708343200,9.37374365234375,0.7169375420031514,0.30157470689664234,-0.8752823471959839
1684179805718384000,9.383784423828123,0.6622736454377395,0.3074369431846104,-0.8972615600771804
1684179805728425100,9.393825439453124,0.5845203399563538,0.4412574767977203,-0.8934348822330953
1684179805738466200,9.40386669921875,0.5897006989892535,0.5259532929487067,-0.7366850377507791
1684179805748507300,9.41390771484375,0.6955451965322935,0.6311264039261912,-0.5769812464088458
1684179805758548100,9.423948486328126,0.7522864341695438,0.6965913772526076,-0.7859891057673567
1684179805768589200,9.43398974609375,0.7549626827526814,0.7240591050057444,-1.0772736072859146
1684179805778630300,9.44403076171875,0.6212110520402925,0.7633895875127126,-1.2641017437008593
1684179805788671400,9.45407177734375,0.2870671748670939,0.8430700300639135,-1.4034882783955955
1684179805798712200,9.464112548828124,-0.34052252762624396,0.8817720413893908,-1.5303655863770054
1684179805808753300,9.47415380859375,-1.1182243824195794,0.8174600601087546,-1.8150715826997592
1684179805818794400,9.48419482421875,-1.7163541316137347,0.24850654588190715,-1.9992201329643524
1684179805828835600,9.49423583984375,-1.7933459281694333,-0.8470335006475964,-1.883330106684035
1684179805838876300,9.50427685546875,-1.4680225849528061,-2.041958808981492,-1.4118697642044922
1684179805848917400,9.51431787109375,-0.8677606584267891,-2.866016387866758,-0.9110338688519588
1684179805858958600,9.52435888671875,-0.28515672678660564,-3.2074413299192535,-0.6304097175637522
1684179805868999600,9.53439990234375,-0.06392788886485401,-3.049974441535404,-0.7014063597139193
1684179805879040400,9.54444091796875,-0.1526434422344953,-2.541945457413469,-0.9979612826960882
1684179805889081600,9.55448193359375,-0.3043260572849142,-2.026755332834212,-1.2115987538481412
1684179805899122600,9.56452294921875,-0.08519935609674024,-1.1680240631404837,-1.3887888192913098
1684179805909163600,9.574564208984375,0.5075272321213646,-0.08121776579852633,-1.2342702150946996
1684179805919204600,9.58460498046875,1.0589549541174288,0.8880949020917707,-0.9772503376134534
1684179805929245600,9.59464599609375,1.6351037026421038,1.073779106128282,-0.627311825615229
1684179805939286600,9.60468701171875,1.9741182327030056,1.183858871359983,-0.4124147892818193
1684179805949327800,9.614728271484376,2.165161848050411,1.1359367371267521,-0.2027927636177325
1684179805959368900,9.624769287109377,2.2230255603612745,1.2562170028169775,-0.14549410330237947
1684179805969409600,9.63481005859375,2.251614570666232,1.4575109481688584,0.046694159496926686
1684179805979450800,9.644851318359375,2.217789649956026,1.5845699310623347,0.14744424826868602
1684179805989491900,9.654892333984376,2.104305505839318,1.4182996750241919,0.14885640141420675
1684179805999533000,9.664933349609376,1.7670162917528247,0.8017234801218395,0.2876683474045431
1684179806009573800,9.67497412109375,1.2060246469460019,0.23713016521087713,0.541460633306285
1684179806019614900,9.685015380859374,0.45939588527116365,0.04095649718457686,0.5599167345096926
1684179806029656000,9.695056396484375,-0.29692399501923966,0.026817321733758347,0.3109554053466085
1684179806039697100,9.705097412109374,-0.5865561962276459,0.06188487988913506,0.0041638612915936846
1684179806049737900,9.71513818359375,-0.3361543415307654,0.04353237153268546,-0.07862234123646977
1684179806059779000,9.725179443359377,0.1880621911305013,0.03235340120471089,-0.05863189696823677
1684179806069820100,9.735220458984376,0.7841079235013604,0.047982215940713537,0.0857279300917513
1684179806079861200,9.745261474609377,1.3769857883184948,0.012391090409352325,0.4287009239036697
1684179806089902000,9.755302490234374,1.8756800890621668,-0.0709829330270679,0.8331921696469327
1684179806099943100,9.765343505859375,2.2721426485226894,-0.029445648087602968,1.0741188524830008
1684179806109984200,9.775384521484376,2.5635221003643998,0.06071662907693791,1.2189475297237617
1684179806120025300,9.78542578125,2.7082595825289815,0.15177536007955184,1.1343603133165114
1684179806130066100,9.795466552734377,2.7156972885893826,0.13617706312169037,0.9341229797969016
1684179806140107200,9.805507568359374,2.654624223800138,-0.00987815858161991,0.6536198854271268
1684179806150148300,9.815548583984375,2.617607593564422,-0.11904144294845909,0.43523824216292367
1684179806160189400,9.82558984375,2.5734999179426463,-0.010168075509372418,0.1750661134750687
1684179806170230400,9.835630859375,2.518646716930718,0.12484836566676508,-0.05926418301432492
1684179806180271300,9.845671630859377,2.380976199938754,0.18543243410102447,-0.24671411532801804
1684179806190312400,9.855712646484376,2.22716474531713,0.2814693452594704,-0.38086926939033716
1684179806200353500,9.86575390625,2.0912613870536423,0.3364410399575811,-0.4549902679031813
1684179806210394600,9.875794921875,1.978999853055388,0.3148365019002239,-0.5315852164697468
1684179806220435400,9.885835693359375,1.8950886725467053,0.1454849241858,-0.539192080588971
1684179806230476500,9.895876953125,1.694633960607433,-0.08055877692105361,-0.5676478147890804
1684179806240517600,9.90591796875,1.4243866204692224,-0.3204240799970319,-0.5065135955711564
1684179806250558600,9.915958984375,0.9398889541770259,-0.5168647764432212,-0.3790129423234486
1684179806260599500,9.925999755859374,0.35059276229789543,-0.7114982605700548,-0.4888082742765594
1684179806270640600,9.936041015625,-0.005508542070431062,-0.4826669691662984,-0.24184238895779858
1684179806280681600,9.94608203125,-0.08665275579958591,-0.3373355866759614,0.26534044747266045
1684179806290722700,9.956123046875,0.09212768075755225,-0.310100555402927,0.7124589084084817
1684179806300763800,9.966164306640623,0.35520339027543846,-0.34953594206102984,1.0943849087285158
1684179806310804600,9.976205078125,0.6347861291476115,-0.4166841507125831,1.338985204771357
1684179806320845700,9.98624609375,0.8468067050755973,-0.48265838622198204,1.509156227256553
1684179806330886800,9.996287353515624,0.9173312187204057,-0.645444869913724,1.6317794324565356
1684179806340927900,10.006328369140626,0.90526884782845,-0.7974815368397158,1.7119246721037258
1684179806350968800,10.016369140625,0.8273322581549987,-0.9677200317495336,1.7835301159730008
1684179806361009800,10.02641015625,0.8099797965412687,-1.1231060028850124,1.7691489458357232
1684179806371050900,10.036451416015623,0.983030736412127,-1.1971063614580622,1.9471919536335267
1684179806381092000,10.046492431640624,1.281271219283182,-1.1469678878025937,2.1239547728230233
1684179806391133100,10.056533447265624,1.6051907539675427,-1.0469408036568486,2.316181182685978
1684179806401173900,10.06657421875,1.880928278018308,-0.7561569214816173,2.3571770192538555
1684179806411215000,10.076615478515626,2.1683187484474225,-0.37511730184751324,2.4642052650663495
1684179806421256100,10.086656494140623,2.3502926825362165,-0.02287960059442137,2.4700131416023114
1684179806431297200,10.096697509765624,2.4034461976459958,0.2631845474976563,2.4450049401062097
1684179806441338000,10.106738525390623,2.4368443490516745,0.6221027373970394,2.076576233024076
1684179806451379100,10.116779541015624,2.343014240190602,1.0436830521751517,1.3057450056518667
1684179806461420200,10.126820556640626,2.182672738953133,1.3049631119072087,0.46211147304002215
1684179806471461300,10.13686181640625,2.014738559676539,1.4987468720307755,-0.33790528777360823
1684179806481502100,10.146902587890626,1.6579611301920159,1.4884204864706019,-1.093364715613134
1684179806491543200,10.156943603515623,1.2692265509230563,1.2786579132238047,-1.7797220946594507
1684179806501584300,10.166984619140624,0.996864199648439,1.0033426283785456,-2.268428087203593
1684179806511625400,10.17702587890625,0.8113915919239839,0.6791973114313704,-2.6496558190429265
1684179806521666200,10.187066650390625,0.7082751393979152,0.5022354126447947,-2.904750823927534
1684179806531707300,10.197107666015626,0.6653438806860591,0.39581489564781824,-3.0801398753875717
1684179806541748400,10.207148681640623,0.6178537012416782,0.2023677826225633,-3.1014671324353382
1684179806551789600,10.21718994140625,0.5940621494968916,0.07044601454579118,-3.0572986602542924
1684179806561830600,10.22723095703125,0.6618304848468644,0.038763046212194896,-2.825913190974759
1684179806571871400,10.237271728515625,0.6414583326967072,0.0003967285802522986,-2.41597962380973
1684179806581912600,10.24731298828125,0.5809257029164786,-0.11091041558667604,-2.054229021210285
1684179806591953600,10.25735400390625,0.5460587739242297,-0.2329692840281405,-1.8132067917500432
1684179806601994600,10.26739501953125,0.4925631880001197,-0.19004726404726918,-1.7489798068382107
1684179806612035600,10.277435791015623,0.36803600183702556,-0.21531772611974642,-1.609439969135688
1684179806622076600,10.28747705078125,0.30612266071100436,-0.25383663184569555,-1.2266212701338945
1684179806632117600,10.29751806640625,0.2350251376630944,-0.30040073392000266,-0.7452062369904029
1684179806642158800,10.30755908203125,0.15063285819619648,-0.32598495478687556,-0.25924849501460456
1684179806652199600,10.31760009765625,0.12768012290051658,-0.39253711706246897,0.08851408949833774
1684179806662240600,10.32764111328125,0.19250166411873568,-0.44009208674527267,0.4786633253098474
1684179806672281800,10.33768212890625,0.25118127452180516,-0.4685297012624493,0.7645280360638558
1684179806682322900,10.34772314453125,0.3170781136198806,-0.5182762145883687,1.0266803503738007
1684179806692363600,10.35776416015625,0.37199094890252893,-0.5365371704653553,1.1763451098862108
1684179806702404800,10.36780517578125,0.4268082975933261,-0.45894336704603267,1.2098603249085564
1684179806712445900,10.37784619140625,0.4781532584651795,-0.35268688208994986,1.1047544479384501
1684179806722487000,10.387887451171874,0.5423897504716062,-0.38947677620760435,1.0078246593954545
1684179806732528000,10.397928466796875,0.5751032828924715,-0.36319160460764055,0.7826439736805316
1684179806742568900,10.40796923828125,0.5571249126305242,-0.3077554701630302,0.37565517427466416
1684179806752610000,10.41801025390625,0.5648651123080604,-0.14970874794264458,0.03282165521365136
1684179806762651100,10.428051513671877,0.5879387258975558,-0.08050250996793129,-0.2005368470191461
1684179806772692100,10.438092529296876,0.6750432848984924,-0.0068807601655233004,-0.3508660792541368
1684179806782733000,10.44813330078125,0.7646020055079829,-0.18933486938494004,-0.3055071829580116
1684179806792774100,10.458174560546874,0.8973347544530176,-0.25963687879857683,-0.20261967187033833
1684179806802815200,10.468215576171875,1.0122821332433423,-0.2036180495724812,0.02659583091122134
1684179806812856200,10.478256591796876,1.0770473479521085,-0.1097030640321929,0.21142029754136388
1684179806822897300,10.488297607421876,1.175669431713785,0.029331207332429683,0.3640351296114443
1684179806832938200,10.498338623046877,1.2390717268504787,0.11562061310947883,0.4656422137376247
1684179806842979200,10.508379638671874,1.2327984570312995,0.13504981999546925,0.5596070290595337
1684179806853020300,10.518420654296875,1.2095500230047322,0.0662622451072318,0.6533898114921246
1684179806863061400,10.5284619140625,1.186874747287423,-0.05483341211853067,0.7139496804212679
1684179806873102300,10.538502685546876,1.1702405213913174,-0.1709222793786934,0.7536647320573829
1684179806883143300,10.548543701171877,1.1983621120302328,-0.28684997555286124,0.7726136444733723
1684179806893184400,10.558584716796876,1.266174197088558,-0.34520530712306957,0.7823892832894027
1684179806903225600,10.5686259765625,1.3042539358356018,-0.39855480193120557,0.7275230884462925
1684179806913266600,10.5786669921875,1.3178901673055923,-0.3634939194529881,0.6780821083693837
1684179806923307400,10.588707763671875,1.3179527521319196,-0.3311977385674033,0.6630430221935388
1684179806933348600,10.5987490234375,1.3538427352227957,-0.2732200623849978,0.6991821526594393
1684179806943389600,10.6087900390625,1.3934490681434313,-0.17298984529188882,0.714204430585476
1684179806953430600,10.6188310546875,1.487228751111286,-0.09751319875453858,0.633943200101233
1684179806963471800,10.6288720703125,1.5652594567963376,-0.10411453238722979,0.623957753165968
1684179806973512600,10.6389130859375,1.676244735768973,-0.18748855592827582,0.6186958550095997
1684179806983553600,10.6489541015625,1.7557677030921282,-0.23942279817955417,0.623890400017072
1684179806993594800,10.6589951171875,1.7456520796224826,-0.24796295157959528,0.5919455289321358
1684179807003635900,10.669036376953123,1.712729215610234,-0.21555042253547224,0.5133786202472941
1684179807013676600,10.6790771484375,1.6735399961289763,-0.16835021971317315,0.4544055462516273
1684179807023717800,10.6891181640625,1.6112523077907335,-0.094404220508103,0.3599486349507785
1684179807033758900,10.6991591796875,1.5026136637840044,-0.051292419435508815,0.2474867104483858
1684179807043800000,10.709200439453124,1.3631595372933731,-0.01769447338882849,0.17249143138811812
1684179807053841100,10.719241455078125,1.1679447889330368,-0.027263641251058644,0.022912502318105085
1684179807063881900,10.7292822265625,0.949319958706965,-0.09208965287960101,-0.05742156510509901
1684179807073923000,10.739323486328123,0.7296920419324608,-0.11910724643241076,-0.15679812429211687
1684179807083964100,10.749364501953124,0.5518683195098633,-0.09648418424955127,-0.23690211779088474
1684179807094005200,10.759405517578124,0.4812737702701833,-0.05042171465235674,-0.2644277811544552
1684179807104046000,10.7694462890625,0.5320838689997679,-0.004451751623673589,-0.2540694474748553
1684179807114087100,10.779487548828126,0.6564218401310988,0.07287693032951863,-0.18934488298126273
1684179807124128200,10.789528564453123,0.8215722441764389,0.12678146352946587,-0.09393429762232128
1684179807134169300,10.799569580078124,0.9767825604941326,0.18118476881434892,0.0327789784483455
1684179807144210400,10.80961083984375,1.0914994477367437,0.14280223846532447,0.1936011314536978
1684179807154251200,10.819651611328124,1.2552490235096168,0.04995059967982841,0.4408065081311607
1684179807164292300,10.829692626953126,1.4000985622307565,0.00542449957193705,0.7134542464994117
1684179807174333400,10.839733642578125,1.5870006084505857,-0.03870868674041158,1.029822349495239
1684179807184374400,10.84977490234375,1.7947072982695318,-0.027362823608488872,1.3051693437836633
1684179807194415300,10.859815673828123,1.9869767425627576,-0.022532463086484354,1.5817860364823566
1684179807204456400,10.869856689453124,2.148418426482939,0.03570079807038503,1.8047767878071468
1684179807214497500,10.87989794921875,2.1967151164646297,0.10917568204014558,2.0198297500035167
1684179807224538600,10.88993896484375,2.1504614352828058,0.24078845987510308,2.0894191264789588
1684179807234579400,10.899979736328126,1.9150729179740202,0.4845418929364962,2.0266346931030674
1684179807244620500,10.910020751953123,1.2183561326023296,0.7451400756555099,1.6699281931780448
1684179807254661600,10.92006201171875,0.024980187247222268,0.867058753954477,1.2182871102573074
1684179807264702600,10.93010302734375,-1.3636341093619786,0.638409614524676,0.9028425215865417
1684179807274743600,10.94014404296875,-2.1290836334558443,0.2907915114730781,0.68680047993034
1684179807284784600,10.95018505859375,-2.3056664467831784,-0.06332492831550654,0.3918030261822028
1684179807294825600,10.96022607421875,-2.346772432219974,-0.4425449371642233,0.07922184474599747
1684179807304866700,10.97026708984375,-2.477991580823455,-0.7745475769818372,-0.18966364856259138
1684179807314907800,10.98030810546875,-2.644691467205268,-1.0601634979121666,-0.26424980162552814
1684179807324948600,10.99034912109375,-2.487158537057498,-1.1255483627901721,-0.3174762724582253
1684179807334989700,11.00039013671875,-1.8679466246396785,-1.1349754334705713,-0.3891439437054478
1684179807345030800,11.01043115234375,-1.3106961250860567,-0.9512863158585579,-0.4966986179710707
1684179807355071900,11.020472412109376,-1.3078365326521322,-0.6689300537086192,-0.4896609784687281
1684179807365113000,11.030513427734377,-1.2931978701849787,-0.5874023437406963,-0.49750876433884744
1684179807375154100,11.040554443359374,-1.1609139442574152,-0.7548389434191483,-0.1868689059064419
1684179807385194900,11.05059521484375,-0.9508516788176127,-1.0334119796084122,0.05597233770890741
1684179807395236000,11.060636474609376,-0.7478213311770386,-1.2848720552000146,0.29383301749906854
1684179807405277100,11.070677490234376,-0.5465352535118986,-1.4330215454272879,0.3738299607504634
1684179807415318200,11.080718505859377,-0.3643248080633783,-1.327822685380934,0.2640430927034984
1684179807425359000,11.090759521484374,-0.2717206478157164,-1.0583801269229298,0.0741364955623884
1684179807435400100,11.100800537109375,-0.34184432038293416,-0.7227878570040225,-0.022812128122769667
1684179807445441200,11.110841552734374,-0.4684703350731033,-0.19154644007147192,0.16542172422513188
1684179807455482300,11.120882568359375,-0.46990776062675876,0.2751073836605783,0.34252190579718333
1684179807465523100,11.130923583984377,-0.3525598048614674,0.5744476318889751,0.4321472644398286
1684179807475564200,11.140964599609376,-0.11599206922363216,0.6726789474308,0.5300240517934885
1684179807485605300,11.151005615234377,0.17434358599441063,0.6556940077587908,0.5981980563452097
1684179807495646400,11.161046875,0.5383510589724073,0.695752143969938,0.6282602549028399
1684179807505687600,11.171087890625,0.8228125571845308,0.7477397917965312,0.649890661151177
1684179807515728300,11.181128662109376,1.0705173015602771,0.8333253859774405,0.4740632772522359
1684179807525769400,11.191169677734376,1.2500493526312098,0.9285984039861563,0.2831628322245902
1684179807535810600,11.2012109375,1.3257094621145171,1.004888534659486,0.15363764768335017
1684179807545851600,11.211251953125,1.283224344223253,1.0692052842022328,0.024454593719149934
1684179807555892400,11.221292724609375,1.1769739388021287,1.0187597274595026,-0.011665224946884212
1684179807565933600,11.231333984375,0.9943070413038829,0.944565772985352,-0.046490073188618364
1684179807575974600,11.241375,0.894713401862442,0.8277158737277177,-0.1772612333712431
1684179807586015600,11.251416015625,0.8606982231891984,0.670984268147453,-0.31797444829611243
1684179807596056800,11.26145703125,0.7967453003940967,0.46980285635591745,-0.41912138463967924
1684179807606097800,11.271498291015623,0.6230466365030323,0.22413730622674638,-0.515580654324604
1684179807616138600,11.2815390625,0.36420774463050726,0.005391120866811248,-0.40015828592884156
1684179807626179800,11.291580078125,0.15282487861327423,-0.1609344481957945,-0.43867290019672006
1684179807636220800,11.301621337890625,0.01750993739175962,-0.28272342678251167,-0.4792563915109243
1684179807646261900,11.311662353515626,0.027657032108058435,-0.338585853620588,-0.5729434489773232
1684179807656302800,11.321703125,0.14220690740034944,-0.3468704222086312,-0.5603798627061557
1684179807666343900,11.331744140625,0.2988235951694267,-0.27752017983569777,-0.532361149718679
1684179807676384900,11.341785400390624,0.40652441992507327,-0.22981643672166144,-0.48656475551075923
1684179807686426000,11.351826416015625,0.3646667004520677,-0.215035438650384,-0.4090616703162673
1684179807696466900,11.3618671875,0.23154592519495643,-0.14998531330243098,-0.3772729633623504
1684179807706508000,11.371908447265625,0.08926653854447765,0.01655387886777401,-0.34502863886605123
1684179807716549000,11.381949462890624,0.1103446483154738,0.16606330865887053,-0.36831712717804427
1684179807726590100,11.391990478515623,0.3212335110471097,0.2958555222504267,-0.39586877820076255
1684179807736631000,11.40203125,0.6127810477849208,0.45172786710946433,-0.39373731625918634
1684179807746672000,11.412072509765624,0.9428181648014673,0.5099077225661263,-0.39767622952001147
1684179807756713100,11.422113525390625,1.1629023552752156,0.5472173688990927,-0.4414008856033736
1684179807766754200,11.432154541015626,1.1951239110654106,0.5254106522726721,-0.45157027252613524
1684179807776795300,11.44219580078125,1.0959146022810975,0.46590995805146085,-0.32412564758499074
1684179807786836400,11.45223681640625,0.754863977467636,0.35171413435414417,-0.1725577116342726
1684179807796877200,11.462277587890624,0.24703788764299517,0.1799316406382402,0.03204810622270543
1684179807806918300,11.472318603515625,-0.15747761716834255,0.0980482101152757,0.05080747592650319
1684179807816959400,11.48235986328125,-0.19496583937738618,0.04382133469681124,0.09417390817838973
1684179807827000600,11.49240087890625,-0.20295190812300165,-0.03489780425278162,0.11418735987644632
1684179807837041300,11.502441650390624,-0.2012372016897863,-0.05918693537230193,0.05973458300564328
1684179807847082400,11.51248291015625,-0.196218490566705,-0.08208084109743329,-0.06321382533636093
1684179807857123600,11.52252392578125,-0.21958756453554623,-0.006112098696509237,-0.18831050393766696
1684179807867164600,11.53256494140625,-0.23144602773116793,0.06059169763238744,-0.21109950528760918
1684179807877205600,11.542606201171877,-0.1764273643893203,0.17752838147497965,-0.3341039419144722
1684179807887246600,11.55264697265625,-0.17359876623893605,0.20102787022554128,-0.5109472275175586
1684179807897287600,11.56268798828125,-0.1586594582299447,0.22455596916970325,-0.6652597188954782
1684179807907328600,11.57272900390625,0.008555412310631286,0.31836509693424875,-0.7161738873161274
1684179807917369800,11.582770263671875,0.24519515030989947,0.43577194214960063,-0.7531158924666196
1684179807927410900,11.592811279296876,0.39931058885263987,0.601140022192445,-0.8535051347292221
1684179807937451600,11.60285205078125,0.3796489237925041,0.7519102097867897,-1.0545558928141958
1684179807947492800,11.61289306640625,0.2536928654700062,0.9256763457418287,-1.1926406621894072
1684179807957533900,11.622934326171874,0.13249564168105196,1.04331207275618,-1.265881061728985
1684179807967575000,11.632975341796875,0.07175254813957566,1.11247730260674,-1.2829077244285951
1684179807977616000,11.643016357421876,0.135123729802056,1.1650705336824458,-1.289918899436261
1684179807987656900,11.653057373046876,0.16769433020704103,1.196840286391874,-1.2195776702532541
1684179807997698000,11.663098388671877,0.1316826342242357,1.2602596283757168,-1.1152763366085954
1684179808007739100,11.673139404296874,0.024303674667931152,1.25195693966964,-1.0800056457739076
1684179808017780100,11.6831806640625,-0.15204691888998792,1.1021728516010363,-0.9899257422119012
1684179808027821000,11.693221435546874,-0.3723814488676681,0.9113454818765487,-0.9318519830583553
1684179808037862100,11.703262451171875,-0.56976962103419,0.6940259933952669,-0.8204165698370081
1684179808047903200,11.713303466796877,-0.6712112425600252,0.5320434570359124,-0.6595373152850937
1684179808057944200,11.7233447265625,-0.6286721230697584,0.38573741903688485,-0.3847539426092486
1684179808067985300,11.7333857421875,-0.5731015204161439,0.26079940794090684,-0.16541051861665046
1684179808078026200,11.743426513671874,-0.4718601703526135,0.1766710281380003,0.03163766871649442
1684179808088067200,11.753467529296875,-0.4037301541592723,0.05923938767950102,0.2397450208391023
1684179808098108300,11.7635087890625,-0.2730426787659904,-0.10810756684766817,0.48986172666094246
1684179808108149400,11.7735498046875,-0.19919753079717667,-0.15358734133725752,0.6039228439486813
1684179808118190600,11.7835908203125,-0.22667193418370996,-0.2569713592501835,0.835907459314138
1684179808128231300,11.7936318359375,-0.22050261501478927,-0.2249031067192459,1.0823569298319045
1684179808138272400,11.8036728515625,-0.21899223336581752,-0.07215499876257614,1.2553203105994857
1684179808148313600,11.8137138671875,-0.2727739809900722,0.05538845066076268,1.5151638985602474
1684179808158354600,11.823755126953126,-0.3562028409564602,0.04086875927110117,1.7331839801284046
1684179808168395400,11.8337958984375,-0.4635217190096619,-0.5663843155781734,1.8692015407750084
1684179808178436600,11.8438369140625,-0.5370125771920351,-1.5951356888702364,1.6311881542142177
1684179808188477600,11.8538779296875,-0.8042123317036518,-2.4118223190651364,1.2798225879071086
1684179808198518600,11.863919189453124,-1.403673172055459,-2.972629547036441,0.8004360199116487
1684179808208559800,11.873960205078124,-2.1827590465661477,-3.265478134332712,0.11692225928796227
1684179808218600900,11.884001220703125,-2.772877693124586,-3.2901306151976764,-0.456880807986454
1684179808228641600,11.8940419921875,-2.8366558552655605,-3.09331893911059,-0.5619703531274993
1684179808238682800,11.904083251953123,-2.5035848618238776,-2.5298681259259768,-0.23925662035661727
1684179808248723900,11.914124267578124,-1.9644300937927335,-1.4266023635377547,0.09222578997084842
1684179808258765000,11.924165283203124,-0.8324015139897141,-0.3839178084553009,0.1714380979483018
1684179808268805800,11.934206298828125,0.5895328521942698,0.30633258827569404,0.2944430112058147
1684179808278846900,11.944247314453126,1.7577929495625708,0.7140626908325071,0.4650654793467893
1684179808288888000,11.954288330078125,2.5540688036508867,0.9940576553266764,0.3933199642386638
1684179808298929100,11.96432958984375,2.846553802481244,1.292533874538868,0.28786504276490554
1684179808308970200,11.97437060546875,2.841569662142611,1.6020989417007268,0.21881139283859435
1684179808319011000,11.984411376953124,2.6418094635858687,1.8293862343148861,0.15142321581844576
1684179808329052100,11.994452392578124,2.2144947051544595,1.9166483878384224,-0.11998927595623167
1684179808339093200,12.00449365234375,1.234547734194859,1.8509626387587605,-0.4574843645482686
1684179808349134300,12.01453466796875,-0.3617386819296935,1.6800966262326136,-1.1296417713851523
1684179808359175300,12.02457568359375,-1.6256018878843965,1.2322940826232132,-1.5397386550688617
1684179808369216200,12.034616455078124,-1.6421195269092903,0.4823780060157445,-1.358430385518287
1684179808379257300,12.04465771484375,-0.5677993297344768,-0.21740245822419804,-0.9173305034942238
1684179808389298400,12.05469873046875,0.6505351068034245,-0.6352787018171813,-0.6373188496822442
1684179808399339400,12.06473974609375,1.5720273256103559,-0.7491121292769197,-0.42320585265192506
1684179808409380600,12.074781005859377,2.1168169974973345,-0.712099075283333,-0.19386625297281396
1684179808419421400,12.08482177734375,2.4067313670967243,-0.5582208635042565,-0.1436116695579412
1684179808429462400,12.09486279296875,2.5682988166429825,-0.17776298514061126,-0.19623565665689885
1684179808439503600,12.104904052734376,2.547548770879769,0.23764610297957303,-0.23138165482372758
1684179808449544600,12.114945068359376,2.301626205492465,0.48194026935007833,-0.20882546904216642
1684179808459585600,12.124986083984377,1.916139602678484,0.5716991424495375,-0.13324654108250591
1684179808469626600,12.13502685546875,1.4104393721970738,0.6216678618339055,-0.12409853941394551
1684179808479667600,12.145068115234375,0.6766366360969492,0.7267808915238478,-0.14712500571941223
1684179808489708600,12.155109130859374,-0.30560040469727207,0.7206916808424635,-0.2487703561852263
1684179808499749800,12.165150146484375,-1.1235318184706076,0.6188325880814599,-0.42846441270061925
1684179808509790900,12.17519140625,-1.293911695517584,0.3826951981961497,-0.7294230460881809
1684179808519831700,12.185232177734376,-0.738866448394862,0.23281764988487016,-1.0012829303534818
1684179808529872800,12.195273193359377,0.10508120055635002,0.14584541319699673,-1.159919261925967
1684179808539913900,12.205314208984374,0.8578044176807957,0.10062026970732563,-1.2036906480708858
1684179808549955000,12.21535546875,1.4140977861093784,0.042500495908738736,-1.0973095895249378
1684179808559996100,12.225396484375,1.7688002585628206,-0.0639257431890922,-0.904609799339433
1684179808570036900,12.235437255859376,1.9547680615549166,-0.2110290526413865,-0.6699138879878248
1684179808580078000,12.245478515625,1.9894984960199795,-0.35770034790651856,-0.39431607736531005
1684179808590119100,12.25551953125,1.926362991460692,-0.45810890181841535,-0.086435079622303
1684179808600160200,12.265560546875,1.862626791077174,-0.4881305694582464,0.1685632468750287
1684179808610201300,12.2756015625,1.7253620625854247,-0.5027656555173691,0.3695236444641494
1684179808620242100,12.285642578125,1.5905954837229366,-0.5259866714188565,0.4680081605430173
1684179808630283200,12.29568359375,1.4496827125877003,-0.4719276427545026,0.5264087915616996
1684179808640324300,12.305724609375,1.2192906140857571,-0.3838205336280414,0.5114082096457012
1684179808650365400,12.315765869140623,0.9156117438290619,-0.21180629732802295,0.4210020304231829
1684179808660406400,12.325806884765624,0.6086713074022186,-0.08291435239234507,0.22203934190115435
1684179808670447300,12.33584765625,0.40147617468126595,0.02878284440761946,-0.03363502012406585
1684179808680488400,12.345888671875,0.328321188588092,0.0393886565492603,-0.2988194228159298
1684179808690529500,12.355929931640626,0.4238229096377958,0.05165672302197714,-0.519377112370512
1684179808700570600,12.365970947265623,0.5950133205943784,0.036914825551213656,-0.6348143814559998
1684179808710611400,12.37601171875,0.7876255510853881,0.07877063751880246,-0.7065846919614338
1684179808720652500,12.386052978515623,0.9839137790890733,0.10069942482960813,-0.6748243571045357
1684179808730693600,12.396093994140625,1.1489342451159945,0.13391304001841817,-0.5971474648652366
1684179808740734600,12.406135009765626,1.233078241229627,0.2047719955197087,-0.49992585174275206
1684179808750775600,12.416176025390625,1.261712312602729,0.21302318563879225,-0.38364088530152435
1684179808760816800,12.42621728515625,1.1922016144525618,0.20907306669075068,-0.25376796717373157
1684179808770857600,12.436258056640623,1.0897836685684144,0.22646141042791568,-0.12052798256840358
1684179808780898700,12.446299072265624,0.9593716859734946,0.14349174496447423,-0.013485431566914551
1684179808790939800,12.45634033203125,0.7701067327918365,0.10618209847735724,0.042941451056465484
1684179808800980900,12.46638134765625,0.5545350312738963,0.052388191228669216,0.04815709586381723
1684179808811021700,12.476422119140626,0.42390769723910826,0.0059518814284889145,-0.009566783786735984
1684179808821062800,12.486463134765623,0.30959451210653105,-0.05474090582265108,-0.11293566221992045
1684179808831103900,12.49650439453125,0.23827372504256678,-0.1010351182883995,-0.18046927453039227
1684179808841145000,12.50654541015625,0.22663050897269427,-0.10199737556030744,-0.23567163944904448
1684179808851186100,12.51658642578125,0.26451197256979536,-0.09363555918391235,-0.2613059282367053
1684179808861227200,12.526627685546876,0.3658338785298747,-0.042629241892098976,-0.2664061784426298
1684179808871268000,12.53666845703125,0.4798576831110336,-0.006437301586180629,-0.24354422100310416
1684179808881309100,12.54670947265625,0.6271691322460026,0.010190963813494583,-0.1352479458929624
1684179808891350200,12.55675048828125,0.6972076892680982,-0.0070552826055947735,-0.0035465954445634902
