time,seconds_elapsed,z,y,x
1683991345865957000,0.031357421875,7.23143297881967e-11,3.438672715677518e-12,2.963890631794672e-11
1683991345875997400,0.041397705078125,-0.3336350918218299,0.12498617174399534,-0.3670806884766683
1683991345886037400,0.051437744140625,-0.1047234534761011,0.4048203229883146,-0.7402772904804158
1683991345896077700,0.06147802734375,0.5683703422538535,0.38087272642650666,-0.5124912263085974
1683991345906118100,0.0715185546875,0.5701284407700163,-0.5444567203870528,-0.01289272320653178
1683991345916158400,0.081558837890625,0.47896957391076217,-0.62551176553027,-0.2610955237539272
1683991345926198600,0.09159912109375,0.5604286194249789,-0.8243283033068016,-0.9033575057664383
1683991345936239000,0.101639404296875,1.0116519927897476,-0.9013168812785224,-0.8126831052717605
1683991345946279100,0.111679443359375,3.6705350876206357,-0.03555178628513082,-1.8979301453430393
1683991345956319400,0.1217197265625,6.580245018075784,-0.29108548147240576,1.0653381347597675
1683991345966359700,0.131760009765625,2.1203284262369104,-1.4281966687097267,-0.5740532874440152
1683991345976400000,0.141800537109375,-1.5010941028001983,0.07927680022273081,-1.5643177033526108
1683991345986440400,0.1518408203125,-4.263246536293391,1.3070050478203055,-1.8607611657289636
1683991345996480600,0.161881103515625,-5.393797397767645,0.9815540909998667,-1.536169052133603
1683991346006520800,0.171921142578125,-5.4942808150390485,0.10382366187147231,-0.1291513444723504
1683991346016561100,0.18196142578125,-4.013586044218583,-0.2650429010794657,0.46752071379487276
1683991346026601400,0.192001708984375,-2.1892957688060024,-1.1840825080231692,1.1779642105110126
1683991346036641600,0.2020419921875,-1.1970193386194632,-0.7969526052270078,1.21082019804486
1683991346046682000,0.21208251953125,-0.6450667381221075,-0.22292220593115597,1.104103088491906
1683991346056722400,0.222122802734375,0.4144862891020978,-0.31373441203734315,1.8184366226393924
1683991346066762400,0.232162841796875,1.4998453855283038,0.11986112597379306,1.5825738907979143
1683991346076802700,0.242203125,1.4862414598488083,0.27161931992575356,0.8699417115431589
1683991346086843100,0.252243408203125,0.7171336411552512,0.03242492674056103,-0.3347702026115376
1683991346096883400,0.26228369140625,0.3915075063600207,-0.3807713985341674,-1.2304043768913198
1683991346106923600,0.272323974609375,0.4063694476877528,-1.3305916784696354,-1.8872518538780134
1683991346116964000,0.282364501953125,0.3877768515121311,-2.06937742231961,-2.395043373183666
1683991346127004100,0.292404541015625,0.41132199755996945,-2.2449498177401197,-2.172492504161785
1683991346137044400,0.30244482421875,0.42020761971770104,-2.5939064026297265,-1.5032730103311989
1683991346147084600,0.312485107421875,0.6928807496993531,-2.534035205852991,-1.2773728370669768
1683991346157125000,0.322525390625,0.4353411196315679,-2.5255446433883266,-0.7630133628801531
1683991346167165400,0.332565673828125,0.16179740430440476,-2.140218019532102,-0.19885063160494412
1683991346177205600,0.342606201171875,-0.025452733069862767,-1.9029784202839901,0.8281431197162984
1683991346187245700,0.352646240234375,-0.4094135761781824,-1.380415201071491,1.0751113890071435
1683991346197286100,0.3626865234375,-0.9762372971940224,-1.9637787341105641,1.872697830265937
1683991346207326400,0.372726806640625,-1.5570933819726527,-2.7414546011565024,2.5345468520574057
1683991346217366600,0.38276708984375,-1.4569593668748504,-3.380499839755253,2.616770744281682
1683991346227407000,0.392807373046875,-0.8118807076510274,-2.6565513609707474,1.5739202499015685
1683991346237447300,0.40284765625,-0.2527750732061829,-2.4220514297720634,1.3749895096649063
1683991346247487400,0.4128876953125,-0.0367046594263504,-2.4302563668122854,0.9756603239555891
1683991346257527600,0.42292822265625,0.07130956643535849,-2.409448623566668,0.5152540208269601
1683991346267568000,0.432968505859375,0.25494736437164867,-2.1998319627206664,-0.12879562365150551
1683991346277608400,0.4430087890625,-0.5439165233674585,-0.3082833290068468,-1.721422672362177
1683991346287648600,0.453049072265625,-0.7733646632053532,0.9229912758842007,-3.040467262265627
1683991346297689000,0.46308935546875,-1.3561687468884673,0.9303736686109492,-2.1760382651057872
1683991346307729300,0.473129638671875,-0.9398120642573567,-0.6795287132830464,0.4667057990897846
1683991346317769400,0.483169677734375,0.046987473916078326,-0.6548666954470246,1.0932955740068468
1683991346327809600,0.493210205078125,0.7385243177098451,0.023141860912877045,1.3592023850053239
1683991346337850000,0.50325048828125,0.5711293220687896,-0.004792690293233525,1.9439325332079485
1683991346347890400,0.513290771484375,1.086230277920592,-0.9720664024374518,3.025015354068849
1683991346357930600,0.5233310546875,1.800735712045307,0.19772720335016186,3.555129051141353
1683991346367971000,0.533371337890625,0.9728923439643863,0.3509292602310407,3.1022348404299382
1683991346378011100,0.543411376953125,-0.4411058425166303,-0.012897491546146413,2.169881820615445
1683991346388051400,0.55345166015625,-1.320836186369713,-0.004404068014842138,0.979435443744961
1683991346398091600,0.5634921875,-1.5785136222883982,-0.17210483541365962,0.37129735961298366
1683991346408132000,0.573532470703125,-1.155235767413748,1.1340627668880983,-0.39978599534683934
1683991346418172300,0.58357275390625,-4.123512268010911,-2.5560421944424787,0.16445446014930284
1683991346428212600,0.593613037109375,-1.5273725987337112,-1.5623941420712302,-2.1622509956597016
1683991346438252600,0.603653076171875,0.9276971816598365,-0.3733110427046662,-1.1983265878292504
1683991346448293000,0.613693359375,2.8938174247296398,-0.5596771239293407,1.9222350120889187
1683991346458333400,0.623733642578125,3.612496852700345,-0.3440537453495582,2.0062904357772995
1683991346468373600,0.633774169921875,3.6840717791705893,-0.27043533331442005,1.4060955046879304
1683991346478414000,0.643814453125,0.42164790633786975,2.035595893835851,-1.4203505514165435
1683991346488454300,0.653854736328125,-1.1366685629284876,-1.2848091125839813,0.8744678497010627
1683991346498494400,0.663894775390625,-2.048662185727232,-2.1587300298976357,1.4297051429610752
1683991346508534600,0.67393505859375,-1.225238442403267,0.00904941564299572,-0.40482139600909717
1683991346518575000,0.683975341796875,-0.4991010428033303,0.16921997052981824,-0.24276924141440173
1683991346528615300,0.694015625,-0.7675012349924812,-0.18953418738641484,0.15723848324690584
1683991346538655600,0.70405615234375,-0.7907941341148755,-0.6433944703137429,0.3240852357291798
1683991346548696000,0.714096435546875,-0.5919701456279888,-0.09115123761017965,-0.46880722056095553
1683991346558736300,0.72413671875,-0.14546316861435085,0.576648712263528,-1.3468227387217306
1683991346568776400,0.7341767578125,-0.12939947837040072,1.215414523960755,-2.226671218719506
1683991346578816600,0.744217041015625,-0.43392181406906954,-0.33560752877621003,0.47255086884028563
1683991346588857000,0.75425732421875,1.0900949239237467,-0.4546027183741927,0.8599224091624464
1683991346598897300,0.764297607421875,2.2239613534591265,-0.636612892276622,0.5407743453823814
1683991346608937600,0.774338134765625,1.1417466400113778,-0.39004373545793863,0.23284006113055136
1683991346618978000,0.78437841796875,-0.7749556898725335,-0.28706693649221887,0.2908458709571175
1683991346629018000,0.79441845703125,-2.1699399948451505,-0.05226230633357948,0.3573732374650882
1683991346639058400,0.804458740234375,-2.2825486660275893,0.1317558288204291,0.24191236501499802
1683991346649098600,0.8144990234375,-1.4903333186542371,0.07471227663239093,0.20930147161504017
1683991346659139000,0.824539306640625,-0.5917852522526037,-0.15400171270702012,-0.3989930153617263
1683991346669179300,0.834579833984375,0.06476596004789863,-0.5569667816063623,-0.7532062529340597
1683991346679219600,0.8446201171875,0.5753133893919279,-0.40904045110021275,-0.624983310610895
1683991346689260000,0.854660400390625,0.9635477661039398,0.3041801452508887,-0.34404087069913725
1683991346699300000,0.864700439453125,1.0297330618561462,0.8378448487575292,0.2206449507664132
1683991346709340300,0.87474072265625,0.697955012304588,0.8651061059137968,0.7555108070244937
1683991346719380600,0.884781005859375,0.0893660784059895,1.0826444625175753,2.123884201031477
1683991346729421000,0.8948212890625,-0.4880464078509292,0.8083310127312708,0.1973676682291762
1683991346739461300,0.90486181640625,-1.5011093615261575,0.16796112048410272,-0.1586265562798272
1683991346749501600,0.914902099609375,-1.6027033329171385,-0.30203390114169804,-0.45036649698141024
1683991346759541600,0.924942138671875,-1.4559377431318952,-0.5851292610936168,-0.5313267706677531
1683991346769582000,0.934982421875,-0.7551043033854763,-0.7059197426693623,-0.6820211408940094
1683991346779622300,0.945022705078125,0.09691274170419643,-0.8321342467984358,-0.8767676354725504
1683991346789662600,0.95506298828125,0.6579247714609999,-0.5277662275925393,-0.7507863044714561
1683991346799703000,0.965103271484375,0.9666267633982474,-0.5217652321390001,-0.7282609939423699
1683991346809743300,0.975143798828125,1.029802322533543,-0.4724841117476697,-0.6908049583535468
1683991346819783600,0.98518408203125,0.7103572486347529,-0.1956362723863223,-0.7393016815130552
1683991346829823600,0.99522412109375,0.43912285557270997,0.17768049253774912,-0.8812494276489046
1683991346839864000,1.005264404296875,0.41466367254198244,0.14809179308657047,-0.5475368499538503
1683991346849904300,1.0153046875,0.4846680164505829,-0.10772180556271292,0.017299175161140445
1683991346859944600,1.025344970703125,0.806055307315988,0.635882377683483,0.3672370909890286
1683991346869984900,1.03538525390625,1.4645128250138693,1.1611394880860628,0.6353592871610169
1683991346880025300,1.04542578125,1.475104451145452,1.11371994016754,0.2916169167620597
1683991346890065300,1.0554658203125,1.1775048971818385,1.0527057647457683,-0.04300642031514727
1683991346900105600,1.065506103515625,0.8696329592450623,1.0191745756991453,0.17101287832661924
1683991346910146000,1.07554638671875,0.31620478620318415,0.6114516258968126,0.5080718993089247
1683991346920186300,1.085586669921875,-0.596343219266338,0.3619432449954738,0.9704184531047979
1683991346930226600,1.095626953125,-1.4471901655976227,0.016582489079554417,1.2299270630557901
1683991346940266900,1.105667236328125,-2.2063808440774406,-0.3471407890218908,0.8951268194718588
1683991346950307200,1.115707763671875,-2.286768674782662,-0.4031043051700662,-0.004956722263422162
1683991346960347300,1.125747802734375,-1.3141174316773534,-0.30663967132456105,-0.2948918343834096
1683991346970387600,1.1357880859375,-0.08120512975070704,-0.12171602245335597,-0.12494707108537388
1683991346980428000,1.145828369140625,0.8219276667799407,0.13221836094911288,-0.008694171913062732
1683991346990468300,1.15586865234375,1.7876772880448197,-0.18616962428955683,0.28191518792904896
1683991347000508600,1.165908935546875,2.0758619308195816,0.4981479644312796,0.4550843239703952
1683991347010548900,1.17594921875,1.4523315429086319,0.31461191183305387,0.5626430511763247
1683991347020589200,1.18598974609375,0.5588099955310298,0.08466100703938229,0.21569776551969488
1683991347030629300,1.19602978515625,-0.3130498230339817,0.28750991828829464,-0.16412544244900956
1683991347040669600,1.206070068359375,-0.8550783395982291,0.870102882361965,-0.21826839457409924
1683991347050709900,1.2161103515625,-1.109040021910148,1.6458544731303015,0.0015053749617023582
1683991347060750300,1.226150634765625,-0.7211019396842016,2.6427555084594876,0.3018164634992802
1683991347070790600,1.23619091796875,-0.49940374511882746,2.4912939071632376,0.7745795248367714
1683991347080830900,1.246231201171875,-0.1936171949762903,1.8966732026107496,0.9725561142381902
1683991347090871000,1.256271240234375,-0.28549757606876,1.5335226059859144,0.24445819852927922
1683991347100911300,1.266311767578125,-0.532527744737037,1.408292770382932,-0.7337822913469947
1683991347110951600,1.27635205078125,-0.2579388022591896,1.671503543970995,-1.690464019662414
1683991347120991900,1.286392333984375,0.43791422235751726,1.9479045866798421,-2.5336332319539583
1683991347131032200,1.2964326171875,0.6352051497909399,1.4222984312833227,-1.9797611235963568
1683991347141072600,1.306472900390625,0.3700867891752144,0.7638549805332385,-0.6881718636568905
1683991347151112900,1.31651318359375,-0.2961860893882908,0.055839061603404495,0.5496039389953112
1683991347161152900,1.32655322265625,-0.5486214161374388,-0.8873562811796526,1.3847918512015096
1683991347171193300,1.33659375,-0.4622818528058737,-1.7804846763783442,1.6363201140824168
1683991347181233600,1.346634033203125,-0.3838998974685098,-2.042026996638232,0.8662514686643253
1683991347191273900,1.35667431640625,-0.5503819584756234,-1.9191279410396287,-0.39038085926666416
1683991347201314200,1.366714599609375,0.11214482795441148,-0.8852386474482301,-0.8304958342639472
1683991347211354600,1.3767548828125,0.5167573093969494,0.07840204232020706,-0.6864385605447951
1683991347221394900,1.386795166015625,0.27864918109311965,0.2533416749099549,-0.0455589294897616
1683991347231434900,1.39683544921875,-0.38520425559731103,-0.07314825053026244,0.07081794732855277
1683991347241475200,1.406875732421875,-0.6643403767503442,-0.6605205534515513,0.24638748166779056
1683991347251515600,1.416916015625,-0.4125245213319812,-0.8567929267605437,0.7593498230706346
1683991347261555900,1.426956298828125,0.05260366203237911,-0.28427124035516577,1.3795337677020159
1683991347271596200,1.43699658203125,0.09939616926758592,0.20842695235427852,1.5720486640634077
1683991347281636600,1.447036865234375,0.10581952330165409,0.391003608705033,1.527450084610347
1683991347291676800,1.4570771484375,-0.164348959906277,0.0438528061925428,1.5509786605629114
1683991347301717200,1.46711767578125,-0.31013411272916713,-0.3671216963824313,1.4798178672329536
1683991347311757200,1.47715771484375,0.13120347265125157,-0.24779033664226616,0.8006234167465517
1683991347321797600,1.487197998046875,0.3673862815217257,-0.8095178603813141,0.3462734221967762
1683991347331837900,1.49723828125,0.3024575112968809,-0.5071296692696088,-0.06232023224077977
1683991347341878200,1.507278564453125,0.005422234436063764,-0.10657787315161549,-0.32475709905271527
1683991347351918600,1.51731884765625,0.4887107014984327,0.5623388291104803,-0.2830142975078208
1683991347361958800,1.527359130859375,-0.47486525762170617,-0.19820308690955799,-0.02629184722025079
1683991347371999200,1.537399658203125,-0.0903674363717089,-0.30669784545167417,-0.06016683589799346
1683991347382039200,1.547439697265625,1.6215386389256305,1.0251975060207767,0.3134770392754828
1683991347392079600,1.55747998046875,0.14379751692715229,0.03778266893433492,0.9954071045112629
1683991347402119900,1.567520263671875,0.013728380188489856,-0.17595291142452263,0.8378973007213752
1683991347412160200,1.577560546875,-0.4744659661907411,-0.19739150995322308,0.27885818478180324
1683991347422200600,1.587600830078125,-0.9720003604285735,-0.6023712159634326,-0.09699440006146808
1683991347432240800,1.59764111328125,-0.4672619104786596,-0.45983695987097717,-0.24233055098864753
1683991347442281100,1.607681640625,0.5418292285194712,-0.9104814528516094,-0.18582773204141362
1683991347452321200,1.6177216796875,1.9110041856869489,-0.04650211322839318,0.35763597492542226
1683991347462361600,1.627761962890625,1.1941366195766163,1.2832522392445114,1.2890286445061458
1683991347472401800,1.63780224609375,0.170648574822136,0.9309349060596961,0.9240660667653109
1683991347482442200,1.647842529296875,0.3531417250982014,0.36678218857903616,0.1283044815685057
1683991347492482600,1.6578828125,1.1637448073536334,0.48052501689004934,0.026350021261397454
1683991347502522800,1.667923095703125,1.9436466694184587,0.6178073883891939,0.3926687240118877
1683991347512563100,1.677963623046875,2.075130224073575,0.9676628112570399,0.9445762634538278
1683991347522603200,1.688003662109375,1.6799268721810754,0.7079401017237985,1.765535831356051
1683991347532643600,1.6980439453125,1.1273152827008273,0.4328498841205887,2.1994442941032006
1683991347542683800,1.708084228515625,0.988840043559813,0.2915267943492818,1.5031337738053163
1683991347552724100,1.71812451171875,1.0591477157039402,1.2949948312218993,0.0433506965835823
1683991347562764500,1.728164794921875,0.9726861118644887,1.8053641319172278,-0.25929117207847013
1683991347572804800,1.738205078125,0.29346057771363493,1.6158204078387308,-0.46781158434774134
1683991347582844800,1.748245361328125,-0.24934235207027336,0.9661369323088929,-0.5865540504477627
1683991347592885200,1.75828564453125,-0.8916569350954733,-0.23509597765079476,-0.4461979866025408
1683991347602925600,1.768325927734375,-1.4768102168756336,-1.7628908156848688,-0.5366444587403232
1683991347612965800,1.7783662109375,-1.7366795540672288,-2.3684768677476766,-1.1541781426101851
1683991347623006100,1.788406494140625,-1.559596419250355,-2.2832727432933138,-1.6420488357837766
1683991347633046400,1.79844677734375,-0.4610758422699595,-1.7377138136338124,-1.6054735183868702
1683991347643086800,1.808487060546875,-0.3551625905506351,0.011473655699945661,-1.129701137612631
1683991347653127100,1.818527587890625,-1.3774223327790032,0.9826416969318943,-0.6778297425259334
1683991347663167200,1.828567626953125,-0.2662520110241461,0.9031934738276471,-0.580234527622676
1683991347673207500,1.83860791015625,0.09151411043473053,0.6194248198504595,-0.1520195007802225
1683991347683247800,1.848648193359375,0.5022394658160001,1.1062331199773237,0.17175245288055244
1683991347693288100,1.8586884765625,0.7083944677793104,0.4946413040442708,0.2460923194588022
1683991347703328400,1.868728759765625,0.6452096699807468,0.02655220042694331,0.08203697218966854
1683991347713368800,1.87876904296875,0.7651557327812012,1.0871715545752145,-0.12306880934275732
1683991347723409100,1.8888095703125,0.7471558452174397,2.1421213150827403,-0.3849120141623834
1683991347733449100,1.898849609375,0.5001864432507339,2.9318523407148795,-0.6344866753595174
1683991347743489500,1.908889892578125,0.22308009872615547,3.306184291665301,-0.557901859390247
1683991347753529800,1.91893017578125,-0.2269785402562836,3.293712139074575,-0.6921958924979851
1683991347763570100,1.928970458984375,-0.3694154024001087,2.902656078349575,-0.7785940170194791
1683991347773610400,1.9390107421875,-0.3353355527484618,2.6784362793431207,-1.0973865985323454
1683991347783650700,1.949051025390625,-0.2198708652793702,2.124995708485732,-1.5791633128662934
1683991347793691100,1.959091552734375,0.051298439503785515,1.4146065711848381,-1.8820030689489462
1683991347803731400,1.9691318359375,0.24834221601942466,0.45053100573621113,-1.9799928663777606
1683991347813771600,1.979172119140625,0.301994174808828,-0.7741918563166864,-2.0290904045458777
1683991347823811800,1.989212158203125,0.28431245677289463,-1.6970758437049538,-1.8735419513001053
1683991347833852100,1.99925244140625,0.2554846405335426,-2.459362983691448,-1.7724399566615747
1683991347843892400,2.009292724609375,0.4058218301050828,-2.8994359970086307,-1.390019416963038
1683991347853932600,2.0193330078125,1.0052763224386232,-2.014461517256597,-0.6042785643836974
1683991347863973000,2.02937353515625,1.5042384863015807,-0.48141288759109147,0.08027315135077505
1683991347874013400,2.039413818359375,1.363032817997883,0.2134542464939705,0.5211305617908756
1683991347884053600,2.0494541015625,0.4357681273892554,-0.04783630376278639,0.696110725435011
1683991347894094000,2.059494384765625,-1.2362540960834256,-0.7807521820254826,0.7879929542311637
1683991347904134100,2.069534423828125,-2.412197828205097,-1.053904533437517,1.0368657113730093
1683991347914174400,2.07957470703125,-2.397808074962968,-0.7224941254276058,1.350098848402193
1683991347924214600,2.089614990234375,-1.782934427226413,-0.38783550262141264,1.369223117690382
1683991347934255000,2.099655517578125,-1.2568821906299432,-0.41158676141696554,1.157684087820966
1683991347944295300,2.10969580078125,-0.7598934769734895,-0.7961483002088363,0.8864934445407084
1683991347954335600,2.119736083984375,-0.29687982789139666,-0.879138946515328,0.5618567466441342
1683991347964376000,2.1297763671875,-0.11431500309537676,-0.8566570280814917,0.3555517196005318
1683991347974416000,2.13981640625,-0.1377287507106729,-0.7854766846042834,0.12118458749461464
1683991347984456400,2.149856689453125,-0.11592391119281853,-0.6794347763457336,0.05510675904446519
1683991347994496600,2.15989697265625,-0.025738418228673062,-0.6172981262203016,0.24432110779290808
1683991348004537000,2.1699375,0.02068382501853195,-0.8353109359963287,0.479796528726702
1683991348014577300,2.179977783203125,0.11836057900650698,-0.7133083344650137,0.7451037167923213
1683991348024617600,2.19001806640625,0.21850574017381175,-0.4939603804899091,0.9478783606486534
1683991348034658000,2.200058349609375,0.23732835062322039,-0.280293464735302,1.0079987050136023
1683991348044698000,2.210098388671875,0.17316889762871226,0.03779983520915965,0.8350617884765164
1683991348054738400,2.220138671875,0.030613780026492513,0.18655967712670107,0.4911035299091407
1683991348064778600,2.230178955078125,-0.15205633632496202,0.16937828049074877,0.22425222386028035
1683991348074819000,2.240219482421875,-0.36811482903334075,0.01793003081759605,0.004168987146155986
1683991348084859300,2.250259765625,-0.4036341906521659,-0.08832073207788844,-0.15854108351264426
1683991348094899600,2.260300048828125,-0.32671147574895293,-0.11102485657204549,-0.26660609230919746
1683991348104940000,2.27034033203125,-0.20810335882596032,0.07139301287371982,-0.3159897327063897
1683991348114980300,2.280380615234375,-0.20114618543206236,-0.05643081666369831,-0.383721828542259
1683991348125020300,2.290420654296875,-0.19244915247552916,-0.05698680890219194,-0.43619728107287226
1683991348135060600,2.3004609375,-0.20544809107978818,-0.11693573011879933,-0.3479567765266844
1683991348145101000,2.31050146484375,-0.20703500499852823,-0.14083004004922,-0.26116538062317496
1683991348155141300,2.320541748046875,-0.24653792395394844,-0.12645053879151716,-0.1825659274293312
1683991348165181600,2.33058203125,-0.2773431540252965,-0.1503973006805766,-0.06942796698138906
1683991348175221900,2.340622314453125,-0.2944288253267332,-0.2294054031006772,0.07484972482183352
1683991348185262300,2.35066259765625,-0.28513991828064555,-0.2942562102197236,0.14622688302746895
1683991348195302600,2.360702880859375,-0.29738014931830725,-0.2541656493499007,0.07385694974975882
1683991348205342900,2.370743408203125,-0.2792226075870309,-0.19959354386482805,0.026942968409682536
1683991348215383000,2.380783447265625,-0.3145546317326592,-0.12331581109621201,-0.0037288664942170956
1683991348225423300,2.39082373046875,-0.3982315063909032,-0.14509582522858377,0.025574088029753347
1683991348235463600,2.400864013671875,-0.48894906041348724,-0.03152656553963368,0.122125267866681
1683991348245503900,2.410904296875,-0.6568323374081243,-0.16978168474033598,0.16660809511569985
1683991348255544200,2.420944580078125,-0.7123372554603562,-0.24673557299455576,0.158832788527779
1683991348265584600,2.43098486328125,-0.6315393447930202,-0.26982498156950163,0.1147884131972564
1683991348275624900,2.441025390625,-0.4561629295835681,-0.23416042315835078,0.02536463746729265
1683991348285665200,2.451065673828125,-0.23146378993584424,-0.23707103730248777,-0.0703368187941832
1683991348295705600,2.46110595703125,-0.03237509717810158,-0.2612609862697083,-0.17723429197162544
1683991348305745600,2.47114599609375,0.10242652889142843,-0.26118946067330695,-0.3287417889677287
1683991348315785900,2.481186279296875,0.11279356480802175,-0.274951934754787,-0.5967495441409816
1683991348325826200,2.4912265625,0.0749000311942246,-0.27614879596700453,-0.7522830368362088
1683991348335866600,2.501266845703125,-0.012437820347625788,-0.2479982376422554,-0.763210415796268
1683991348345906900,2.511307373046875,-0.14444231989947107,-0.16905784611523922,-0.6941348313151514
1683991348355947200,2.52134765625,-0.306149005882094,-0.08280372617852964,-0.5042461157687237
1683991348365987600,2.531387939453125,-0.4675356151001835,-0.09480094910666134,-0.3015785219083731
1683991348376027600,2.541427978515625,-0.6346093417023424,-0.17411899572362619,-0.08314144606398058
1683991348386067900,2.55146826171875,-0.7642579077375539,-0.15149974828958312,0.02285420886116111
1683991348396108200,2.561508544921875,-0.8504464627044926,-0.16371440893208147,0.08243727690204601
1683991348406148600,2.571548828125,-0.8681756258564823,-0.1300649642181575,0.010739207341820907
1683991348416188800,2.58158935546875,-0.7352039813170157,-0.2053403852494191,-0.051553011009339636
1683991348426229200,2.591629638671875,-0.5726841688815765,-0.25226783747353737,-0.10003733632925049
1683991348436269600,2.601669921875,-0.3969700336253465,-0.10342597974224024,-0.0783259868412481
1683991348446309800,2.611710205078125,-0.24600243562789187,-0.10257720936924163,-0.10354733480556327
1683991348456350100,2.62175048828125,-0.1639447212183547,-0.12429428102016091,-0.13415217394711243
1683991348466390200,2.63179052734375,-0.2088781596015139,-0.12291717525201443,-0.08170568953285003
1683991348476430600,2.641830810546875,-0.32895362385703436,-0.10891628253889295,-0.014290094354081496
1683991348486470800,2.651871337890625,-0.44663727271953557,-0.09745788562389833,-0.11169755457866924
1683991348496511200,2.66191162109375,-0.4643353223415857,-0.08689117437926873,-0.2053997516300945
1683991348506551500,2.671951904296875,-0.3543808459439613,-0.07982730870995582,-0.27307188514940994
1683991348516591800,2.6819921875,-0.22062158580843994,-0.12576675420747285,-0.35543847074825574
1683991348526632100,2.692032470703125,-0.0031549930615186925,-0.044654846212320506,-0.3709895610356077
1683991348536672400,2.70207275390625,0.25793302069349944,0.427750587617144,-0.17685973652204656
1683991348546712800,2.712113037109375,0.36049127591022373,0.43749046325280255,-0.14306080342769212
1683991348556752800,2.7221533203125,0.2953345776619918,0.3174285888048702,-0.18352615833947664
1683991348566793100,2.732193603515625,0.1496001482276821,0.2625360489400589,-0.11953890313547025
1683991348576833500,2.74223388671875,-0.05116796498580185,0.3206205368125778,-0.020386099727228588
1683991348586873800,2.752274169921875,-0.23717784883023899,0.34319591534281574,0.024007558695653707
1683991348596914100,2.762314453125,-0.4105286597732851,0.363067627001778,0.09399497490866278
1683991348606954400,2.772354736328125,-0.48933362964165333,0.3185148238408812,0.10618615160565832
1683991348616994700,2.78239501953125,-0.49771213517220153,0.21971035005183534,0.05159568782492715
1683991348627035100,2.792435546875,-0.39502263055167763,0.11695384961262818,0.0339134931341513
1683991348637075100,2.8024755859375,-0.2621479034339405,-0.015455246029192845,0.0066710710519458935
1683991348647115400,2.812515869140625,-0.13202381137418115,-0.09190845487527353,-0.049185633655823416
1683991348657155800,2.82255615234375,-0.057891607340551245,-0.22845745092239036,-0.03507244585921857
1683991348667196100,2.832596435546875,-0.04227399830057135,-0.21910285958742273,0.01437818993215989
1683991348677236400,2.84263671875,-0.054043769897360136,-0.18387222278158796,0.05863595007959519
1683991348687276600,2.852677001953125,-0.15324258802957452,-0.1750459670661177,0.04911375047254434
1683991348697317000,2.862717529296875,-0.23838019364904173,-0.13339710242196304,0.06103610983798281
1683991348707357400,2.8727578125,-0.3032820225755313,-0.11617279050791224,0.03409290316159135
1683991348717397600,2.882798095703125,-0.3253812790874892,-0.026652336226324395,0.012481093407851506
1683991348727438000,2.89283837890625,-0.2880258560485698,0.09163188941548071,-0.04945445067369413
1683991348737478100,2.90287841796875,-0.20723104480636412,0.19404602038594654,-0.12775933758686872
1683991348747518400,2.912918701171875,-0.06020998951517105,0.17588615426438384,-0.26927721502747
1683991348757558600,2.922958984375,0.03483152381325962,0.13383293143469063,-0.35709834099740423
1683991348767599000,2.93299951171875,0.061596870426627426,0.05880546570278514,-0.3863049745601324
1683991348777639300,2.943039794921875,0.06789135946639427,0.04758930216395065,-0.2917211056018077
1683991348787679600,2.953080078125,0.018789768257621,0.06580829612706579,-0.2232991457786323
1683991348797720000,2.963120361328125,-0.12366724020053763,0.06298828123773824,-0.13750851160991873
1683991348807760300,2.97316064453125,-0.2525122166196914,0.08834171293201222,-0.13445854183461273
1683991348817800600,2.983200927734375,-0.41762781156218204,0.0819902419498367,-0.13083779811403637
1683991348827840600,2.993240966796875,-0.4851477146269008,0.131350517177662,-0.19672560689012936
1683991348837881000,3.003281494140625,-0.43257284163228343,0.19789028185654498,-0.34392368783513727
1683991348847921300,3.01332177734375,-0.31911396969924694,0.28406333929664773,-0.5366753936542165
1683991348857961600,3.023362060546875,-0.1940407752627439,0.31691741961278136,-0.6723584533119523
1683991348868002000,3.03340234375,-0.09408807753687388,0.3588390350934913,-0.7046917081323736
1683991348878042300,3.043442626953125,-0.0079903602708963,0.3581237792955,-0.776339888646024
1683991348888082600,3.05348291015625,0.02404928189488042,0.3367605209486834,-0.8017728923293397
1683991348898122900,3.0635234375,0.04501485821584406,0.295170783877878,-0.7909498214549646
1683991348908163200,3.073563720703125,0.0434110165750634,0.20778751379873708,-0.8053560256757126
1683991348918203600,3.08360400390625,0.02467894562557933,0.13879203798097858,-0.7176427245041253
1683991348928243600,3.09364404296875,-0.0035650730915928307,0.12297534943928,-0.6458272337814929
1683991348938284000,3.103684326171875,-0.00791978824946014,0.12159061431905756,-0.5410850644467048
1683991348948324300,3.113724609375,0.0329797267620236,0.03761863710684352,-0.45907539137107806
1683991348958364600,3.123764892578125,0.020149946241528743,0.004011154287864714,-0.34161704782159996
1683991348968404900,3.133805419921875,0.034679889643775726,0.024461746227731593,-0.2518811822795495
1683991348978445200,3.143845703125,0.012193918239812772,0.09806346882883986,-0.19045823796994754
1683991348988485600,3.153885986328125,0.05617976179845543,0.0733728409966619,-0.1929365396019968
1683991348998525900,3.16392626953125,0.06122374534681446,0.029826164238921378,-0.17895150202528343
1683991349008566200,3.173966552734375,0.02982234939947979,-0.0015745164115304622,-0.18225973853482935
1683991349018606300,3.184006591796875,-0.03498363485299293,-0.10095119476554462,-0.27436137193584975
1683991349028646600,3.194046875,-0.09226226809839175,-0.15404033643526968,-0.33414292322126
1683991349038686900,3.20408740234375,-0.12769675246173207,-0.23694610596725618,-0.3238375784184057
1683991349048727200,3.214127685546875,-0.155074596550432,-0.30223178857332444,-0.3316347002936258
1683991349058767600,3.22416796875,-0.19963669772923712,-0.3621358871742793,-0.2984654306185604
1683991349068807900,3.234208251953125,-0.21831560141002868,-0.3673648834749123,-0.33063936227414636
1683991349078848200,3.24424853515625,-0.2256274224465716,-0.3682498930981663,-0.3232215045518382
1683991349088888600,3.254288818359375,-0.22214937214209024,-0.3412342071358147,-0.3262901903214106
1683991349098928800,3.2643291015625,-0.18739604952052527,-0.4114456177172164,-0.287931501935633
1683991349108969100,3.27436962890625,-0.1532909870962437,-0.3770160674265929,-0.2609271407087532
1683991349119009500,3.284409912109375,-0.16232085240314656,-0.2937068938051026,-0.27700459970711355
1683991349129049600,3.294449951171875,-0.1569905279875827,-0.26815795904975703,-0.2607218623804434
1683991349139089800,3.304490234375,-0.14222383497194252,-0.3111867904817423,-0.23149198297627516
1683991349149130200,3.314530517578125,-0.14183139815631285,-0.3510656356316136,-0.15015470985203494
1683991349159170600,3.32457080078125,-0.16489386561817437,-0.3549337387013763,-0.10966134073295292
1683991349169210800,3.334611083984375,-0.1589908599926302,-0.375228881874804,-0.017449379089443894
1683991349179251100,3.344651611328125,-0.1854586600370063,-0.3999900818121348,0.05731302500221561
1683991349189291400,3.35469189453125,-0.16596150407214477,-0.3703193665597012,0.17604869593859754
1683991349199331800,3.364732177734375,-0.12960577000006185,-0.3153829575665222,0.2741745709207787
1683991349209372100,3.3747724609375,-0.07193303103608004,-0.23797988883291155,0.3824804425069607
1683991349219412100,3.3848125,-0.0003802776601313862,-0.10552787783635798,0.4418801069210168
1683991349229452500,3.394852783203125,0.10356426239464134,0.00575733177080604,0.4910020233490697
1683991349239492800,3.40489306640625,0.20854628088227428,0.1668949126898525,0.5605992675290716
1683991349249533100,3.41493359375,0.297793388516597,0.30178546911017656,0.5844375491990975
1683991349259573400,3.424973876953125,0.3948609829757548,0.47214603429892626,0.7093495130057939
1683991349269613700,3.43501416015625,0.423970103226926,0.5833129883492164,0.7408777476651788
1683991349279654100,3.445054443359375,0.4896204472136098,0.6810359956237285,0.8569853305895765
1683991349289694400,3.4550947265625,0.5015923977545815,0.7255229949163754,0.9123388527496988
1683991349299734600,3.465135009765625,0.486716389579989,0.7458515167868304,1.0558410883760654
1683991349309775000,3.475175537109375,0.41749870772086367,0.7375526428244092,1.165092110620044
1683991349319815300,3.4852158203125,0.3284292221539041,0.6796798705889613,1.2210294008713267
1683991349329855600,3.495256103515625,0.223623871757449,0.5569677352923037,1.2362271547754604
1683991349339896000,3.50529638671875,0.16110599043826887,0.43387985231664294,1.228772878628767
1683991349349936000,3.51533642578125,0.15690660481974278,0.26745700823911,1.1883529424789077
1683991349359976400,3.525376708984375,0.186172962283662,0.1534538269790753,1.0886890888917236
1683991349370016600,3.5354169921875,0.23167121406105307,0.05136299134109225,0.8428897857350217
1683991349380057000,3.54545751953125,0.2815273999859735,-0.04578208914555355,0.5227521658408263
1683991349390097300,3.555497802734375,0.2688617706438165,-0.09239006039573362,0.23307526106752316
1683991349400137600,3.5655380859375,0.27726256834385615,-0.16237354294810863,0.013435244637704352
1683991349410178000,3.575578369140625,0.2517523765722696,-0.22213268272884948,-0.15236425400985296
1683991349420218300,3.58561865234375,0.22581112384031887,-0.2645015717401914,-0.21904659267423263
1683991349430258600,3.595658935546875,0.22097229952801467,-0.2775278091332006,-0.2461266517589383
1683991349440298900,3.60569921875,0.2206512689560922,-0.2875661849623406,-0.1452420948699567
1683991349450339200,3.61573974609375,0.2439275980440475,-0.25173473350758113,0.015762925188273925
1683991349460379300,3.62577978515625,0.2573040723751178,-0.17743587489473903,0.14515137663612063
1683991349470419600,3.635820068359375,0.27283859249351106,-0.1412687300936549,0.2663260698211132
1683991349480460000,3.6458603515625,0.304885983473167,-0.07160091404654667,0.3714947701627499
1683991349490500300,3.655900634765625,0.3126509189696996,0.012394904936005799,0.4176151752024669
1683991349500540600,3.66594091796875,0.30804467204316544,0.07725143426227662,0.4667320250321095
1683991349510580900,3.675981201171875,0.3003141879407656,0.09679603578444598,0.47318661203199663
1683991349520621200,3.686021728515625,0.2630412577930741,0.1332321168738284,0.44877839079682463
1683991349530661600,3.69606201171875,0.22480416303252354,0.12924480435979974,0.46042323112433575
1683991349540701900,3.706102294921875,0.19051063061373075,0.09923553453511963,0.4339982270427298
1683991349550742200,3.716142578125,0.14846444128632824,0.10529518130104291,0.43168628214341814
1683991349560782600,3.726182861328125,0.07895302772687693,0.1004199981477744,0.37406396864535785
1683991349570822600,3.736222900390625,0.07204318054775265,0.08615207676400434,0.31502377993928654
1683991349580862900,3.74626318359375,0.06569027911660362,0.09322643273400093,0.22178602214843918
1683991349590903200,3.7563037109375,0.06928229329496027,0.10009479511602716,0.1278316976210426
1683991349600943600,3.766343994140625,0.07564091674556139,0.08319950110987631,0.033105850202570626
1683991349610983900,3.77638427734375,0.07082533837299346,0.08053112015545118,-0.08137953284462612
1683991349621024200,3.786424560546875,0.06187343603621169,0.08481597899297305,-0.12597501274418615
1683991349631064600,3.79646484375,0.04388093948315213,0.07718563085002146,-0.17936646946324078
1683991349641104800,3.806505126953125,0.06399846085012804,0.05312061317656015,-0.14982712266311046
1683991349651145100,3.816545654296875,0.020359992910325406,0.027010917550422394,-0.1753653287664189
1683991349661185500,3.8265859375,-0.03162193302451901,0.001217842176342221,-0.15132176876869027
1683991349671225800,3.836626220703125,-0.06340384489344095,-0.005475044215344507,-0.10216999049689601
1683991349681265800,3.846666259765625,-0.09164834039140429,-0.01931953447689226,-0.108407616695901
1683991349691306200,3.85670654296875,-0.1024229526739931,-0.02841091155550061,-0.09857940670055387
1683991349701346600,3.866746826171875,-0.11266112337967249,-0.02806854256407154,-0.03991186619113068
1683991349711386800,3.876787109375,-0.11076879495101181,-0.04666137704126216,-0.0697507859588824
1683991349721427100,3.88682763671875,-0.1250817776881561,-0.03914260854200143,-0.038067460027357704
1683991349731467400,3.896867919921875,-0.11285138134326962,-0.02243900284744854,-0.05880045886243196
1683991349741507800,3.906908203125,-0.102690935201197,0.0032949448484278663,-0.04381978519706102
1683991349751548100,3.916948486328125,-0.07780909551679864,-0.01860141759814557,0.001983761800377183
1683991349761588400,3.92698876953125,-0.06188416483508191,0.02568721780685805,0.07144057761850268
1683991349771628600,3.937029052734375,-0.02188682551621209,0.029192924516409147,0.10810923574263709
1683991349781669000,3.9470693359375,-0.022026777348789477,0.02097034468703944,0.1837555168402711
1683991349791709400,3.95710986328125,-0.026623487583543534,0.013110160928147613,0.14991605285986478
1683991349801749600,3.967150146484375,-0.021852731682476277,0.02454757704970076,0.16634941095707956
1683991349811789700,3.977190185546875,-0.038694620010221524,0.012644767712418199,0.175891280265704
1683991349821830100,3.98723046875,-0.034525394561315564,0.04843044292151151,0.14093923563816405
1683991349831870400,3.997270751953125,-0.04526352873546302,0.07463169097737443,0.1397576332425343
1683991349841910600,4.00731103515625,-0.031113863139318357,0.10557651534498841,0.14538776865033004
1683991349851951000,4.017351318359375,-0.018483877275665927,0.11521911626702895,0.14991450319162364
1683991349861991300,4.027391845703125,-0.031064271842547973,0.0968475341748077,0.16479158403460165
1683991349872031600,4.03743212890625,-0.004607677471093553,0.08613681798181003,0.17773151384153135
1683991349882072000,4.047472412109375,0.006201267282807135,0.07817172990704384,0.20946228497082342
1683991349892112300,4.0575126953125,0.0021109580786250752,0.04678344719162654,0.2703423499450497
1683991349902152600,4.067552978515625,0.00028872490795219484,0.006357193007029192,0.2771458028425085
1683991349912192900,4.07759326171875,-0.005995988912739639,-0.014762878370484582,0.30629646764935614
1683991349922233300,4.087633544921875,-0.007068634074352814,-0.014605522211053518,0.3053505420711441
1683991349932273600,4.097674072265625,0.018086433513983466,-0.03355884556580191,0.30266153808209284
1683991349942313900,4.10771435546875,0.05446219454626243,0.006496429605975222,0.26291877031691363
1683991349952354000,4.11775439453125,0.04275393490022339,0.022255897549704164,0.2150838971787879
1683991349962394300,4.127794677734375,0.049529313944611776,0.033023834305799284,0.1454614401106535
1683991349972434600,4.1378349609375,0.010713100350480004,-0.003384590190936811,0.040909171236523476
1683991349982474900,4.147875244140625,0.00012946111220941026,-0.0367212294681995,-0.06452202806642075
1683991349992515200,4.15791552734375,-0.038949251308470934,-0.08115768433490099,-0.1677310467422674
1683991350002555600,4.1679560546875,-0.08687543861818846,-0.1341991424872677,-0.24243253469173096
1683991350012595900,4.177996337890625,-0.11728477466735295,-0.14396572112126177,-0.33583819869202813
1683991350022636200,4.18803662109375,-0.14905333526195158,-0.14421463014202152,-0.34892839188402436
1683991350032676600,4.198076904296875,-0.17009830472344345,-0.1399240494861576,-0.3258715868649686
1683991350042716800,4.2081171875,-0.18287014965092657,-0.10532665256161455,-0.34067136060397135
1683991350052757200,4.218157470703125,-0.17595386495622764,-0.0926990508194314,-0.3366450369152547
1683991350062797600,4.228197998046875,-0.1663725374960772,-0.05222034459762187,-0.3662771582326412
1683991350072837800,4.23823828125,-0.15643882751740348,-0.0832843780027957,-0.33077153552046923
1683991350082878100,4.248278564453125,-0.1414952278485673,-0.08582973483755078,-0.3587009012286101
1683991350092918200,4.258318603515625,-0.15226268778448854,-0.09323406212710576,-0.38246276976416327
1683991350102958600,4.26835888671875,-0.12459921823909478,-0.15487384789185438,-0.4043320716581986
1683991350112998800,4.278399169921875,-0.1295158864884391,-0.21578884138082646,-0.3848305048205849
1683991350123039200,4.288439453125,-0.09841990474710528,-0.2429876326045744,-0.4073219299165716
1683991350133079600,4.29847998046875,-0.08143329610511986,-0.24876880648720065,-0.4120284317424494
1683991350143119800,4.308520263671875,-0.05261516568129831,-0.2216215132362049,-0.4384983182360541
1683991350153160100,4.318560546875,-0.04070711134661419,-0.20675277705349723,-0.43687197575513464
1683991350163200400,4.328600830078125,-0.033827781678976016,-0.18513298031315292,-0.43445530538583066
1683991350173240800,4.33864111328125,-0.027310609853844516,-0.17101764671515735,-0.3616760672041554
1683991350183281100,4.348681396484375,-0.01640534388702098,-0.10074520099487973,-0.32138669497964983
1683991350193321400,4.3587216796875,-0.02675986280649074,-0.0034332276629110456,-0.3455977438761334
1683991350203361600,4.36876220703125,-0.02022624000825021,0.04288578044497554,-0.2586501240907692
1683991350213402000,4.378802490234375,0.01407194125511771,0.02505493175001765,-0.07699102163763477
1683991350223442400,4.3888427734375,0.032950162791252784,0.05011653904910108,0.0721346734494569
1683991350233482600,4.398883056640625,0.051025390742081504,0.07726955419533013,0.18190339208024256
1683991350243523000,4.40892333984375,0.05925083152410269,0.054597854537374035,0.2788792848483689
1683991350253563300,4.418963623046875,0.08391880981181156,0.06291675580162072,0.37488797320787753
1683991350263603400,4.429003662109375,0.11316871632737589,0.07104301455045857,0.4013382493991459
1683991350273643600,4.439044189453125,0.14444017409920537,0.0648822784586479,0.42053076622268293
1683991350283684000,4.44908447265625,0.1704409122106023,0.06590080258398599,0.441836774370354
1683991350293724300,4.459124755859375,0.19810318949266711,0.06931495663350713,0.43916311845484235
1683991350303764600,4.4691650390625,0.187263250372245,0.07276058192394984,0.43886411189079283
1683991350313805000,4.479205322265625,0.19746446609689755,0.059755325303426296,0.41759207845584717
1683991350323845300,4.48924560546875,0.1743836402196454,0.04700851446263778,0.38964876519499386
1683991350333885600,4.4992861328125,0.16813468932940825,0.06271839143732909,0.3807793558346488
1683991350343925900,4.509326416015625,0.14999103546332884,0.040547370913791486,0.36018264295642033
1683991350353966300,4.51936669921875,0.138910055063916,0.03764820099962869,0.31396248935125
1683991350364006600,4.529406982421875,0.10662865626028882,0.0607271194290957,0.2918140590779659
1683991350374046900,4.539447265625,0.0840981006504793,0.0693368910491205,0.29106950770017476
1683991350384087200,4.549487548828125,0.06662440310106764,0.054265022273011394,0.2597088516594922
1683991350394127600,4.55952783203125,0.07059860233280746,0.037090301351707065,0.2404888867275706
1683991350404167900,4.569568359375,0.06272101400360405,0.03667259207499296,0.23788174984742855
1683991350414208200,4.579608642578125,0.07143902784878702,0.050383567804086274,0.2469600738806727
1683991350424248200,4.589648681640625,0.07522797584749177,0.016791343716242826,0.2509780824608705
1683991350434288600,4.59968896484375,0.08128929138064636,0.019069671645545256,0.24307295663762557
1683991350444328900,4.609729248046875,0.07780408849427464,0.035427093502228474,0.23734098673107615
1683991350454369200,4.61976953125,0.09311294544900457,0.04209232325911784,0.2288095951644135
1683991350464409600,4.629809814453125,0.0798137188561174,0.029810905577699755,0.2740566134565773
1683991350474449800,4.639850341796875,0.05727267254678945,0.041260719463748215,0.23551332966935257
1683991350484490200,4.649890625,0.04458475108951899,0.05716991424355082,0.2531448602496412
1683991350494530600,4.659930908203125,0.029914855923635398,0.05624771126500723,0.2553079129219671
1683991350504570800,4.66997119140625,0.020354509452800224,0.04112911239610388,0.24694216253137763
1683991350514611100,4.680011474609375,0.023053646103519124,0.03791141511824716,0.22833880780829446
1683991350524651400,4.6900517578125,0.006912231369709344,0.022923469600699384,0.206775397096729
1683991350534691800,4.700092041015625,0.012213230057526957,-0.015393257059678648,0.16826114064905953
1683991350544732100,4.710132568359375,0.019658327082291482,-0.04601001722551442,0.14389652005000297
1683991350554772400,4.7201728515625,0.003255128828546631,-0.07139301291713707,0.09358361355241936
1683991350564812600,4.730213134765625,0.0007791520203042671,-0.08449745178161709,0.06943160297742174
1683991350574853000,4.74025341796875,-3.5524317478778795e-05,-0.1137275696186622,0.009703218939929191
1683991350584893400,4.750293701171875,-0.00416016584167194,-0.17288208007626182,-0.03788092744295398
1683991350594933600,4.760333984375,-0.018399953812440414,-0.22854804995291794,-0.07818093901170363
1683991350604974000,4.77037451171875,-0.040306568134137355,-0.287817001294067,-0.14635232091045108
1683991350615014300,4.780414794921875,-0.0393269061738332,-0.3434772492237269,-0.23160192375952085
1683991350625054400,4.790454833984375,-0.03727698326102063,-0.3625049591442593,-0.3370878994974132
1683991350635094600,4.8004951171875,-0.02744078628908021,-0.3972101212769808,-0.4173325598284335
1683991350645135000,4.810535400390625,-0.01683926583951413,-0.44503021252055014,-0.46823829408370016
1683991350655175300,4.82057568359375,-0.002565622301632218,-0.39052009570992463,-0.5018211603457933
1683991350665215600,4.830615966796875,0.0017871856281147672,-0.3508472442521353,-0.5505033136447389
1683991350675256000,4.840656494140625,-0.010144949033283075,-0.2623310088950756,-0.5668832062796403
1683991350685296300,4.85069677734375,-0.009474516009683551,-0.19654846184598232,-0.5217586755027771
1683991350695336600,4.860737060546875,-0.04587244991042995,-0.10843849176250822,-0.49725830555119815
1683991350705376900,4.87077734375,-0.08134579660305655,-0.02892684938722584,-0.5167685746578607
1683991350715417300,4.880817626953125,-0.10914325725621292,0.016313552765556447,-0.47781479362638424
1683991350725457600,4.89085791015625,-0.09914565095908055,-0.0026884080352566914,-0.44994592667893124
1683991350735497900,4.900898193359375,-0.11092352869943746,-0.09428882586507051,-0.40519049778342575
1683991350745538200,4.910938720703125,-0.1370930671728117,-0.0948495864213368,-0.3938458859677269
1683991350755578600,4.92097900390625,-0.1394917963187366,-0.13071346285197477,-0.42466440782230935
1683991350765618900,4.931019287109375,-0.17687892919407383,-0.11899185175506075,-0.46548277151058337
1683991350775659200,4.9410595703125,-0.19385099402121392,-0.07945251471857348,-0.4706878364254105
1683991350785699600,4.951099853515625,-0.19960308083640108,-0.03389072425886688,-0.47870308164081954
1683991350795739800,4.96114013671875,-0.19644856453596474,-0.008372306680910055,-0.42678931354846317
1683991350805780100,4.9711806640625,-0.16603660582750338,0.035161018450754415,-0.4108521343116927
1683991350815820500,4.981220947265625,-0.10692024229047667,0.07060909277907966,-0.322803706006127
1683991350825860600,4.991260986328125,-0.036739110950996016,0.053529739396616816,-0.24732658259851045
1683991350835900800,5.00130126953125,0.029572725231247893,0.05322265619019522,-0.21746012567830433
1683991350845941200,5.011341552734375,0.07297134402486694,0.012981414751492207,-0.2132950872297378
1683991350855981600,5.0213818359375,0.10091495500267741,-0.03826713565108802,-0.163565382309056
1683991350866021800,5.031422119140625,0.1161987780487626,-0.03446197501133503,-0.244786381739378
1683991350876062100,5.041462646484375,0.1358739138407026,-0.04958438876417919,-0.310175836014392
1683991350886102400,5.0515029296875,0.15527963633140102,-0.036276817332583346,-0.36132836334454604
1683991350896142800,5.061543212890625,0.1442915201262443,0.023695945735823818,-0.42620021097293354
1683991350906183100,5.07158349609375,0.1552834511690823,0.04242134106915854,-0.47394046191079503
1683991350916223400,5.081623779296875,0.1903082132611537,0.0935325622971025,-0.467035889665325
1683991350926263600,5.0916640625,0.16167140014055978,0.17179203020413428,-0.4907526373013785
1683991350936304000,5.101704345703125,0.09621644019345166,0.2673473358059766,-0.465234905452523
1683991350946344400,5.111744873046875,-0.012208461745664903,0.31630706794940044,-0.34308153396534125
1683991350956384600,5.12178515625,-0.1528816222784448,0.2887773512325059,-0.24515667542398284
1683991350966425000,5.131825439453125,-0.28711509698668114,0.24250793457796263,-0.13740324989638025
1683991350976465300,5.14186572265625,-0.40262079235613024,0.21538066873779174,-0.06262189155813364
1683991350986505600,5.151906005859375,-0.5086810588362376,0.2727918624975721,-0.057495325808996564
1683991350996546000,5.1619462890625,-0.5090565681594957,0.2555990218204821,0.08668881640962015
1683991351006586300,5.171986572265625,-0.46494364724601855,0.24764251704184306,0.34707641591936994
1683991351016626600,5.182027099609375,-0.3983488083537975,0.21354579929074563,0.5203312634808763
1683991351026666900,5.1920673828125,-0.3334453106010898,0.1726703643539937,0.6780164838613058
1683991351036707200,5.202107666015625,-0.2773284911315838,0.1016321181254522,0.798698544525683
1683991351046747600,5.21214794921875,-0.2554023265003233,0.02675056459767687,0.9417746065880547
1683991351056787600,5.22218798828125,-0.22260475150601391,-0.05894947059547498,1.0625048874711829
1683991351066828000,5.232228271484375,-0.16827440245027225,-0.11273574835275174,1.116979360580536
1683991351076868300,5.2422685546875,-0.07981181148637038,-0.1513843536514746,1.123489499143964
1683991351086908600,5.25230908203125,-0.0033555030157431183,-0.11376190191980319,1.1186435222700477
1683991351096948900,5.262349365234375,0.07009863846675882,-0.050455093435148604,1.1385711431312353
1683991351106989200,5.2723896484375,0.15174460401877682,0.11121749884345276,1.0989531277291258
1683991351117029600,5.282429931640625,0.2455682754860218,0.2426176069939235,1.0909913778545124
1683991351127069900,5.29247021484375,0.22186326995104183,0.28307819375930127,1.1113610267191247
1683991351137110200,5.302510498046875,0.15878868092121573,0.2739334106568541,1.0535267593093736
1683991351147150600,5.312551025390625,0.07209706305884907,0.26756286615538744,1.0318299531433155
1683991351157190800,5.32259130859375,-0.03707242017876313,0.2637310027993715,0.9751594065297873
1683991351167231200,5.332631591796875,-0.12793064125430806,0.2293300628733989,0.9315736891124955
1683991351177271500,5.342671875,-0.21928215038128418,0.20951175700783442,0.9080102444257434
1683991351187311800,5.352712158203125,-0.2942314148386019,0.20158290867200057,0.8450186252774198
1683991351197352100,5.36275244140625,-0.30820083606089316,0.2076644897619107,0.745684385372851
1683991351207392400,5.372792724609375,-0.26683759682095504,0.1921834944129794,0.6672882437950608
1683991351217432800,5.382833251953125,-0.14285445214408585,0.20493984229845477,0.5463051797020745
1683991351227473100,5.39287353515625,-0.010996580057756578,0.2643899918769267,0.388617932683385
1683991351237513400,5.402913818359375,0.17253661157723937,0.28050518044362255,0.24210715307417666
1683991351247553600,5.4129541015625,0.32839655868778944,0.32249736771925147,0.14643876251209834
1683991351257594000,5.422994384765625,0.446668624962311,0.36901760094811065,0.026914537092670363
1683991351267634400,5.43303466796875,0.48482322695313623,0.41787147517885176,-0.053980082211275635
1683991351277674600,5.443074951171875,0.4603655337533173,0.47382640849481117,-0.008646726519006312
1683991351287715000,5.453115478515625,0.3863179683987497,0.5061216353113618,-0.02588967985940855
1683991351297755300,5.46315576171875,0.29951143258491003,0.5455503464762007,0.002163603821317768
1683991351307795600,5.473196044921875,0.2783987522272501,0.4953050612601374,-0.006303504209976129
1683991351317836000,5.483236328125,0.29119086248367165,0.44399070727360984,0.07970524572984176
1683991351327876300,5.493276611328125,0.33489251141186643,0.3963470459340056,0.15051704636672322
1683991351337916600,5.50331689453125,0.35938000685055627,0.3617668151453954,0.2202720046867423
1683991351347956900,5.513357421875,0.3816437721982987,0.34233474747452547,0.2672659754633582
1683991351357997200,5.523397705078125,0.3973141907956996,0.3165235519404721,0.2823155819647367
1683991351368037300,5.533437744140625,0.3694126605643153,0.2960510254620915,0.2664111256634267
1683991351378077600,5.54347802734375,0.35528123372923776,0.311398506237751,0.26960211986376004
1683991351388117900,5.553518310546875,0.32363593594331724,0.2679100037807462,0.2017818837395816
1683991351398158300,5.56355859375,0.22269105899894748,0.21841907502408509,0.1930746734349728
1683991351408198600,5.573598876953125,0.05825209618564731,0.18657207483405142,0.1724412887145203
1683991351418238900,5.583639404296875,-0.08152651776948472,0.0661325455464104,0.1804943830563095
1683991351428279200,5.5936796875,-0.15497159947006506,-0.05190372476550411,0.1690163015529044
1683991351438319600,5.603719970703125,-0.14918136582343672,-0.11576938611703172,0.15028826889184788
1683991351448359900,5.61376025390625,-0.10762572293700275,-0.18058490746230554,0.08761632430568615
1683991351458400200,5.623800537109375,-0.042504310474224594,-0.2228431702560171,0.0531369186377353
1683991351468440600,5.6338408203125,0.050094843028321394,-0.24991035458250666,0.008015966025289823
1683991351478480800,5.643881103515625,0.08438134195734966,-0.2266235351557104,-0.06460411097676409
1683991351488521100,5.653921630859375,0.12688684446224832,-0.17967700952811783,-0.15517126022469518
1683991351498561500,5.6639619140625,0.10217928898712463,-0.13776302338807278,-0.2120755313682984
1683991351508601800,5.674002197265625,0.12195384517983997,-0.07492065416059361,-0.33467835183607275
1683991351518642100,5.68404248046875,0.08421850204731125,-0.06216812127056331,-0.45578521505732145
1683991351528682400,5.694082763671875,-0.01685178284116256,0.01423740397215727,-0.5021324157892675
1683991351538722700,5.704123046875,-0.1630194188855881,0.0471324920414743,-0.5053983331089339
1683991351548763100,5.71416357421875,-0.4511816501583175,0.07937240601849098,-0.505943417478398
1683991351558803400,5.724203857421875,-0.743670702109172,0.08489322669606651,-0.4935835599756978
1683991351568843600,5.734244140625,-1.0783467291595072,0.01672172558301353,-0.5830995439869641
1683991351578884000,5.744284423828125,-1.4088075160096922,-0.07499122614201051,-0.7256402969828063
1683991351588924300,5.75432470703125,-1.553723216149997,-0.16431140899829078,-0.8501418830495039
1683991351598964600,5.764364990234375,-1.3259038924812856,-0.12167453776131795,-0.969319760812603
1683991351609005000,5.7744052734375,-0.9809019564802648,-0.05953788754434359,-1.1117569209380997
1683991351619045300,5.78444580078125,-0.6857365370448635,-0.05310916912636698,-1.2371858358374432
1683991351629085600,5.794486083984375,-0.47455728047114887,-0.13172054288518975,-1.2968789339200648
1683991351639125900,5.8045263671875,-0.38633120062629905,-0.1903133393230484,-1.3174947501590564
1683991351649166300,5.814566650390625,-0.37467730028514257,-0.2349557876523762,-1.3538730144624496
1683991351659206600,5.82460693359375,-0.44002676013138814,-0.2989292143644928,-1.3392665387467126
1683991351669246900,5.834647216796875,-0.4285334347793953,-0.2891798018359003,-1.335876107281149
1683991351679287200,5.8446875,-0.3069761991221788,-0.2703676223269555,-1.3236430883418349
1683991351689327600,5.85472802734375,-0.14579939845605597,-0.22804546354774685,-1.27279376970416
1683991351699367900,5.864768310546875,0.05816709988239921,-0.20742034913918142,-1.2536212206039345
1683991351709408200,5.87480859375,0.20539712886704192,-0.22017288194965756,-1.2259206771428364
1683991351719448600,5.884848876953125,0.3308169842711013,-0.2541675568089416,-1.1245766878983523
1683991351729488800,5.89488916015625,0.4194186925856976,-0.2877836228239372,-0.9505486489808878
1683991351739529100,5.904929443359375,0.4185338019878177,-0.3496551513811749,-0.6970790029736037
1683991351749569500,5.914969970703125,0.3289102316519212,-0.3967752456807911,-0.42704251403949534
1683991351759609800,5.92501025390625,0.2400243281795222,-0.4603033066411629,-0.17658382659370234
1683991351769650100,5.935050537109375,0.1479420661557781,-0.5665044784758896,0.03302171814615346
1683991351779690400,5.9450908203125,0.08456838135074912,-0.5935230255304518,0.21717970058740743
1683991351789730600,5.955130859375,0.11726605893298932,-0.5583248138975327,0.383273839836099
1683991351799771100,5.96517138671875,0.16935634623050405,-0.45152759554914834,0.54691433897629
1683991351809811400,5.975211669921875,0.2736333608604603,-0.37589836116409514,0.7846114635283187
1683991351819851600,5.985252197265625,0.41990363587673746,-0.24289131173442002,1.0046466588729737
1683991351829892000,5.99529248046875,0.5432171225554951,-0.12660598757205913,1.2039804457917567
1683991351839932300,6.005332763671875,0.6693888306597928,-0.03171348584623976,1.2556570768664221
1683991351849972600,6.015373046875,0.77634692187526,0.027520179856820776,1.2134671211329622
1683991351860012600,6.0254130859375,0.8469297289921022,0.08455944074880588,1.0367252826460465
1683991351870053000,6.035453369140625,0.8783889413290614,0.1202554704397661,0.9282960296664308
1683991351880093400,6.04549365234375,0.872789502221049,0.12748146069321264,0.7836397290467952
1683991351890133600,6.0555341796875,0.8183934688995823,0.11581039430128869,0.5882624984203871
1683991351900174000,6.065574462890625,0.7013637423491503,0.18549728403122145,0.4021533131808727
1683991351910214300,6.07561474609375,0.5109112262332755,0.18094158189657947,0.18773406742617388
1683991351920254600,6.085655029296875,0.28421264881964425,0.15471839916512187,0.005065128151449076
1683991351930295000,6.0956953125,0.06033676873560902,0.0924606324037024,-0.1644704340377075
1683991351940335300,6.105735595703125,-0.19134217519100138,0.08973693853823234,-0.35805672406012645
1683991351950375600,6.11577587890625,-0.4007045626210105,0.08662605278568694,-0.6700328590061339
1683991351960415900,6.12581640625,-0.5071449280002001,0.14991188043848164,-1.0470279454792812
1683991351970456200,6.135856689453125,-0.5748293399538296,0.09792232513605872,-1.3613114356372644
1683991351980496600,6.14589697265625,-0.5695652364613767,0.0431919097239145,-1.4937264919604074
1683991351990536900,6.155937255859375,-0.4553721546235628,-0.002290725796040994,-1.5973197222672122
1683991352000577200,6.1659775390625,-0.2494903207071667,-0.01699256904482484,-1.634647727098169
1683991352010617600,6.176017822265625,-0.0433592794787763,-0.067794799738168,-1.5418938398122441
1683991352020657800,6.186058349609375,0.2673313318191427,0.007841110203675433,-1.4260982275116159
1683991352030698200,6.1960986328125,0.5729748607764868,0.06164550776074614,-1.223983764644497
1683991352040738600,6.206138916015625,0.8927546739590096,-0.01127624510826443,-0.940704405272343
1683991352050778800,6.21617919921875,1.1533222198034119,-0.11023139954010117,-0.7130549549125206
1683991352060819100,6.226219482421875,1.3158116339810562,-0.2709875106471496,-0.5143313407235138
1683991352070859400,6.236259765625,1.3372476099793067,-0.47912120826916516,-0.32027083630319136
1683991352080899800,6.246300048828125,1.3010727166460598,-0.66770648964829,-0.19510886069074734
1683991352090940100,6.256340576171875,1.1707102060528225,-0.8798274994074149,-0.012422233824064424
1683991352100980400,6.266380859375,0.9510942697958263,-1.0152311325841297,0.17268821597109482
1683991352111020600,6.276421142578125,0.6719515323285877,-0.9548625945067166,0.36043870449337745
1683991352121061000,6.28646142578125,0.3293213845420991,-0.7040948867988164,0.5945291519329993
1683991352131101400,6.296501708984375,0.011030763415894661,-0.3135995863875029,0.7278946041830776
1683991352141141600,6.3065419921875,-0.18658015120143093,0.0826349259683554,0.8929939268919209
1683991352151182000,6.31658251953125,-0.27312105895557914,0.3223667143869826,0.9403253795124294
1683991352161222300,6.326622802734375,-0.22613058973718536,0.5374813078932987,0.9273228047722475
1683991352171262600,6.3366630859375,-0.020107839393367997,0.7448577880100485,0.8832529784057159
1683991352181303000,6.346703369140625,0.3680140376543962,0.8395395280444004,0.8029326797979663
1683991352191343300,6.35674365234375,0.8139937519596495,0.9054212569402668,0.7364743351905125
1683991352201383600,6.366783935546875,1.1208764313904387,0.8565473557532146,0.6200116874375002
1683991352211423900,6.37682421875,1.2166275978165544,0.7241458894269254,0.5602306126234038
1683991352221464200,6.38686474609375,1.1945309639129529,0.48687839519851733,0.6457412243875662
1683991352231504600,6.396905029296875,1.0925663711310771,0.2834548949722808,0.7142461538537208
1683991352241544900,6.4069453125,0.9628263116129364,0.13514709489424975,0.8076508639583481
1683991352251585200,6.416985595703125,0.8463323116605614,0.06328105932797677,0.9113779664023757
1683991352261625600,6.42702587890625,0.731021582974763,-0.020548820443293724,1.0403960942729344
1683991352271665800,6.437066162109375,0.6435612439962995,-0.10416221621471937,1.0950847864119582
1683991352281706200,6.4471064453125,0.6240779162007772,-0.1635513306242348,1.1088407040518733
1683991352291746600,6.45714697265625,0.6359275579392765,-0.2966947556113193,1.0940217970862323
1683991352301786800,6.467187255859375,0.6718055010311509,-0.4056272506151368,1.0775508881920708
1683991352311827100,6.4772275390625,0.6294797658954603,-0.5215158462793945,1.1091556549714998
1683991352321867400,6.487267822265625,0.46471691136720855,-0.7970247269647613,1.1822490693335719
1683991352331907800,6.49730810546875,0.19178795821661926,-0.9450473784541255,1.2129523755338485
1683991352341948100,6.507348388671875,-0.12713050835223513,-1.0088109970602952,1.262140035532788
1683991352351988400,6.517388916015625,-0.42526662336057397,-0.9406309128242882,1.3829647300761905
1683991352362028600,6.52742919921875,-0.6874908804833436,-0.716635704061577,1.5218608380412022
1683991352372069000,6.537469482421875,-0.7969734667305941,-0.40146636958066795,1.599503755446313
1683991352382109400,6.547509765625,-0.6904066205949719,-0.16257286072351038,1.6040482520424233
1683991352392149600,6.557550048828125,-0.4383589029794904,-0.04778957382707694,1.5167183876599333
1683991352402190000,6.56759033203125,-0.1448407470519134,0.016892433242518726,1.3244111537712757
1683991352412230300,6.577630615234375,0.1178112029602134,0.005050659169818422,1.095188259933709
1683991352422270600,6.587671142578125,0.33567404762369585,0.055206298998643884,0.9014393091119367
1683991352432311000,6.59771142578125,0.4860355853944301,0.13365459438541638,0.6673132777496452
1683991352442351300,6.607751708984375,0.592285096642866,0.16858959206235885,0.4372257591820045
1683991352452391600,6.6177919921875,0.6688247322449243,0.16963863370497348,0.24328398706239138
1683991352462431900,6.627832275390625,0.7253651617863244,0.1584205627263459,0.08033213015864225
1683991352472472200,6.63787255859375,0.7433702350241191,0.11355304713176763,-0.04773405201594661
1683991352482512600,6.647912841796875,0.7069685459165319,0.042346000529365255,-0.2081720232449447
1683991352492552900,6.657953369140625,0.6716357470373296,-0.007353782611892884,-0.400602042712894
1683991352502593200,6.66799365234375,0.594803392933588,0.0002279281751436252,-0.5525854825219982
1683991352512633600,6.678033935546875,0.5459851025079115,0.043381690998917026,-0.7928589580991807
1683991352522673800,6.68807421875,0.4823347926601568,-0.04517078403227199,-0.9001711605564573
1683991352532714200,6.698114501953125,0.42270171636250653,-0.1599740982815051,-0.8956319093238669
1683991352542754600,6.70815478515625,0.37419545655580383,-0.2579059602004664,-0.8604518174174783
1683991352552794800,6.7181953125,0.3201493621366102,-0.3556146621690134,-0.7596648333704967
1683991352562835100,6.728235595703125,0.2159969806790767,-0.42665100091172997,-0.5686874390245382
1683991352572875400,6.73827587890625,0.153948247593398,-0.23224449151651735,-0.6419306993007755
1683991352582915800,6.748316162109375,0.05332207691084726,-0.1409749986004971,-0.6553332804846566
1683991352592956100,6.7583564453125,0.030599951793944,-0.11436462390453786,-0.38842868814351367
1683991352602996400,6.768396728515625,0.0471502543726764,-0.047158241182386866,-0.25121068946992064
1683991352613036600,6.77843701171875,0.04332888136831724,-0.05171012879167934,-0.14230972527923666
1683991352623077000,6.7884775390625,0.05994307995696282,-0.0537929535803049,0.0026273429309624113
1683991352633117400,6.798517822265625,0.056607663592865974,-0.07249736773173943,0.05934117745828723
1683991352643157600,6.80855810546875,0.11464452754566708,-0.07434844984410391,0.09986948972536229
1683991352653198000,6.818598388671875,0.15722715845127633,-0.08090209961681924,0.12435099488205238
1683991352663238300,6.828638671875,0.2224464416808249,-0.07783031474725126,0.1424148083117148
1683991352673278600,6.838678955078125,0.28373289114237976,-0.041298866225981584,0.18765971059357675
1683991352683319200,6.8487197265625,0.37171709539075937,-7.152553866093563e-05,0.2742484212462974
1683991352693359300,6.858759765625,0.43313652290209015,0.031467437741302264,0.33512833699173866
1683991352703399600,6.868800048828125,0.4843132494762692,0.02943992613896933,0.38930928708213347
1683991352713439900,6.87884033203125,0.5251215100240789,0.05362987532946851,0.4723196029911501
1683991352723480200,6.888880615234375,0.5627456306519253,0.029950141992024972,0.5288513900176974
1683991352733520800,6.898921142578125,0.5924273133080535,0.006288528448506267,0.6017996072862826
1683991352743561100,6.90896142578125,0.6069305539048346,-0.007806777793030329,0.6361977456939245
1683991352753601500,6.919001953125,0.6158926486049998,-0.03862190231543039,0.6320666076182343
1683991352763641600,6.9290419921875,0.6120917797159344,-0.057460785061548655,0.6084738970288154
1683991352773682100,6.93908251953125,0.6123819948036339,-0.059568405270027644,0.5200753807146418
1683991352783722400,6.949122802734375,0.5810652376562949,-0.08079814906448392,0.46240937693775946
1683991352793762700,6.9591630859375,0.5396456718472783,-0.09961128227827551,0.3494625984706287
1683991352803803100,6.969203369140625,0.4739222527351534,-0.11124229437309131,0.17446488137566574
1683991352813843400,6.979243896484375,0.36036729813330176,-0.1085329057420055,-0.0023200660122666603
1683991352823883600,6.9892841796875,0.27635830643533116,-0.10819816590384726,-0.08009316023437706
1683991352833924000,6.999324462890625,0.21079033616176873,-0.0839118956980636,-0.18544360998593737
1683991352843964300,7.00936474609375,0.1953897475983705,-0.06673240654392337,-0.2395102383164574
1683991352854004600,7.019405029296875,0.22562479981190242,-0.05901908879263738,-0.26375055304755196
1683991352864045000,7.0294453125,0.31304860127145384,-0.0952301024894001,-0.22402060030795845
1683991352874085300,7.039485595703125,0.3906826377506064,-0.12138748167102928,-0.1675364375190144
1683991352884125600,7.049526123046875,0.4789921047191709,-0.13534831997230026,-0.07835009695955207
1683991352894165900,7.05956640625,0.5280070303569612,-0.12320899964031513,0.031030625106173444
1683991352904206300,7.069606689453125,0.5356802344619468,-0.09246921535290716,0.13383965211015744
1683991352914246600,7.07964697265625,0.5357195734757864,-0.050490379216455786,0.2322957812996648
1683991352924286900,7.089687255859375,0.5188938974300323,-0.04217624662302095,0.28143522146036604
1683991352934327200,7.0997275390625,0.5043125749604904,-0.04106712336921998,0.312607646035587
1683991352944367600,7.109767822265625,0.4706875084428443,-0.03762912751858499,0.26488879314259056
1683991352954407900,7.119808349609375,0.4184450507465611,-0.06250381460491147,0.24098350108417038
1683991352964448200,7.1298486328125,0.3316524029731261,-0.05635356906740235,0.16522085659228433
1683991352974488600,7.139888916015625,0.2723964452963002,0.010917663521163612,0.0764510929662585
1683991352984528800,7.14992919921875,0.22645729772511902,-0.0029439925601359995,-0.02737069131382028
1683991352994569100,7.159969482421875,0.21022468800603913,-0.02124691023698373,-0.10587340599566974
1683991353004609500,7.170009765625,0.19225794076358055,-0.0439434052741821,-0.18057715891563664
1683991353014649800,7.18005029296875,0.17929941424025297,-0.05215740200522637,-0.22528687109262163
1683991353024690100,7.190090576171875,0.10776185997006836,-0.06496715544522431,-0.23073422909304533
1683991353034730400,7.200130859375,0.05677425864974636,-0.051673889347486276,-0.24938711519145698
1683991353044770700,7.210171142578125,0.014741838111034465,-0.055056571847722974,-0.18700337413797857
1683991353054811100,7.22021142578125,0.007706344114611028,-0.048923492458243324,-0.07813632500800305
1683991353064851400,7.230251708984375,0.020730018540738793,-0.08994007119592443,-0.01802012321260794
1683991353074891600,7.2402919921875,0.06500566008481222,-0.05962276443328547,0.015147000551477604
1683991353084932000,7.25033251953125,0.07866904134310064,-0.013312339687105093,0.03826382767221583
1683991353094972300,7.260372802734375,0.14220029101724307,0.02752780904059739,0.056184172657886215
1683991353105012600,7.2704130859375,0.16978040333416725,-0.010004043458603852,0.07617418485046795
1683991353115053000,7.280453369140625,0.2300333380772281,-0.02809429174627453,0.09117943055374153
1683991353125093300,7.29049365234375,0.24713790420324375,-0.05767059331095378,0.1390658319474531
1683991353135133600,7.300533935546875,0.30427801604609617,-0.03733825694360278,0.15826427937841459
1683991353145173900,7.31057421875,0.32340294121237734,-0.04795742034939998,0.20105721053174608
1683991353155214300,7.32061474609375,0.38555425396071963,-0.02544021616364146,0.24828819920909878
1683991353165254600,7.330655029296875,0.4666458964451423,-0.02448177339356613,0.3163563014197747
1683991353175295200,7.340695556640625,0.5661099552649338,-0.03766632080657253,0.40477699051512006
1683991353185335200,7.350735595703125,0.6454274058015287,-0.0506410599670855,0.47293806074697775
1683991353195375600,7.36077587890625,0.7209819555632876,-0.028106689431571952,0.4880819319788224
1683991353205415900,7.370816162109375,0.7662733794673774,0.008147239582916459,0.4955110847405991
1683991353215456400,7.38085693359375,0.776962637943687,0.0014009476518770621,0.4645569920990926
1683991353225496800,7.390897216796875,0.7606110573494562,0.03712940219870259,0.43798017485584806
1683991353235537100,7.4009375,0.7386155724741114,0.020466804487513746,0.38233068581075674
1683991353245577400,7.410977783203125,0.6940045953891291,0.04879665374162748,0.35436028234367717
1683991353255617600,7.42101806640625,0.619525015452787,0.11899566660501863,0.2501620053771035
1683991353265658000,7.431058349609375,0.5201634765661355,0.13618278501785447,0.19132295251631362
1683991353275698400,7.4410986328125,0.3988980353481156,0.11772346490915948,0.09719240662429048
1683991353285738600,7.45113916015625,0.24947246912808088,0.10658550259402891,0.011235803263314326
1683991353295779000,7.461179443359375,0.07984369994845168,0.09558582298230486,-0.11098444458490854
1683991353305819300,7.4712197265625,-0.09675577282690472,0.0847473143845282,-0.18616342530439345
1683991353315859600,7.481260009765625,-0.2530884146515317,0.0693778992405684,-0.3157345950225895
1683991353325900000,7.49130029296875,-0.364848852051986,0.05663871768334139,-0.37144047034038
1683991353335940300,7.501340576171875,-0.42960965626920294,0.053556442273612455,-0.4201360642824376
1683991353345980600,7.511381103515625,-0.4055519998951677,0.048180580086723365,-0.4664096235562958
1683991353356020900,7.52142138671875,-0.33677035583064135,0.05464553824654837,-0.43961045150532796
1683991353366061200,7.531461669921875,-0.2338365913593608,0.05625438684495577,-0.38344344482191905
1683991353376101600,7.541501953125,-0.09796395156048307,0.07896232601579367,-0.26337602741552923
1683991353386141900,7.551542236328125,0.05536107719070756,0.094162940950292,-0.18458521375714093
1683991353396182200,7.56158251953125,0.17529422038404055,0.0972661971858678,-0.08070501685449562
1683991353406222600,7.571622802734375,0.27328103775686163,0.11673450480427279,0.0074060856677997805
1683991353416262800,7.581663330078125,0.3373778462120255,0.09344863899869571,0.05869594219066735
1683991353426303200,7.59170361328125,0.3086876868334552,0.06815338132570388,0.1348004042790659
1683991353436343500,7.601743896484375,0.2944503427322905,0.03855228431051216,0.13601168996683374
1683991353446383800,7.6117841796875,0.20254102349482533,0.02827453628026178,0.13637623202895563
1683991353456424100,7.621824462890625,0.08163389555928409,0.022885322623717723,0.14049831046807473
1683991353466464400,7.63186474609375,-0.0670682340705535,0.041142463777606796,0.05662298202536024
1683991353476504800,7.6419052734375,-0.19738507265170616,0.06381702425767259,0.011283934109981048
1683991353486545100,7.651945556640625,-0.31113708035045123,0.06257057198162524,-0.05459633456142446
1683991353496585400,7.66198583984375,-0.42435553667889586,0.018959999119142493,-0.12624761462112385
1683991353506626000,7.6720263671875,-0.48247835053398513,-0.005115509015021709,-0.18214318145620068
1683991353516666300,7.682066650390625,-0.5284948349152725,-0.009995460586284387,-0.22948625693747335
1683991353526706600,7.69210693359375,-0.5155294537864532,0.018110275338431868,-0.24481678009341773
1683991353536746900,7.702147216796875,-0.4681823849591739,0.040980339011642095,-0.2263729571343164
1683991353546787200,7.712187744140625,-0.4037455917133381,0.044575691381344054,-0.21491581212123517
1683991353556827600,7.72222802734375,-0.35800683480442047,0.0503911971782317,-0.15606343758467697
1683991353566867900,7.732268310546875,-0.2862688303574918,0.03720855713252372,-0.1261169910287363
1683991353576908200,7.74230859375,-0.23170006266473497,0.04066276550422512,-0.11529546983826097
1683991353586948600,7.752348876953125,-0.1757050455512035,0.08870410911849803,-0.07337266194687904
1683991353596988800,7.76238916015625,-0.15153196446773098,0.06288528435773198,-0.0550233124963346
1683991353607029200,7.7724296875,-0.08806712923821361,0.030447006227625376,0.05160981409758836
1683991353617069600,7.782469970703125,-0.08261591206262213,0.0056896209029886615,0.10757112489815086
1683991353627109800,7.79251025390625,-0.07757887229646587,0.00021266946370003734,0.10041809074437089
1683991353637150100,7.802550537109375,-0.09417186680643058,-0.02165317543806864,0.0977214276870057
1683991353647190400,7.8125908203125,-0.14830689141299877,-0.09967517850874809,0.08317703006237366
1683991353657230800,7.822631103515625,-0.2270201890848771,-0.14113235480101785,0.05258399256281236
1683991353667271100,7.83267138671875,-0.29394313696144614,-0.18431186676837943,0.060072958596457234
1683991353677311400,7.8427119140625,-0.3277718128059463,-0.16330718987531015,0.015965819303342343
1683991353687351600,7.852752197265625,-0.33367949737444785,-0.07692623153086507,-0.04233342401189186
1683991353697392000,7.86279248046875,-0.28402885804780315,-0.10743236546762612,0.03436022999361814
1683991353707432400,7.872832763671875,-0.17532590022036054,-0.09737014760067633,0.07941699030515845
1683991353717472600,7.882873046875,-0.05153146383703663,-0.06146049496651751,0.07836586231668523
1683991353727513300,7.89291357421875,0.05379584424217658,0.028078079299391323,-0.004809498879915992
1683991353737553600,7.9029541015625,0.1735014320238202,0.06199741373008557,-0.04735928788250182
1683991353747593900,7.912994384765625,0.31185865413701563,0.08356094367830723,-0.056234300236632784
1683991353757634200,7.92303466796875,0.3698734639471907,0.18694305430349364,-0.24314808839253707
1683991353767674600,7.933074951171875,0.40983861699440505,0.14473056800064815,-0.20644128325535344
1683991353777714900,7.943115234375,0.41981524229826916,0.15954875961251738,-0.2381237150116833
1683991353787755200,7.953155517578125,0.36034616827015054,0.13867473600056865,-0.2483747004961909
1683991353797795600,7.96319580078125,0.2655616999277239,0.11333084107331412,-0.3250233530489801
1683991353807835800,7.973236328125,0.14099147914545476,0.12594699857696526,-0.39404189577964716
1683991353817876100,7.983276611328125,0.053253948686317644,0.10761356351592759,-0.46758639808043484
1683991353827916500,7.99331689453125,-0.017002165330566726,0.1036024092587296,-0.48253124950390963
1683991353837956800,8.003357177734374,-0.06993442777060196,0.08783626553026105,-0.4854735135706764
1683991353847997100,8.0133974609375,-0.07048016782475239,0.0488185883378114,-0.4846559763584044
1683991353858037400,8.023437744140624,-0.0479603409244417,0.02700519565941218,-0.4427477121879094
1683991353868077700,8.03347802734375,-0.014880359250869878,0.03153896332214381,-0.44024026387332776
1683991353878118100,8.0435185546875,0.014100611186833019,0.01255798348604929,-0.39388304949080116
1683991353888158400,8.053558837890625,0.029648304021434042,-0.020102500879210193,-0.34459495543416485
1683991353898198600,8.06359912109375,0.008637487838787192,-0.021438598584791548,-0.3070697783600129
1683991353908239000,8.073639404296875,-0.01745676977076039,-0.034337997300135564,-0.293074786650046
1683991353918279300,8.0836796875,-0.04105162622091794,-0.018587112343402806,-0.2694520352965946
1683991353928319600,8.093719970703125,-0.06205976010295831,-0.07348346713998251,-0.2863957285913579
1683991353938360200,8.1037607421875,-0.05686461934333071,-0.049631118765806066,-0.30699837198726704
1683991353948400600,8.113801025390625,-0.09619724761355648,-0.042716026191703046,-0.3222675323181585
1683991353958440900,8.12384130859375,-0.10654288536975975,-0.061867713976045534,-0.2451074718022061
1683991353968481200,8.133881591796875,-0.13798022284320596,-0.0995216370780965,-0.20709741116618632
1683991353978521600,8.143921875,-0.1805365085893361,-0.11533355708605877,-0.14194059367756662
1683991353988561800,8.153962158203125,-0.2314620018351557,-0.13084793079578538,-0.06683290007351324
1683991353998602200,8.16400244140625,-0.2902498245689705,-0.14373683942200538,0.01562863583292776
1683991354008642600,8.17404296875,-0.31182438133235246,-0.1352176666941662,0.10757750275532131
1683991354018682800,8.184083251953124,-0.34588682657830966,-0.12920570387831776,0.1898179651382291
1683991354028723100,8.19412353515625,-0.3521153926627487,-0.10917758937540387,0.2011241315404257
1683991354038763400,8.204163818359374,-0.34747529014809536,-0.12954235083489143,0.16174852841449944
1683991354048803800,8.2142041015625,-0.32514947654933657,-0.1190538408023154,0.12244045739083358
1683991354058844100,8.224244384765624,-0.28562438480419094,-0.11593818666495248,0.0955110191814598
1683991354068884400,8.234284912109375,-0.24135899540364214,-0.10122871404856976,0.11865425105127833
1683991354078924600,8.2443251953125,-0.2281481027568946,-0.0727214811653971,0.10852760079750712
1683991354088965000,8.254365478515625,-0.21011859184544993,-0.08482360832781294,0.10838401326256142
1683991354099005400,8.26440576171875,-0.21551734198603079,0.025595665066427343,0.1412916184238907
1683991354109045900,8.2744462890625,-0.21796691422372863,0.02578639978559877,0.13828283565095165
1683991354119086000,8.284486328125,-0.21743452536442404,0.0329313278189015,0.2011686562747418
1683991354129126600,8.29452685546875,-0.21159279338398745,0.06103229510609098,0.2346631884239503
1683991354139166900,8.3045673828125,-0.233327746295074,0.06972599028894312,0.28135067231700367
1683991354149207200,8.314607666015625,-0.24203133579416414,0.06872749311251225,0.29156202094455663
1683991354159247600,8.32464794921875,-0.24691176410843554,0.011091232290723793,0.35499483349851574
1683991354169287900,8.334688232421875,-0.28746223437341173,0.0012826919336949517,0.3269559145114175
1683991354179328200,8.344728515625,-0.3108572958790455,-0.03463077547005031,0.3063421249642457
1683991354189368600,8.354768798828125,-0.3431897162067691,-0.02095413208282572,0.28166580213082537
1683991354199408800,8.364809326171875,-0.3349968194149361,0.027373313847124957,0.3257523774584496
1683991354209449100,8.374849609375,-0.2850235699669277,0.010951042041052746,0.359438240592397
1683991354219489500,8.384889892578125,-0.2533779145409895,0.013321876690941422,0.3475229145539334
1683991354229529800,8.39493017578125,-0.1932122707024064,0.038876533388901235,0.33627361064584804
1683991354239570100,8.404970458984375,-0.12180352222732417,0.035432815583566306,0.4580365718021013
1683991354249610400,8.4150107421875,-0.020999908406237174,0.10009574882062927,0.5102250577717984
1683991354259650700,8.425051025390625,0.05201768884441326,0.11172008519371168,0.5949938298055601
1683991354269691100,8.435091552734375,0.20380020155586717,-0.2020168304862718,0.4023756980750055
1683991354279731400,8.4451318359375,0.36241877082914986,-0.5204267500084752,0.12085175519239279
1683991354289772000,8.45517236328125,0.4666005373897968,-0.7777547835777988,-0.22386807210929693
1683991354299812300,8.465212646484375,0.5656539203445395,-0.6994915008219944,-0.3898253440305106
1683991354309852600,8.4752529296875,0.6395174264269603,-0.40146160136351705,-0.36382651326130794
1683991354319892900,8.485293212890625,0.6566330194926775,-0.12219047552448645,-0.24466687443165477
1683991354329933200,8.495333740234376,0.6663174628219449,0.00728988652469128,-0.1805889606926654
1683991354339973600,8.5053740234375,0.6655751468017327,0.11697483067675049,-0.05258291952497448
1683991354350013900,8.515414306640626,0.7158598303180751,0.04953289034495621,-0.06215310098747235
1683991354360054200,8.52545458984375,0.7911955715595804,0.10425090786120532,-0.08031988130275791
1683991354370094600,8.535494873046876,0.9125891924097499,0.0857276916519864,-0.12055039412610516
1683991354380134800,8.54553515625,1.0262267589872411,0.1293840408495302,-0.027567267452812273
1683991354390175200,8.555575439453126,1.1054643392549575,0.1094799043607689,0.2297960519099891
1683991354400215600,8.565615966796875,1.2004563808246929,0.22977542882002522,0.4952189326862028
1683991354410255800,8.57565625,1.1704499723112658,0.30205440519528737,0.6389579773076632
1683991354420296100,8.585696533203125,1.0970377921502223,0.4633407592241871,0.5334167479795839
1683991354430336400,8.59573681640625,1.0267601012857888,0.5070009231757717,0.40752530089907246
1683991354440377000,8.60577734375,0.9358865618453176,0.5430631636892168,0.28469252599826256
1683991354450417300,8.615817626953126,0.7473568916664118,0.46785449981634203,0.1848399041608303
1683991354460457600,8.625858154296875,0.5243923665232997,0.29479408272339563,0.08730208874291968
1683991354470498000,8.6358984375,0.275358915223312,0.1571884154491278,0.0392365455853742
1683991354480538300,8.645938720703125,0.036730408727714624,0.08745574949624627,0.02426123623608343
1683991354490578600,8.65597900390625,-0.17000305653711534,0.07749748234857842,0.007550716338864278
1683991354500618900,8.666019287109375,-0.39637386785460804,0.09107494359039862,-0.02154207226317794
1683991354510659200,8.6760595703125,-0.5263324975963595,0.12794017791726264,-0.0734406709526006
1683991354520699600,8.686099853515625,-0.636569261493607,0.23472309121242202,-0.21789503085399806
1683991354530739900,8.696140380859376,-0.7391389609261566,0.28753662109351474,-0.4228209257824527
1683991354540780200,8.7061806640625,-0.7819147110783206,0.18326282512485217,-0.5904318094859689
1683991354550820600,8.716220947265626,-0.8055006267151444,0.15478706360884634,-0.7848651409165781
1683991354560860800,8.72626123046875,-0.8238232135746512,0.08642578107662739,-0.8734173776046719
1683991354570901200,8.736301513671876,-0.8984295129933682,0.07150077810625971,-0.8910287618932127
1683991354580941600,8.746341796875,-0.9332172870743773,0.1580343246500688,-0.7120170592511736
1683991354590982100,8.756382568359374,-1.0182926655654536,0.1556100846154163,-0.4071054456935049
1683991354601022400,8.7664228515625,-1.1006871462130727,0.03211402898241769,-0.06378757956360266
1683991354611062600,8.776463134765624,-1.1896374225009456,-0.1776504516819411,0.21937072274006464
1683991354621103000,8.78650341796875,-1.2368952034508311,-0.35574340811494254,0.43904983999630304
1683991354631143300,8.796543701171874,-1.2186244726509752,-0.39289283742679315,0.4551627636197496
1683991354641183600,8.806583984375,-1.1804054974807756,-0.3989696502389791,0.16005969053625554
1683991354651224000,8.816624267578124,-1.0562634468147218,-0.3916521073805025,0.14727580553304143
1683991354661264300,8.826664794921875,-0.874116778291276,-0.30600261689851327,0.3377230167493479
1683991354671304600,8.836705078125,-0.6872800589417541,-0.3734312056498962,0.44935560226038523
1683991354681344900,8.846745361328125,-0.5628632307263507,-0.383236885019105,0.41696226598650493
1683991354691385300,8.85678564453125,-0.4291955233098007,-0.3020296096960238,0.3740141391395112
1683991354701425600,8.866825927734375,-0.3340098856801763,-0.3353862762384739,0.23413419725006843
1683991354711465900,8.8768662109375,-0.29880487921566484,-0.3588380812470401,0.02606046186816275
1683991354721506600,8.886906982421875,-0.25479471678231713,-0.35342121113164826,-0.18946647642609088
1683991354731546800,8.896947265625,-0.19104087341102666,-0.328897476232374,-0.425359606741566
1683991354741587100,8.906987548828125,-0.10184323784920477,-0.3284215925932971,-0.6033378838134398
1683991354751627400,8.91702783203125,0.03510820851812982,-0.34490013125137625,-0.6687797308423087
1683991354761667800,8.927068115234375,0.1253231761964542,-0.3949556349057226,-0.6304730176941197
1683991354771708100,8.9371083984375,0.21118390577422624,-0.3374328612562475,-0.41951799400032574
1683991354781748400,8.947148681640625,0.24688148502016458,-0.09136867517745254,-0.277046322944484
1683991354791788600,8.957189208984374,0.22126412382886484,0.18748474123266065,0.05979132643441519
1683991354801829000,8.9672294921875,0.20259129992850503,0.37965774543000147,0.3266494274838768
1683991354811869400,8.977269775390624,0.23203492163523268,0.5022239684398343,0.4840826987176123
1683991354821909600,8.98731005859375,0.29481089119062254,0.4887285232954769,0.4930050968612715
1683991354831950000,8.997350341796874,0.34061551104053295,0.2917919159400947,0.3392912148443907
1683991354841990300,9.007390625,0.3864424229416313,0.06706428542073671,0.16188418867184498
1683991354852030600,9.01743115234375,0.36102628703122114,-0.0946941375482187,-0.027223944663003152
1683991354862071200,9.0274716796875,0.29617679126777474,-0.13905525210423558,-0.21917080889975799
1683991354872111600,9.037511962890624,0.20700979227687938,-0.14561653135206962,-0.36593151089378423
1683991354882151900,9.04755224609375,0.15972733504008388,-0.1618156432744399,-0.2905659675804579
1683991354892192200,9.057592529296874,0.09385049354437915,-0.11538124072958647,-0.19994401925007643
1683991354902232600,9.0676328125,0.05639457690608418,-0.09927749641548618,-0.17192661755104388
1683991354912272800,9.077673095703124,0.03487038604931755,-0.02764034274588283,-0.21902346601733588
1683991354922313100,9.087713623046875,0.005474686748317219,0.04792499532858327,-0.32053875934603515
1683991354932353500,9.09775390625,-0.06145977974861405,0.06339550034339643,-0.2036269903181767
1683991354942393800,9.107794189453124,-0.09859347345336672,0.08340740217622096,-0.17932295810736365
1683991354952434100,9.11783447265625,-0.16444969174873048,0.09359455119212207,-0.19641208661708642
1683991354962474400,9.127874755859375,-0.23690021032144035,0.11526775369334172,-0.17677164088987699
1683991354972515000,9.137915283203125,-0.31088459501375776,0.08474731440370652,-0.17822849764397597
1683991354982555100,9.14795556640625,-0.35319232947409956,0.06647014617236037,-0.2171397208117307
1683991354992595600,9.15799609375,-0.4111407994805001,0.04847240447411366,-0.24849903594032077
1683991355002636000,9.168036376953124,-0.4158101081311961,-0.0022344590455399905,-0.26557147502161443
1683991355012676300,9.17807666015625,-0.41726815711532,-0.045118331956362064,-0.3015067577291279
1683991355022716600,9.188116943359375,-0.37066352368529976,-0.21687221531121653,-0.3277804851246868
1683991355032756900,9.1981572265625,-0.34052109705537464,-0.06804275527284316,-0.3962218762499851
1683991355042797200,9.20819775390625,-0.3034173250323368,0.08070945723130757,-0.40780854213834694
1683991355052837600,9.218238037109376,-0.23836123949477073,0.06464004523240628,-0.44611024851351366
1683991355062877900,9.2282783203125,-0.1855865717923352,-0.01703453072913345,-0.46582067009831446
1683991355072918200,9.238318603515625,-0.1612653732253412,-0.08795166031125944,-0.48104846475540525
1683991355082958600,9.24835888671875,-0.1740232705563448,-0.14365291591552276,-0.4469219447251732
1683991355092999100,9.2583994140625,-0.24648559102094142,-0.1867446898848236,-0.3809869288939171
1683991355103039400,9.268439697265626,-0.3279954195602799,-0.09747123713789185,-0.3162558078683259
1683991355113079600,9.278480224609376,-0.37418138975133025,-0.06876182555874596,-0.2567867040442915
1683991355123120000,9.2885205078125,-0.4238744973071137,-0.1416654588031618,-0.2133648395484139
1683991355133160400,9.298560791015625,-0.46046423908021034,-0.19421863542722204,-0.22470831864389204
1683991355143200600,9.30860107421875,-0.48848628993022597,-0.1963224412875848,-0.3456803561529966
1683991355153241000,9.318641357421876,-0.47006833546287935,-0.17735385900289605,-0.41997551901238706
1683991355163281300,9.328681640625,-0.439026355724002,-0.1471090317327466,-0.43633520607298754
1683991355173321600,9.33872216796875,-0.3699798583717351,-0.08451366429020955,-0.44773590575035493
1683991355183362000,9.348762451171876,-0.2731974125491343,-0.018355369518482458,-0.47764849671144693
1683991355193402600,9.358802978515625,-0.17759954914452059,0.023002624549757458,-0.4593523740051043
1683991355203442600,9.368843017578126,-0.06948232647297971,0.06360435494599395,-0.41032910355830365
1683991355213483200,9.378883544921877,0.038847446344838304,0.09174346917409293,-0.35942196840072055
1683991355223523600,9.388923828125,0.10937178127716711,0.15007591249706437,-0.2738707065965384
1683991355233563800,9.398964111328125,0.18975496295787295,0.15807056428444838,-0.16372787955228663
1683991355243604100,9.409004638671876,0.2161491512342623,0.16602039332876342,-0.05768752097233898
1683991355253644500,9.419044921875,0.23408257957236334,0.1433963775094231,0.022760033628101632
1683991355263684800,9.429085205078126,0.20605301856009178,0.12369441977599036,0.10136246667928916
1683991355273725100,9.43912548828125,0.17752194408984848,0.09512138353745575,0.14974927901145785
1683991355283765400,9.449165771484376,0.1509722470687579,0.09311676032718054,0.15666091430674003
1683991355293805700,9.4592060546875,0.09096860879363913,0.08190727237741315,0.1912139655404256
1683991355303846100,9.46924658203125,0.07098710524629027,0.07341098783725665,0.1494204996995309
1683991355313886600,9.479287109375,0.06918263434196528,0.001632690488975989,0.17161953438950772
1683991355323927000,9.489327392578126,0.014554500642196318,0.03006744365786019,0.1272729634223676
1683991355333967300,9.49936767578125,0.01892113683323861,0.022819519049233735,0.09753251085971498
1683991355344007600,9.509407958984376,0.04130566115093379,0.015718460262378026,0.06612145889693416
1683991355354047900,9.5194482421875,0.05317211151247988,0.060421943669571085,0.017377614900775905
1683991355364088200,9.529488525390626,0.08512395612788225,0.0077352523354457916,-0.017564296822456228
1683991355374128600,9.539529052734377,0.11805260181536396,-0.07462310787553018,0.006936430984347534
1683991355384168900,9.5495693359375,0.12154126170146666,-0.14367675781623365,0.013721585379020355
1683991355394209200,9.559609619140623,0.11309492598539463,-0.1268558502764913,-0.047905445032523225
1683991355404249800,9.569650146484374,0.1093420980709732,-0.08695602429029631,-0.06748831271186331
1683991355414290100,9.5796904296875,0.07699269049127287,-0.036127090426358546,-0.09267723563443235
1683991355424330400,9.589730712890624,0.044386267571893484,-0.04039859769371002,-0.04589509975351962
1683991355434370700,9.599771240234375,0.020871341139585907,-0.06586265561146437,-0.013281464582099195
1683991355444411100,9.6098115234375,-0.024430155903743127,-0.06743621824267006,0.033684730580782196
1683991355454451400,9.619851806640623,-0.04877954723304961,0.05552959448989085,0.046493649637882384
1683991355464491600,9.62989208984375,-0.055090546707470864,-0.009733200013046818,0.1289669274725648
1683991355474532000,9.639932373046875,-0.0993449687659568,-0.04778480525766176,0.2814263105338866
1683991355484572300,9.64997265625,-0.12782472361092206,-0.12258720404513979,0.28036248697759397
1683991355494612600,9.660012939453123,-0.16802203645364197,-0.10430336000228728,0.27781438824758325
1683991355504653000,9.670053466796874,-0.1514062880822133,-0.06764888780162966,0.2632561921424124
1683991355514693300,9.68009375,-0.12898987535778658,-0.059948921224283906,0.3004211188332802
1683991355524733900,9.69013427734375,-0.10378372674388461,-0.06182098396264555,0.28002893931822426
1683991355534774200,9.700174560546875,-0.08103859414878561,-0.07779979700901479,0.2573480607181001
1683991355544814600,9.71021484375,-0.07999610915469775,-0.0793972015966899,0.2655698061406654
1683991355554854800,9.720255126953123,-0.08394181727037192,-0.08336067193628166,0.25500631318577555
1683991355564895200,9.730295654296874,-0.10222613799439377,-0.08964157120531344,0.23294949518693753
1683991355574935600,9.7403359375,-0.1412706971497795,-0.06994628908999367,0.21115374569107107
1683991355584975800,9.750376220703124,-0.1557302473374724,-0.06003952033446913,0.20612370969959476
1683991355595016100,9.76041650390625,-0.14833056916725754,0.0014486312877877684,0.2152274845197431
1683991355605056400,9.770456787109374,-0.14280420549993128,0.019448280263899397,0.21020770072243886
1683991355615097000,9.780497314453124,-0.1014047860554726,0.03937816603094707,0.20568954946292517
1683991355625137300,9.790537841796874,-0.05547916877375403,0.018833160370688405,0.17110991462215971
1683991355635177600,9.800578125,0.0021044612807568533,0.003237724452688667,0.1656448840610606
1683991355645218000,9.810618408203124,0.021730422949262456,0.006649970900338057,0.14396548290097672
1683991355655258300,9.82065869140625,0.08134341241211678,0.019370079043083452,0.11570012573182707
1683991355665298600,9.830698974609374,0.12341672185611338,0.05301094057504977,0.11643218979970114
1683991355675338900,9.8407392578125,0.14337527753313262,0.06723213197960769,0.10783648492853161
1683991355685379200,9.850779541015624,0.1576584577695363,0.10003280645388997,0.1207586525480612
1683991355695419600,9.860820068359375,0.18522033103459123,0.10163402566336369,0.129137277730608
1683991355705460100,9.870860595703125,0.1879331469415041,0.05370616907755326,0.12850403805078184
1683991355715500500,9.88090087890625,0.2086135448112587,-0.0499887465914284,0.12369096272741799
1683991355725540800,9.890941162109376,0.20683151470571495,-0.024904251204463514,0.1478006839554497
1683991355735581100,9.9009814453125,0.19446884079015378,-0.056755065898546855,0.20232117163636223
1683991355745621400,9.911021728515625,0.19025124605961594,-0.03390312200389354,0.2323157787026295
1683991355755661700,9.921062255859376,0.168123662465974,-0.025582313591292784,0.22671449178266712
1683991355765702100,9.9311025390625,0.13804517674671624,0.020209312440220357,0.193279266410471
1683991355775742400,9.941142822265626,0.10305388283025958,0.0016365051417800256,0.2263219357542012
1683991355785783000,9.951183349609376,0.07794676717598469,0.01160907738330606,0.2090662718737557
1683991355795823300,9.9612236328125,0.04878087344089547,0.04022026062648388,0.18005025389900417
1683991355805863600,9.971263916015625,0.02732698615246862,0.007128715678308437,0.16765296455933104
1683991355815903900,9.98130419921875,0.03195644916626076,0.009898185855970031,0.12922942641796908
1683991355825944200,9.9913447265625,-0.010803520711893692,0.012563705434809072,0.06791913518022026
1683991355835984600,10.001385009765626,-0.010697722502021046,-0.041386604374411703,-0.018141508238872436
1683991355846024900,10.01142529296875,-0.013397239187984104,-0.03331279750349153,-0.1072331666900891
1683991355856065200,10.021465576171876,-0.018760263905796846,-0.02310276026529188,-0.1381494999615317
1683991355866105600,10.031505859375,-0.04564069969649992,-0.010848045415614904,-0.14911520481630658
1683991355876145800,10.041546142578126,-0.07456824183160439,-0.00603103636107899,-0.16618108755590452
1683991355886186400,10.0515869140625,-0.14712513988979,-0.041277885496800316,-0.09895288935369301
1683991355896226700,10.061627197265626,-0.20753726364617295,-0.04995536823539592,-0.10450422766154678
1683991355906267100,10.07166748046875,-0.23465070122857193,-0.009038925192107456,-0.12212502955653914
1683991355916307400,10.081707763671876,-0.2644181251575588,0.0028839111327756684,-0.13690483575064513
1683991355926347600,10.091748046875,-0.2615255414816178,-0.008934021005149357,-0.09980213636814637
1683991355936388000,10.101788330078126,-0.21714596447069476,-0.03464603414144965,-0.09666252149981623
1683991355946428300,10.111828857421877,-0.14387020454582594,-0.0504531859288177,-0.1081975698057392
1683991355956468600,10.121869140625,-0.1058868617626644,-0.05656337727168473,-0.10090553761735115
1683991355966509000,10.131909423828125,-0.05095725874035357,-0.013073921344761947,-0.12953615185671527
1683991355976549600,10.141949951171876,-0.012727022162983357,0.0038137436300505674,-0.1743676663559421
1683991355986589900,10.151990234375,0.03681812436194631,0.04862880692051267,-0.19705390932995445
1683991355996630200,10.162030517578126,0.061923339780446514,0.0667228700685406,-0.18596220013347156
1683991356006670600,10.17207080078125,0.08601434538817629,0.07736778244104682,-0.16049230087767818
1683991356016710800,10.182111328125,0.08543321482339973,0.08543300635009891,-0.08821737775157959
1683991356026751200,10.192151611328123,0.07943093777910726,0.09329986570352553,-0.06402516361366126
1683991356036791500,10.20219189453125,0.08714760829735764,0.10569190979372954,-0.004769444528102885
1683991356046831800,10.212232177734377,0.1275294423938099,0.13432884228674632,0.03464341169064122
1683991356056872400,10.222272705078124,0.1721558571018032,0.13189983376703204,0.07550394542232898
1683991356066912600,10.23231298828125,0.25121784216874615,0.11535072322294193,0.10394883142310019
1683991356076953000,10.242353515625,0.3162602783123542,0.11315441129101428,0.1271637678324474
1683991356086993300,10.252393798828123,0.31990516181535067,0.14625167860622182,0.1592658759161243
1683991356097033600,10.26243408203125,0.3310777843487385,0.14575481404101973,0.20249319067846086
1683991356107074000,10.272474365234377,0.2909992933457474,0.08868598940622555,0.21186530590328026
1683991356117114300,10.2825146484375,0.2387203573491226,0.044271468982817315,0.2373436691034037
1683991356127154600,10.292554931640623,0.1959453225921566,0.019313812237886793,0.239057898579772
1683991356137195200,10.302595703125,0.1439719796482368,0.05829524982348161,0.25690937056108176
1683991356147235600,10.312635986328123,0.08323621750223699,0.11325740822023268,0.26575493812805384
1683991356157275800,10.32267626953125,0.0498560963761721,0.05685997002919456,0.16434133055330644
1683991356167316100,10.332716552734375,0.02262893318556389,-0.02676677701556404,0.007379293507839619
1683991356177356500,10.3427568359375,0.03239160763078101,-0.045405387988410144,-0.043533206105979876
1683991356187396800,10.352797119140623,0.06685483450327924,-0.10370922089339289,-0.16203320012430533
1683991356197437100,10.36283740234375,0.11382979147903487,-0.18227958671377095,-0.2802882196052877
1683991356207477400,10.3728779296875,0.18201017382077445,-0.16074848164856792,-0.3581832646728365
1683991356217518000,10.38291845703125,0.22794079790247823,-0.10675239578182447,-0.38456130027748175
1683991356227558300,10.392958740234375,0.22342956072130868,0.021528244124809935,-0.36266088481485903
1683991356237598600,10.4029990234375,0.2586403488124549,0.04863166815386822,-0.3497589826332306
1683991356247639000,10.413039306640623,0.24827700837893643,0.07278442381000423,-0.32465636720236046
1683991356257679300,10.42307958984375,0.2785059810680855,0.07525920873345646,-0.31117665757402896
1683991356267719600,10.4331201171875,0.27602946746639667,0.040012359688729765,-0.23884725569367585
1683991356277759900,10.443160400390624,0.29782998567324387,0.010115623363946637,-0.21982932085360377
1683991356287800200,10.45320068359375,0.27967244397185514,0.032506942833468576,-0.19169783593169193
1683991356297840800,10.4632412109375,0.25498968344463635,0.009778976303865842,-0.11459898945088201
1683991356307881100,10.473281494140624,0.22155600793515656,-0.02430438986984322,-0.05796337134633514
1683991356317921500,10.48332177734375,0.19868952028120984,-0.024773597666602552,-0.016914606037425672
1683991356327961800,10.493362060546875,0.18663161984780194,0.0007829666506825726,-0.02175724510049185
1683991356338002100,10.503402587890625,0.20653390900005203,0.002458572381638611,-0.012468814909810253
1683991356348042400,10.51344287109375,0.22977882612256287,-0.016947746161954717,-0.017772555412356693
1683991356358082700,10.523483154296876,0.2893031834941645,0.01587677000350006,0.031064152631920295
1683991356368123300,10.533523681640624,0.36539477125946346,-0.003494262702976369,0.04801368724706657
1683991356378163600,10.54356396484375,0.4267206787458013,-0.029491424558999505,0.04531085488203436
1683991356388204000,10.553604248046875,0.4520082472453094,-0.04555129994999165,0.07740199582522542
1683991356398244300,10.563644775390625,0.4931675791371886,-0.023652076743503912,0.11556065079372649
1683991356408284600,10.57368505859375,0.48383319378347917,-0.027936935337355764,0.12619590764021585
1683991356418324900,10.583725341796876,0.49294888970943035,0.003165245096978372,0.12902343277745632
1683991356428365200,10.593765625,0.47088021034806005,0.0031452179701386496,0.1571815014468715
1683991356438405600,10.603805908203125,0.4462753534173126,-0.0580520631154679,0.19810545441208258
1683991356448446100,10.613846435546876,0.4079728124650136,-0.08047199239368415,0.17622137063921028
1683991356458486400,10.623886962890625,0.35426199442364825,-0.08828830733245144,0.1940226555994818
1683991356468526800,10.63392724609375,0.3326551914231068,-0.08642101298247655,0.20834565158573945
1683991356478567100,10.643967529296877,0.2866002321072157,-0.10555076593573667,0.17660039650078677
1683991356488607400,10.6540078125,0.25715672967559877,-0.1476678849211918,0.13767993441239892
1683991356498647700,10.664048095703125,0.2724947930752733,-0.10408687594285368,0.11538481727450002
1683991356508688000,10.67408837890625,0.32247889038774624,-0.056264877423717906,0.07168519498622486
1683991356518728600,10.68412890625,0.3852269649173232,-0.016060829202514892,0.06584966190998098
1683991356528768900,10.69416943359375,0.4086315633205171,0.011892318584035211,0.04346239559154388
1683991356538809300,10.704209716796877,0.4776949884040872,0.02062606818567125,0.012442588875655178
1683991356548849600,10.71425,0.5179039239550743,0.03389167777644579,0.02499878400062082
1683991356558889900,10.724290283203125,0.5525575876514764,0.09625053388165296,0.02870404717141294
1683991356568930200,10.73433056640625,0.5320861339523287,0.12446403514124735,0.05437731751399908
1683991356578970600,10.744370849609377,0.50963330271348,0.13092327127653003,0.10632032166187876
1683991356589010900,10.754411376953126,0.49720907203558873,0.1396141052412627,0.1317996382070766
1683991356599051400,10.764451904296877,0.46869909769047796,0.09868907937829052,0.15255671728398637
1683991356609091800,10.7744921875,0.4546419381220874,0.0960197448893815,0.15477961311367944
1683991356619132100,10.784532470703123,0.44716727732076056,0.06262397763071635,0.21652567371308615
1683991356629172400,10.79457275390625,0.4151886701910857,-0.015125274768704325,0.2517902851912548
1683991356639212600,10.804613037109377,0.3806014059287897,0.03538894645854816,0.2658359408306065
1683991356649253000,10.8146533203125,0.3485295773021526,0.037856102049648094,0.27793735259795743
1683991356659293400,10.82469384765625,0.32865715032785914,0.042522430515687805,0.24137640015173664
1683991356669333900,10.834734375,0.31870746608165984,0.04936409002538741,0.2372562885591634
1683991356679374300,10.844774658203123,0.28077566627584805,0.04656791677396036,0.17553615573379422
1683991356689414600,10.85481494140625,0.2765043972380177,0.04135704033742954,0.12079572677985916
1683991356699454900,10.864855224609377,0.2696876526493116,0.11141967777636705,0.09172421691723234
1683991356709495200,10.8748955078125,0.25739002215699824,0.12593555455412697,0.07154268033988183
1683991356719535600,10.88493603515625,0.22526812554527878,0.09992408752357987,0.03175485143111594
1683991356729575900,10.894976318359374,0.19680750366393113,0.055198669387468015,0.017426908033371852
1683991356739616400,10.905016845703123,0.16716384880538032,0.027381896954784997,-0.00963163359902827
1683991356749656800,10.91505712890625,0.10802543152267291,-0.016791343622272095,0.014421165087007541
1683991356759697100,10.925097412109375,0.03190815436591604,-0.05346202860604319,0.05560582876563521
1683991356769737400,10.9351376953125,-0.03477656841815847,-0.08505535141940083,0.06390506033555615
1683991356779777600,10.94517822265625,-0.12474536899862006,-0.12104129802809521,0.13415861121777156
1683991356789818000,10.955218505859374,-0.23475658900841534,-0.14950752268321216,0.1499642729751881
1683991356799858400,10.9652587890625,-0.317061066540117,-0.1705102919923147,0.2155169249047464
1683991356809898900,10.97529931640625,-0.41437363632707264,-0.19353675853350286,0.3155201078127062
1683991356819939200,10.985339599609375,-0.5238870383228271,-0.20202064517843527,0.38558292381076126
1683991356829979600,10.9953798828125,-0.6353155970486515,-0.1890420913525034,0.46847546097831344
1683991356840019900,11.005420166015623,-0.7544174195688064,-0.13359355919907895,0.5262821912796376
1683991356850060200,11.015460693359374,-0.8188269733184654,-0.1539363861557118,0.5827386380427412
1683991356860100600,11.0255009765625,-0.849603831785818,-0.1285934448875281,0.6258912086736333
1683991356870140800,11.035541259765624,-0.7998421788490253,-0.14068698891344672,0.6159672140197789
1683991356880181400,11.045581787109375,-0.6573207974609664,-0.17552947986004838,0.5747056604515908
1683991356890221700,11.0556220703125,-0.5188509227219786,-0.10342407233641725,0.5521904230229501
1683991356900262100,11.065662353515624,-0.3737688064082653,-0.018119811967936293,0.5010129211796849
1683991356910302400,11.075702880859374,-0.2161702514400183,-0.016499519490045945,0.5017565489163365
1683991356920342600,11.0857431640625,-0.07778167732276127,-0.024301528911589265,0.4571265279921251
1683991356930383000,11.095783447265624,0.03878319262268164,-0.09084320077479635,0.41941159958329893
1683991356940423300,11.10582373046875,0.1264853477918984,-0.15401649470370413,0.3725155591752005
1683991356950463900,11.1158642578125,0.1809585093855789,-0.21390533448514493,0.36855107554979644
1683991356960504200,11.125904541015624,0.20980679988420656,-0.16460418691566833,0.35247009982002875
1683991356970544600,11.135945068359376,0.24641442291307697,-0.07146835321069608,0.3595483303526149
1683991356980584900,11.1459853515625,0.2437262535840097,-0.08357810979886134,0.30756425847578206
1683991356990625200,11.156025634765625,0.24267637729052313,-0.07676506038859096,0.252018451722633
1683991357000665800,11.166066162109376,0.26252961156837856,-0.06305503833023068,0.20937281853868459
1683991357010705800,11.176106201171876,0.25822663293056247,-0.04724693284504372,0.17677849534621143
1683991357020746400,11.186146728515626,0.2467547654212442,-0.04113292703735999,0.09755522005478719
1683991357030786700,11.196187255859376,0.25659728059816467,0.026089668252034903,0.08783704047857824
1683991357040827100,11.2062275390625,0.23558366312243323,0.056881904596526305,0.08046388613343737
1683991357050867400,11.216267822265625,0.24069678785921073,0.04952049248692402,0.063355743925307
1683991357060907600,11.22630810546875,0.2247481346057628,0.03527832023540078,0.04612648497089437
1683991357070948300,11.2363486328125,0.2350037097301084,0.035426139889889983,0.035967946021455824
1683991357080988600,11.246388916015626,0.22153556356268805,0.04500293742133758,0.049307584900855135
1683991357091028900,11.25642919921875,0.22438490392783783,0.026133537249142996,-0.003549397177586289
1683991357101069200,11.2664697265625,0.22193372255274987,0.045172691502325245,-0.008299112354588373
1683991357111109600,11.276510009765625,0.19050216676560489,0.05202770234973332,-0.026942491585173818
1683991357121149900,11.28655029296875,0.15192866324408685,0.02100849137334644,-0.02847421156835221
1683991357131190200,11.296590576171877,0.08269727229263672,-0.03316974636020403,-0.05993849049203643
1683991357141230800,11.306631103515626,0.021027445855270905,-0.06068325043650886,-0.09723502407953764
1683991357151271100,11.31667138671875,-0.056580424491294835,-0.08551025386456507,-0.11900806423179883
1683991357161311400,11.3267119140625,-0.1590489148151314,-0.06529140485956549,-0.11849707359174468
1683991357171351700,11.336752197265625,-0.259809434337324,-0.050160408021461614,-0.0987399817442483
1683991357181392000,11.34679248046875,-0.3392136097577886,-0.05877780908666539,-0.11658084395359959
1683991357191432400,11.356832763671877,-0.40628033893795096,-0.01769065866790821,-0.11729627847021584
1683991357201472900,11.366873291015626,-0.4490018486439047,-0.06423759470401375,-0.11289137597982404
1683991357211513300,11.37691357421875,-0.42545986171583805,-0.05570507048103774,-0.08241921653118504
1683991357221553600,11.3869541015625,-0.4078091381339235,-0.004822731013563868,-0.05463492870456395
1683991357231593900,11.396994384765623,-0.3705401419128154,0.0005464553929685755,-0.03657102580747158
1683991357241634200,11.40703466796875,-0.31911516185851524,-0.03890895832374016,-0.013722598737101868
1683991357251674600,11.417074951171877,-0.2939481736131257,-0.014168739354902489,0.002136886065174268
1683991357261714900,11.427115234375,-0.22897917023873468,-0.08170318598442518,0.01576656099495707
1683991357271755400,11.43715576171875,-0.16485565911056566,-0.11285877242240862,0.024984419364791146
1683991357281795800,11.447196044921874,-0.09191536893923913,-0.13408660885807555,0.0742782353317405
1683991357291836100,11.457236572265623,-0.05029535287646876,-0.09373378750047902,0.10390001524061483
1683991357301876400,11.46727685546875,0.016726493833813146,-0.11058902734148887,0.09796208149841416
1683991357311916600,11.477317138671877,0.07573372132019185,-0.108370780955977,0.13240891700945803
1683991357321957000,11.487357421875,0.10355603683832137,-0.16737651811997134,0.1943869590509967
1683991357331997600,11.49739794921875,0.1434249283158156,-0.2205858230930183,0.21698117253060342
1683991357342037900,11.507438232421874,0.16648983952527188,-0.19517421725055997,0.18698680397855616
1683991357352078300,11.517478759765623,0.1868769527209765,-0.01950073234647566,0.18301427368330703
1683991357362118600,11.52751904296875,0.19286584856975597,0.04023838041832788,0.15779340280598167
1683991357372158900,11.537559326171875,0.21731901171211385,0.06361007694679403,0.14255958793862128
1683991357382199500,11.547599853515624,0.23152214289852197,0.03706932064226563,0.13964533788014227
1683991357392239800,11.55764013671875,0.2285993695419067,-0.055011749336426365,0.11808973554247289
1683991357402280100,11.567680419921874,0.20185929518244922,-0.06794738763057803,0.09487408392785346
1683991357412320400,11.577720947265624,0.20851540583875255,-0.11374187475806241,0.04935991759509628
1683991357422360800,11.58776123046875,0.20364624268083054,-0.10470581059905931,0.0759738088667229
1683991357432401100,11.597801513671875,0.21116089821128475,-0.032286643901963924,0.12605929373499858
1683991357442441600,11.607842041015624,0.20476955182775172,-0.015252113532109436,0.1520047784359006
1683991357452482000,11.61788232421875,0.1938001513179608,-0.005623817365041936,0.2013677358939047
1683991357462522300,11.627922607421874,0.1551136970629129,-0.08800888072574037,0.264330327535099
1683991357472562600,11.637962890625,0.13429081444838087,-0.15021228789842914,0.33130294073433997
1683991357482602900,11.64800341796875,0.14079463498216815,-0.11248970018154095,0.380829989766242
1683991357492643200,11.658043701171875,0.11798375849615912,-0.08005809782948757,0.417750954667204
1683991357502683800,11.668084228515625,0.09933799506916254,-0.07169055943637719,0.35063558807515993
1683991357512724100,11.67812451171875,0.12469947341789957,-0.03992557529550528,0.28723257787668227
1683991357522764500,11.688164794921876,0.160087227870399,0.026597023135589398,0.23449718938001
1683991357532804800,11.698205078125,0.19781750437023016,0.011956215010290972,0.15657502415543634
1683991357542845100,11.70824560546875,0.24659371359958154,0.011653900136699874,0.09614026540573199
1683991357552885400,11.718285888671875,0.2820319832006537,0.006609916636650731,0.017434239254784576
1683991357562926000,11.728326416015625,0.2876122296159598,0.008649826029071807,-0.06496262556831921
1683991357572966300,11.73836669921875,0.29706004258394264,0.024753570534153408,-0.10640525810304517
1683991357583006600,11.748406982421876,0.29186338190126854,-0.011198997630841985,-0.10060679921216586
1683991357593047000,11.758447265625,0.2964468300330712,-0.051218032904934,-0.1190892458577343
1683991357603087300,11.76848779296875,0.31361165640568595,-0.07405662539425269,-0.08352196201829976
1683991357613127900,11.7785283203125,0.3341156839239244,-0.12947177884711653,-0.027423977924872816
1683991357623168200,11.788568603515625,0.3675944804512167,-0.13449382777565194,0.03925991051472954
1683991357633208600,11.79860888671875,0.4256324469775246,-0.1111841203190593,0.09770071506898886
1683991357643248800,11.808649169921877,0.5002960563382725,-0.07889556881821354,0.1129676103042346
1683991357653289100,11.818689453125,0.5977379083684946,-0.04019451133623285,0.13790845864820675
1683991357663329500,11.828729736328125,0.6885300278171954,0.0024518966034826344,0.15344178691235388
1683991357673370000,11.8387705078125,0.76230347162489,0.07730293281665447,0.1990170479492983
1683991357683410400,11.848810791015625,0.7663918136307154,0.20740127575744022,0.17488718039278203
1683991357693450600,11.85885107421875,0.7196815013552583,0.3753356933744967,0.11522364613119117
1683991357703491000,11.868891357421877,0.6158130169806864,0.5052156449353106,0.05774259575964692
1683991357713531300,11.878931640625,0.46838086830280723,0.5600824355896545,-0.04032659534803515
1683991357723571600,11.888971923828125,0.3002164961534318,0.6400728225572333,-0.19942116743702806
1683991357733612200,11.8990126953125,0.147968962833048,0.5987796782730581,-0.274561405057422
1683991357743652600,11.909052978515623,0.03307473662519267,0.5677099226660269,-0.35655128953174553
1683991357753692800,11.91909326171875,-0.05185276268800326,0.46660804740702566,-0.4755296705943597
1683991357763733200,11.929133544921877,-0.1352880150437187,0.3930759429849653,-0.5925066472497595
1683991357773773600,11.939173828125,-0.23791430884179665,0.3865861892830382,-0.6762135027463023
1683991357783813800,11.949214111328123,-0.2768934369094691,0.3141517637753356,-0.7081373929632878
1683991357793854400,11.9592548828125,-0.31906980275151675,0.18857288370784128,-0.7663669585622134
1683991357803894600,11.969295166015623,-0.3550369142688758,0.1329908370769412,-0.7645957470054583
1683991357813935000,11.97933544921875,-0.40399402380184074,0.05907821659157088,-0.6635463238813947
1683991357823975300,11.989375732421877,-0.4374440908572667,-0.0114498139578261,-0.5136294365349702
1683991357834015600,11.999416015625,-0.4743341207987474,-0.07628250111322228,-0.4829517604251446
1683991357844056200,12.00945654296875,-0.5546227098739368,-0.13562488546683002,-0.5405994654002231
1683991357854096600,12.0194970703125,-0.6158697009609267,-0.14484024038744267,-0.4379999637343949
1683991357864136900,12.029537353515623,-0.6742378473260635,-0.14680957803108494,-0.3576850891322112
1683991357874177200,12.03957763671875,-0.6988185047074388,-0.09642410281762621,-0.2721482515398638
1683991357884217600,12.049617919921875,-0.7202308177256754,0.018073081932131006,-0.2767525912501204
1683991357894257800,12.059658203125,-0.6527380943478256,0.005752563661555965,-0.08667266367052691
1683991357904298400,12.06969873046875,-0.5878269076923961,0.010512352094911007,0.023455619745818237
1683991357914338700,12.0797392578125,-0.5424946545756565,0.017933845392635407,-0.00800061225709943
1683991357924379100,12.089779541015623,-0.49289357677823986,0.06605625141606306,-0.014939665650210893
1683991357934419400,12.09981982421875,-0.49920424818104037,0.11402893079247016,-0.07769644267185946
1683991357944459600,12.109860107421875,-0.5466747285025811,0.16404151915751186,-0.17115890968615258
1683991357954500300,12.119900634765624,-0.5566048623025914,0.1374406814043452,-0.1912654637059242
1683991357964540600,12.12994091796875,-0.5963298679392041,0.08226490013898098,-0.2891849279965125
1683991357974580900,12.139981201171874,-0.5898243187859944,0.015220642087107642,-0.342379450676929
1683991357984621200,12.150021728515624,-0.525569796448436,-0.08049964903916255,-0.4074772597759611
1683991357994661600,12.16006201171875,-0.48244601494964895,-0.1379785537933978,-0.37693774710905453
1683991358004702100,12.1701025390625,-0.46980494255254623,-0.2122678757099906,-0.4132907389073245
1683991358014742400,12.180142822265625,-0.42316937443758584,-0.22229576114865393,-0.5368803739381078
1683991358024782800,12.19018310546875,-0.3595991729485512,-0.2924003601000456,-0.5707443951923413
1683991358034823100,12.200223388671876,-0.2915879489399186,-0.34843444823958253,-0.6985950470909941
1683991358044863400,12.210263916015624,-0.21240651610129194,-0.3904485701447449,-0.7813997269762338
1683991358054903600,12.22030419921875,-0.17045217745611602,-0.4470262526793703,-0.8148396015663083
1683991358064944300,12.2303447265625,-0.10440796618348248,-0.4869279861814372,-0.894960641957511
1683991358074984600,12.240385009765625,-0.10340917117601832,-0.46949195870517263,-0.9596846104966862
1683991358085024900,12.25042529296875,-0.13870596882478473,-0.42096519465016297,-0.9787560702011707
1683991358095065300,12.260465576171876,-0.17667788271750953,-0.37948703752789376,-0.9745057821133108
1683991358105105600,12.270506103515626,-0.26675927646473424,-0.26139354705541645,-0.9953442812556859
1683991358115146200,12.280546630859376,-0.46000355491857714,-0.13850212088490702,-0.9297443627076567
1683991358125186600,12.2905869140625,-0.6998745203823749,-0.039413452155427076,-0.8267965316145737
1683991358135226800,12.300627197265625,-0.904028534876186,0.03834247580738874,-0.6396161318156299
1683991358145267100,12.31066748046875,-1.088787198000225,0.19002342232464525,-0.4386492967497395
1683991358155307400,12.320707763671876,-1.2608366012916021,0.27635288224418336,-0.2522181272263268
1683991358165348000,12.33074853515625,-1.3914134503762763,0.27826690683829863,0.025185823532123962
1683991358175388300,12.340788818359377,-1.48067176339784,0.2368164062429368,0.33212232576256856
1683991358185428600,12.3508291015625,-1.4288508890688507,0.19055080428550472,0.5526642800130095
1683991358195469000,12.360869384765625,-1.2446163893034863,0.046651840171920894,0.6907870769126077
1683991358205509300,12.37090966796875,-1.0042252539688854,-0.07732772812831533,0.8037645816764228
