time,seconds_elapsed,z,y,x
1683999756018338200,0.035738525390625,-7.265064040568385e-11,-9.965100357261698e-11,1.4044855354059334e-11
1683999756028379600,0.045780029296875,0.6203432084638059,0.06381463996428788,0.030147552359943812
1683999756038420900,0.0558212890625,0.8659324646263058,0.266735076914914,-0.18121910090436816
1683999756048462300,0.065862548828125,0.668835639812602,0.45880973330684255,-0.5781679151936044
1683999756058503600,0.075904052734375,0.39918327328767284,0.7272269726641253,-1.11148071290953
1683999756068545200,0.085945556640625,0.3154678344447569,1.3146944046767077,-1.721750736203472
1683999756078586600,0.095987060546875,-0.09941864019506191,0.26730507606913684,-1.2724156380541933
1683999756088627900,0.1060283203125,-0.17997264866706922,-0.5064684152008122,-0.3569650650606064
1683999756098669200,0.116069580078125,0.11294078831905789,-0.7085759043276885,0.406127929787084
1683999756108710600,0.126111083984375,-0.29990768426665576,-1.1792136430277806,0.6275439261741536
1683999756118751900,0.13615234375,-1.04554986969446,-1.8130618334231212,0.8034691810598811
1683999756128793300,0.146193603515625,-1.034951686926862,-1.3583577872558903,0.9479269982855599
1683999756138834900,0.1562353515625,-1.0986371040508376,-0.1669865846244358,0.9977140427953678
1683999756148876200,0.166276611328125,-0.9034972189808664,0.4626411199122764,0.5955638886029168
1683999756158917600,0.17631787109375,-0.773651599765832,-0.3194707633348045,2.164195060639598
1683999756168958900,0.186359375,-1.2000544071736883,-0.12836813934269042,2.792722702082716
1683999756179000200,0.196400634765625,-1.310084819727906,0.8030289412311509,1.4731492996547253
1683999756189041600,0.20644189453125,-2.083822488849405,1.0512555838810531,0.8426485062610881
1683999756199083200,0.216483642578125,-2.9695668221585168,-0.05521476261915337,0.9120473860636352
1683999756209124600,0.22652490234375,-4.070644855505164,-1.1827732324588849,1.773659706175433
1683999756219165900,0.236566162109375,-3.8368396759274246,-0.33749794959287993,2.4032535554321814
1683999756229207200,0.246607666015625,-3.9784357547124736,0.38575911524896334,1.9025726316875902
1683999756239248600,0.25664892578125,-5.183113098023771,0.2991249561280123,1.9396715164819962
1683999756249289900,0.266690185546875,-6.5716624260161245,0.46296763422886794,2.0008020401510964
1683999756259331200,0.276731689453125,-5.307571411162628,0.6556220651667911,1.5276699066402804
1683999756269372800,0.286773193359375,-2.3085951806111615,0.176265239699634,0.7154521943097291
1683999756279414200,0.296814697265625,-0.19049668310279758,-0.24380981928776677,1.5096235275223453
1683999756289455600,0.30685595703125,1.4152362346971925,-0.13754057893978483,0.4456939697060665
1683999756299496900,0.316897216796875,1.8401974440190743,-0.4055377245085842,-2.75440120683736
1683999756309538200,0.326938720703125,1.467975854994647,-0.8752491474075111,-4.4245343209738195
1683999756319579600,0.33697998046875,1.089626789003353,-0.6514968871540843,-4.645203113417681
1683999756329621200,0.347021484375,0.5840609072195608,-0.271483540556256,-4.149671554548777
1683999756339662600,0.35706298828125,0.3407700060340614,-0.8609991072138581,-3.295761108276971
1683999756349703900,0.367104248046875,0.5041691066614158,-1.8709722757178224,-2.6869735718561403
1683999756359745200,0.3771455078125,0.6660319567185009,-2.134153842865296,-1.5772924422679007
1683999756369786600,0.38718701171875,0.49740982041471493,-1.859258532500367,-0.6606168746484202
1683999756379827900,0.397228271484375,0.3802268504206675,-1.7894556522022385,0.42588996897841597
1683999756389869600,0.407269775390625,-0.04844069483797333,-1.135955810569271,0.6197652817993424
1683999756399910800,0.417311279296875,-0.5775167940928826,-0.5025875569034493,0.1914386749037638
1683999756409952200,0.4273525390625,-0.19925451284999499,-0.9514962435633908,-0.14053153986341388
1683999756419993600,0.437393798828125,0.6087994574414275,-0.142716646328561,-1.5946559907846436
1683999756430034900,0.447435302734375,1.13239789008228,0.1833068133700657,-2.3149623870459863
1683999756440076200,0.4574765625,2.655012369190623,0.2988759278752551,-2.7447161674782676
1683999756450117600,0.46751806640625,3.4124190805786,-1.4533450603684237,-2.771234989062192
1683999756460159200,0.4775595703125,4.121994495503514,-0.3892261982351124,-3.847338676461963
1683999756470200600,0.487600830078125,3.764113903174901,-0.8082339763205179,-3.351202964860595
1683999756480241800,0.497642333984375,3.5471112728659917,-1.0815057753750068,-2.439225196875169
1683999756490283200,0.50768359375,2.997622728371341,-1.336135864357851,-1.5747156141909828
1683999756500324600,0.517724853515625,2.2917032242336575,-1.471738815344049,-0.5577697753869428
1683999756510365900,0.527766357421875,1.7588012217740967,-1.7625665663518084,0.9942054748907003
1683999756520407600,0.537807861328125,1.7247300147837914,-0.833603381978463,0.6814441681259187
1683999756530448800,0.54784912109375,0.8438169957962787,-1.4256186483846722,-0.8057513235748195
1683999756540490200,0.557890625,-0.058352232063690036,-1.0070796013034855,-3.735213756506615
1683999756550531600,0.567931884765625,-0.7216207981316642,-3.6199326514529386,-1.9231214521637692
1683999756560572800,0.57797314453125,-0.13369154914614775,-2.099286079515079,-1.907788276640602
1683999756570614200,0.5880146484375,-1.602463007041084,-2.750452756956744,-0.45873928075485243
1683999756580655800,0.59805615234375,-4.6394600868408915,-3.3073339461660725,0.4418983457973074
1683999756590697100,0.60809765625,-8.3131742477706,-3.078423023265797,3.7320199011955193
1683999756600738600,0.618138916015625,-7.090703010440611,-1.8453350067783396,6.953760147167642
1683999756610779800,0.62818017578125,-2.0214502810739656,-0.2735538481377903,7.435032844555124
1683999756620821200,0.6382216796875,1.3960561751067484,-1.0565791130808935,5.245418548644637
1683999756630862600,0.648262939453125,-0.47031140326814924,-0.19690465934073068,2.3563184739018017
1683999756640904100,0.658304443359375,-2.2102997302324154,-1.675878047859886,1.9805984498130025
1683999756650945500,0.668345947265625,-0.0013513565267146393,-4.563173770848924,3.0674934388405464
1683999756660986800,0.67838720703125,-0.3428320885739514,-4.126680374111561,3.8544197082419713
1683999756671028100,0.688428466796875,0.14918398857001286,-3.305388927340506,4.424521446416912
1683999756681069600,0.698469970703125,1.533297419676822,-1.405027389508582,3.5488433837515854
1683999756691110800,0.70851123046875,2.567833423667294,0.3220410346208021,1.481657981733221
1683999756701152200,0.718552490234375,2.6472916604123657,0.5449957846499597,0.6199522018975013
1683999756711193800,0.72859423828125,2.607577800769658,-0.3414258957205966,-0.0980167389148521
1683999756721235100,0.738635498046875,2.229946851775744,-0.9953699112796617,-0.48239612581476365
1683999756731276500,0.7486767578125,1.7565205097521093,-0.49755525576630355,-0.747484207083303
1683999756741317800,0.75871826171875,1.540271758952384,-0.08989000334247048,-0.9726419449213277
1683999756751359200,0.768759521484375,1.4857442378883325,-0.04901075368147698,-1.3759613037480354
1683999756761400800,0.77880126953125,1.5577175617092043,-0.7384462355976977,-1.4561300276540425
1683999756771442100,0.788842529296875,1.7084797620020686,-1.124178886449379,-1.362040996486173
1683999756781483400,0.7988837890625,2.2159032821694713,-1.262504100802637,-1.4236345290414905
1683999756791524800,0.80892529296875,2.59657597530597,-0.9513607023596753,-1.7486891746437567
1683999756801566100,0.818966552734375,2.7499508858460704,-0.4448561668312267,-2.022628307217147
1683999756811607700,0.829008056640625,2.6040334702283565,-0.17999124510913023,-2.2165322303617234
1683999756821649100,0.839049560546875,2.4848084449842305,-0.08536005002943607,-2.225793361806031
1683999756831690400,0.8490908203125,2.5209491252644134,-0.20887422562774197,-2.0511341095545865
1683999756841731800,0.859132080078125,2.681380748719524,-0.6039791108979122,-1.9414196014571754
1683999756851773100,0.869173583984375,2.6679840088873443,-0.9249339103622275,-2.2381730078145794
1683999756861814400,0.87921484375,2.7899603843551675,-0.6458630560923622,-2.4303488731345837
1683999756871855800,0.889256103515625,2.896307945282471,0.25328493130148405,-2.3680472374221866
1683999756881897400,0.8992978515625,2.606921195939409,0.8680248260425931,-2.331573009432732
1683999756891938700,0.909339111328125,1.393223881637264,0.7929997443987458,-1.8625984192551515
1683999756901980100,0.91938037109375,0.14821577062256747,0.32233047477309285,-1.138671875014509
1683999756912021400,0.929421875,-1.0093711615680145,1.1663393973888383,-0.18409967415624628
1683999756922062800,0.939463134765625,-1.4338086844637905,0.454602718371129,0.6314554215733746
1683999756932104100,0.94950439453125,-1.0147223472419862,-0.2731738090342003,1.452603340036374
1683999756942145600,0.959546142578125,-0.547673582966647,-0.4510040284012315,1.5682616233109423
1683999756952187100,0.96958740234375,0.1206445694578183,1.2815465925840441,0.5834445951674014
1683999756962228400,0.97962890625,1.181382417649162,0.17449903478331352,-0.08817625057861483
1683999756972269700,0.989670166015625,1.2358633279365951,2.466087341444024,-1.0307431221803793
1683999756982311100,0.99971142578125,1.2789031267378044,0.6495342256008697,-0.6138472557534312
1683999756992352400,1.0097529296875,0.9872246385794687,0.9742012023558304,-0.1413106920178892
1683999757002394000,1.01979443359375,0.9895107149452174,0.46811914440013447,0.07719707486146968
1683999757012435400,1.029835693359375,1.1676360369172325,0.13762950900667176,0.37447452554344146
1683999757022476600,1.039877197265625,1.2194813490348657,0.38623905188480173,0.2272357941533388
1683999757032518100,1.04991845703125,1.0613330602318467,0.5487704277647796,0.2499508857769546
1683999757042559400,1.059959716796875,1.0030164718623034,0.8302359581761635,0.6384334562834071
1683999757052601000,1.07000146484375,1.1199221611252679,0.8559408187812588,1.0324258803922024
1683999757062642400,1.080042724609375,1.2264364957231837,0.28559255602540506,1.6923274993381274
1683999757072683600,1.090083984375,0.9589187503439635,0.08113384252618754,1.9142155646810628
1683999757082725000,1.10012548828125,0.4973873495408502,0.15085315711969918,1.4475326538365212
1683999757092766400,1.110166748046875,0.23346304893842068,0.009759902830815417,0.7871789931750888
1683999757102807700,1.1202080078125,0.3141574263913977,-0.4697575569023565,0.15375137324282087
1683999757112849300,1.130249755859375,0.3177500961293224,-1.071167945789333,-0.3033614160460674
1683999757122890600,1.140291015625,0.2710538508034339,-1.844776153656267,-0.790697097700004
1683999757132932000,1.15033251953125,0.6674258708535336,-1.826756477449217,-1.0521287918346787
1683999757142973400,1.160373779296875,0.6704306007688823,-0.9749951362282328,-0.9540133476690305
1683999757153014600,1.1704150390625,1.0602877140150018,-0.02495241160908778,-0.1337118148039933
1683999757163056300,1.180456787109375,0.8109278678122381,2.098147869137858,-0.5365018845800611
1683999757173097600,1.190498046875,0.37505567085960567,2.2991762161144464,0.4081931114319415
1683999757183139000,1.200539306640625,-0.09570705891877324,2.8544301986987066,0.9388384818988754
1683999757193180300,1.210580810546875,0.015484452263500998,1.3103208542487783,1.7783570289799986
1683999757203221600,1.2206220703125,0.37743458156142756,0.054680824285413876,1.8530001639976603
1683999757213263000,1.230663330078125,1.1953008175412425,1.6194534301250592,0.4515967369802411
1683999757223304600,1.240705078125,1.0490785837531644,0.8832006454544837,0.12479877485628467
1683999757233346000,1.250746337890625,0.6955214739598824,0.25771093355240593,0.26070117948609245
1683999757243387300,1.26078759765625,0.3299193977976954,-0.19289064395697067,0.41190958013153983
1683999757253428600,1.2708291015625,0.07513394960578731,-0.4160423280766771,0.39543914798884383
1683999757263470000,1.280870361328125,0.07181245088061239,-0.24567413333604843,0.23838567737839217
1683999757273511300,1.290911865234375,0.1210723518836672,0.1374621392956139,-0.07047939285347024
1683999757283552900,1.300953369140625,-0.07712209225951916,0.2293672562375435,-0.3692245483937093
1683999757293594300,1.31099462890625,-0.5124927759941094,0.15597677242782973,-0.5665559770023458
1683999757303635600,1.3210361328125,-0.6761108636925806,0.34856986999391465,-0.7049822807655696
1683999757313677000,1.331077392578125,-0.26167839758579076,0.8300609590201667,-0.6245684622969873
1683999757323718300,1.34111865234375,-0.11200349043831949,0.8479046820106921,-0.40526390077473445
1683999757333759900,1.351160400390625,-0.24189421519826906,0.829661369303451,-0.34965038288388717
1683999757343801300,1.36120166015625,-0.2540235221308652,0.8974838257148489,-0.355100154841208
1683999757353842600,1.371242919921875,1.0353431701916682,1.355808258058705,-1.4862051011711104
1683999757363884000,1.381284423828125,1.7429114579362053,1.3818092347554765,-1.892589092129358
1683999757373925300,1.39132568359375,1.812623143207551,0.9598917961765271,-1.6927185058449132
1683999757383966900,1.4013671875,1.2097371816045426,0.7434153555530641,-1.0500102042293558
1683999757394008200,1.41140869140625,0.7781310081431362,0.7821135521921162,-0.7849459647768515
1683999757404049600,1.421449951171875,0.40431493528997586,1.0417003631668014,-1.036293506663802
1683999757414090900,1.4314912109375,-0.09121292841357818,1.2224731444541626,-1.1754059790711957
1683999757424132300,1.44153271484375,-0.646317005052664,1.1715750693487028,-0.6410727501653757
1683999757434173600,1.451573974609375,-1.078780889589422,0.7330851553902002,-0.02793407437314223
1683999757444215200,1.46161572265625,-0.6755623817955306,0.51964664456654,0.8296709059498683
1683999757454256600,1.471656982421875,-0.948487877849995,-0.5128688812364933,1.3813462257422968
1683999757464297900,1.4816982421875,-1.0420420170819855,-2.2628498076387276,2.0315704346515218
1683999757474339200,1.49173974609375,-0.9157810807955036,-3.0687303544825872,2.1294860838231964
1683999757484380600,1.501781005859375,-0.27212554209331785,-2.33231544493455,1.7077608107713371
1683999757494422200,1.511822509765625,0.2833729385708527,-1.5005521774972586,1.0908455849806975
1683999757504463600,1.521864013671875,0.5847936271309305,-0.5566778182813077,0.7994847297962222
1683999757514504900,1.5319052734375,0.5988827347148276,-0.5797233582517695,1.140006542392808
1683999757524546200,1.541946533203125,0.7288020253534804,-0.6356334686895438,1.4968979358865877
1683999757534587600,1.551988037109375,0.7382067441578425,-0.45210933684278304,1.6335992813289555
1683999757544628900,1.562029296875,0.6630184055811311,0.08485984810515168,1.3996155263196068
1683999757554670600,1.57207080078125,0.45400014517724135,0.2334051132690243,1.1855812073348342
1683999757564711900,1.5821123046875,0.3770324886963946,1.7063598633108192,1.6004183293389023
1683999757574753200,1.592153564453125,0.5553724169344268,1.263415336454824,0.66414022443531
1683999757584794600,1.60219482421875,0.21547773475562684,0.39549064644132204,0.988739490465467
1683999757594835900,1.612236328125,0.06813818217426779,-0.15274238587796318,1.0506582259458561
1683999757604877600,1.62227783203125,0.4311677217651766,-0.3499031067447262,0.8416252135021209
1683999757614918800,1.6323193359375,0.626899480992052,-0.6211690902972073,0.6265218257392327
1683999757624960200,1.642360595703125,0.6073544621428608,-0.7910003662258159,0.3793873786901467
1683999757635001600,1.65240185546875,0.8617311715837972,-0.707831382854231,-0.14329648019614677
1683999757645042900,1.662443359375,0.4360835255942204,-1.1510848999876002,-0.1254591943253924
1683999757655084200,1.672484619140625,0.0321544409530637,-1.7731180189583586,0.02315950395786256
1683999757665125800,1.682526123046875,-0.4614900350496801,-2.1684684753381864,-0.007497310635375005
1683999757675167200,1.692567626953125,-0.9167468547559464,-2.2857971191494406,0.08071064939003311
1683999757685208600,1.70260888671875,-1.4048080444056867,-2.107107162450476,0.25325179109139934
1683999757695249800,1.712650146484375,-1.80641531954437,-1.8992252350766512,0.7883396149569558
1683999757705291200,1.722691650390625,-2.1142647266541132,-1.5457458494335972,1.6219089031379563
1683999757715332800,1.732733154296875,-2.0892229080980638,-1.352441787729221,2.388823986018507
1683999757725374100,1.7427744140625,-2.0441603662194288,-0.8981227873193476,3.126019001095648
1683999757735415500,1.75281591796875,-2.113282442168358,-0.48130130771358687,3.1598708629730483
1683999757745456800,1.762857177734375,-2.1303105355226704,-0.27906131734998757,2.723355293303561
1683999757755498200,1.772898681640625,-1.9119378327757688,0.021345138619193113,1.8325917721745746
1683999757765539800,1.782940185546875,-0.9536248446049326,0.32420063029630247,0.5360329151515207
1683999757775581100,1.7929814453125,0.11829173569903621,0.4373207091890867,-0.6557308435524005
1683999757785622400,1.80302294921875,1.0649497508465198,1.399291038480462,-0.8696842192834072
1683999757795663800,1.813064208984375,1.4974137543721395,-0.493367195113943,-2.357371807148729
1683999757805705100,1.82310546875,2.2353537082171413,-0.4624156950869421,-2.562952279892896
1683999757815746700,1.833147216796875,2.5370209216378945,-0.03267860404483818,-2.5611371993559
1683999757825788100,1.8431884765625,3.142194747894995,1.8836288452887628,-3.0610299111175325
1683999757835829400,1.853229736328125,2.0585432053869948,1.8325052261858663,-1.6854702233332282
1683999757845870800,1.863271240234375,1.6122167110675283,0.3579015731461919,-1.6814175844943677
1683999757855912400,1.873312744140625,1.4830703733648425,-0.7944869993897776,-1.1658265590225365
1683999757865953600,1.88335400390625,1.6410167217418155,-1.1645984650450667,-0.44988465311351944
1683999757875995100,1.8933955078125,1.314556360423845,-1.5688085556034768,-0.07921838761947517
1683999757886036400,1.903436767578125,1.0526288747367067,-1.8640432357563965,0.2533094881125285
1683999757896077700,1.91347802734375,0.7646617888719471,-2.4328317643443316,0.3469588756977511
1683999757906119300,1.923519775390625,0.7741223573889109,-2.1992101669616617,0.47312808026358716
1683999757916160600,1.93356103515625,0.9951291085292024,-1.0577955245459854,0.33000588421945104
1683999757926202000,1.9436025390625,1.2524734736131622,-0.1256694795092125,-0.1745965480855955
1683999757936243400,1.953643798828125,1.3751629589175494,0.38241481787295917,-0.2904274464668594
1683999757946284600,1.96368505859375,1.4011354447424438,0.6391267776310224,-0.2523417472376976
1683999757956326100,1.9737265625,1.4774367810199058,1.037578582781625,-0.27968335149569257
1683999757966367600,1.98376806640625,1.6296867131357091,1.376512527428741,-0.46584224710053296
1683999757976409000,1.993809326171875,1.6767585276539885,1.5208635330629738,-0.7934532165040145
1683999757986450400,2.003850830078125,1.5025447608592561,1.319478035018387,-1.0263019801250057
1683999757996491600,2.01389208984375,1.327592492142743,1.384838104318355,-1.438596963763588
1683999758006533000,2.023933349609375,1.1007628440859922,1.581426620589796,-1.524528264871972
1683999758016574600,2.03397509765625,0.6473236083739087,1.7368745804204064,-1.4762887953589567
1683999758026616000,2.044016357421875,0.3396706580857153,1.5988435746045389,-1.4268435238544306
1683999758036657300,2.0540576171875,0.10953879349333498,1.2326207160314402,-1.3992261887579458
1683999758046698600,2.06409912109375,0.1571874617153536,0.8124990462460948,-1.4953312873499416
1683999758056740000,2.074140380859375,0.18252682688691987,0.4129228590750962,-1.5347324609800543
1683999758066781600,2.08418212890625,0.17327594755080328,-0.04587268839799413,-1.4708534480248998
1683999758076823000,2.094223388671875,0.0438914299863896,-0.5388698579172864,-1.4313652515505173
1683999758086864300,2.1042646484375,-0.030012130690433465,-0.9507265091834046,-1.3289045093900427
1683999758096905600,2.11430615234375,-0.17617940893261333,-1.3545026780198552,-1.2363464832497744
1683999758106947000,2.124347412109375,-0.2787692546365895,-1.4854326248168503,-1.1999466419167677
1683999758116988600,2.134388916015625,-0.24282240871409524,-1.464982986418098,-1.116677045716085
1683999758127029900,2.144430419921875,-0.17580485327070033,-1.4197282792551782,-1.0636694430914058
1683999758137071300,2.1544716796875,-0.14340329175983282,-1.2333526610246188,-1.0510230065886512
1683999758147112600,2.164512939453125,-0.07009077070142482,-0.8944349290035024,-1.0157430170789787
1683999758157154000,2.174554443359375,0.030264854435783934,-0.5889406204308261,-0.8582112787876003
1683999758167195600,2.184595947265625,0.11902260780634882,-0.5408353805349951,-0.6917266845770449
1683999758177236900,2.19463720703125,0.16165494921298848,-0.599204063441227,-0.454064846201708
1683999758187278300,2.2046787109375,0.15560936928688365,-0.6995038985853073,-0.2914404870343887
1683999758197319600,2.214719970703125,0.1386709213892799,-0.38233757009393554,-0.24195718767892552
1683999758207361200,2.22476171875,0.037207603537087096,-0.3424730299613659,-0.43120741853685424
1683999758217402600,2.234802978515625,0.0848214625871636,0.05104255680430315,-0.5466792582817236
1683999758227443900,2.24484423828125,0.12687039369547137,0.35192966447540747,-0.7632088659883243
1683999758237485200,2.2548857421875,0.2558929920633781,0.5927085875052406,-0.9955914020534188
1683999758247526600,2.264927001953125,0.44776964180376094,0.7196340560504155,-1.1337540149192122
1683999758257568200,2.274968505859375,0.7239284515361365,0.9027600287556842,-1.0818188191558402
1683999758267609600,2.285010009765625,0.9981312752315479,1.2086076736863383,-0.928466558445005
1683999758277650900,2.29505126953125,1.060797810585321,1.1472725867522413,-0.7278923989253292
1683999758287692200,2.305092529296875,1.067661285367751,1.0409269333566755,-0.6265420912667231
1683999758297733600,2.315134033203125,1.0432864428409163,0.9150381087717969,-0.6594095230393145
1683999758307775200,2.325175537109375,1.0142120122808747,0.8597111702198129,-0.6007990836528034
1683999758317816600,2.335216796875,1.0681934356400706,0.9939656257885205,-0.5632336138044606
1683999758327857800,2.34525830078125,0.8588407039377444,0.8327150345556018,-0.47170591363011805
1683999758337899200,2.355299560546875,0.5039012433086898,0.7073783874234834,-0.2368450165973384
1683999758347940600,2.3653408203125,0.059570789480802,0.5013418198142211,0.03824090945632389
1683999758357982100,2.375382568359375,-0.3045496940734331,0.3533983232002531,0.2733719347926712
1683999758368023600,2.385423828125,-0.46448540686058076,0.1864356993373419,0.24091792102956472
1683999758378064800,2.39546533203125,-0.2695508003020791,0.14741230007932818,0.049796819644815374
1683999758388106200,2.405506591796875,-0.0380303860829717,0.2806358338777801,-0.08409714693703947
1683999758398147600,2.4155478515625,0.05530166623925087,0.317377090603925,-0.15313363086724324
1683999758408189100,2.425589599609375,0.01844835285690846,0.206565857032797,-0.1783218384339631
1683999758418230400,2.435630859375,-0.07701277746395757,-0.011672019950061622,-0.2636690139725373
1683999758428271800,2.445672119140625,-0.26579928379876233,-0.31190395355776207,-0.447914600295668
1683999758438313100,2.455713623046875,-0.64446592326324,-0.6025772095390769,-0.7523851395052238
1683999758448354700,2.465755126953125,-0.9740359783006785,-0.6686105729475761,-0.9495742321439212
1683999758458396100,2.47579638671875,-1.1286654471822994,-0.5427093505179146,-0.930657625376083
1683999758468437400,2.485837890625,-1.0369787214907065,-0.32530117035456274,-0.7483718395992496
1683999758478478800,2.495879150390625,-0.8207242488665366,-0.03260803229794578,-0.70628118509716
1683999758488520100,2.50592041015625,-0.5756530761064461,0.22940826416281118,-0.6355390548577621
1683999758498561600,2.515962158203125,-0.31375861171002933,0.5012502669408254,-0.6120953560407889
1683999758508603100,2.52600341796875,-0.04896664610741331,0.7667341231785536,-0.542558431632344
1683999758518644400,2.536044921875,0.2271511553995849,1.0127134321973355,-0.5273067951452682
1683999758528685700,2.546086181640625,0.41677808748014467,1.07138919817999,-0.5170035363729979
1683999758538727100,2.55612744140625,0.49806141842986057,0.9015002249157223,-0.36967444419306317
1683999758548768600,2.566169189453125,0.5028961895761136,0.35391616820017824,-0.11189413053271181
1683999758558810000,2.57621044921875,0.4521229266619146,-0.3776006698948416,0.23589944846457686
1683999758568851400,2.586251708984375,0.1252498626133379,-1.0765447617986277,0.4745028017682965
1683999758578892600,2.596293212890625,-0.5228295326073743,-1.6866865159025635,0.528264284082399
1683999758588934300,2.606334716796875,-1.0876302718497872,-2.1872739791050497,0.43811202038531444
1683999758598975600,2.6163759765625,-1.627329468740182,-2.553360938978568,0.45610213286102663
1683999758609017000,2.62641748046875,-2.8110480308348955,-2.9553575515850907,0.6328070163737527
1683999758619058400,2.636458740234375,-3.9079475403381108,-3.018025398323592,1.122986078220711
1683999758629099600,2.6465,-3.190445899953496,-1.9544038773127257,1.3353226184118492
1683999758639141300,2.656541748046875,-1.6218398811014352,-1.0154199599591809,1.3986904620549616
1683999758649182600,2.6665830078125,-0.605840086987159,-0.5307073593653228,1.4689900874586812
1683999758659224000,2.676624267578125,-0.0007358790063862125,-0.06906032562710562,1.4891245365705592
1683999758669265300,2.686665771484375,0.7113822698969632,0.4180383681710136,1.3405802250073195
1683999758679306600,2.69670703125,1.5831527709938547,0.8440485001244569,0.991669177948688
1683999758689348300,2.706748779296875,2.399160385096137,1.1050190925130219,0.4705495835001184
1683999758699389600,2.7167900390625,2.774661540992052,1.1804847717352909,-0.020623683889978216
1683999758709431000,2.726831298828125,2.669259309802295,1.132791519214319,-0.47315454484843156
1683999758719472300,2.736872802734375,2.3341562748188496,1.055242538376742,-0.8906004429116021
1683999758729513900,2.746914306640625,2.0021221639205207,0.9410858153901925,-1.2288424969758536
1683999758739555200,2.75695556640625,1.6174303292518506,0.8219423294389026,-1.48917555811512
1683999758749596600,2.7669970703125,1.0438828468313475,0.6384916305753681,-1.7834956646796793
1683999758759637900,2.777038330078125,0.004420757342447998,0.4052524566414116,-2.1880300046331094
1683999758769679600,2.787079833984375,-0.6794531345485675,0.038413047852480425,-2.3331274986388943
1683999758779720900,2.797121337890625,-0.547628402596755,-0.23625659946775618,-2.137311458669914
1683999758789762200,2.80716259765625,0.13782423730753604,-0.4231328963140987,-1.761236667620023
1683999758799803600,2.817203857421875,0.7681035994556487,-0.4902725218314692,-1.4589798449363913
1683999758809844900,2.827245361328125,1.2272830010086604,-0.4210462570997693,-1.3367271423338778
1683999758819886600,2.837286865234375,1.494634508980261,-0.293013572659217,-1.281553030018521
1683999758829927900,2.847328369140625,1.605494976231655,-0.26263713838159436,-1.1323816777731062
1683999758839969200,2.85736962890625,1.623291969356668,-0.3181800842936977,-0.8326203823957389
1683999758850010600,2.867410888671875,1.5609500407215462,-0.3599882126101324,-0.5024378299140484
1683999758860052100,2.87745263671875,1.3860025405089207,-0.3764410019141254,-0.3097009659781001
1683999758870093600,2.887493896484375,1.2036221028142937,-0.286338806302019,-0.1817657946238545
1683999758880134800,2.89753515625,1.0673998593862126,-0.17593669882797888,-0.10368418704494939
1683999758890176200,2.90757666015625,0.9245545862980362,-0.052335739115026106,-0.11982965466938289
1683999758900217600,2.917617919921875,0.8227056265779702,0.051168441785708695,-0.14090466504533758
1683999758910259100,2.927659423828125,0.7668431999018315,0.11103439343479411,-0.1827893257987541
1683999758920300500,2.937700927734375,0.7199578285975735,0.10648059840875326,-0.21300530428425216
1683999758930341800,2.9477421875,0.7039095758562793,0.006761550992284401,-0.20534873010129376
1683999758940383200,2.957783447265625,0.6999897957974126,0.040043830894794734,-0.15355086335980397
1683999758950424800,2.9678251953125,0.7152691482253919,0.009635925220228816,-0.21692919727914659
1683999758960466100,2.977866455078125,0.7721422315265368,-0.07187938675531602,-0.3132154941945167
1683999758970507400,2.987907958984375,0.868869602765553,-0.14199256906766902,-0.2986118794613869
1683999758980548800,2.99794921875,1.0299420358622295,-0.20066452029589174,-0.32612991337464636
1683999758990590400,3.00799072265625,1.162597656237829,-0.23829174047387175,-0.3310573100169165
1683999759000631600,3.0180322265625,1.317135095655162,-0.2617235183641783,-0.3985407351900645
1683999759010673100,3.028073486328125,1.4196622371289918,-0.2180824279518962,-0.4629929066471454
1683999759020714400,3.03811474609375,1.5357319116623596,-0.18587779997719703,-0.499521493902983
1683999759030755800,3.04815625,1.6736068724022943,-0.14080429071139075,-0.46909117688452545
1683999759040797400,3.05819775390625,1.7364908457169845,0.007855415486537993,-0.476685285632108
1683999759050838600,3.068239013671875,1.7358521222545142,0.1714544295115087,-0.4052026270710484
1683999759060880000,3.078280517578125,1.6277004479837773,0.28533744805624056,-0.25758886345268966
1683999759070921400,3.08832177734375,1.5055783986536717,0.3992900847509937,-0.016063928567346203
1683999759080963000,3.09836328125,1.3425629137437058,0.4054794311897136,0.2297375202811321
1683999759091004300,3.10840478515625,1.1280282735609097,0.4715299607008858,0.413502931543576
1683999759101045600,3.118446044921875,1.000457286909319,0.4420976639389971,0.7190859318305913
1683999759111087000,3.1284873046875,0.9114284513556111,0.3529558182380833,0.8828301430874798
1683999759121128400,3.13852880859375,0.695318222034439,0.3738603591456198,0.9986264705045828
1683999759131170000,3.1485703125,0.5233240128156467,0.3899211881891467,1.145504712903363
1683999759141211300,3.15861181640625,0.401898473581746,0.3724670409617671,1.24220061301993
1683999759151252600,3.168653076171875,0.2230675519728446,0.3599166869934745,1.339416980575194
1683999759161294000,3.1786943359375,0.021088868541969074,0.3665971755528084,1.3680176734709575
1683999759171335600,3.188736083984375,-0.19790762672646017,0.3875417709162771,1.2944133281839678
1683999759181376900,3.19877734375,-0.35510954259412925,0.37463569623026577,1.2300090788939269
1683999759191418300,3.208818603515625,-0.42553251967300165,0.34223079676683255,1.0618572235764223
1683999759201459600,3.218860107421875,-0.4763695597666193,0.3671426771659116,0.8384628295680381
1683999759211501000,3.2289013671875,-0.48887419700950874,0.32526874535486766,0.689182042894362
1683999759221542600,3.23894287109375,-0.4602084159976659,0.32193565381116834,0.5044133664899266
1683999759231583900,3.248984375,-0.3537642657088852,0.35265445693628283,0.36655259142022895
1683999759241625300,3.259025634765625,-0.17300009746209755,0.3742733003607712,0.34933805473674884
1683999759251666600,3.26906689453125,0.0007032751890142852,0.3605546951507669,0.34017729767226623
1683999759261708200,3.279108642578125,0.20053428393679107,0.3522758485519969,0.39897990226162267
1683999759271749600,3.28914990234375,0.42778635025040657,0.32532596584695544,0.4845800400057017
1683999759281790900,3.29919140625,0.6166402102527689,0.3295717239550216,0.5605416297624146
1683999759291832200,3.309232666015625,0.7206963301271159,0.236215591442906,0.6299338339701276
1683999759301873800,3.319274169921875,0.8141556977800283,0.20538234706352174,0.6882107257913557
1683999759311915200,3.329315673828125,0.8378967641721616,0.15322303762459413,0.6161084175006661
1683999759321956600,3.33935693359375,0.6997411251796998,-0.4021282196375109,0.6646895408725049
1683999759331997900,3.349398193359375,0.5645772218611508,-0.43477344510545246,0.43094086645709506
1683999759342039600,3.35943994140625,0.4627724886462116,-0.2179698944271281,0.13696551315198735
1683999759352080800,3.369481201171875,0.47467184052804823,0.3340139390503214,-0.26031231875861083
1683999759362122200,3.3795224609375,0.4816499949294897,0.4054832458551835,-0.25169372567874765
1683999759372163600,3.38956396484375,0.39784717551233045,0.5743064880786242,-0.2571871280279757
1683999759382205100,3.39960546875,0.26664423944657484,0.6783094406397934,-0.31670451169988495
1683999759392246400,3.409646728515625,0.18834942578839073,0.639604568597715,-0.24496889115046364
1683999759402287800,3.419688232421875,0.16131257999434043,0.4272613525884786,0.07114481939479612
1683999759412329100,3.4297294921875,0.10885936013745495,0.4990787506672187,0.3637728691955945
1683999759422370700,3.439771240234375,0.09635031221166815,0.7791957855188811,0.6072444916220555
1683999759432412100,3.4498125,-0.022171795349891592,0.7918558119819494,0.787080287838504
1683999759442453400,3.459853759765625,-0.16508930924410903,0.6791753769586866,0.9447102547797372
1683999759452494800,3.469895263671875,-0.35816115129362314,0.41316890707710396,1.0920996664736558
1683999759462536400,3.479936767578125,-0.5450726747194615,0.2235355376473546,1.1550559998463619
1683999759472577600,3.48997802734375,-0.6734385488949447,0.1748027801395414,1.0725259780656695
1683999759482619100,3.50001953125,-0.7861141562345967,0.16681003576518058,0.9822731017317671
1683999759492660400,3.510060791015625,-0.8361227513144427,0.030513763431746343,0.9044561386097746
1683999759502702000,3.520102294921875,-0.8147653937975897,-0.054165840264682706,0.8136706352537733
1683999759512743300,3.530143798828125,-0.7103766203795064,-0.03217124947160732,0.7395119666623626
1683999759522784600,3.54018505859375,-0.5462031364131177,0.10773181911384615,0.6860883234504134
1683999759532826000,3.550226318359375,-0.3217019439281084,0.33836841573962184,0.6474497319129928
1683999759542867400,3.560267822265625,-0.09758520132574587,0.584965705908944,0.6963515281398641
1683999759552909000,3.570309326171875,0.11117994799304305,0.8493251799347793,0.8000819682948405
1683999759562950300,3.580350830078125,0.2701891064979742,1.0402364730201663,0.9598236082590318
1683999759572991600,3.59039208984375,0.37842619429528,1.1510162351927704,1.059560775752774
1683999759583033000,3.600433349609375,0.4283497930785697,1.1612300873637984,1.161782503124227
1683999759593074600,3.61047509765625,0.47735345361863163,0.9598293304310616,1.2667872904839885
1683999759603116000,3.620516357421875,0.5545121431156438,0.6119022369837206,1.5154609681350526
1683999759613157300,3.6305576171875,0.6631147264859595,0.35093307488240144,1.7588007449273517
1683999759623198600,3.64059912109375,0.8129075764872622,0.2824630736756675,2.034593105407704
1683999759633240200,3.650640625,0.9700837731206106,0.3472776412864539,2.1188192367007668
1683999759643281600,3.660681884765625,1.1221899986436703,0.5325698851449897,2.022500276577484
1683999759653322900,3.670723388671875,1.2661805153554753,0.6116724013449287,1.9102249145608596
1683999759663364300,3.6807646484375,1.3424685002474217,0.5212621689756363,1.8921873568332934
1683999759673405900,3.69080615234375,1.408054113366363,0.28643989566557765,1.913401365138333
1683999759683447200,3.70084765625,1.4396321773215959,-0.1132831573976555,1.9116885660698744
1683999759693488600,3.710888916015625,1.4348701238061858,-0.6817340851713274,1.9703986643934375
1683999759703529900,3.720930419921875,1.3884594440884148,-1.1412067414203053,1.854596853206768
1683999759713571600,3.730971923828125,1.2696242332170296,-1.4397201537619098,1.6576972006748059
1683999759723612800,3.74101318359375,1.04048192512934,-1.4844732283476814,1.189325094265212
1683999759733654200,3.7510546875,0.7400099039590539,-1.3638248443350427,0.62343478213201
1683999759743695600,3.761095947265625,0.4585004448876236,-1.2064657212953647,0.030463933861041185
1683999759753737100,3.771137451171875,0.2015531062870867,-0.8166131972793503,-0.5519745349744668
1683999759763778600,3.781178955078125,-0.10075366492653386,-0.569666862326348,-1.1266171932569338
1683999759773819800,3.79122021484375,-0.46987777939080705,-0.36249351502077887,-1.795233607121816
1683999759783861200,3.801261474609375,-0.8595893979200407,-0.31444263467281186,-2.3463048934329835
1683999759793902800,3.81130322265625,-1.2081712485536857,-0.390046119730201,-2.5551750659373598
1683999759803944100,3.821344482421875,-1.3646895885750923,-0.4461421967672549,-2.712179899082563
1683999759813985500,3.8313857421875,-1.3443394897937593,-0.44642448428012876,-2.7762560843987183
1683999759824026800,3.84142724609375,-1.268689274648913,-0.36573123929409823,-2.7761752603944725
1683999759834068400,3.85146875,-1.215565443018246,-0.20763492590816532,-2.649083614271527
1683999759844109700,3.86151025390625,-1.1237559318862564,-0.027024269268887194,-2.0794858933129716
1683999759854151100,3.871551513671875,-1.095150113143352,0.2103605269986774,-1.2129015923327489
1683999759864192400,3.8815927734375,-0.9434750079390546,0.47566604611775615,-0.3037111759094908
1683999759874234000,3.891634521484375,-0.652924895343301,0.6834688187994367,0.3257510661943637
1683999759884275400,3.90167578125,-0.2556133269659498,0.852667808456572,0.6619732379944809
1683999759894316600,3.911717041015625,0.15929955228683154,0.9125699996538972,0.773052930828887
1683999759904358100,3.921758544921875,0.594950914497821,0.866458892762609,0.7502388955717244
1683999759914399600,3.931800048828125,0.8923361895970099,0.7407226562720404,0.7564167976833307
1683999759924441000,3.94184130859375,1.0779901743208098,0.5660667419224789,0.6326279640393361
1683999759934482400,3.9518828125,1.186652660350468,0.4306421279515375,0.46399044977437076
1683999759944523600,3.961924072265625,1.3324849605404945,0.31066036227996907,0.2553033829404525
1683999759954565300,3.971965576171875,1.376174926767328,0.15162467955518544,0.02401971818674924
1683999759964606600,3.982007080078125,1.351664423992252,0.004108429031069898,-0.11721324908497348
1683999759974648000,3.99204833984375,1.2235521079769844,-0.16529464729901217,-0.2214281558231075
1683999759984689300,4.00208984375,0.9966585637362597,-0.3589868545097732,-0.3393547534642687
1683999759994730900,4.01213134765625,0.770648837105818,-0.5507297515757337,-0.4427154063740097
1683999760004772300,4.022172607421875,0.5278489591219013,-0.7427463531662792,-0.48096227652863477
1683999760014813600,4.032214111328125,0.3536193967329968,-0.710487365790994,-0.47321081152882655
1683999760024855000,4.04225537109375,0.3087829949217106,-0.6668090820020152,-0.40929913525736344
1683999760034896600,4.052296875,0.19461369530213957,-0.5686855315696329,-0.37029266364628977
1683999760044937900,4.06233837890625,0.11832449575180289,-0.4950914382551953,-0.3394002914521432
1683999760054979200,4.072379638671875,0.09919548045315564,-0.3743095397134432,-0.3165171146335634
1683999760065020800,4.082421142578125,0.05692988641743518,-0.28772163397529943,-0.30173540113901515
1683999760075062200,4.092462646484375,-0.03401283548665211,-0.2401895523791089,-0.2786777018895551
1683999760085103600,4.10250390625,-0.11916600172086655,-0.1982545852338589,-0.2975764275090416
1683999760095144900,4.112545166015625,-0.2447675018314826,-0.16677093502013365,-0.34174084668335
1683999760105186600,4.1225869140625,-0.3063803912418956,-0.11670970915261603,-0.4578063489247563
1683999760115227800,4.132628173828125,-0.301963835932618,-0.06433200819979551,-0.6226582526652755
1683999760125269200,4.142669677734375,-0.2579720317401947,-0.07874965665277991,-0.6279687881688637
1683999760135310600,4.1527109375,-0.11494171613540007,-0.10998344414554757,-0.5705621243819676
1683999760145351900,4.162752197265625,-0.005092412202844043,-0.08188629161469144,-0.48251986506647854
1683999760155393500,4.1727939453125,0.0732959211859862,-0.02080726611684639,-0.413946867048209
1683999760165434800,4.182835205078125,0.151264935775149,-0.09408378607260208,-0.3124952316294844
1683999760175476100,4.19287646484375,0.2645770311581639,-0.01983737943772191,-0.23384952540068477
1683999760185517700,4.202918212890625,0.36516219377977677,0.07233428956020038,-0.2288374899979499
1683999760195559100,4.21295947265625,0.40774315594111804,0.11308288584861077,-0.16601037987526843
1683999760205600400,4.223000732421875,0.4118436873047989,0.15503311156892938,-0.0956871509254684
1683999760215641800,4.233042236328125,0.4589956103677046,0.18133544920285752,0.02726626380561878
1683999760225683400,4.243083740234375,0.5632927416474531,0.16372299200260676,0.07468891157640055
1683999760235724600,4.253125,0.7451413870569534,0.21240520484256056,0.14035534860595053
1683999760245766100,4.26316650390625,0.9194130897810716,0.18636894223045006,0.19537687310460708
1683999760255807400,4.273207763671875,0.9751870035086523,0.14065837862626068,0.21065497410978506
1683999760265849000,4.28324951171875,0.8411048054142891,0.09689140323121563,0.26281714440747733
1683999760275890400,4.293290771484375,0.6184120178585082,-0.035372734025955206,0.25466942776592266
1683999760285931600,4.30333203125,0.37296617044419567,-0.1219186782665727,0.27079343782990817
1683999760295973300,4.313373779296875,0.13567006580741606,-0.13442993168165215,0.2824509142343125
1683999760306014600,4.3234150390625,-0.044931769459383715,-0.10246658322061221,0.3079731464174278
1683999760316056000,4.333456298828125,-0.14766991126071377,-0.21483612067792776,0.262013912110733
1683999760326097300,4.343497802734375,-0.23749649532242864,-0.23437023159708,0.1504893302369709
1683999760336138900,4.353539306640625,-0.25689303863953833,-0.23256492613872579,0.11245632172138835
1683999760346180300,4.36358056640625,-0.2586007117285807,-0.2572698594095253,0.0371627806621758
1683999760356221600,4.3736220703125,-0.17130494109668595,-0.29876041409744053,-0.0066394806503380695
1683999760366263000,4.383663330078125,-0.0024613141812132493,-0.34468555447549093,-0.0859746933693672
1683999760376304600,4.393705078125,0.15228748333546724,-0.266242027334758,-0.06988191595380308
1683999760386345900,4.403746337890625,0.26917695994270496,-0.3576745987531929,-0.14537572866368123
1683999760396387200,4.41378759765625,0.35356628878315005,-0.29594707493758987,-0.2352890969395435
1683999760406428600,4.4238291015625,0.40011286739671686,-0.23202514641716962,-0.25575113301479807
1683999760416470200,4.43387060546875,0.37226057048295325,-0.20661449432642337,-0.2472338676909652
1683999760426511600,4.443911865234375,0.3770757913924839,-0.17201137538743747,-0.22381544108558196
1683999760436552900,4.453953369140625,0.2598078250602852,-0.22106075274673603,-0.2778224944689828
1683999760446594200,4.46399462890625,0.15993511685434514,-0.2220087051883428,-0.32004261017090035
1683999760456635800,4.4740361328125,-0.003723502051522862,-0.15151023877128414,-0.30351066597693815
1683999760466677200,4.48407763671875,-0.13902449618609086,-0.08907318111883211,-0.3348226548300085
1683999760476718600,4.494118896484375,-0.14752531059791463,0.04613494890064905,-0.37223863595684725
1683999760486760100,4.504160400390625,-0.026945590852921832,0.2727079391631972,-0.4362835884031701
1683999760496801500,4.514201904296875,0.16638791563250596,0.1443223953440555,-0.763771772354885
1683999760506842800,4.5242431640625,0.4783694743743961,0.15200424185890327,-0.9549021722082516
1683999760516884100,4.534284423828125,0.8338718414276806,0.14001464859109752,-1.1697468758785825
1683999760526925700,4.544326171875,1.0556592941468845,0.07262706766297745,-1.259314060110103
1683999760536967100,4.554367431640625,1.131646990789348,-0.1400394439810064,-1.2194545270782193
1683999760547008400,4.564408935546875,1.1388382913354922,-0.3006391524248532,-1.1869149208176344
1683999760557049800,4.5744501953125,1.1284201146744592,-0.3966522216543967,-0.9987552165874279
1683999760567091400,4.58449169921875,1.0935714245325083,-0.3536176681871763,-0.8200774193004928
1683999760577132600,4.594533203125,0.9879903793394542,-0.2006444931442233,-0.6539173126215551
1683999760587174100,4.604574462890625,0.8278107643261327,-0.1366233827253714,-0.41438484186618624
1683999760597215600,4.614615966796875,0.6015449762689489,-0.059353828492008105,-0.17588615415884026
1683999760607257000,4.624657470703125,0.4673663377556543,0.014242172321803307,-0.03319931033585897
1683999760617298400,4.63469873046875,0.4006218911038311,0.1536760330014438,0.06273698819344994
1683999760627339600,4.644739990234375,0.317457795051726,0.3202257156900389,0.2618064880576039
1683999760637381300,4.65478173828125,0.3054316044991136,0.5022888184701259,0.3180723190175013
1683999760647422600,4.664822998046875,0.16526627525353996,0.6625089644217778,0.43029022216099894
1683999760657464000,4.674864501953125,0.002872347895643143,0.7082777022981798,0.5855150222000679
1683999760667505600,4.684906005859375,0.028292536746709115,0.73794507972051,0.6563653946287341
1683999760677546900,4.694947265625,0.1414027214901846,0.6915616988619119,0.7360172272715458
1683999760687588300,4.70498876953125,0.19445228571348355,0.6835236549186581,0.7580399512601236
1683999760697629600,4.715030029296875,0.23871016507804377,0.6959705351556411,0.7245297431888387
1683999760707671200,4.725071533203125,0.3942331075535666,0.5583987234596235,0.4967308045209856
1683999760717712600,4.735113037109375,0.4337015152233914,0.43796396257160536,0.2041931152737139
1683999760727753900,4.745154296875,0.3412203789980559,0.42482233046588036,0.08751678469472993
1683999760737795200,4.755195556640625,0.18146586401882234,0.4464182852977089,-0.04353952406845971
1683999760747836800,4.7652373046875,0.125176310606981,0.3812184334374832,-0.20081758511957018
1683999760757878200,4.775278564453125,0.24834966671859432,0.2279062271182421,-0.3311915398013062
1683999760767919600,4.78531982421875,0.37816274161323393,0.1255512236772561,-0.3945035933942668
1683999760777960900,4.795361328125,0.3837902545179957,-0.018901824818184594,-0.5121731758082019
1683999760788002600,4.80540283203125,0.2801636457828836,0.009523391711170122,-0.5543260574067703
1683999760798043800,4.8154443359375,0.1531176567031495,0.08327960955680726,-0.5627660750738082
1683999760808085200,4.825485595703125,0.0456460714709159,0.1897144316539448,-0.5106678010291282
1683999760818126800,4.835527099609375,-0.05804896359837687,0.3162145613929054,-0.4807496071748212
1683999760828168100,4.845568603515625,-0.16018855574428909,0.4242749213996664,-0.4040026665246318
1683999760838209500,4.85560986328125,-0.08069145682484366,0.4525637625339786,-0.4509801865100477
1683999760848250800,4.865651123046875,0.10233294970366298,0.44993972780634167,-0.5168414115857426
1683999760858292400,4.87569287109375,0.25285863872574726,0.3715543747186491,-0.6532273292690016
1683999760868333700,4.885734130859375,0.37834012509622716,0.08678245539284658,-1.1097755433634144
1683999760878375100,4.895775390625,0.3826745749903119,-0.31918525698736433,-1.7670569420465057
1683999760888416600,4.905817138671875,0.2771772144893586,-0.6056566238559393,-2.2598509789704693
1683999760898458000,4.9158583984375,0.06338584428476317,-0.8219633101314907,-2.494354009519907
1683999760908499400,4.925899658203125,-0.24407315252249337,-1.0233583449045627,-2.59351754190426
1683999760918540600,4.935941162109375,-0.6249567270828371,-1.4402036668715754,-2.49244475377907
1683999760928582300,4.945982666015625,-1.077283024806787,-2.144796371408674,-2.2690627573996287
1683999760938623600,4.956024169921875,-1.530168652691928,-2.8594436646169634,-1.9309804439681713
1683999760948665000,4.9660654296875,-1.7089796065782146,-3.287427902187743,-1.4124326705955832
1683999760958706400,4.976106689453125,-1.1963946818478213,-3.3199415206757266,-0.47119665135339656
1683999760968748000,4.9861484375,-0.17476707690517826,-2.7212495803930445,0.8931255341078741
1683999760978789300,4.996189697265625,0.5974597931621659,-1.391710281252089,1.6418137550410297
1683999760988830600,5.00623095703125,1.0208983420447921,-0.15139961239865232,1.898050308237758
1683999760998872200,5.016272705078125,0.8940179348672396,0.640107154845509,1.9190468788148323
1683999761008913600,5.02631396484375,0.37781220671328836,1.072252750357763,1.8777189254019009
1683999761018954900,5.036355224609375,-0.13190889365876926,1.316201209872832,1.7073965072689072
1683999761028996600,5.04639697265625,-0.4416660070294519,1.3904561996330014,1.0440549849533511
1683999761039037900,5.056438232421875,-0.5352151393645651,1.2962012290865748,0.16003084181201455
1683999761049079200,5.066479736328125,-0.4950408935316108,0.9922018050520218,-0.47820949541089075
1683999761059120600,5.07652099609375,-0.19902181626009813,0.6624603270136353,-0.8817095756903024
1683999761069162200,5.0865625,0.2627020479655579,0.3751659393488668,-1.030704021579617
1683999761079203600,5.09660400390625,0.6653594972096298,0.17237377183576974,-0.8784871101674561
1683999761089244800,5.106645263671875,1.107310295119977,0.11150646223905357,-0.5404214858027783
1683999761099286200,5.1166865234375,1.4160300491260782,0.12767887109897516,-0.1702752112573751
1683999761109327800,5.126728271484375,1.6545975207706936,0.11356735229388715,0.16025161751222175
1683999761119369100,5.13676953125,1.7978870867780192,0.07602882389799287,0.5688014030439907
1683999761129410600,5.146810791015625,1.7665493487818613,0.13438510898731576,0.8336458205943512
1683999761139452100,5.1568525390625,1.557197093990576,0.23842334743024368,0.9997229576484664
1683999761149493400,5.166893798828125,1.3326767682217429,0.31645679464664206,0.9936270713015966
1683999761159534800,5.17693505859375,1.0998117922991801,0.3444738388185007,0.876676559366778
1683999761169576400,5.186976806640625,0.9059053658604773,0.32638263697102926,0.7300791741408962
1683999761179617600,5.19701806640625,0.7452316283609222,0.3259544372431546,0.5770554541154407
1683999761189659100,5.2070595703125,0.6686219573156814,0.30745220174001936,0.37995910648413045
1683999761199700400,5.217100830078125,0.6587532759303412,0.37648963924462586,0.22832202914285288
1683999761209742000,5.227142333984375,0.7167820928652106,0.4782171249282855,0.1488466262263059
1683999761219783300,5.237183837890625,0.876582324623186,0.49288749685257094,0.16453552254114495
1683999761229824600,5.24722509765625,1.0817699433549184,0.5732469557465985,0.14762640006780023
1683999761239866000,5.257266357421875,1.255209684387305,0.5447940827745128,0.1957163811940181
1683999761249907600,5.26730810546875,1.4007368088497156,0.5561561583519659,0.13457059846928593
1683999761259949000,5.277349365234375,1.4944024086780154,0.507122039805697,0.08881473545577115
1683999761269990300,5.287390625,1.5490860939557076,0.40748596176742413,0.09669780720490917
1683999761280031900,5.297432373046875,1.5715306997789626,0.2645473480066128,0.045858383235850425
1683999761290073300,5.3074736328125,1.5588226319442204,0.0976600646030139,-0.032201290138242
1683999761300114600,5.317514892578125,1.5246698855392014,0.02869510642100858,-0.10629892347637479
1683999761310156200,5.327556640625,1.4516539573980443,-0.004454612814531969,-0.17349433890805743
1683999761320197600,5.337597900390625,1.3592025040679974,-0.07346153251402582,-0.17143154148303874
1683999761330238900,5.347639404296875,1.2172453403665178,-0.06618976581611494,-0.17216658580652267
1683999761340280200,5.3576806640625,1.050789952159158,-0.023530959960259234,-0.11845588696234216
1683999761350321800,5.36772216796875,0.8901278970996246,0.023308753957860168,-0.08689069751571553
1683999761360363200,5.377763671875,0.7218728662494741,-0.0473737715639002,-0.01505374891723219
1683999761370404600,5.387804931640625,0.5687367320748064,-0.08931350705395819,0.061780929512271134
1683999761380446100,5.397846435546875,0.4478582739929696,-0.08810138690253959,0.20361042022587902
1683999761390487600,5.407887939453125,0.3703227342658667,-0.06776428224619382,0.40302753453146073
1683999761400528800,5.41792919921875,0.3300188778383022,-0.019145011792390927,0.5899329185221893
1683999761410570200,5.427970458984375,0.2952519358305633,0.031016349840872495,0.7372865678124044
1683999761420611800,5.43801220703125,0.2748516501279604,0.08289337152469789,0.8192253114114783
1683999761430653100,5.448053466796875,0.28961256157418636,0.12717056274128255,0.8074088095669211
1683999761440694400,5.4580947265625,0.293195992820641,0.22111320480509236,0.7706203461597273
1683999761450736000,5.468136474609375,0.30387040976354107,0.3190288544535605,0.6794419288937283
1683999761460777400,5.478177734375,0.3134733736755757,0.3085622787482934,0.5575737951701523
1683999761470818700,5.48821923828125,0.32182022922100834,0.1998624801840202,0.4059906005072078
1683999761480860300,5.4982607421875,0.354978382504046,0.11264514931984984,0.30874967580212437
1683999761490901600,5.508302001953125,0.3701165915149277,0.03721714031363186,0.19412660603108334
1683999761500943000,5.518343505859375,0.39029014094818665,-0.05499267585320966,0.15804624547623108
1683999761510984400,5.528384765625,0.39202612643186324,-0.07533645634343335,0.08855724331667629
1683999761521026000,5.53842626953125,0.44296723612441624,-0.04547882088126428,0.057295322394031886
1683999761531067300,5.5484677734375,0.5588834285654481,-0.008553504989628799,0.049580574147770076
1683999761541108600,5.558509033203125,0.6866436005087667,-0.03632450101518439,0.06007766731520395
1683999761551150300,5.568550537109375,0.8168990612492969,-0.06784629817730643,0.052383899819971526
1683999761561191600,5.578592041015625,0.893352091420654,-0.08477115628249318,0.009072303814699987
1683999761571232900,5.58863330078125,0.9625438452723677,-0.07809829702213637,-0.09032249456535381
1683999761581274600,5.598675048828125,1.0123013258153601,-0.038567542846547474,-0.23689723001871224
1683999761591315900,5.60871630859375,0.9994152188011379,-0.041966438212580136,-0.3423769474317237
1683999761601357200,5.618757568359375,0.9552651047924816,0.006524086058931409,-0.4734106063362462
1683999761611398600,5.628799072265625,0.909770309934924,0.01912784571066518,-0.5892469882797349
1683999761621440200,5.638840576171875,0.8128408789433792,-0.041066169647871284,-0.6452815533602592
1683999761631481600,5.6488818359375,0.7086755633003764,-0.12580585479274695,-0.6615555286787769
1683999761641522900,5.65892333984375,0.5653097627642206,-0.21557044987877624,-0.6782879829992549
1683999761651564200,5.668964599609375,0.5121698975791404,-0.3245706557970159,-0.6019630432697153
1683999761661605800,5.679006103515625,0.4530687928652735,-0.29944419860673244,-0.5427496434208613
1683999761671647200,5.689047607421875,0.42934495216443214,-0.2294111251172273,-0.4509491920817392
1683999761681688600,5.6990888671875,0.4312158226472868,-0.2119369507085339,-0.3417310715166382
1683999761691730100,5.709130615234375,0.42915552856120803,-0.1638250350701942,-0.2389655112490606
1683999761701771400,5.719171875,0.41239333158625646,-0.06451702118657839,-0.12604260451151966
1683999761711812800,5.729213134765625,0.40588217979438873,-0.04912185659612822,0.036984443793386834
1683999761721854400,5.7392548828125,0.3704597354435163,-0.005903243890500776,0.1923823356980117
1683999761731895600,5.749296142578125,0.32682549960710283,-0.006185531670700274,0.2999615670245451
1683999761741937100,5.75933740234375,0.24908453225606508,-0.004590034511669487,0.36745071415942787
1683999761751978400,5.76937890625,0.14044111954889363,-0.06000041969388106,0.3860630990136959
1683999761762020000,5.77942041015625,-0.0057146548910166186,-0.06084728253067863,0.33539390574722056
1683999761772061400,5.789461669921875,-0.12655454866173116,-0.010183334395696509,0.20506143568213708
1683999761782102600,5.799503173828125,-0.23421913401776637,-0.028477668802637152,0.16397714608832328
1683999761792144300,5.809544677734375,-0.2941426037897068,-0.05341053015477872,0.1277470588587413
1683999761802185600,5.8195859375,-0.32072466592894816,0.004687309277943217,0.07519197476111877
1683999761812227000,5.82962744140625,-0.30074274541129703,0.024470329211227604,0.035145282813188045
1683999761822268600,5.8396689453125,-0.25460404151065247,0.03459358201739449,0.007082462355547147
1683999761832309900,5.84971044921875,-0.14100301248239064,0.049457550047847805,-0.034690380209017525
1683999761842351300,5.859751708984375,-0.05549490460481442,0.010225295874964006,-0.0496459007469252
1683999761852392900,5.869793212890625,0.04208940271044296,-0.06114006035721769,-0.040776729717134495
1683999761862434200,5.879834716796875,0.11380058526482788,-0.0273427961904347,-0.0668430328252426
1683999761872475600,5.8898759765625,0.2326754928706534,0.065248489391236,-0.09398126592824099
1683999761882516900,5.899917236328125,0.319491684559651,0.06941795351053888,-0.0590372085178765
1683999761892558600,5.909958984375,0.3458737732367717,0.0405645370350844,-0.017537593902419
1683999761902599900,5.920000244140625,0.3902942537517812,-0.001976966920715264,-0.012032031865943647
1683999761912641200,5.93004150390625,0.417124330862809,0.012583732633638746,-0.02792835234127662
1683999761922682800,5.940083251953125,0.47661644235259615,0.13286209104482122,-0.017623424493832404
1683999761932724100,5.95012451171875,0.48606133470851776,0.08623504629847677,-0.061912059679147535
1683999761942765600,5.960165771484375,0.48610085243551204,0.04009819042948455,-0.061346054017939314
1683999761952807100,5.97020751953125,0.4573921560204504,-0.03585529331652032,-0.09830093371264331
1683999761962848400,5.980248779296875,0.43284851330737967,-0.051471710233289954,-0.11042356504049121
1683999761972889800,5.990290283203125,0.41436678157891343,-0.07849311829919237,-0.12418794615254074
1683999761982931400,6.000331787109375,0.38957720986715405,-0.12611293800345244,-0.1511893271478716
1683999761992972600,6.010373046875,0.32102650406968924,-0.1772384643033511,-0.19066190712591133
1683999762003014100,6.02041455078125,0.2853214741492648,-0.20111179354066538,-0.20226740836295046
1683999762013055400,6.030455810546875,0.24280929576263083,-0.19828128823351465,-0.1821274758685944
1683999762023097000,6.040497314453125,0.20141404866554707,-0.136222839442512,-0.16619539246232348
1683999762033138400,6.050538818359375,0.1755020022098786,-0.0701694487758832,-0.07461118698976137
1683999762043179600,6.060580078125,0.10801923282117736,0.034972190827096024,0.039301395472251296
1683999762053221300,6.07062158203125,0.06296879058769139,0.1031837464762718,0.165728092054719
1683999762063262600,6.0806630859375,0.026096165304586534,0.14190673822074035,0.29214000699907205
1683999762073304000,6.090704345703125,-0.004354715205430414,0.18447113032855922,0.3616428374077304
1683999762083345600,6.10074609375,-0.016108989758335378,0.22385406490463763,0.4129872322167618
1683999762093386900,6.110787353515625,-0.021052241199482298,0.23896121965058068,0.42064762131448713
1683999762103428300,6.12082861328125,0.006158709577366419,0.208940506059063,0.4676890371545174
1683999762113469600,6.1308701171875,0.02894240614341879,0.12516307837623328,0.40770387661167223
1683999762123511200,6.14091162109375,0.058871209512158615,0.1320829390377987,0.3601355551169141
1683999762133552600,6.150952880859375,0.13866639129752228,0.14580154421059704,0.3270831108305302
1683999762143593900,6.160994384765625,0.1784111857346399,0.0862789154634702,0.29909229286219746
1683999762153635600,6.171035888671875,0.18745362765698653,0.06532859799373533,0.3255186081460745
1683999762163676800,6.1810771484375,0.17192119367750217,0.011702537551665816,0.2809324263131334
1683999762173718200,6.19111865234375,0.1408355831611371,-0.008177757378085345,0.258348464917347
1683999762183759800,6.20116015625,0.13085001699443374,0.02654075624346479,0.13059043874425363
1683999762193801100,6.211201416015625,0.06675630817706771,-0.12272167205103005,0.11851596824225766
1683999762203842600,6.221242919921875,0.013458907671760272,-0.16334533687377936,0.09298706057995389
1683999762213884100,6.231284423828125,-0.0021402239818767766,-0.0664443970663782,0.040162086570716696
1683999762223925400,6.241325927734375,-0.05071130386760632,-0.08391284950487952,0.061564445520330566
1683999762233966800,6.2513671875,-0.09664779887334742,-0.13637352002965758,0.07550621017633896
1683999762244008100,6.261408447265625,-0.059518039243718186,-0.07699966425891144,-0.05147790919485151
1683999762254049600,6.2714501953125,-0.04262843709978359,0.026501655550319133,-0.11666584008504954
1683999762264091100,6.281491455078125,-0.03826954954164899,0.10973453522748033,-0.18934965144573027
1683999762274132400,6.29153271484375,0.008232265643456194,0.12123489377369212,-0.19882440560876985
1683999762284174000,6.301574462890625,0.08933299783105433,0.15190315255380354,-0.1434760093230283
1683999762294215300,6.31161572265625,0.23014906048795652,0.1990451814141996,-0.036309242210473235
1683999762304256600,6.321656982421875,0.45849987880904874,0.2996883391880448,0.1610856055805343
1683999762314298300,6.33169873046875,0.7341141104932725,0.32303714745332146,0.3240180014164862
1683999762324339600,6.341739990234375,0.970770418729371,0.3293323517808669,0.4228630067213997
1683999762334381000,6.351781494140625,1.127113342326135,0.3143529892385165,0.5205130576128464
1683999762344422600,6.361822998046875,1.1954724788033582,0.2598161697201651,0.5327501296050594
1683999762354463900,6.3718642578125,1.1393133402558644,0.3074684142831585,0.6324954034548725
1683999762364505300,6.38190576171875,0.9121519921338269,0.3116083145656222,0.6690316200629707
1683999762374546600,6.391947021484375,0.6202620864889979,0.28244781490608223,0.5915737150221017
1683999762384588200,6.401988525390625,0.30047959082862075,0.277084350503415,0.5195937156299397
1683999762394629600,6.412030029296875,-0.007818445575420049,0.25271224988482405,0.42452526098190596
1683999762404671200,6.422071533203125,-0.1847012640180912,0.21670913692311516,0.3325757980203161
1683999762414712600,6.43211279296875,-0.19063311821129666,0.11047077173450237,0.27680492394440254
1683999762424753800,6.442154296875,-0.02118871361721181,0.09779262547076711,0.17241573326529924
1683999762434795400,6.45219580078125,0.3141666948357224,0.19128704079402012,0.11940097801429889
1683999762444836800,6.4622373046875,0.654412627206437,0.16314601917677993,0.15228462215479016
1683999762454878100,6.472278564453125,0.9479735495225446,0.19433975219213315,0.28148937211880054
1683999762464919600,6.48231982421875,1.201376557285854,0.2202072143614785,0.41097640984929384
1683999762474961100,6.492361572265625,1.3262184858242454,0.21719360363347592,0.49807024012293655
1683999762485002400,6.50240283203125,1.3071631192504096,0.15267086022951717,0.5383296013245121
1683999762495043800,6.512444091796875,1.1797885894042275,0.1312656402794247,0.4688892363661834
1683999762505085400,6.52248583984375,1.0358510017605593,0.19503593438843445,0.3936200142978965
1683999762515126600,6.532527099609375,0.8282852769897575,0.27447128300859497,0.29654359805830427
1683999762525168000,6.542568359375,0.5973452925845857,0.3478908537716591,0.24580144872796078
1683999762535209600,6.552610107421875,0.3804681003487824,0.4150848389360343,0.15052604680477605
1683999762545251000,6.5626513671875,0.18369637429503421,0.42428779598046223,0.09136390682341614
1683999762555292300,6.572692626953125,-0.005866013467024976,0.4328432082711335,0.018047332679810093
1683999762565333600,6.582734130859375,-0.1771539897341633,0.3934516907582087,-0.06254386886369544
1683999762575375300,6.592775634765625,-0.29685807215992327,0.35880565630119315,-0.12174367898843418
1683999762585416600,6.602817138671875,-0.46012836703821475,0.31482410432316166,-0.17604613291617793
1683999762595458000,6.6128583984375,-0.6288757324034876,0.254514694223766,-0.1550016402114501
1683999762605499600,6.62289990234375,-0.7445297241191157,0.14059543612502445,-0.21255445474056628
1683999762615540900,6.63294140625,-0.8249953985003873,0.10139465316803871,-0.16067314157842133
1683999762625582300,6.642982666015625,-0.7713260053685934,0.042044639456361554,-0.1492967605034863
1683999762635623900,6.653024169921875,-0.6985522509045897,-0.012603759699654722,-0.14261341094184046
1683999762645665200,6.663065673828125,-0.6453771590860518,0.006995201085027698,-0.12560796732730567
1683999762655706600,6.67310693359375,-0.5912706852060029,-0.04497623433660319,-0.07437849037075014
1683999762665748100,6.6831484375,-0.5493973494084248,-0.11101531978036432,-0.03209638585516889
1683999762675789600,6.69318994140625,-0.5566715598934584,-0.10976791381219389,-0.09892988216956551
1683999762685830800,6.703231201171875,-0.4917274714629158,-0.081712722869165,-0.09499406811925346
1683999762695872400,6.71327294921875,-0.4041807055360705,-0.07700920114378178,-0.08953380590328229
1683999762705913800,6.723314208984375,-0.36747962228565956,-0.11016273494081665,-0.035233020764026186
1683999762715955100,6.73335546875,-0.3175427913803374,-0.1980495453777378,-0.025996208230132233
1683999762725996600,6.743397216796875,-0.25335669517849946,-0.2856988905398569,-0.021602153859704747
1683999762736038100,6.7534384765625,-0.30223697415632567,-0.3711643219292616,0.015015602073447485
1683999762746079400,6.763479736328125,-0.4096086024557022,-0.493007659970728,-0.005556583262913076
1683999762756121000,6.773521484375,-0.6481020449858705,-0.648730278025663,-0.061950683577369756
1683999762766162400,6.783562744140625,-0.8476112484570114,-0.7786073685130004,-0.06350040429588025
1683999762776203600,6.79360400390625,-0.9664084314982639,-0.7851495742409269,-0.02526330940258761
1683999762786245300,6.803645751953125,-1.0550194978120329,-0.6139888763273943,0.07167911538811968
1683999762796286600,6.81368701171875,-1.0956735610784891,-0.32562255859996153,0.34130525599864187
1683999762806328000,6.823728271484375,-1.0220562219430978,-0.16204357149161475,0.5718979834796623
1683999762816369600,6.83377001953125,-0.9189477563301953,-0.0038633346532368973,0.7698764800830621
1683999762826410900,6.843811279296875,-0.7994673848206207,0.12748813621649474,0.8755846022558808
1683999762836452300,6.853852783203125,-0.6359755993108887,0.16803836808840533,0.8160610198156703
1683999762846493900,6.863894287109375,-0.4459328651937381,0.1516809463336756,0.773681640644852
1683999762856535200,6.873935546875,-0.29877811670682175,0.08337879178333178,0.7008433342205135
1683999762866576600,6.88397705078125,-0.19631761297682532,-0.06059169783804651,0.5430164336751917
1683999762876617900,6.894018310546875,-0.1674465537030986,-0.25334167486506265,0.2899384498435681
1683999762886659600,6.904059814453125,-0.20054203270164989,-0.39589881897820245,-0.060567855803149155
1683999762896700800,6.914101318359375,-0.2640885710538657,-0.5447168349728444,-0.39592218397188494
1683999762906742200,6.924142578125,-0.39905726904891076,-0.6394538879229652,-0.7050976752550149
1683999762916783800,6.93418408203125,-0.4970661997921992,-0.7111635208109407,-0.9759528636898878
1683999762926825100,6.9442255859375,-0.7083130478205621,-0.6860885619724139,-1.1063313484811956
1683999762936866700,6.95426708984375,-0.9011666178601521,-0.6623487472738203,-1.2494006158145585
1683999762946908100,6.96430859375,-1.0094758271559316,-0.6470251082179628,-1.4337911607368303
1683999762956949400,6.974349853515625,-0.9687638283607238,-0.6306600569940183,-1.6906042097621254
1683999762966990800,6.98439111328125,-0.8628423214392295,-0.6637954712661845,-1.9629819392780288
1683999762977032400,6.994432861328125,-0.6721866130305257,-0.6844968795626721,-2.1896564959123954
1683999762987073600,7.00447412109375,-0.3756767511115819,-0.6525459290540286,-2.3647732734123235
1683999762997115100,7.014515380859375,-0.08812439446555913,-0.6133995055995277,-2.5749089717110545
1683999763007156600,7.02455712890625,0.15700483323236894,-0.5523176194330438,-2.6909153460993647
1683999763017198000,7.034598388671875,0.22055828575042344,-0.43080902098152185,-2.5748393536493355
1683999763027239300,7.0446396484375,0.0714663267004796,-0.3844957350984072,-2.2938446998241955
1683999763037280900,7.054681396484375,-0.01251769068604066,-0.369944572291196,-1.943472385493093
1683999763047322300,7.06472265625,-0.033132076369938875,-0.296577453568606,-1.6023550032878349
1683999763057363600,7.074763916015625,0.00552487379065723,-0.200784683319932,-1.2775461674594035
1683999763067405200,7.0848056640625,-0.0473084450695412,-0.14533615117283377,-0.8763861654346098
1683999763077446600,7.094846923828125,-0.161658525316345,-0.19302940380272268,-0.526778697905217
1683999763087487900,7.104888427734375,-0.20849215974178387,-0.21521282194432503,-0.28931045527647725
1683999763097529600,7.114929931640625,-0.1899794339890783,-0.15921211240515942,-0.18296098715825007
1683999763107570900,7.12497119140625,-0.09419572350744392,-0.08223342888202174,-0.08805322642340564
1683999763117612200,7.1350126953125,0.03118121634146072,0.006119728118727025,-0.08563804636403875
1683999763127653800,7.14505419921875,0.18893301486662797,0.05794525155895527,-0.08892917615435567
1683999763137695200,7.155095458984375,0.4157212974043457,0.10922431946626865,-0.17334413524794476
1683999763147736600,7.165136962890625,0.568948805394783,0.12212467179142143,-0.263795852689182
1683999763157778100,7.175178466796875,0.6482916474524071,0.07340717308923489,-0.3696413039889026
1683999763167819400,7.1852197265625,0.5969567298800068,0.020711898760213246,-0.3054137230141757
1683999763177860800,7.19526123046875,0.43974769104830486,-0.023989677479568535,-0.25162363045852404
1683999763187902400,7.205302734375,0.20818310975490179,0.008776664676711718,-0.2847156526070699
1683999763197943600,7.21534423828125,-0.07710492596362557,0.030546188255693028,-0.16026067743477504
1683999763207985100,7.225385498046875,-0.25838494293789566,-0.006774902251608097,-0.12398910520086459
1683999763218026600,7.235427001953125,-0.4859797955164667,0.040231704696004074,-0.0694332121624222
1683999763228068000,7.245468505859375,-0.6597434280963458,0.09479618086397618,-0.01746988292956355
1683999763238109400,7.255509765625,-0.82646012297815,0.17791938781360178,0.13201856598269
1683999763248151000,7.26555126953125,-0.941437363603671,0.20093536384601707,0.19951486585759606
1683999763258192300,7.2755927734375,-0.8825627564428155,0.1976156235177048,0.2160987854159767
1683999763268233600,7.285634033203125,-0.6504627468023411,0.15161800391270885,0.19620037093973028
1683999763278275200,7.295675537109375,-0.3949841260128407,0.15845680245400706,0.05634641655917991
1683999763288316600,7.305717041015625,-0.10000288485357446,0.0678730011267268,-0.0952367782950217
1683999763298357900,7.31575830078125,0.02519869817158555,0.09853076945201963,-0.19827270497068247
1683999763308399600,7.325800048828125,0.057396769560732336,0.04539775857800718,-0.2271056174899174
1683999763318440900,7.33584130859375,0.01398682580137119,-0.09546756747214108,-0.19668340675633628
1683999763328482200,7.345882568359375,-0.2605751753172012,-0.23520851118803482,-0.4368619917173451
1683999763338523800,7.35592431640625,-0.7856333256711986,-0.3334150315431743,-0.6699118614010573
1683999763348565200,7.365965576171875,-1.4499896764458604,-0.4571132659205529,-0.7501020431880538
1683999763358606600,7.3760068359375,-2.2240498065013847,-0.6025047301647697,-0.7003340719820839
1683999763368648100,7.386048583984375,-2.7532382011765884,-0.7105541228981731,-0.7070713043293576
1683999763378689500,7.39608984375,-2.574574708980001,-0.7381982802995831,-0.7757730484727381
1683999763388730800,7.406131103515625,-1.7948290110836767,-0.5820264817816264,-0.8901395796806206
1683999763398772400,7.4161728515625,-0.7517360447808199,-0.43248748789520125,-0.7815732955869359
1683999763408813700,7.426214111328125,0.3132845164414286,-0.11626243588383367,-0.5018367767542177
1683999763418855100,7.43625537109375,1.4061183931166883,0.3181309700790712,-0.17966413485648053
1683999763428896600,7.446297119140625,2.3735792636477875,0.6715106962767811,-0.005239486744254243
1683999763438938000,7.45633837890625,3.070885658162898,0.7703418731758587,0.25402212142625014
1683999763448979400,7.4663798828125,3.3295331000460626,0.7156105042573565,0.5229625703629289
1683999763459021000,7.47642138671875,2.981690406696987,0.7072596548856755,0.7276511193916858
1683999763469062300,7.486462646484375,1.9031426905486586,0.6865406035889073,0.8981056213918817
1683999763479103600,7.496504150390625,0.49092447747323753,0.53067636484945,1.2873849868431393
1683999763489145300,7.506545654296875,-1.0892422199285,0.32153415663754586,1.744922161094115
1683999763499186600,7.5165869140625,-2.1594123839714654,0.21548461922410983,0.6982254981476349
1683999763509228000,7.52662841796875,-2.4844303131628305,0.19497680670589032,-0.49756908412741635
1683999763519269600,7.536669921875,-2.1131315231620778,0.17109298702529263,-1.2865190507066906
1683999763529310900,7.546711181640625,-1.2176580429936088,0.17713356013696113,-1.8587098122149341
1683999763539352200,7.556752685546875,-0.1007030009264865,0.05941677095286944,-1.8560895920264529
1683999763549393800,7.566794189453125,0.6135532260965235,-0.056214332577642086,-1.6284112929204464
1683999763559435200,7.576835693359375,0.6802230476277282,-0.053707122666006545,-1.2534232140139396
1683999763569476800,7.586877197265625,0.6549205781422823,0.1542758941639112,-0.6838893888823584
1683999763579518100,7.59691845703125,0.6406765579277378,0.362496852855488,-0.19535636888895816
1683999763589559500,7.6069599609375,0.7664416431470246,0.4970464706845896,0.15271615983032266
1683999763599600800,7.617001220703125,0.8943622113559072,0.5240583420650399,0.2978534697480209
1683999763609642400,7.627042724609375,0.9325257539835429,0.37763023382939,0.3076066969500719
1683999763619683800,7.637084228515625,0.7868463992960372,0.22639799129857074,0.05409526816512959
1683999763629725100,7.64712548828125,0.47874230150697317,0.09739208231554716,-0.3104462622956055
1683999763639766600,7.6571669921875,0.04919826989830852,0.012558937122074489,-0.652904987317649
1683999763649808000,7.66720849609375,-0.35730493065676444,-0.07069587720248047,-0.9549589157112781
1683999763659849600,7.67725,-0.6571519375116648,-0.1380205154320864,-1.134308814936841
1683999763669891000,7.68729150390625,-0.758965730844044,-0.29695987693103126,-1.2211437226257578
1683999763679932300,7.697332763671875,-0.7824833392528341,-0.43263149260770506,-1.2366881369348692
1683999763689973600,7.7073740234375,-0.7818883656925714,-0.5666847228019808,-1.2102980614215175
1683999763700015300,7.717415771484375,-0.7465397117780309,-0.5464649199185053,-1.178963661351607
1683999763710056600,7.72745703125,-0.5627295970064894,-0.472490310533531,-1.0666718483420679
1683999763720098200,7.73749853515625,-0.34476113333070807,-0.3136510849825038,-0.9763193130366472
1683999763730139600,7.7475400390625,-0.15261232840740097,-0.11056709294358992,-0.8167867660669508
1683999763740180900,7.757581298828125,0.0064282417204148245,0.07668018348334378,-0.5838856697669825
1683999763750222600,7.767622802734375,0.0595390199623944,0.1880054473366661,-0.3718328476211529
1683999763760263900,7.777664306640625,-0.017023324790459753,0.25413227081438894,-0.15322017671135144
1683999763770305200,7.78770556640625,-0.20521628869156616,0.2607288359477643,0.02138519296275015
1683999763780346800,7.797747314453125,-0.41945874676779854,0.24542713163554267,0.22488117210982997
1683999763790388100,7.80778857421875,-0.527458608197621,0.23436355590213787,0.36447048178221897
1683999763800429600,7.817829833984375,-0.5410541295926021,0.2657899856003919,0.48198318489932024
1683999763810471100,7.82787158203125,-0.5010139346840633,0.31272792818767575,0.6436986923818138
1683999763820512400,7.837912841796875,-0.34769630415721897,0.4444475174158461,0.7516012189957183
1683999763830553800,7.8479541015625,-0.22314441191187032,0.494051456393708,0.7538971902482278
1683999763840595400,7.857995849609375,-0.09129756687463529,0.47128009779628954,0.7125077249386788
1683999763850636600,7.868037109375,-0.06705558282338735,0.2881069182407072,0.7038125990740549
1683999763860678100,7.878078369140625,-0.16806381940780227,-0.12918472290692312,0.6390767097222194
1683999763870719600,7.8881201171875,-0.509696900851555,-0.7950181961087589,0.5864086149306773
1683999763880761000,7.898161376953125,-1.2883147002454383,-1.463127136360662,0.3469076156337752
1683999763890802400,7.90820263671875,-2.3664388657045587,-2.0548801421917178,0.22441720974813484
1683999763900844000,7.918244384765625,-3.4333548545156027,-2.552413940436922,0.36587286006905834
1683999763910885300,7.92828564453125,-4.24402427676352,-2.7841806411838594,0.4154925345998099
1683999763920926900,7.938327392578125,-3.837689638169799,-2.499920844985732,0.49872016903906186
1683999763930968200,7.94836865234375,-2.3163149356710298,-1.7972669601387379,0.267513275172673
1683999763941009600,7.958409912109375,-0.5321423410798927,-1.0093755723805447,-0.13037204729576662
1683999763951051200,7.96845166015625,0.7472105621139999,-0.5625934600295154,-0.4401178361498534
1683999763961092600,7.978492919921875,1.4142013789056724,-0.5801000595613548,-0.44611024840916486
1683999763971133900,7.9885341796875,1.746296048155792,-0.5683221816788518,-0.46736335753238245
1683999763981175500,7.998575927734375,1.985740423167423,-0.2235298155140554,-0.489185810068641
1683999763991216800,8.0086171875,2.1157758236764654,0.287786483818883,-0.3410096167733248
1683999764001258200,8.018658447265626,1.978707790489629,0.6603937149229359,-0.08981084828427566
1683999764011299800,8.0287001953125,1.741262316662229,0.8578653335592199,0.014652729189465804
1683999764021341100,8.038741455078124,1.4242789745348297,0.8802156447836902,-0.052070617673116194
1683999764031382400,8.048782958984376,1.0696798563580743,0.6485166549494494,-0.18411302564319218
1683999764041424000,8.058824462890625,0.6671664119821422,0.23261547096930116,-0.3968377113229379
1683999764051465400,8.06886572265625,0.18311446886391688,0.01122570041293862,-0.755002975444747
1683999764061506700,8.0789072265625,-0.2659069894728805,-0.10595417014967481,-0.994402646879718
1683999764071548300,8.08894873046875,-0.656966030545976,-0.2436618805749262,-1.056312561045898
1683999764081589600,8.098989990234376,-0.9656901358308299,-0.3626327514808274,-0.9829769134278018
1683999764091631000,8.109031494140625,-1.0393812656154884,-0.4213514329528734,-0.8225226402454515
1683999764101672600,8.119072998046875,-0.7552926538458413,-0.23649692548752538,-0.609902858637474
1683999764111714000,8.1291142578125,-0.16645795101038477,-0.012830734321761874,-0.4201579095310681
1683999764121755600,8.139156005859375,0.43967446677339955,0.11174011231850213,-0.21439981474963102
1683999764131796900,8.149197265625,0.9431623219809329,0.11587715136524133,-0.043580531937918214
1683999764141838300,8.15923876953125,1.264252662624376,0.08345985413482121,0.01783514022981148
1683999764151879900,8.1692802734375,1.3788471222221894,0.08414649967789142,-0.034563064651437964
1683999764161921200,8.179321533203124,1.330254793136042,0.1469011305929493,-0.12614965441291026
1683999764171962600,8.189363037109375,1.1826076507954018,0.1951723099217987,-0.21401214587029083
1683999764182004100,8.199404541015625,0.9608041046904652,0.0686435698940667,-0.2985825538905304
1683999764192045600,8.20944580078125,0.6773959995679656,-0.039508819569939145,-0.3543241023144634
1683999764202086800,8.2194873046875,0.4056759476179352,-0.11017704004861381,-0.3376185894681878
1683999764212128400,8.22952880859375,0.22278508547599835,-0.12193489074696982,-0.3007965087594536
1683999764222169800,8.239570068359376,0.16286689060080695,-0.09879970546608723,-0.28439044938823
1683999764232211100,8.249611572265625,0.18571935598439107,-0.1507987976014773,-0.2504396439500422
1683999764242252600,8.259653076171874,0.31233650434233706,-0.26085853588663377,-0.24901914608622236
1683999764252294100,8.269694580078125,0.5439355968830705,-0.23231601706930194,-0.2740344999439838
1683999764262335400,8.27973583984375,0.7806122900595659,-0.27746582013419907,-0.1786627769879733
1683999764272377000,8.28977734375,0.9613500834539068,-0.32471084590610094,-0.061664104652458286
1683999764282418400,8.29981884765625,1.0455993412984765,-0.3550720214921176,-0.07623529440077577
1683999764292460000,8.3098603515625,1.031176328756561,-0.38510513317280515,-0.21922111502956018
1683999764302501300,8.319901611328126,0.9986398817214425,-0.3338127134731737,-0.34499239926730013
1683999764312542600,8.329943115234375,0.9431340097465726,-0.2828254699224847,-0.5447924136366669
1683999764322584200,8.339984619140624,0.9501015544632676,-0.23919582376529236,-0.7011981010536865
1683999764332625600,8.35002587890625,0.9295748471114221,-0.21010398856438173,-0.8024652003439415
1683999764342666900,8.3600673828125,0.9839300514045577,-0.24815940850363563,-0.8728578091254967
1683999764352708600,8.37010888671875,1.0159711837962035,-0.34851074214648836,-0.9102578163342921
1683999764362749900,8.380150390625,1.0832417010526783,-0.4515352249635892,-0.9104471206527074
1683999764372791200,8.390191650390625,1.1237841844015692,-0.5764913559655894,-0.950260162362476
1683999764382832800,8.400233154296876,1.1378041505158805,-0.6922426223715434,-0.9793331623227803
1683999764392874200,8.410274658203125,1.1086523533308938,-0.7197113038474079,-1.0710520744067848
1683999764402915600,8.42031591796875,1.0536260603763898,-0.69471359255801,-1.150632619983098
1683999764412957100,8.430357421875,0.9658484459720599,-0.6598300934068866,-1.2096786498201106
1683999764422998400,8.44039892578125,0.8356444238707866,-0.5093555449209474,-1.265875101140495
1683999764433039800,8.450440185546874,0.6304613351836844,-0.42266941089801446,-1.233171939837833
1683999764443081400,8.460481689453125,0.45656597614535804,-0.3160104751750779,-1.1739344596763295
1683999764453122700,8.470523193359375,0.26428261395623037,-0.2107048035293246,-1.0999209881339238
1683999764463164300,8.480564697265624,0.13523107757122413,-0.11132335671528862,-0.9823842050106983
1683999764473205600,8.490606201171875,0.11921995879825152,-0.06821632375369484,-0.7624874115983461
1683999764483247000,8.5006474609375,0.14450222255354356,-0.05766582502241115,-0.539185047194619
1683999764493288600,8.51068896484375,0.2255911826889847,-0.03459548951749654,-0.3203427791874533
1683999764503330000,8.52073046875,0.3216035663050161,-0.04702854158758147,-0.1611628532617962
1683999764513371300,8.530771728515624,0.41627871992221444,0.0051994323847130335,-0.05462551122178241
1683999764523412900,8.540813232421876,0.474980175409659,0.06915283203108641,0.08261013039620851
1683999764533454300,8.550854736328125,0.5210204720788422,0.09693622584275442,0.18106031417473722
1683999764543495900,8.560896240234374,0.5111738442967906,0.117268562370068,0.28377580643388384
1683999764553537200,8.5709375,0.485823512075085,0.14195919022807396,0.38808679583282585
1683999764563578600,8.58097900390625,0.42536795137061884,0.13976573945066034,0.41724586478738307
1683999764573619900,8.591020263671876,0.3653742670739423,0.12498378757988653,0.4214243888426861
1683999764583661600,8.601061767578125,0.3014250994351993,0.04966735831379311,0.3858599664011361
1683999764593702800,8.611103271484374,0.19059699774372246,-0.0021867751612966555,0.2610759735370857
1683999764603744400,8.621144775390626,0.06944465624473124,-0.029957771456460718,0.14380216610455165
1683999764613785800,8.631186279296875,-0.06134372946146606,-0.09278774277735857,0.05208063123543263
1683999764623827100,8.6412275390625,-0.15243166692086468,-0.10283946989664579,-0.012139320299999742
1683999764633868600,8.65126904296875,-0.18746858842414796,-0.12902069100429303,-0.03278970713286348
1683999764643910100,8.661310546875,-0.1768296957266357,-0.07446193702292844,-0.01793003094373147
1683999764653951400,8.671351806640626,-0.12478697310407261,-0.010989189178611419,-0.010480880623999659
1683999764663993000,8.681393310546875,-0.03489506238739162,0.00468349446188939,0.05785846713130425
1683999764674034400,8.691434814453125,0.0689157842847987,0.008500099301306142,0.0706906318616387
1683999764684076000,8.701476318359376,0.13475340611861789,-0.041962623614787566,0.09940624243385347
1683999764694117300,8.711517578125,0.166707813848967,-0.02568721760983629,0.021645545919949556
1683999764704158600,8.72155908203125,0.18607360109675378,-0.009461402877581904,-0.06366324433520788
1683999764714200200,8.7316005859375,0.2023192644882865,-0.00029182428298369506,-0.07619547850460122
1683999764724241600,8.74164208984375,0.2151854037604215,-0.012243270746169543,-0.09020733831887934
1683999764734282900,8.751683349609374,0.2216537593401726,0.004514694099545618,-0.11249971380362117
1683999764744324600,8.761724853515625,0.18123477683505398,0.01657962802980918,-0.10270810143953464
1683999764754365900,8.771766357421875,0.18698042618672536,-0.008908271693644538,-0.07315635688557928
1683999764764407500,8.781807861328126,0.170614779024512,0.008764266980091702,-0.03832268705368689
1683999764774448800,8.79184912109375,0.15444850933759863,0.03351020820188327,-0.022091865542915676
1683999764784490200,8.801890625,0.12464892862522053,0.07477378855165764,-0.00504422188226647
1683999764794531600,8.811931884765626,0.11210638286982165,0.09465217585806461,0.04351449011044797
1683999764804573100,8.821973388671875,0.09021961689608088,0.11700344094691957,0.10422158245841652
1683999764814614400,8.832014892578124,0.07765591146824799,0.11351108540146802,0.15807199478496237
1683999764824656000,8.842056396484375,0.06012487412588865,0.09635257716096458,0.2169106005029856
1683999764834697400,8.852097900390625,0.04215097415445763,0.12706947326939916,0.27391982078163624
1683999764844738700,8.86213916015625,0.023730039549865502,0.18843364714657448,0.31985592832749205
1683999764854780300,8.8721806640625,0.024054885072544593,0.23991107934537886,0.4042894838672639
1683999764864821600,8.88222216796875,0.027136623966041384,0.2791595459702357,0.542523384151467
1683999764874863000,8.892263427734376,0.05685615533127406,0.3345098494497523,0.6673483849177588
1683999764884904600,8.902304931640625,0.041871964866563645,0.3184223174967043,0.8021802902047835
1683999764894946000,8.912346435546874,0.02895957225670662,0.2883348465588017,0.9370546340480597
1683999764904987600,8.922387939453126,-0.0016703606623187032,0.30550003054438646,1.0434780120205915
1683999764915028900,8.93242919921875,-0.0497368575261959,0.3290147782363652,1.0981321333763945
1683999764925070300,8.942470703125,-0.10243034365979181,0.3752117157047055,1.143963098490072
1683999764935111900,8.95251220703125,-0.15835046763362584,0.36837005612724244,1.216044187564389
1683999764945153200,8.9625537109375,-0.17829930790241053,0.37537765506858245,1.3090147971896218
1683999764955194600,8.972594970703126,-0.1949161887413711,0.40312099459485756,1.3800117969350139
1683999764965236100,8.982636474609375,-0.18415319926198326,0.45121765131360003,1.3537847996973902
1683999764975277600,8.992677978515625,-0.1657894851070673,0.49311828619978926,1.334876298879945
1683999764985318800,9.00271923828125,-0.17864531273451165,0.5403432846504347,1.23544549939988
1683999764995360400,9.0127607421875,-0.19940865045618683,0.5831232071883369,1.103474617049138
1683999765005401800,9.02280224609375,-0.1949772835275719,0.6169786453482912,0.9540226459516552
1683999765015443400,9.03284375,-0.18344044699015052,0.5504865646788537,0.8983504771851685
1683999765025484600,9.042885009765625,-0.11573743826569283,0.4231367110971789,0.8970999716453336
1683999765035526100,9.052926513671874,0.020819544901428257,0.30438423151677096,0.9070086478596249
1683999765045567600,9.062968017578124,0.15792083733707593,0.19417762767537475,0.932664871210782
1683999765055609000,9.073009521484376,0.347390174944712,0.0757818221037208,0.9595570564887783
1683999765065650400,9.08305078125,0.5188739894451502,0.0009307862101327074,0.9382300376144662
1683999765075692000,9.09309228515625,0.6844784022282847,-0.11359596246614746,0.8840487003359925
1683999765085733300,9.1031337890625,0.8294748663263247,-0.2415256500474592,0.887082099982028
1683999765095774900,9.11317529296875,0.9206973313006694,-0.36649131790799083,0.8214182854181588
1683999765105816200,9.123216552734377,0.9798514842384511,-0.4932985304470676,0.6155946254861128
1683999765115857600,9.133258056640624,0.9702810047854945,-0.6216831208277743,0.39045739173201777
1683999765125899200,9.143299560546875,0.9257485866783076,-0.7087516785643814,0.10974073397173716
1683999765135940600,9.1533408203125,0.7686352133254964,-0.7945032120154046,-0.22636747365747767
1683999765145981900,9.16338232421875,0.5757622719808179,-0.9325666427577484,-0.5145103930755082
1683999765156023500,9.173423828125,0.3619303105811938,-1.0581722260109279,-0.8207144736308455
1683999765166064800,9.18346533203125,0.08579295874268457,-1.2169952391269048,-1.156161308430059
1683999765176106400,9.1935068359375,-0.2041077017799946,-1.3842935562452172,-1.4659416676699852
1683999765186147800,9.203548095703123,-0.45504030587255073,-1.4671773911358656,-1.7243869306151238
1683999765196189100,9.213589599609374,-0.7396914958928084,-1.5187473297415481,-1.946853637697792
1683999765206230600,9.223631103515626,-1.0461156367344924,-1.4623441696397106,-2.195088386514866
1683999765216272000,9.23367236328125,-1.3892036676837793,-1.3952064514320959,-2.4604859352747206
1683999765226313400,9.2437138671875,-1.6309115887046692,-1.1896104813313293,-2.5679843425777586
1683999765236355000,9.25375537109375,-1.7032616138679544,-0.9192285538035535,-2.328554391785895
1683999765246396300,9.263796630859376,-1.6089438199794348,-0.5222578047625929,-1.9611444472971713
1683999765256437900,9.27383837890625,-1.415148973517145,-0.11947059632186491,-1.5597238541996663
1683999765266479300,9.283879638671875,-1.1438401937861182,0.13445377357812285,-1.0949335097925228
1683999765276520600,9.293921142578125,-0.8484840393952441,0.2291126250615724,-0.8138918877868394
1683999765286562200,9.303962646484376,-0.5298199057017862,0.281659126127679,-0.6729032993927191
1683999765296603600,9.31400390625,-0.17197155954655963,0.36372089375744276,-0.6012370585921326
1683999765306644900,9.32404541015625,0.13015478863285324,0.4608678818041814,-0.6367857455579674
1683999765316686600,9.3340869140625,0.34613758327880206,0.5610036849861884,-0.7058579922452034
1683999765326727900,9.344128173828125,0.47056326270000753,0.573099136364683,-0.7617354392927749
1683999765336769200,9.354169677734374,0.5560390948618761,0.49704837793325746,-0.769916057643089
1683999765346810800,9.364211181640623,0.5836718082375086,0.3377380369920691,-0.8148336410095737
1683999765356852100,9.37425244140625,0.5516860484072302,0.15053844453488788,-0.8079133033785352
1683999765366893700,9.384294189453126,0.535026192767848,-0.023451805112378998,-0.8274090289983612
1683999765376935100,9.39433544921875,0.5300531387772918,-0.2749137878990928,-0.8374047280203191
1683999765386976600,9.404377197265624,0.6051131487389153,-0.5130786895340178,-0.7738909721591734
1683999765397018000,9.41441845703125,0.6297397614047539,-0.7666101455527207,-0.7158005237788733
1683999765407059400,9.424459716796877,0.5875055790478918,-0.9873456953877531,-0.6862227917197271
1683999765417101000,9.43450146484375,0.527762413088568,-1.1459817886094796,-0.6932053564755148
1683999765427142300,9.444542724609375,0.5035338401760552,-1.1726398467304109,-0.6947338581471542
1683999765437183600,9.454583984375,0.4582186936335575,-1.0791215896007298,-0.7427649499113093
1683999765447225300,9.464625732421876,0.34204217784073765,-0.8917226791851534,-0.8128752708641097
1683999765457266600,9.4746669921875,0.14328289039610634,-0.7781457902051772,-0.83382463444525
1683999765467308000,9.484708251953125,-0.02411460872676732,-0.6576461792707837,-0.8113317490075472
1683999765477349600,9.49475,-0.10353004937336592,-0.47339630129505145,-0.9296941756302725
1683999765487390900,9.504791259765623,-0.050390303069330414,-0.23284530643036144,-1.0427401066556639
1683999765497432600,9.5148330078125,0.06265759468381864,-0.03865718849000974,-1.154879570027437
1683999765507473800,9.524874267578124,0.1543751953715654,0.08065414422526453,-1.1779904366232454
1683999765517515200,9.53491552734375,0.21474975339559635,0.1373004912146123,-1.2081565857028047
1683999765527556800,9.544957275390624,0.2123942374859376,0.20093154896664722,-1.192933082482942
1683999765537598100,9.55499853515625,0.18895006184471738,0.23078250877013456,-1.0949411391218276
1683999765547639600,9.5650400390625,0.11272573484718017,0.27680873868918676,-0.9868552685577773
1683999765557681100,9.57508154296875,0.05825352671103904,0.2530775068587091,-0.8804740905614724
1683999765567722400,9.585122802734375,0.07732182737815202,0.2266025543068808,-0.7659661769716811
1683999765577764000,9.595164306640624,0.09275823839546035,0.19962883007327636,-0.6838316917851947
1683999765587805400,9.605205810546876,0.12088555101352728,0.1722507475920219,-0.6309218405547906
1683999765597846600,9.6152470703125,0.14121294036645382,0.123214721663245,-0.651803970261687
1683999765607888300,9.625288818359374,0.15326726428812903,0.0026063920800603975,-0.6146886348513985
1683999765617929600,9.635330078125,0.1604092121174345,-0.1270942687861794,-0.5769920348719747
1683999765627971200,9.64537158203125,0.14921927450486627,-0.20606803880359953,-0.5795497895206567
1683999765638012600,9.6554130859375,0.13791334624229393,-0.23183059681022197,-0.5648183822466646
1683999765648053900,9.665454345703123,0.0572695732524443,-0.2570304871203427,-0.5614962577152233
1683999765658095600,9.675495849609376,-0.09583163266425597,-0.23887920371803797,-0.5576205253071022
1683999765668136900,9.685537353515626,-0.25903725612132045,-0.21865940091173885,-0.5058312416763148
1683999765678178200,9.69557861328125,-0.4138485193280985,-0.20392608645158414,-0.4947848321045079
1683999765688219800,9.7056201171875,-0.5001926422094435,-0.1447086333549789,-0.507844925013781
1683999765698261200,9.71566162109375,-0.5025309324984057,-0.12949180606526625,-0.5308575630204005
1683999765708302800,9.725703125,-0.5003607272702333,-0.17265605927673922,-0.5211772918022152
1683999765718344100,9.73574462890625,-0.5314451456447346,-0.22414302821734963,-0.5650696755347744
1683999765728385500,9.745785888671875,-0.552223801503476,-0.3339080810328675,-0.5663208960105763
1683999765738427100,9.755827392578125,-0.5943021773918061,-0.40122795095877845,-0.5867204665609115
1683999765748468400,9.765868896484376,-0.5977288483818117,-0.4904308318261332,-0.5690960884690743
1683999765758510000,9.775910400390623,-0.604075312585003,-0.47440052041678676,-0.5519814491388582
1683999765768551300,9.78595166015625,-0.5055609941681546,-0.39567947381284496,-0.5206108093896288
1683999765778592600,9.7959931640625,-0.33533942704201397,-0.33301734917250536,-0.4363722801395273
1683999765788634300,9.80603466796875,-0.20496118068944244,-0.28194904331845855,-0.36343669885964713
1683999765798675600,9.816075927734374,-0.11054658899408482,-0.250252723651425,-0.37319612505607075
1683999765808717200,9.82611767578125,0.03998517997748399,-0.19482135768634107,-0.38603591909227913
1683999765818758600,9.836158935546877,0.324160933324968,-0.12753486644506093,-0.4379324913446316
1683999765828799900,9.846200439453124,0.6510856150565658,-0.11034774771017299,-0.5388512611423956
1683999765838841600,9.856241943359375,0.9078009128113737,-0.11892414104643034,-0.5746488571436423
1683999765848882900,9.866283203125,1.0027283429828904,-0.14803600316532303,-0.5772657396017425
1683999765858924200,9.87632470703125,0.9875248669925464,-0.1494369506884724,-0.5849008561603964
1683999765868965800,9.8863662109375,0.8403983115932185,-0.1398429871239478,-0.5920577048364524
1683999765879007200,9.896407470703124,0.5822092294336911,-0.08860778819776921,-0.5788168907746744
1683999765889048800,9.90644921875,0.2824435232827571,-0.09895229341999609,-0.6071252823179828
1683999765899090100,9.916490478515623,0.11309528358602952,-0.09915351865878866,-0.5862808227028433
1683999765909131400,9.92653173828125,0.041577100880703814,-0.06768321986810132,-0.6099300384212983
1683999765919173000,9.936573486328124,-0.06794500361508769,-0.11958980557319478,-0.6854653359871473
1683999765929214400,9.94661474609375,-0.23530578614014475,-0.14531898501075521,-0.6768116950762536
1683999765939256000,9.956656494140624,-0.3514208793260813,-0.18834209436274033,-0.7346715928410376
1683999765949297300,9.96669775390625,-0.2971518040974264,-0.1433563231723031,-0.8681635856386054
1683999765959338600,9.976739013671876,0.01855349530315898,-0.06727123263363086,-1.0075197220983017
1683999765969380300,9.98678076171875,0.4245114326094871,-0.007245063831382275,-1.1616268158055363
1683999765979421600,9.996822021484377,0.7944113016071769,0.015377998297214231,-1.2799496650697628
1683999765989463000,10.00686328125,1.055531859395105,0.0366468428528374,-1.3604853151707053
1683999765999504600,10.016905029296876,1.1577435730678916,-0.0006942750100377574,-1.3709571360111201
1683999766009545900,10.0269462890625,1.1437420843677604,-0.022306442072311385,-1.3699755668420146
1683999766019587600,10.03698779296875,1.0122550726405006,-0.04719161976793522,-1.350922107669988
1683999766029628800,10.047029296875,0.7393372058685888,-0.08823204032268582,-1.3370289803372428
1683999766039670200,10.057070556640625,0.4595259429608839,-0.13384532921750625,-1.2966277599559133
1683999766049711800,10.0671123046875,0.183564901440262,-0.14389896388534806,-1.266234397956299
1683999766059753100,10.077153564453123,0.037254333687623056,-0.14757442464687776,-1.2917947768997715
1683999766069794700,10.087195068359376,-0.03608322153185093,-0.13570117949487798,-1.3034427166833191
1683999766079836100,10.097236572265626,-0.05634212506436687,-0.1063165665355665,-1.2897205352869938
1683999766089877600,10.107278076171877,-0.008020162589889235,-0.10676956175592234,-1.2684867382108476
1683999766099919000,10.1173193359375,0.057087898257117575,-0.06353378284995446,-1.2836992739099515
1683999766109960400,10.12736083984375,0.1192953587073535,-0.05717468267666676,-1.2768683434943349
1683999766120002000,10.13740234375,0.10458636277135196,-0.09402370454469698,-1.2910459041431321
1683999766130043300,10.147443603515624,0.06890511521430184,-0.15458869948345114,-1.2598154544527271
1683999766140084600,10.157485107421875,0.037606716326246445,-0.17733192450849902,-1.3034105299097807
1683999766150126300,10.167526611328125,0.023985624338504933,-0.19352626797917286,-1.3068661690506382
1683999766160167600,10.177568115234376,0.016207218113116595,-0.21270465854171655,-1.2612903117500605
1683999766170209200,10.187609619140623,0.013668537168687328,-0.21587181087966908,-1.221636533687445
1683999766180250600,10.19765087890625,-0.01738476745695209,-0.19377517694655852,-1.1219730377259054
1683999766190291900,10.2076923828125,-0.06109809864210793,-0.19163894650293903,-0.9991765022557155
1683999766200333600,10.21773388671875,-0.15135097511643147,-0.1996355055258527,-0.8280439377933243
1683999766210374800,10.227775146484374,-0.2074041364985847,-0.17546463024826503,-0.6309370995478553
1683999766220416200,10.237816650390624,-0.22400665264895553,-0.19078636180843284,-0.4650654792835174
1683999766230457800,10.247858154296877,-0.2806327343421024,-0.24306583393339026,-0.3207101820411452
1683999766240499100,10.2578994140625,-0.3501179218709537,-0.27076339715951997,-0.1670942307900225
1683999766250540600,10.267941162109375,-0.34740686420436206,-0.2956132887898813,-0.061058044485448874
1683999766260582100,10.277982421875,-0.26446795468311285,-0.2917098998554521,0.02179145821032558
1683999766270623600,10.288024169921876,-0.2187446354857303,-0.30174732203923443,0.0700912474411642
1683999766280665000,10.2980654296875,-0.28848326208483416,-0.36070919036224475,0.12185859681987855
1683999766290706400,10.308106689453124,-0.33173692225137147,-0.474627494812689,0.1652598381021294
1683999766300748000,10.3181484375,-0.4228988886514337,-0.5530271529915362,0.20040893556730355
1683999766310789300,10.328189697265625,-0.6104826926142649,-0.6647634505200977,0.23008775698001252
1683999766320830900,10.338231201171874,-1.035437703184111,-0.7274398804624507,0.22569036477886628
1683999766330872200,10.348272705078124,-1.5203332901293123,-0.8348379135171781,0.24658775344061368
1683999766340913600,10.35831396484375,-2.0237727165506247,-0.9249353408483144,0.25348901745986135
1683999766350955200,10.36835546875,-2.3761391638779448,-1.068067550762824,0.46164226548933424
1683999766360996600,10.37839697265625,-2.6484565734475973,-0.9780645370480167,0.6560530662489168
1683999766371038100,10.3884384765625,-2.4687685965749924,-0.5738773345860034,0.6920819283560918
1683999766381079600,10.39847998046875,-1.8202894925513744,-0.046663284251800684,0.7092328070025496
1683999766391120800,10.408521240234377,-0.9599446058745957,0.39580631252677484,0.690425396049384
1683999766401162400,10.418562744140624,-0.1880437135156408,0.723071098358805,0.5277833939631953
1683999766411203800,10.428604248046875,0.33767604837470727,0.7925357818521499,0.30436563489837964
1683999766421245100,10.4386455078125,0.6126165985033112,0.7106952668511609,-0.03800201421402374
1683999766431286600,10.44868701171875,0.6006102561930181,0.4288148880716207,-0.256121635556607
1683999766441328000,10.458728515625,0.4310411215102025,-0.14004039772992444,-0.28321313856739055
1683999766451369600,10.46877001953125,0.13145649432135492,-0.6960573196873125,-0.15624380107699154
1683999766461411000,10.478811279296876,-0.04835140715424152,-1.1301136017138933,0.09658384310260183
1683999766471452300,10.488852783203123,-0.017881155081486577,-1.3174171447230543,0.34073448179485294
1683999766481493900,10.498894287109374,0.37725704907304997,-1.1664457321293256,0.39717721930748623
1683999766491535300,10.508935791015626,0.9357839823740655,-0.8715648651095059,0.21799087521895735
1683999766501576900,10.518977294921877,1.2321124078418721,-0.5951747893468528,-0.011296749073573715
1683999766511618200,10.5290185546875,1.1942489146543316,-0.35791206349392973,-0.2292637825012404
1683999766521659600,10.53906005859375,0.9049705267581287,-0.19445991521343875,-0.3545498848565866
1683999766531701200,10.5491015625,0.39883291720000325,-0.07719135283821199,-0.5292148590466225
1683999766541742600,10.559142822265626,-0.09609115115815584,-0.05572795867016434,-0.569789409650341
1683999766551784100,10.5691845703125,-0.4726245999168127,-0.0490942002373314,-0.5587887763949223
1683999766561825500,10.579225830078125,-0.5697042345250741,0.044243812397957404,-0.3701212407761098
1683999766571867100,10.589267333984376,-0.4594772459128324,0.26318931583170585,-0.15598154064510514
1683999766581908400,10.599308837890623,-0.2202290890979584,0.33880710599548697,0.09216690067604791
1683999766591949700,10.60935009765625,0.2132608295062748,0.35961532597263035,0.22384214392770202
1683999766601991300,10.619391845703126,0.7164778709335763,0.31403064714600815,0.3406338692162866
1683999766612032600,10.62943310546875,1.2658071518859304,0.3052120208847002,0.3535413742110694
1683999766622074300,10.639474609375,1.6646897792856408,0.39332389830283865,0.34695482252346843
1683999766632115600,10.64951611328125,1.8744332789525626,0.5668382645396282,0.2552661896199518
1683999766642157000,10.659557373046876,1.9575059414307139,0.6660461425828024,0.139446258632081
1683999766652198600,10.669598876953126,1.8894000053392872,0.6457929611346107,0.06635761277799934
1683999766662239900,10.679640380859375,1.7037520409418383,0.5804405213676462,0.06899785995893545
1683999766672281600,10.689681884765625,1.4450631140391046,0.4605321884905458,0.15382862094364902
1683999766682322900,10.69972314453125,1.1465511321691073,0.20720577230324208,0.21023559554403412
1683999766692364200,10.7097646484375,0.7488776446366264,-0.024384498600313824,0.2666110993235226
1683999766702405800,10.71980615234375,0.3954628109416425,-0.14201259605047417,0.23637247081905913
1683999766712447200,10.72984765625,0.10324856637145084,-0.21823692326124972,0.08863258372884211
1683999766722488800,10.73988916015625,-0.07211109997234123,-0.11212730401271905,-0.14677143099336923
1683999766732530100,10.749930419921874,-0.18383872501802279,-0.048065185478787964,-0.42310905447090547
1683999766742571400,10.759971923828124,-0.17467191818878183,0.08172035214315675,-0.5777087211827534
1683999766752613000,10.770013427734376,-0.10184511548636745,0.03851985916361337,-0.6750173570443697
1683999766762654400,10.7800546875,0.026723563584593015,0.019324302669092318,-0.7328915595238356
1683999766772696000,10.790096435546875,0.22217080007858933,-0.14496040351052208,-0.6597969532530715
1683999766782737300,10.8001376953125,0.3846316932583905,-0.37736129758122383,-0.4965441227499237
1683999766792778900,10.810179443359376,0.5398736000318848,-0.6326732636615968,-0.27060222640800113
1683999766802820300,10.820220703125,0.6010925770670615,-0.7703599930585154,-0.11686658861689554
1683999766812861600,10.830261962890624,0.6219207049332194,-0.630796432527684,-0.08067750935356778
1683999766822903200,10.8403037109375,0.6094462870397677,-0.40790081030902786,-0.20418834682087442
1683999766832944600,10.850344970703125,0.5548589825086777,-0.2524700165615795,-0.3248577117622697
1683999766842986200,10.860386474609374,0.5577594042113629,-0.13097381604626157,-0.4763062000265613
1683999766853027600,10.870427978515623,0.582458972822311,-0.03588294972070184,-0.6316690444494218
1683999766863068800,10.88046923828125,0.6361873746782784,-0.09110832201827228,-0.723703622772899
1683999766873110400,10.8905107421875,0.7022466659206037,-0.13629913319937154,-0.769394159271304
1683999766883151800,10.90055224609375,0.7418342829769417,-0.1429414748739532,-0.8455438614559447
1683999766893193400,10.91059375,0.7439620494869899,-0.23730468741018193,-0.944080114516328
1683999766903234700,10.92063525390625,0.7204278111267471,-0.35433101650098503,-0.9136805534978689
1683999766913276100,10.930676513671877,0.6638669967197138,-0.37480163576230036,-0.8027899264965259
1683999766923317600,10.940718017578124,0.5948632360511331,-0.40223693855065856,-0.6986618041140377
1683999766933359000,10.950759521484375,0.49788326027030694,-0.2529077528313379,-0.6469631196252819
1683999766943400600,10.960801025390625,0.4327219723420827,-0.0945186615189808,-0.5737907885753307
1683999766953442000,10.97084228515625,0.3485555352659228,-0.11597156521710283,-0.4486868380496035
1683999766963483300,10.9808837890625,0.23894235501534167,-0.1638927460355579,-0.338530063672524
1683999766973524900,10.99092529296875,0.1113361120077345,-0.2810811996571444,-0.18098354335207867
1683999766983566300,11.000966552734376,0.011779278605676017,-0.3526611326880646,-0.08116912842027318
1683999766993607900,11.01100830078125,-0.08308687823901072,-0.24509906769658946,-0.043992042584003486
1683999767003649200,11.021049560546874,-0.105698019287552,-0.17150497450322516,-0.03383922573354357
1683999767013690800,11.03109130859375,-0.05505591620073746,-0.15804386143031915,-0.00062942502382385
1683999767023732100,11.041132568359377,0.012014210235414989,-0.13973617542387318,-0.04414749145590795
1683999767033773600,11.051173828125,0.08086967468240272,-0.15726566305898868,-0.004358768362825844
1683999767043815100,11.061215576171875,0.1337766646253353,-0.1412954330500363,-0.012761592889044448
1683999767053856400,11.0712568359375,0.18911188848566443,-0.09661006913110301,-0.03556489945818201
1683999767063898000,11.08129833984375,0.2652319671075483,0.007868766931343408,-0.08915853502899397
1683999767073939400,11.09133984375,0.3426869511699833,0.06454277027086558,-0.09220647823684762
1683999767083980600,11.101381103515624,0.42487633242862227,0.037294387749806535,-0.05807876579483776
1683999767094022300,11.111422607421876,0.485485672950986,-0.005494117785843656,-0.016593456235915276
1683999767104063600,11.121464111328123,0.48814070233241585,-0.04948234563443777,0.08872842790867647
1683999767114105300,11.131505615234374,0.4653978943475506,-0.029019355679671927,0.20932674412643054
1683999767124146600,11.141547119140624,0.4188967942989953,-0.020651817278656424,0.27185392388899765
1683999767134188000,11.15158837890625,0.3863039612331175,-0.007676124601254776,0.37627267840174594
1683999767144229600,11.1616298828125,0.31509125243598995,-0.032570838893198444,0.47013807291767
1683999767154270900,11.17167138671875,0.21018767350240225,-0.038295745919692294,0.5347151756825403
1683999767164312600,11.181712890625,0.09412711869585252,0.03343963629217074,0.5557937621157358
1683999767174353800,11.191754150390626,0.03119581931609584,0.15063667307357967,0.5146470068322915
1683999767184395400,11.2017958984375,0.014964580469434477,0.23502826678855254,0.4450035095454895
1683999767194436800,11.211837158203124,0.046604931459452666,0.2801971436053756,0.43662500377475955
1683999767204478100,11.22187841796875,0.08899462225400975,0.2868833542428207,0.38522148145342494
1683999767214519600,11.231920166015623,0.13275116688293323,0.2745943069174174,0.36959266660209167
1683999767224561100,11.24196142578125,0.14994609358225924,0.2717638017155537,0.38214874267806354
1683999767234602600,11.252003173828124,0.1399946213226103,0.29233360293764404,0.3613367079059922
1683999767244644000,11.26204443359375,0.1122710108811362,0.23476314544926727,0.3644709587869758
1683999767254685400,11.272085693359376,0.05763560524861258,0.16625404359726406,0.3652358054358886
1683999767264727000,11.28212744140625,0.022173642920014575,0.13179206847179897,0.31892585763038833
1683999767274768300,11.292168701171876,0.021581292203207123,0.17101383209732005,0.26166009890662156
1683999767284809900,11.302210205078126,0.033627033135025394,0.1509256362281637,0.20753002156543987
1683999767294851200,11.312251708984377,0.08212524641555045,0.14320087436906956,0.13530683515523317
1683999767304892600,11.32229296875,0.1089344024660942,0.13108730333550228,0.10890960691997453
1683999767314934200,11.33233447265625,0.10988336803237155,0.11694812770947177,0.09723758702017077
1683999767324975600,11.3423759765625,0.12837737813581093,0.10083198533290333,0.10275554664051567
1683999767335017100,11.35241748046875,0.10920524610342504,0.05211925494013357,0.13464593879638984
1683999767345058600,11.362458984375,0.0722776055066533,0.01607227318232602,0.12409877770488534
1683999767355099800,11.372500244140625,0.05931937693258612,0.02538585674621759,0.09263992311509539
1683999767365141400,11.382541748046876,0.06734889744220848,0.020542144833967817,0.02391481393904659
1683999767375182800,11.392583251953123,0.06914752734125539,0.0018024443912905118,-0.015749454529136897
1683999767385224400,11.402624755859376,0.09959840775788815,-0.04473590853389178,-0.07383966458020111
1683999767395265600,11.412666015625,0.1117627619551406,-0.10450267790561421,-0.10973501211930808
1683999767405307300,11.422707763671877,0.09437417983165813,-0.12545204164652352,-0.15863895421416474
1683999767415348600,11.4327490234375,0.09122413383610167,-0.11538600925006894,-0.21789264685927806
1683999767425390000,11.442790283203124,0.07872664939884032,-0.09362030021660246,-0.2590408325859162
1683999767435431600,11.45283203125,0.062180519037721836,-0.07681941981225958,-0.23771095273493437
1683999767445472900,11.462873291015624,0.03528803587898659,-0.055418968087891755,-0.20438337315749475
1683999767455514600,11.4729150390625,-0.0033306479649079603,-0.0010557173488988355,-0.21552801130333793
1683999767465555900,11.482956298828125,-0.03606599558654035,0.029282569817497796,-0.15745639803929892
1683999767475597600,11.492997802734376,-0.04822719088574801,0.05249023434609025,-0.1279454231218626
1683999767485638800,11.503039306640623,-0.07536339767403265,0.04755973823733813,-0.08875036241345821
1683999767495680200,11.51308056640625,-0.07027208804967339,0.06439971915168322,0.00473165522584462
1683999767505721800,11.5231220703125,-0.08147573467733214,0.0931653976122548,0.005684375729354796
1683999767515763100,11.53316357421875,-0.07388859970863168,0.11013030999403653,0.040555000277010145
1683999767525804600,11.543205078125,-0.07340186834879428,0.13420391080729194,0.04726409912660224
1683999767535846100,11.55324658203125,-0.052450895250874,0.1959142684143988,0.021356582651067123
1683999767545887600,11.5632880859375,0.03967660659369885,0.2265291213740802,-0.022476673039740745
1683999767555929000,11.573329345703126,0.15931528802740955,0.20059204110216838,0.003041267222118218
1683999767565970400,11.583370849609375,0.2342808842789602,0.20616054535378375,0.009904861488776664
1683999767576012000,11.593412353515625,0.291245639325292,0.20026874534562863,0.024649619915960132
1683999767586053300,11.60345361328125,0.3119600413737918,0.16906166086590116,0.04301166548683758
1683999767596094900,11.613495361328123,0.2861412762765923,0.17883777623242017,0.07456827161503773
1683999767606136200,11.62353662109375,0.2396922110990594,0.09696865069559475,0.09078550339341904
1683999767616177600,11.633577880859375,0.17810660609057935,0.030874252352868496,0.10590171806848561
1683999767626219200,11.64361962890625,0.1381916404644833,0.022690773044475594,0.13153648380100016
1683999767636260600,11.653660888671874,0.09291744229689444,0.02907180780840158,0.14838027937008808
1683999767646302100,11.66370263671875,0.09771388778629617,0.054536819424645604,0.1682353021029082
1683999767656343600,11.673743896484376,0.08644056328347102,0.035252571110681065,0.16042852403669744
1683999767666385100,11.683785400390626,0.09902119639559008,0.08253765113657571,0.19362497319925762
1683999767676426400,11.693826904296875,0.09669810532536197,0.08691692336642066,0.24361324314296856
1683999767686467800,11.7038681640625,0.04622721675101538,0.1150159835269188,0.29846334443291783
1683999767696509400,11.71390966796875,0.002521336153977166,0.14273262018322105,0.37188434598363446
1683999767706550600,11.723951171875,-0.04151087993718127,0.16770648951955042,0.3881959915231796
1683999767716592300,11.73399267578125,-0.12539005274819992,0.192442893940827,0.44736003883724684
1683999767726633600,11.744033935546875,-0.17490971092084937,0.1817150116010653,0.4945590496116789
1683999767736675200,11.75407568359375,-0.24888712164789248,0.21161651613652413,0.5467131137179232
1683999767746716600,11.764116943359374,-0.282415509153569,0.21316719060495795,0.5916643143457466
1683999767756757900,11.774158447265624,-0.29622405779542027,0.1680164335466724,0.7140038012875309
1683999767766799600,11.784199951171876,-0.3159247636368487,0.11444854731182429,0.827147006992732
1683999767776840900,11.7942412109375,-0.3178696631968259,0.08779144306178285,0.8838520048782761
1683999767786882600,11.804282958984375,-0.2675660849435915,0.10373020162090098,0.9832584857464467
1683999767796923800,11.81432421875,-0.2249956726070048,0.09781646722575313,1.0418872833516502
1683999767806965400,11.82436572265625,-0.11905860912250901,0.08669281010274175,1.0904438495663085
1683999767817006800,11.8344072265625,-0.016483128006057092,0.10554409023152345,1.1355719565885332
1683999767827048100,11.844448486328124,0.09631836408095622,0.11611652366716589,1.1584258080039513
1683999767837089600,11.854489990234375,0.1920077799130803,0.12077426910563088,1.1593759058903519
1683999767847131100,11.864531494140625,0.25059610617807954,0.08889865870492851,1.1647691726869422
1683999767857172600,11.874572998046874,0.28545272351722656,0.03757476800002561,1.203088521991078
1683999767867214000,11.884614501953124,0.2940896748563775,0.030750274642264278,1.1704571247561038
1683999767877255300,11.89465576171875,0.3052246569996353,0.008761405988551588,1.2044279574667303
1683999767887296900,11.904697265625,0.33821225152107204,0.01878833761583847,1.1974446773089997
1683999767897338300,11.91473876953125,0.3676089645156411,0.017800331165443647,1.1614985466398142
1683999767907379900,11.9247802734375,0.38694280376914286,0.0010824202383948234,1.0612056255204585
1683999767917421200,11.934821533203126,0.39885544768265474,-0.021695137104859537,0.9470717907729714
1683999767927462800,11.94486328125,0.3607060312015741,-0.0596427917985012,0.7422432900872278
1683999767937504200,11.954904541015624,0.3268707393837756,-0.0013275146258003635,0.46374964712587113
1683999767947545800,11.9649462890625,0.27821880577302344,0.029819488462212718,0.2178130149453828
1683999767957587100,11.974987548828125,0.22681850187783037,0.1028938292976797,-0.0047106743183098
1683999767967628500,11.98502880859375,0.16122949123077415,0.17492008207628668,-0.2511436938998268
1683999767977670100,11.995070556640623,0.09578841919237939,0.30502700799660193,-0.4875645638779548
1683999767987711400,12.00511181640625,0.017844021308297396,0.3723707197712893,-0.6593651772036505
1683999767997753000,12.0151533203125,-0.09917026753638454,0.4037723541053832,-0.8612840175197594
1683999768007794400,12.02519482421875,-0.19702214012567124,0.37145137785281185,-1.0474481581313457
1683999768017836000,12.035236328125,-0.271288752545859,0.2765359878398245,-1.086029529549441
1683999768027877300,12.045277587890626,-0.28734600542321925,0.1979188917801485,-1.0271875858875803
1683999768037918600,12.055319091796877,-0.3244520426003134,0.1074514389901925,-0.8921599388462536
1683999768047960200,12.065360595703124,-0.36244904998382155,0.007866859272014772,-0.7359583378204972
1683999768058001600,12.075402099609375,-0.4246928095532363,-0.08582401269856235,-0.5607848167494068
1683999768068043200,12.085443603515625,-0.43638676408681415,-0.17842483507300375,-0.3734769820412669
1683999768078084600,12.09548486328125,-0.43022090197337887,-0.2103528976681474,-0.17871618269673825
1683999768088126100,12.105526611328123,-0.39638310668468424,-0.19641876221027174,0.04650139798265391
1683999768098167500,12.11556787109375,-0.38178098195794263,-0.14914894109632448,0.2028098107324573
1683999768108208800,12.125609130859376,-0.3890996574471856,-0.10453510291377541,0.24012565610919342
1683999768118250400,12.13565087890625,-0.41975164410819077,-0.09833526619955144,0.20229077349671803
1683999768128291800,12.145692138671874,-0.42094278329766066,-0.10415649413351916,0.133188724446913
1683999768138333400,12.155733642578124,-0.4104202984681045,-0.09809017168856478,0.068974256597741
1683999768148374600,12.165775146484377,-0.39201504000833187,-0.06818962094209852,-0.004872083673843745
1683999768158416300,12.175816650390624,-0.3352644442023065,-0.03585433957700611,-0.03831601139453165
1683999768168457600,12.185858154296875,-0.27071911092860607,0.027464866639123602,-0.048542499606717394
1683999768178499000,12.1958994140625,-0.17760556941204553,0.07147216809742309,-0.10003161433272834
1683999768188540600,12.20594091796875,-0.06874275207382237,0.12712383264077445,-0.1402254104134073
1683999768198581900,12.215982421875,-0.00654274220894211,0.1799287795950096,-0.14787960050502233
1683999768208623600,12.22602392578125,0.07117146246784244,0.16773033146365665,-0.14471340180520179
1683999768218664900,12.236065185546876,0.10137999063813607,0.20051097866594256,-0.14253973967894756
1683999768228706600,12.24610693359375,0.09205555930774584,0.22080993651135733,-0.16967701923055992
1683999768238747800,12.256148193359374,0.051197707618138306,0.1855525970997589,-0.18538951859869524
1683999768248789200,12.266189453125,-0.026484251094407798,0.1449279784610329,-0.22327589986125512
1683999768258830800,12.276231201171877,-0.12100416420624946,0.11323356625098942,-0.2907724380272561
1683999768268872100,12.2862724609375,-0.22889864436274573,0.12881278988603512,-0.4187297820720476
1683999768278913600,12.296314208984375,-0.3540526627910939,0.07214927673960417,-0.5904607772078927
1683999768288955100,12.30635546875,-0.4710485934109285,-0.008827209488537095,-0.7035214901751403
1683999768298996600,12.31639697265625,-0.5977623462846782,-0.12813854220552667,-0.8413112162469832
1683999768309038000,12.3264384765625,-0.6636943221208093,-0.2615461349501819,-0.9794940949472284
1683999768319079600,12.33647998046875,-0.717705547680922,-0.420836448703877,-1.0416033269572118
1683999768329120900,12.346521240234376,-0.7080968022598242,-0.6440410613477014,-1.0970482825594408
1683999768339162300,12.356562744140623,-0.6372281908012571,-0.8663444518036946,-1.109931945641643
1683999768349203900,12.366604248046874,-0.4791247247747698,-0.9970483778230217,-1.0543315410975054
1683999768359245200,12.376645751953124,-0.31494990002318823,-1.074647903436424,-1.037640094916493
1683999768369286800,12.386687255859377,-0.15087804197751703,-1.183008193938296,-1.0447740553047773
1683999768379328200,12.396728515625,-0.0884722471866613,-1.231560707037411,-1.0417623519297896
1683999768389369800,12.406770263671875,-0.04201400295591872,-1.2111625671519752,-1.0119121075266588
1683999768399411100,12.4168115234375,-0.06616562618166887,-1.1387634277309815,-0.9745485782525168
1683999768409452600,12.42685302734375,-0.1098125727101204,-0.9525346755181544,-0.8610582351540045
1683999768419494100,12.43689453125,-0.20930042870163598,-0.7838373183651993,-0.9340126513697022
1683999768429535400,12.446935791015624,-0.3482213616510513,-0.5464715957181504,-0.7151253223365354
1683999768439577000,12.456977294921876,-0.47457614538831183,-0.23682403563118168,-0.48690366733352836
1683999768449618400,12.467018798828123,-0.6058605908602772,0.07741260543800284,-0.26277732850153934
1683999768459660000,12.477060302734374,-0.6138862371679205,0.1973705291656818,-0.051239967368966036
