time,seconds_elapsed,z,y,x
1684002599922172300,0.03257275390625,-5.0650851135191214e-11,1.2475729193116987e-11,-1.450518873702527e-10
1684002599932214400,0.04261474609375,-0.13991832730389447,-0.25640821465398916,0.008311748565306917
1684002599942256800,0.0526572265625,-0.3167037963907652,0.08165621738837074,0.16304874435419425
1684002599952298900,0.06269921875,-0.7601604461011615,0.27226591122635774,0.3450956344703351
1684002599962341000,0.072741455078125,-1.1838684082535769,-0.25949430452855304,-0.2311964035969616
1684002599972383400,0.08278369140625,-1.125384330734378,-0.23068475726198065,-0.14011335368462263
1684002599982425600,0.092825927734375,-0.7044134139836085,0.43289637572979733,0.2073650360063895
1684002599992467600,0.102867919921875,-0.7714343071625606,0.5770859718551538,0.32976102831575593
1684002600002509700,0.11291015625,-0.7090339660954794,0.3813955783441209,-0.09132242212164227
1684002600012552100,0.122952392578125,-0.11538076406514151,0.26536989204640726,-0.5719742774617369
1684002600022594200,0.13299462890625,0.5559811591940563,0.19509935376172333,-0.396859645968316
1684002600032636300,0.14303662109375,0.3553009031943322,-0.007737159696632148,0.01827526099773937
1684002600042678600,0.1530791015625,0.5594396591853945,-0.5456655025263785,0.1685543060414612
1684002600052720800,0.163121337890625,0.4091019629577781,-1.190136670929816,0.008538723129119291
1684002600062762900,0.173163330078125,0.39658594136877373,-1.1257359982247634,-0.014692783410844467
1684002600072805300,0.183205810546875,0.2914991379444351,-0.4262926579166227,0.009080410057340539
1684002600082847400,0.193247802734375,0.4832372665201151,0.7887234686554508,-0.052231311822227275
1684002600092889600,0.2032900390625,0.3827886580875724,1.325747251597872,0.4763431549700034
1684002600102931600,0.21333203125,-0.03585863106320889,0.6358082293912767,0.6816663741943012
1684002600112974000,0.22337451171875,-0.4213180542596579,-0.11790895458569964,0.38266134266867646
1684002600123016100,0.23341650390625,-0.3641409873282428,-0.19281721126476295,0.17475128181178556
1684002600133058200,0.243458740234375,0.45611000069939867,-0.02855157838319403,0.2033972740552961
1684002600143100600,0.2535009765625,1.445336342012873,-0.14530420316193393,0.5095810889744108
1684002600153142600,0.263543212890625,1.769960403503745,-0.5954799651005419,0.791966438377813
1684002600163184800,0.273585205078125,1.1115407944675213,-0.9221520422921776,0.18466329569516848
1684002600173226900,0.28362744140625,0.3668127059690271,-1.3439173697190159,-0.6953940390750325
1684002600183269300,0.293669677734375,0.05852699290134226,-1.288446903267075,-1.306097507491503
1684002600193311400,0.3037119140625,-0.07806396475291717,-0.7173795700970526,-1.0617318153147992
1684002600203353600,0.31375390625,0.3248271942270357,-0.3033380508352029,0.37512969966575455
1684002600213395900,0.32379638671875,0.5929765702601245,0.07154083250903363,1.3132929802246927
1684002600223438000,0.33383837890625,0.33551406867265815,0.26433992397042655,3.0173754690604624
1684002600233480100,0.343880615234375,0.14035511001015585,0.2559127807507218,1.3596868514220168
1684002600243522600,0.3539228515625,-1.142186164765778,0.2691574096640482,0.05985689162270025
1684002600253564600,0.363965087890625,-1.4972882270481318,-0.14098739623463533,-0.9244594574643146
1684002600263606600,0.374007080078125,-0.9934158325315459,0.7553515434606112,-1.6464726924741329
1684002600273648800,0.38404931640625,-1.0060424804726704,0.7818968296760164,-1.0091938971932353
1684002600283691200,0.394091552734375,-0.11880493162396424,0.5576224327105813,-0.0278601646372491
1684002600293733300,0.4041337890625,-1.9176225662380895,1.5166246892080828,4.062675476175003
1684002600303775400,0.41417578125,-5.033740997195065,3.131455183086913,6.217612743481914
1684002600313817600,0.424218017578125,-2.458240985918387,4.267944336024308,3.9009370804231303
1684002600323859900,0.43426025390625,-1.43537139902178,4.1577596665482845,3.4589147567300613
1684002600333902000,0.444302490234375,-2.182990551017143,0.8503789903276678,0.39202404017861764
1684002600343944100,0.454344482421875,-1.3587560654146182,0.18650102604007482,-1.0682611465617118
1684002600353986600,0.464386962890625,-0.28443241121697926,0.9821753501363032,-1.401519775458516
1684002600364028600,0.474428955078125,-0.5646805763163687,0.8200477362109547,-1.4446277619964305
1684002600374070600,0.48447119140625,-0.3390331268953463,0.7201721668620682,-1.5262813567600106
1684002600384112800,0.49451318359375,0.5988006592417634,0.7865135668424018,-1.5801343918094486
1684002600394155200,0.5045556640625,0.8275508879448437,0.7786350250062786,-1.5257554053934375
1684002600404197300,0.51459765625,0.6452670098696172,0.7347805500677962,-1.646208763244657
1684002600414239400,0.524639892578125,-0.14259552954715532,0.801995754098538,-1.9257082939289931
1684002600424281800,0.53468212890625,-0.7380399704035211,0.8923348189057404,-2.013800621139538
1684002600434323900,0.544724365234375,-0.8035554885983391,0.8280149696631341,-2.1276450156014333
1684002600444366000,0.554766357421875,-0.371906757417884,0.5956073998916668,-2.0540008544927875
1684002600454408400,0.564808837890625,0.7436685560527497,0.18414640434350416,-2.2500300407953766
1684002600464450600,0.574850830078125,1.7364327907351582,-0.4952065944465991,-1.87966728201901
1684002600474492600,0.58489306640625,1.7903740405496475,-0.7528139351870613,-1.3198032378188562
1684002600484534600,0.59493505859375,0.9485125542191841,-1.0592418909544394,-1.5825996398405429
1684002600494577100,0.6049775390625,-0.4549491404430224,-0.7177071571558411,-1.6265058517452335
1684002600504619200,0.61501953125,-1.0185825824116799,-0.7560344934417053,-1.072140693598115
1684002600514661300,0.625061767578125,-0.7103469372451671,-0.6087063551001644,-0.6714811325408414
1684002600524703600,0.63510400390625,-0.9339126349289746,-0.35519540299776986,-0.2712574004147666
1684002600534745800,0.645146240234375,-1.1016678810910985,-0.30279231071397544,-0.3857402802294761
1684002600544787900,0.655188232421875,-1.0296416282569227,-0.33422124379995977,-0.8045482636016285
1684002600554830000,0.66523046875,-0.6154500840844931,-0.32611215122105813,-0.940468788061695
1684002600564872400,0.675272705078125,-0.007744193088069722,-0.4879008531430144,-0.923673629703399
1684002600574914600,0.68531494140625,0.24511909480557167,-1.0415333511368698,-0.7131290436440642
1684002600584956600,0.69535693359375,0.5951274634443965,-0.9078778026742326,-0.7008466721119336
1684002600594998600,0.705399169921875,0.6577196121018116,-1.0768707991630406,-0.24105644217661318
1684002600605041100,0.71544140625,0.0807058811050335,-1.2084705828139124,-0.012535095175793404
1684002600615083200,0.725483642578125,-0.6337227225733799,-1.1399939060464432,-0.35909271241361995
1684002600625125300,0.735525634765625,-1.5283492803069334,-0.750812769047999,-0.962889671405358
1684002600635167600,0.745568115234375,-2.0807445049652755,-0.2380045651929964,-1.535091400116105
1684002600645209800,0.755610107421875,-2.2765629291065386,1.3243453501983882,-3.4004049300429458
1684002600655251900,0.76565234375,-1.0582188366631815,2.7562527655477855,-4.3898029329010075
1684002600665294300,0.775694580078125,2.156294345762003,1.7477539776970203,-1.6495604513871582
1684002600675336400,0.78573681640625,1.4725441933843677,0.003659248264874622,-0.7248754501654809
1684002600685378600,0.79577880859375,0.6870915890305407,0.24246072766670795,-1.1541566847833673
1684002600695420600,0.805821044921875,0.8314952852035559,0.6169060469023383,-2.0650091171653724
1684002600705463000,0.81586328125,1.228473663259318,0.4129748345908511,-2.2250962258232674
1684002600715505100,0.825905517578125,1.4295401572991775,0.1744408606065906,-1.7781896590116117
1684002600725547200,0.835947509765625,2.2576596737215917,0.051298856618659905,-0.6537189483169243
1684002600735589600,0.845989990234375,2.917700529111725,0.09324789049628078,0.842963218649719
1684002600745631600,0.856031982421875,3.2627980708820545,0.2358453274997218,1.2183933257625954
1684002600755673800,0.86607421875,3.342176198985093,0.30596232417972413,1.3692493439323472
1684002600765715900,0.8761162109375,3.108575105687344,0.6394920348358855,1.2122640609480053
1684002600775758300,0.88615869140625,2.2820894719990004,0.28731942180150194,1.3815641402775911
1684002600785800400,0.89620068359375,1.5543661118310073,0.013072252265966816,1.693889617825057
1684002600795842600,0.906242919921875,0.963698625595903,0.08669686324866512,1.6467170715218593
1684002600805884600,0.916284912109375,0.47560620293494327,0.5314159394336678,1.4696044921066354
1684002600815927000,0.926327392578125,0.012006998030036901,0.40691637998335595,0.7364206313350138
1684002600825969100,0.936369384765625,-0.41224169728391885,0.2732448578645851,-0.07507991775556552
1684002600836011200,0.94641162109375,-0.3840476273808162,-0.0198736191947981,-0.20533561715421333
1684002600846053600,0.956453857421875,-0.15272605425461935,-0.27139425283592833,-0.09928131107369864
1684002600856095600,0.96649609375,-0.00865948198663272,-0.5918388367247982,-0.19316482542084965
1684002600866137800,0.9765380859375,0.1678618193480143,-0.6933526992937251,-0.8343811033858546
1684002600876180100,0.98658056640625,-0.3249402642711483,-0.8518571853924788,-0.7367057801254774
1684002600886222300,0.99662255859375,-0.9921151401342209,-0.7682209014052084,-1.1034259795432797
1684002600896264400,1.006664794921875,-1.546342015179257,-0.8292770385426312,-0.7362957001339782
1684002600906306600,1.016706787109375,-1.934946536856356,-0.3203463554373798,-0.449386596736639
1684002600916348800,1.026749267578125,-1.6983582973646978,-0.24761438381320733,0.025238990717018753
1684002600926391000,1.036791259765625,-1.3220028876427605,-0.15876245511830675,0.45518207545590667
1684002600936433100,1.04683349609375,-0.7037361859130425,-0.21837139140782819,1.0097961426850244
1684002600946475200,1.05687548828125,-0.2420036943233467,-0.25552272782715063,1.0902166366003825
1684002600956517600,1.06691796875,-0.14223825933263715,-0.21421003340587919,0.8080635070940642
1684002600966559600,1.0769599609375,-0.34163513784575844,-0.2370762825956203,0.2200107574299794
1684002600976601800,1.087002197265625,-1.130456328476393,-0.4176502228182503,0.05027389525654784
1684002600986644100,1.09704443359375,-1.2756168842113023,-0.2058253286928671,-0.08216953274856226
1684002600996686300,1.107086669921875,-1.221001863520363,-0.424056053192144,0.10391521450318333
1684002601006728400,1.117128662109375,-1.3913640976609705,-0.5713753699818165,0.053938865652522844
1684002601016770600,1.1271708984375,-1.1675287484306789,-0.6241650581726081,0.2390117645293599
1684002601026812800,1.137213134765625,-0.8505048751641681,-0.5349407194601488,0.9666757582697141
1684002601036855000,1.14725537109375,-0.7903948426045204,-0.10473537439102976,1.0997991561692149
1684002601046897100,1.15729736328125,-0.6007503866850417,-0.19314336786265957,0.9884433745067281
1684002601056939200,1.167339599609375,-0.302569747135213,-0.34240245811789793,0.21873760218697727
1684002601066981600,1.1773818359375,-0.34888935092125667,-0.46592950812684675,-0.45253276818282284
1684002601077023600,1.187424072265625,-0.22147250173601588,-0.7811927795727448,-0.6079645157232695
1684002601087065800,1.197466064453125,-0.40968012808859267,-0.7404127120979854,-0.5748233794518026
1684002601097107900,1.20750830078125,-0.6243556738587195,-0.6721129416157607,-0.43517208094724075
1684002601107150300,1.217550537109375,-0.5765491724918473,-0.5262646675679433,-0.680665969823052
1684002601117192400,1.2275927734375,-0.6703870295687723,-0.7048673628632615,-1.0929913519177596
1684002601127234600,1.237634765625,-0.7003967761992611,-0.30803108232233517,-1.2645730973008695
1684002601137276800,1.24767724609375,-0.27622342108540254,0.06486988069952092,-1.073626041380325
1684002601147319000,1.25771923828125,-0.06955385195954554,0.23827838900263304,-0.5311479567594357
1684002601157361100,1.267761474609375,0.09227657312026824,0.19417619716198858,0.47893619534095944
1684002601167403200,1.277803466796875,-0.26440382011005886,0.14708566664403588,0.7839002609543313
1684002601177445600,1.287845947265625,1.271646857165394,-3.6847343444262832,3.3585538864279934
1684002601187487600,1.29788818359375,1.6362967491511924,-1.7063369752215032,0.6735782623411346
1684002601197529800,1.30793017578125,0.21171200283489852,0.8109257221370353,-1.4747939111223625
1684002601207571900,1.31797216796875,-0.563584804429,1.6991729736678114,-1.8433027265929889
1684002601217614300,1.3280146484375,-0.4325844049782775,0.7598342895479615,-0.5783081053492268
1684002601227656400,1.338056884765625,0.07115435619594954,0.20274543767362163,-0.16388225543767432
1684002601237698600,1.348098876953125,0.03816962244791303,0.0431313514329739,-0.20738410950866287
1684002601247740800,1.358141357421875,-0.636014461527185,-0.1812243461959395,-0.007616996787041153
1684002601257783000,1.368183349609375,-0.7766534088316708,-0.20880079271195578,0.12441539761645629
1684002601267825100,1.3782255859375,-0.4778895378880325,0.06202220905240406,-0.26009654991056097
1684002601277867200,1.388267578125,-0.16683053983439675,-0.1324586867846178,-0.6437425614330459
1684002601287909600,1.39831005859375,0.284866511846158,-0.5304808616390646,-1.1985878945763562
1684002601297951600,1.40835205078125,0.31635731460626926,1.0561261177721286,-2.3409729002873867
1684002601307993800,1.418394287109375,0.1946147680435898,0.7306602001425541,-1.4829778671544258
1684002601318035900,1.428436279296875,0.019338309820968014,-0.2186012269278713,-0.5376081465597521
1684002601328078300,1.438478759765625,0.008643388839215005,-1.1596775053912172,0.35960483549330513
1684002601338120400,1.448520751953125,-0.07571619753553176,-2.1085600853480857,0.8115119935126087
1684002601348162600,1.45856298828125,-0.2503314615187792,-2.2892708777573674,0.5335206986209591
1684002601358204600,1.46860498046875,0.06803327785531997,-1.558048248374777,-0.7884855269543174
1684002601368247000,1.4786474609375,0.10244482756220341,-0.502517223507061,-1.9661364555464114
1684002601378289100,1.488689453125,-0.10341936366676575,-0.0379452706265584,-2.023351669407581
1684002601388331200,1.498731689453125,-0.14226216088979599,0.09387207032501527,-1.321360588119641
1684002601398373600,1.50877392578125,0.6322437524971956,-0.04807519898721837,-1.339818477780584
1684002601408415600,1.518816162109375,1.3666512965596005,-0.44849920275334804,-1.435301780766728
1684002601418457800,1.528858154296875,1.6733345984845285,-0.2384243012741146,-1.5597696303962503
1684002601428499900,1.538900390625,1.5481600762314964,0.22129344931823036,-1.6906943320564574
1684002601438542300,1.548942626953125,1.1477812529056493,0.7023658753200148,-1.4097204209358294
1684002601448584400,1.55898486328125,0.42188119876912517,0.6929523945533128,-1.3487839699365298
1684002601458626600,1.56902685546875,-0.26766645917841114,0.45349168768729536,-2.2339973450747235
1684002601468668800,1.5790693359375,-1.0418790578895303,0.18728303906713684,-1.7768154145281834
1684002601478711000,1.589111328125,-0.5417366028741772,0.7980089188169076,-0.1241321564720216
1684002601488753100,1.599153564453125,1.1532111168399763,0.9411559106164383,1.5222492219371084
1684002601498795200,1.609195556640625,0.5081557034440571,1.2010035515031585,0.6880321502047392
1684002601508837300,1.61923779296875,0.24479186522200808,0.5149307251147743,-0.27658939364116986
1684002601518879600,1.629280029296875,-0.4704587460535553,-0.41383457195631934,-1.1126160621654249
1684002601528921800,1.639322265625,-0.8151677846629832,-0.9523987769536875,-1.7099342347232922
1684002601538963900,1.6493642578125,-0.624398231473422,-0.7653942108189221,-1.6365146635934993
1684002601549006300,1.65940673828125,-0.7535326481616262,-0.47784709938127445,-1.4006338119113153
1684002601559048400,1.66944873046875,-0.52909302721542,-0.12161445624651579,-1.3805799484437984
1684002601569090600,1.679490966796875,-0.14732241616572148,0.10228776920607917,-1.1394643783035618
1684002601579132600,1.689532958984375,0.5590124129905834,0.14652109136899752,-0.7145643234130595
1684002601589175000,1.699575439453125,0.8264409302833704,-0.07494688027830053,-0.3432350157596998
1684002601599217100,1.709617431640625,1.0975631476425403,0.05968046190622595,-0.20706176761601605
1684002601609259200,1.71965966796875,0.9822840692118872,-0.2931094169634283,0.0064630509216254085
1684002601619301300,1.72970166015625,0.4775698183831296,-0.8362541199396475,0.17913341519867446
1684002601629343600,1.739744140625,0.523289441989438,-0.4739265443096628,0.2349777221781537
1684002601639385800,1.7497861328125,0.3548913002203492,-0.12224388118845456,0.2485876082881112
1684002601649427900,1.759828369140625,-0.21934938443019653,-0.41538095471916486,0.9836492536747014
1684002601659470000,1.769870361328125,-0.2691938876944831,-0.25180196761179446,0.958578109648275
1684002601669512400,1.779912841796875,-0.26612901693306945,0.4188838005824654,0.06734275812389866
1684002601679554600,1.789954833984375,-0.4024441242729851,0.24357748031095514,-0.6419301032947469
1684002601689596600,1.7999970703125,-0.3716273306719558,-0.23266983037658046,-0.9982609747555692
1684002601699638600,1.8100390625,-0.3168587684393075,-0.216909885274143,-0.8820304871221818
1684002601709681100,1.82008154296875,-0.5972583292242858,0.31294059760651355,-0.7712526321697291
1684002601719723200,1.83012353515625,-0.6744778157765101,0.15625333775743389,-0.33155441284066484
1684002601729765300,1.840165771484375,-0.44449424744764854,-0.04998874652416875,-0.019800186348518448
1684002601739807400,1.850207763671875,-0.013457655844179836,-0.5251808167283536,0.6523256301402192
1684002601749849800,1.860250244140625,0.19999289502143852,-0.6132860184018063,1.3073320388755618
1684002601759891900,1.870292236328125,0.3584642410246026,0.6007509232491183,0.40370655066584776
1684002601769934000,1.88033447265625,0.027521610267691867,0.8039402962849248,0.30944824226204687
1684002601779976400,1.890376708984375,-0.2002372740085887,0.6971602439440366,0.1746129989922271
1684002601790018600,1.9004189453125,-0.32639908803107837,1.1309847831460542,-0.06548213958103695
1684002601800060600,1.9104609375,-0.2282737493265196,1.0848135947698963,-0.5096673965130123
1684002601810102600,1.920503173828125,-0.3065265415347462,-0.04111337654602421,-0.47374534608203456
1684002601820145100,1.93054541015625,-0.5999647380662996,-0.4284462929845205,-0.23389625560723995
1684002601830187200,1.940587646484375,-0.9132514000256889,-0.013560295132306475,0.2670288086004786
1684002601840229300,1.950629638671875,-1.0630083084972028,0.3265762328128606,0.28214931483759037
1684002601850271400,1.960671875,-1.05147731301511,0.19262933744749489,0.2665691376334625
1684002601860313800,1.970714111328125,-0.9491095541785647,0.14392042157531004,0.23257637025768135
1684002601870355900,1.98075634765625,-1.0360313654798239,0.21356534962424226,0.02039432513842064
1684002601880398000,1.99079833984375,-0.6742937565341871,0.9822640418026721,1.1058568953167849
1684002601890440100,2.000840576171875,-0.7058066130213946,-0.1396775246674987,0.5030908585886265
1684002601900482600,2.0108828125,-0.32922255990137683,-0.43610239024621406,0.6845617293570985
1684002601910524600,2.020925048828125,-0.6065480113425902,-1.3947501183878697,0.301220893857504
1684002601920566600,2.030967041015625,-0.23983567956729562,-2.1142120359861183,0.495097160414116
1684002601930608800,2.04100927734375,-0.1395391821971082,-1.882236480856008,0.670281410355261
1684002601940651200,2.051051513671875,-0.4630885719568434,-1.5463514329663905,1.8127956391056266
1684002601950693300,2.06109375,-0.051892220907814486,-1.0329637527473607,3.16787815102905
1684002601960735400,2.0711357421875,-0.21212232104338488,0.12388324744017701,3.4401206970841947
1684002601970777600,2.081177978515625,-0.3635618089505396,0.10711765278543091,3.1619110107260244
1684002601980819900,2.09122021484375,-0.1575496793171617,-0.5270242691690903,2.111787796051374
1684002601990862000,2.101262451171875,1.2226347922061167,-1.3742227554341497,0.8231105803945116
1684002602000904100,2.111304443359375,1.074317455167057,-1.1901640892391614,0.2024374009647716
1684002602010946200,2.1213466796875,0.8015456796693496,-0.3847017287207304,-0.5970764158851092
1684002602020988600,2.131388916015625,0.46159541607663834,0.21591520323462396,-2.5233287811817937
1684002602031030600,2.14143115234375,0.18959927573688182,0.49450969705132436,-3.6911063193950815
1684002602041072800,2.15147314453125,0.23189043998104372,1.0401520728986886,-2.805469036146258
1684002602051115200,2.161515625,0.5430772305259505,1.3576803207941535,-2.396378040299764
1684002602061157300,2.1715576171875,0.36108124246724965,1.117908000888556,-2.1241979600233765
1684002602071199400,2.181599853515625,0.27596604812088993,0.5825843810789479,-1.593045711539401
1684002602081241600,2.191641845703125,0.49159079802256345,0.05699729919694272,-1.5444607733917903
1684002602091283900,2.201684326171875,0.864414215206136,-0.3540029524056293,-1.7565274238870394
1684002602101326000,2.211726318359375,1.239436745610558,-0.602684974665131,-1.6818189621194868
1684002602111368100,2.2217685546875,1.4217804669255885,-0.9138216970462413,-1.1516666412257104
1684002602121410200,2.231810546875,1.5445322989114687,-0.9864082337081113,-0.6335959433875353
1684002602131452600,2.24185302734375,1.5222499369956046,-0.5439147949925115,-0.2812128066155652
1684002602141494600,2.25189501953125,1.560154914863856,0.4361824989484809,-0.14353847512451492
1684002602151536800,2.261937255859375,1.5699518918074495,0.9950237273276545,-0.1608543395983952
1684002602161578900,2.271979248046875,1.6545672416542392,1.0864629745405028,-0.5961141587172668
1684002602171621300,2.282021728515625,1.8117904662137378,0.926583289976978,-1.073460579058535
1684002602181663400,2.292063720703125,1.8350450992891856,0.34513473515354004,-1.7237682343020704
1684002602191705600,2.30210595703125,1.6375637054785126,-0.23436927792527068,-2.0949296952408716
1684002602201747600,2.31214794921875,1.2039041519383191,-0.4348926543278036,-2.097836971161507
1684002602211789700,2.322190185546875,0.5010731816936783,-0.6859865190051053,-2.1741819382240175
1684002602221832100,2.332232421875,-0.027413547149266335,-1.678249836068681,-1.8239049911120873
1684002602231874200,2.342274658203125,0.17773592485313905,-2.695344448017908,-0.9995746614138331
1684002602241916300,2.352316650390625,0.9041558503701561,-2.3254504203314337,-0.0268206596230343
1684002602251958600,2.362359130859375,1.3326407671673426,-1.5018739700340156,0.4649100303929489
1684002602262000800,2.372401123046875,1.4807771444580218,-1.0967674256425675,0.4492564201440865
1684002602272042900,2.382443359375,1.4772068261597704,-0.908864974918128,-0.2489023208921198
1684002602282085000,2.3924853515625,1.3144907952615827,-1.1114311220183677,-0.9768028257811292
1684002602292127400,2.40252783203125,0.934400320212246,-1.4711985589166376,-1.69128608701133
1684002602302169600,2.41256982421875,0.38636034733828367,-1.4730601310386664,-2.24362945561525
1684002602312211600,2.422612060546875,-0.0578819513139553,-1.1417145729689149,-2.402752399437579
1684002602322253700,2.432654052734375,-0.15854875742739574,-0.8666234016402741,-2.0727548599815924
1684002602332296100,2.442696533203125,0.11446081105820477,-1.0680861473363985,-1.2574257851412043
1684002602342338200,2.452738525390625,0.5361508131252213,-0.8662271498827017,-0.5147023201468256
1684002602352380300,2.46278076171875,0.802810549766874,-0.5454483032633229,-0.13725471489700877
1684002602362422400,2.47282275390625,0.7572821973856108,-0.42010211957006344,-0.056332588392414715
1684002602372464800,2.482865234375,0.7212718128534661,-0.5830965042106383,-0.23310709008026542
1684002602382506900,2.4929072265625,0.7226044536405016,-0.44288015372567313,-0.3167729376711792
1684002602392549000,2.502949462890625,0.8339595795644489,-0.5576786995629115,-0.48054265974654314
1684002602402591200,2.512991455078125,0.8348587750675764,-1.2103290557349988,-0.4709787367490713
1684002602412633600,2.523033935546875,0.877799511020348,-1.3745994568499946,0.0013761519976033944
1684002602422675600,2.533075927734375,0.8484430908808072,-0.8265099526045548,0.683772564070737
1684002602432717700,2.5431181640625,0.7548540235355913,0.12237501146543993,0.9156270026487806
1684002602442759900,2.55316015625,0.5667752026042704,0.4064869880392859,0.7691202163761568
1684002602452802200,2.56320263671875,0.5892018079502296,0.7114906310684133,0.14655351645613704
1684002602462844300,2.57324462890625,0.4669579566285034,0.9516763687796931,-0.2965660095628886
1684002602472886400,2.583286865234375,0.3602538407022359,0.9317984580420391,-0.6133112907453754
1684002602482928600,2.593328857421875,0.18788349625257994,2.2047195433835736,-1.1172494887695348
1684002602492970900,2.603371337890625,-0.08723971240528199,1.3953852654883763,-1.367098808286938
1684002602503013000,2.613413330078125,-0.33203732956772,0.38099193571083756,-1.3048372268669255
1684002602513055200,2.62345556640625,-0.2085115013811924,-0.6524653434399932,-0.6794099809110927
1684002602523097300,2.63349755859375,0.06245145209379952,-1.048220157648675,0.05040645608280955
1684002602533139400,2.643539794921875,0.025707215047491964,-1.404882907889081,0.08101940137683138
1684002602543181700,2.65358203125,-0.6135709286100596,-1.5985484123378364,-0.3405604361576904
1684002602553223900,2.663624267578125,-0.3892061115246768,-1.3364491463211785,0.07779264433187513
1684002602563266000,2.673666259765625,0.7559298871602598,-0.041412830202086894,0.30318975450979546
1684002602573308100,2.68370849609375,0.3515660763220464,0.06550312049150323,-0.10295391084707796
1684002602583350400,2.693750732421875,0.21651869999101997,0.06006669981026621,-0.523781776417446
1684002602593392600,2.70379296875,0.5102688670463854,0.32014369971357015,-0.4141654967538206
1684002602603434600,2.7138349609375,0.5843765734926594,0.45998907081042795,-0.5460867882405459
1684002602613476800,2.723877197265625,0.5126165152603518,0.4915552137509098,-0.6305384636275637
1684002602623519200,2.73391943359375,0.6000732779691395,0.6768794060489373,-0.7716283797405226
1684002602633561300,2.743961669921875,0.6551327706904345,0.6478815080011061,-0.7117228508913012
1684002602643603400,2.754003662109375,0.5865717529128787,0.6987352370870468,-0.7703838349279927
1684002602653645600,2.7640458984375,0.5158291458521564,0.6385502814986337,-0.867630004746757
1684002602663687900,2.774088134765625,0.45251232398395075,0.3124456404604507,-0.6620993614861723
1684002602673730000,2.78413037109375,0.5684002637237225,-0.21159410487579922,-0.5507731435728328
1684002602683772100,2.79417236328125,0.8747917414963446,0.060693740879329446,0.32830429078466905
1684002602693814200,2.804214599609375,0.6699777246249445,-0.46017837519043775,1.1805424689429145
1684002602703856600,2.814257080078125,0.4393245577067711,-0.9001431466431061,1.7852835655270705
1684002602713898600,2.824299072265625,0.38502776613916945,-0.6624445915261845,1.766253471452814
1684002602723940800,2.834341064453125,-0.33477491137711135,1.4976668358433198,0.5681838988866694
1684002602733983200,2.844383544921875,-0.2195061593834029,0.05659723286877052,-0.6909046173222972
1684002602744025300,2.85442578125,0.30218523733229263,0.4933347702999067,-0.8064699173086162
1684002602754067400,2.8644677734375,0.21242567893465883,0.7534785270438515,-0.8997435568625127
1684002602764109600,2.874510009765625,0.21390080447783413,0.18323135371918997,-0.9948620797535453
1684002602774151600,2.884552001953125,0.508843898805157,0.20040035236445666,-0.375288963333166
1684002602784194000,2.894594482421875,0.14070200914367356,0.1589870453326635,0.6885981559846315
1684002602794236100,2.904636474609375,-0.1819377542020866,-0.25611400591891964,1.4343318937790321
1684002602804278200,2.9146787109375,-1.1248474121112575,0.021736621877432333,0.18663024900349467
1684002602814320300,2.924720703125,0.023200154412297017,-0.5542998314274474,0.9564900397334279
1684002602824362600,2.93476318359375,0.26525437833565285,-0.1781325340203297,1.3457207678918608
1684002602834404800,2.94480517578125,0.23636583995305807,1.2618150709960643,0.9614391327350749
1684002602844446900,2.954847412109375,-0.8725718855658312,0.8429350853012931,-1.8419933317646409
1684002602854489300,2.9648896484375,-0.0486030131893295,-0.8516731262762178,-1.5058660506240702
1684002602864531400,2.974931884765625,0.4359900951309191,0.3925018310408277,0.15327215194463162
1684002602874573600,2.984973876953125,0.14480489496437227,0.12313508985718898,0.6745328902235372
1684002602884615600,2.99501611328125,0.2164305746595625,-0.3830118180664676,1.0716166496403026
1684002602894657600,3.00505810546875,-0.442327082146529,2.2152895928687744,-0.8053383826921265
1684002602904700100,3.0151005859375,0.09402313828396278,-0.33827733993709386,-1.517370700843941
1684002602914742200,3.025142578125,0.731678068552597,0.03166580199826218,-0.2899131775414624
1684002602924784300,3.035184814453125,0.5732758045265213,0.5129847528106751,0.48233938227922807
1684002602934826400,3.045226806640625,0.4590342343064226,2.4628949164060407,1.0567436217668262
1684002602944868800,3.055269287109375,-0.6162651179839951,0.6709198951576983,-1.2742609978479744
1684002602954910900,3.065311279296875,0.15521368392398405,-1.2050704956101346,-0.30061244963897654
1684002602964953000,3.075353515625,0.8029997348253097,-0.25985145579100083,1.304302692345535
1684002602974995100,3.0853955078125,0.7943416834286156,0.023084640612667767,2.3469452858714135
1684002602985037600,3.09543798828125,0.5008516908237284,-0.2724695206840237,2.579140186238104
1684002602995079600,3.10547998046875,0.4523304105392902,-0.3641338348067316,2.5969066620962957
1684002603005121600,3.115522216796875,0.42062953123635055,0.020503044128438654,2.249132633217373
1684002603015163800,3.125564208984375,0.1892589478783862,0.3219251633839795,1.5554909706099376
1684002603025206200,3.135606689453125,0.27981454143328477,2.352490425076041,1.36652183538373
1684002603035248300,3.145648681640625,-0.5436719655712682,2.463362216808984,-2.593024492233186
1684002603045290400,3.15569091796875,-0.02508158980176176,-1.3010406493767024,-1.9529163837296482
1684002603055332600,3.16573291015625,1.5510067939128775,-0.38860225682673166,1.384160041745447
1684002603065374600,3.175775146484375,1.5312514304485818,0.45842266072107385,3.000000476660454
1684002603075417000,3.1858173828125,1.3429675101078866,-0.023224830509008323,2.9229164122459173
1684002603085459100,3.195859619140625,1.3545470238231494,0.17160987839395994,2.0976700783462876
1684002603095501200,3.205901611328125,1.0205441712952217,0.312408447275156,1.0857176782146867
1684002603105543300,3.21594384765625,0.5568984150994478,0.4258365631533602,0.2521343230290376
1684002603115585600,3.225986083984375,-0.02787143366436497,0.3994846343190066,0.08690357210106418
1684002603125627800,3.2360283203125,-0.4499067961965902,0.7185220718802644,0.3621053695896288
1684002603135669900,3.2460703125,-0.7161337135674051,0.8302927016982307,0.5321087837208522
1684002603145712000,3.256112548828125,-0.2985051871159172,3.7396283149276917,1.5049386024671083
1684002603155754400,3.26615478515625,0.2285056859837981,-0.10027408599542345,0.19275808324488006
1684002603165796600,3.276197021484375,0.6177396178039198,0.07173061371646132,1.1766762733181702
1684002603175838600,3.286239013671875,0.8689336778271023,0.339518547015575,1.2523856164527447
1684002603185880800,3.29628125,1.0028941631965798,0.4967412949259355,0.7431325911533296
1684002603195923100,3.306323486328125,1.2802098988987303,0.07373523714938078,1.0041613579093787
1684002603205965200,3.31636572265625,1.2578991651201974,-0.4409236906237224,1.2862758636516303
1684002603216007300,3.32640771484375,1.1339623928072047,-0.6461582183496073,1.2380399703119433
1684002603226049500,3.336449951171875,0.8063370587271707,-0.6353845594986361,0.7607808112310962
1684002603236091800,3.3464921875,0.3892264366261807,-0.495377540709489,0.4856629371439722
1684002603246133900,3.356534423828125,0.2469422072853159,-0.4432964325782963,0.23981523497082782
1684002603256176000,3.366576416015625,0.23109029231349015,2.1169142722096175,0.8899483681328092
1684002603266218200,3.37661865234375,-0.4164738060355033,0.5777969360440528,-1.267266750477347
1684002603276260600,3.386660888671875,-0.7541041969775513,0.323492050251201,-1.33248281468274
1684002603286302600,3.396703125,-0.8824368120017619,0.6787500382205478,-1.2080314159412593
1684002603296344800,3.4067451171875,-1.1025401352859738,1.1677923202650287,-1.290157318032206
1684002603306386900,3.416787353515625,-1.0748343468074923,1.216514587461944,-1.5096273421592585
1684002603316429000,3.426829345703125,-1.1988012789055513,0.968522071826316,-1.5039558411670826
1684002603326471300,3.436871826171875,-1.2885150909838237,0.7848033905591406,-1.245175600188461
1684002603336513500,3.446913818359375,-1.2384068966082449,0.7259664534062097,-1.3303008079867547
1684002603346555600,3.4569560546875,-1.4328886270722805,0.1738414764621231,-1.300025701617631
1684002603356597600,3.466998046875,-1.6192785501881655,-0.26827716821496433,-1.2973294259960861
1684002603366640000,3.47704052734375,-1.3765764235735864,-0.08516025538442457,-0.7988224029234411
1684002603376682200,3.48708251953125,-0.9055035114863298,-0.044813156151859115,-0.24817800530403816
1684002603386724300,3.497124755859375,-0.6942839622683686,-0.4658803940154031,0.3474860191669342
1684002603396766400,3.507166748046875,-0.5872791409765067,-0.6654653547751562,0.9022872447117347
1684002603406808800,3.517209228515625,-0.13197207461527993,-1.991661071839018,1.2727289200969725
1684002603416850900,3.527251220703125,0.05420744432378596,0.10248088829840843,2.6784856318804504
1684002603426893000,3.53729345703125,-0.17554187771725221,-1.1353931425726755,1.8220672607271555
1684002603436935100,3.54733544921875,-0.6322194337533785,-1.918029785220779,2.1652221680445507
1684002603446977500,3.5573779296875,-0.5757861139064635,-0.7333307265682129,2.9409811496987293
1684002603457019600,3.567419921875,-0.7231074571135089,-1.4830265043863124,2.0394456386185227
1684002603467061600,3.577462158203125,-0.5497142075712822,-1.042324066233942,2.053189039119245
1684002603477103800,3.587504150390625,-0.5067970752532148,-1.7801074980690723,1.3083591460263493
1684002603487146200,3.597546630859375,0.10723865027035083,-0.04057312018802096,0.7792744638209884
1684002603497188300,3.607588623046875,0.10122919084144646,-1.2149868011532943,-0.31365990651977743
1684002603507230400,3.617630859375,0.6959174872402619,-0.0719375609012775,-0.3285260201261828
1684002603517272600,3.6276728515625,0.5639612674841725,-0.21458625798859368,-0.07443904871800361
1684002603527314600,3.637715087890625,0.41214871407805603,-1.0612449646049016,-0.5829882621913657
1684002603537357000,3.64775732421875,0.26399981967883956,-1.2646884917031251,-1.33626616001033
1684002603547399100,3.657799560546875,0.31605207921253525,-1.2717895509220434,-1.3556084634113204
1684002603557441200,3.667841552734375,0.08679556851217324,-1.2387609483513295,-1.258644938435688
1684002603567483300,3.6778837890625,-0.02079439167587615,-1.5401554107690203,-1.5690267087101843
1684002603577525600,3.687926025390625,0.3010244369168965,-0.0964088439830629,-0.9427847862373304
1684002603587567800,3.69796826171875,0.4663336277546408,-0.8963193892995955,-1.3242107628879338
1684002603597609900,3.70801025390625,0.6936694384580001,-1.1029348373425638,-1.231764554903296
1684002603607652000,3.718052490234375,0.9139362574386026,-0.4260368347672611,-0.7442462445653888
1684002603617694400,3.7280947265625,1.081002354573611,-0.6099376677173846,-0.9315700531612525
1684002603627736600,3.738136962890625,1.1303575039241964,-0.3572683335102512,-0.5363283158086751
1684002603637778600,3.748178955078125,1.1847406624795496,0.15895652768716467,0.07341432575657095
1684002603647820600,3.75822119140625,1.094027519250596,0.5217895508390371,0.6777796744375532
1684002603657863100,3.768263427734375,0.9439566136533066,0.8316850662833275,1.044891118921467
1684002603667905200,3.7783056640625,0.7409746646478044,0.9849233626475051,1.1423571110611839
1684002603677947300,3.78834765625,0.7306987048831347,0.9135961532456108,0.9543960094722733
1684002603687989400,3.798389892578125,0.7184408901702243,0.8491258621374597,0.3777368068411533
1684002603698031800,3.80843212890625,0.7919646501087837,1.1004958152803288,-0.8108510970063549
1684002603708073900,3.818474365234375,0.6444332600962203,1.4691100121225902,-1.3303310872444452
1684002603718116000,3.828516357421875,0.4374668597319112,1.1323833464722293,-2.165618419743065
1684002603728158100,3.83855859375,0.2597517966770217,0.9092321395253865,-2.6702170370615814
1684002603738200200,3.8486005859375,0.13958239553473722,0.45491600039523383,-3.08301234244268
1684002603748242600,3.85864306640625,0.11129593857275347,-0.033533096285443424,-3.2719893454142026
1684002603758284600,3.86868505859375,0.168310642295406,-0.593279838599874,-3.1302170754350187
1684002603768326800,3.878727294921875,0.25053620351530803,-0.6774206161836297,-2.7934122084026507
1684002603778368900,3.888769287109375,0.1472020149622593,-0.742193222115567,-2.115495204908086
1684002603788411300,3.898811767578125,0.2840692997503654,-0.11785984044094132,-1.456652879604807
1684002603798453400,3.908853759765625,0.30093693732116406,0.13260650627571874,-0.7335660459003461
1684002603808495600,3.91889599609375,-0.11310553539453903,-0.10908794391804522,-0.06682348248839669
1684002603818537600,3.92893798828125,-0.7530596255898508,-0.5830116271359806,0.4259860514956472
1684002603828580000,3.93898046875,-1.127582073121449,-0.8974819184099275,0.7215216158475004
1684002603838622100,3.9490224609375,-1.2016168832917475,-0.6650419234780652,0.777706622997563
1684002603848664200,3.959064697265625,-1.2701920271036793,-0.5516929627792357,0.683948278463859
1684002603858706400,3.969106689453125,-1.3065382243028023,-0.7615356444289426,0.5960822105476314
1684002603868748600,3.979149169921875,-1.1575360297745827,-0.8352041242687523,0.43471622469513893
1684002603878790800,3.989191162109375,-0.8929830790141744,-0.6881513596320589,0.4413828849654459
1684002603888832900,3.9992333984375,-0.5768944023987816,-0.5906658172624913,0.45019340508865224
1684002603898875100,4.009275390625,-0.28027462955522425,-0.17994117727822706,0.6340599061409282
1684002603908917200,4.019317626953125,-0.20036351675832367,-0.6306695938757917,0.160557270132618
1684002603918959600,4.02935986328125,-0.058185338944149276,-0.5696640014278095,-0.06122684493278296
1684002603929001600,4.039402099609375,-0.054842591188936946,-0.27937889109381736,-0.10419559484006034
1684002603939043800,4.049444091796875,-0.12201082705205636,0.034953117437106516,-0.09474515915740084
1684002603949085900,4.059486328125,-0.23211026190284645,0.19355392457376633,0.01575088492286633
1684002603959128200,4.069528564453125,-0.29489552971694166,0.022654533381050373,-0.04597711567131185
1684002603969170400,4.07957080078125,-0.19898128502645346,-0.06171417226554148,-0.23171997069602418
1684002603979212500,4.08961279296875,-0.004094242941102843,0.0021724701868238144,-0.27906465545516884
1684002603989254600,4.099655029296875,0.2036546469554433,0.5021448135479778,-0.22453117372849152
1684002603999296900,4.109697265625,0.26825118082715543,0.6626434325298857,-0.4036760330434392
1684002604009339100,4.119739501953125,0.5500705240929121,1.505803108191734,-0.2056455610696917
1684002604019381200,4.129781494140625,0.634442329241648,1.755213737431299,-0.020808219898116653
1684002604029423300,4.13982373046875,0.5746859312600774,1.4291400908260918,-0.05453538875787581
1684002604039465400,4.14986572265625,0.5559810400124932,1.3051424025914093,-0.17937612529834412
1684002604049507800,4.159908203125,0.5267974138246106,1.1420464516392113,-0.5002374647567116
1684002604059549900,4.1699501953125,0.4825010299946437,0.716979026637553,-1.0077030658517485
1684002604069592000,4.179992431640625,0.6417745351083823,0.3401880264431753,-1.2106325625632524
1684002604079634100,4.190034423828125,0.641582489036218,-0.5648460388394334,-1.6447393893723685
1684002604089676500,4.200076904296875,0.5549534558027793,-1.1191053389830994,-1.8196108342204926
1684002604099718600,4.210118896484375,0.5568130015911333,-0.9925136567516837,-1.5836238861353487
1684002604109760600,4.2201611328125,0.4774775506214744,-0.5474290848087877,-1.2070271969572828
1684002604119802800,4.230203125,0.4031894205998929,0.11916923522917329,-0.6135535241579372
1684002604129845200,4.24024560546875,0.2967860697356879,0.5528240203825104,-0.2709851264721205
1684002604139887300,4.25028759765625,0.0016164779849351133,0.524952411692098,-0.044362068263096355
1684002604149929400,4.260329833984375,-0.3227446079765978,0.2866935730301204,0.09339761741602351
1684002604159971600,4.270371826171875,-0.6401815413861464,0.17997074122744092,0.2850494384182455
1684002604170013600,4.2804140625,-0.6330163479074712,0.1659555434607679,0.197293281394534
1684002604180056000,4.290456298828125,-0.5309498310902461,0.610238075161397,-0.10790824891166133
1684002604190098100,4.30049853515625,-0.18573975560629008,0.7511835098631789,-0.5837302207930094
1684002604200140200,4.31054052734375,0.024676084426914227,0.5424852372233145,-0.9455108643147265
1684002604210182300,4.320582763671875,0.109427213633301,0.7895650861961452,-0.8682579993381513
1684002604220224600,4.330625,0.24040484440998014,0.7279806136243286,-0.759925603886813
1684002604230266800,4.340667236328125,0.3976151943841637,-0.4911041259231413,-1.403547763733844
1684002604240308900,4.350709228515625,0.391223430599398,-0.23176097859070016,-0.9205453394261294
1684002604250351000,4.36075146484375,0.4658498764168313,-0.6586627960552729,-0.9398927688038133
1684002604260393400,4.370793701171875,0.5352858305378516,-0.3929347992982782,-0.4173221586970021
1684002604270435600,4.3808359375,0.31400609015559433,-0.337917327934115,-0.006871700315085882
1684002604280477600,4.3908779296875,0.001620054344918647,-0.06537342078862846,0.04255676278268916
1684002604290519700,4.400920166015625,-0.23960924161249944,-0.09093952168497106,-0.10183811201629252
1684002604300561800,4.410962158203125,-0.36100411419708306,-0.15117359173749076,-0.12121295947745461
1684002604310604200,4.421004638671875,-0.4573187827923523,0.16536712651420918,-0.04386281979837064
1684002604320646300,4.431046630859375,-0.46600174899895996,0.3724536895973492,-0.0011887549691378871
1684002604330688400,4.4410888671875,-0.1707837581125563,1.0247077941986549,-0.12007951744329841
1684002604340730600,4.451130859375,-0.003618001854172705,1.192742824425327,0.19718074795536383
1684002604350772900,4.46117333984375,0.17023968678664972,1.0443711281491157,0.3466477394398433
1684002604360815000,4.47121533203125,0.28053832042801563,0.7785301208083456,0.24120426180924973
1684002604370857100,4.481257568359375,0.3026936055455064,0.9353413581218745,0.43578577048516204
1684002604380899200,4.491299560546875,0.010164260813775151,0.47501754765845583,0.6342239379515108
1684002604390941400,4.501341796875,-0.24407327166107504,0.02013015738769205,0.7799158096516248
1684002604400983700,4.511384033203125,-0.5086847545117895,-0.36943149561665545,0.8869943618633112
1684002604411025800,4.52142626953125,-0.9208705425715025,-1.0617847443008326,0.7317996024333304
1684002604421068000,4.53146826171875,-1.1513906718672395,-1.6565303802839788,0.48141050333725705
1684002604431110100,4.541510498046875,-1.1340538264474351,-1.9421043395642958,0.24610996246180658
1684002604441152400,4.551552734375,-1.123181343117829,-2.2006254196365793,0.41140031816685707
1684002604451194600,4.561594970703125,-1.3285083771153159,-2.2846822738366717,0.5910634994590258
1684002604461236600,4.571636962890625,-2.0227222443402733,-2.039466857960083,0.8383226393591827
1684002604471278800,4.58167919921875,-3.3278970718012064,-1.5559177398028141,1.53268718727143
1684002604481321100,4.591721435546875,-4.469295024900226,-1.338974952814734,2.10447454453711
1684002604491363200,4.601763671875,-3.203604698196947,-0.5981941223715401,1.9862756729419104
1684002604501405400,4.6118056640625,-1.489594459568501,0.06834507004090234,1.3266677856161677
1684002604511447600,4.621847900390625,-0.1129137279196304,0.568452835130083,0.7334232329302177
1684002604521489600,4.631889892578125,1.0870785713746491,1.0888371468582523,0.061271190566380265
1684002604531532000,4.641932373046875,1.5080287457288633,1.3242001533636345,-0.09600782384996287
1684002604541574100,4.651974365234375,1.5285130740255999,1.4695348740474798,-0.3088369368432317
1684002604551616200,4.6620166015625,1.258737087257005,1.347867011988581,-0.5882167815568042
1684002604561658300,4.67205859375,0.8717709779195006,1.0248079298942312,-0.9495277404758026
1684002604571700600,4.68210107421875,0.60345673570218,0.7046976089139004,-1.1462655066337823
1684002604581742800,4.69214306640625,0.5766413212354904,0.6010942459699748,-1.2762680053549293
1684002604591784900,4.702185302734375,0.432453245017471,0.28898715958010307,-1.311764717067702
1684002604601827000,4.712227294921875,0.44678765532035536,0.11684989934548473,-1.1157371997230718
1684002604611869400,4.722269775390625,0.503461241728751,0.012271881172462777,-0.9740409851126495
1684002604621911600,4.732311767578125,0.5309682488446057,-0.029559135292527048,-0.8962669372503049
1684002604631953600,4.74235400390625,0.528270006272985,-0.10441112515704733,-0.6728687286825196
1684002604641995600,4.75239599609375,0.5813638567203153,-0.11219120036632571,-0.4627027511922472
1684002604652038100,4.7624384765625,0.6429769991361983,-0.10368442528632464,-0.30457115162103215
1684002604662080200,4.77248046875,0.6984642147066207,-0.08672618865356353,-0.20862817766787314
1684002604672122300,4.782522705078125,0.7447469234407458,-0.07811927791376908,-0.23658132561451492
1684002604682164400,4.792564697265625,0.7703148722690837,-0.04877948749014467,-0.2845253944342376
1684002604692206600,4.80260693359375,0.7206121681966978,0.003362655632765143,-0.3265562057813058
1684002604702248900,4.812649169921875,0.6488894225032517,0.11881446829715156,-0.4868340491016659
1684002604712291000,4.82269140625,0.6142930389007519,0.15001964557115663,-0.56082296359441
1684002604722333100,4.8327333984375,0.5484526157484624,0.11746978759609258,-0.6396863459596603
1684002604732375200,4.842775634765625,0.5223684312048922,0.03592109693248396,-0.5461401937999264
1684002604742417600,4.85281787109375,0.5132572055505684,0.0649976730273687,-0.40327453599832985
1684002604752459600,4.862860107421875,0.4378711581151231,0.04329776771173183,-0.23939609536622733
1684002604762501800,4.872902099609375,0.30088970055470293,0.025002479418524945,-0.18972969043084503
1684002604772543900,4.8829443359375,0.2496367992095198,-0.08112335212869368,-0.09959793087482695
1684002604782586300,4.892986572265625,0.15518514804790315,-0.23779964458303895,-0.2654852866593811
1684002604792628400,4.90302880859375,0.05363781737931424,-0.20676994336172894,-0.30909776690666707
1684002604802670600,4.91307080078125,0.06051340700282419,-0.31060123427577974,-0.27374219880949885
1684002604812712600,4.923113037109375,0.16412918275034838,-0.4939355849879577,-0.22433042535381803
1684002604822754700,4.933155029296875,0.3872707486951896,-0.6077308654902946,-0.2717490195438771
1684002604832797100,4.943197509765625,0.6548079847932538,-0.5503063201557169,-0.18546342861635548
1684002604842839200,4.953239501953125,0.8506060244137535,-0.46529769898060225,-0.12504100795627834
1684002604852881300,4.96328173828125,1.0279545784281197,-0.2192296981684943,-0.23381805416147217
1684002604862923400,4.97332373046875,1.1412999630976741,-0.18923377996146568,-0.3000845907302288
1684002604872965800,4.9833662109375,1.167402505996168,-0.09089756000314093,-0.3125834465501963
1684002604883007900,4.993408203125,1.1694726944269704,-0.032320022754795015,-0.3272609710256311
1684002604893050000,5.003450439453125,1.1384148596864638,-0.042125701839771844,-0.39437341693224226
1684002604903092100,5.013492431640625,1.0946555138531122,-0.02158164982900802,-0.5076804162256559
1684002604913134300,5.02353466796875,0.9993371962373372,-0.022960662952067945,-0.5612459181539967
1684002604923176600,5.033576904296875,0.8650998472459503,-0.08416080480194783,-0.5810003281526559
1684002604933218700,5.043619140625,0.762763261741551,-0.13109779368801086,-0.5839972496292087
1684002604943260800,5.0536611328125,0.6536326407255905,-0.15974617006486158,-0.5552787781261719
1684002604953303000,5.063703369140625,0.5407198667308101,-0.37443828595849155,-0.750946521724317
1684002604963345300,5.073745849609375,0.5375147462577742,-0.43534660340274367,-0.811574459037727
1684002604973387400,5.083787841796875,0.43606621030981213,-0.4074287414904087,-0.69944095615354
1684002604983429600,5.093829833984375,0.32268202306936583,-0.3852186201528737,-0.5773892402254186
1684002604993471600,5.1038720703125,0.14907997836911968,-0.3405971526648199,-0.5016221999367932
1684002605003513800,5.1139140625,0.01884013404459373,-0.23542022718579483,-0.39574670789810173
1684002605013556100,5.12395654296875,-0.08695936211530327,-0.09616947164306457,-0.24808883668737933
1684002605023598300,5.13399853515625,-0.1630932689977776,0.05078315736793405,-0.12098407752951384
1684002605033640400,5.144040771484375,-0.20035779471019036,0.21010398855562085,-0.019314289031854677
1684002605043682600,5.154082763671875,-0.21867704377260017,0.33131313311783755,0.12576627722618336
1684002605053724600,5.164125,-0.19714576003473058,0.40250587469707777,0.2114281654451805
1684002605063767000,5.17416748046875,-0.14826303734492974,0.4190063475871804,0.35723924640990234
1684002605073809100,5.18420947265625,-0.08422243605618664,0.4141912459748414,0.4862947464024329
1684002605083851200,5.19425146484375,-0.024079263229112784,0.36177158357576317,0.6032586098919078
1684002605093893300,5.204293701171875,0.05600154395878298,0.3646764755183292,0.6725697518377828
1684002605103935600,5.214336181640625,0.15116864443969133,0.38927173621567807,0.7013955117324749
1684002605113977800,5.224378173828125,0.23757582901057156,0.4260149001458161,0.7042689322408723
1684002605124019900,5.234420166015625,0.28678983456027035,0.4421033859647573,0.7326207161080437
1684002605134062000,5.24446240234375,0.30962008232269417,0.46966457355117913,0.7227392197305466
1684002605144104400,5.2545048828125,0.306327581572747,0.47794151311982186,0.7342271804824766
1684002605154146600,5.264546875,0.3221991062403632,0.49796295151377945,0.7325272558878999
1684002605164188600,5.274589111328125,0.37689572575300334,0.4558315278129763,0.7904472350412398
1684002605174230600,5.284631103515625,0.40996140249733776,0.42811775207295527,0.8004860876693131
1684002605184272800,5.294673095703125,0.44198125596795346,0.4170179367874675,0.7889251708446184
1684002605194315200,5.304715576171875,0.415403604427992,0.42494487769370215,0.7249512671126925
1684002605204357300,5.3147578125,0.3593856097641529,0.4326791763651009,0.6777544020126606
1684002605214399400,5.3247998046875,0.3008136749297967,0.41627216341970924,0.6685533522724926
1684002605224441600,5.334842041015625,0.2541647552751911,0.3376073837434158,0.6089210509071479
1684002605234483900,5.34488427734375,0.2263243196649577,0.3185968398730778,0.5682182311693287
1684002605244526000,5.354926513671875,0.2026829124567965,0.3255376815021319,0.5127763746911705
1684002605254568100,5.364968505859375,0.15425497289542167,0.3608770368915334,0.40234708782928613
1684002605264610200,5.3750107421875,0.079954326098816,0.34804058066649457,0.33523988713736436
1684002605274652600,5.385052978515625,0.0018047689927354867,0.33772945408193666,0.31404018416270646
1684002605284694600,5.39509521484375,-0.06790989630985939,0.3278446196730383,0.23253917687272543
1684002605294736800,5.40513720703125,-0.10250455134590174,0.28072261807646287,0.23279380800783206
1684002605304778900,5.415179443359375,-0.14647066595972835,0.2512102127266053,0.2310147285938121
1684002605314821000,5.425221435546875,-0.16147702924143462,0.2509746552492424,0.2015862464671068
1684002605324863400,5.435263916015625,-0.15934598452771045,0.16877079011171778,0.19408035262675263
1684002605334905600,5.445305908203125,-0.15405535704254947,0.08838367460151064,0.14922142023443052
1684002605344947600,5.45534814453125,-0.1455346345794794,0.04534721372205684,0.06340646746234928
1684002605354989700,5.46539013671875,-0.11302286385013126,0.0671329497655333,0.017158031478540642
1684002605365032100,5.4754326171875,-0.08041095725255996,0.1595821380328253,-0.028131008133526345
1684002605375074200,5.485474609375,-0.008172035149286081,0.21019172675588,-0.21487045284135267
1684002605385116300,5.495516845703125,0.17985862502727915,0.2362823486636851,-0.05043506630417657
1684002605395158400,5.505558837890625,0.3416197299123267,0.3079624176281767,0.08344888676851332
1684002605405200600,5.51560107421875,0.44689232098760534,0.27839946749232614,0.21771097185245594
1684002605415242900,5.525643310546875,0.5558567047182998,0.3000545501670735,0.3172106742912657
1684002605425285000,5.535685546875,0.6607547400988792,0.35546779631925235,0.43896961218297254
1684002605435327200,5.5457275390625,0.7580958602965203,0.41056632992186254,0.6100029945186728
1684002605445369300,5.555769775390625,0.8303418161047665,0.5259437561479199,0.7060155866972445
1684002605455411400,5.565811767578125,0.858104348122161,0.5943975448364912,0.8621087075550439
1684002605465453700,5.575854248046875,0.8439956904439873,0.6024131773230662,0.9687108992857509
1684002605475495900,5.585896240234375,0.8270897864587039,0.5795059205665504,1.149466991451674
1684002605485538000,5.5959384765625,0.74057602882654,0.6300640106769461,1.306898117191806
1684002605495580100,5.60598046875,0.629347920448241,0.6515417098977482,1.4973464012842355
1684002605505622400,5.61602294921875,0.5646173954375764,0.6794137955430078,1.6511826516509858
1684002605515664600,5.62606494140625,0.470309615148488,0.6853580474298849,1.8231942652795212
1684002605525706600,5.636107177734375,0.3702555895734573,0.6766176222724766,1.8926141261278908
1684002605535748800,5.646149169921875,0.341664672083076,0.6407642363630446,2.0075502394514824
1684002605545790900,5.65619140625,0.27745079996583283,0.6129741669375125,2.0551991462629506
1684002605555833300,5.666233642578125,0.22610723958512643,0.439500808832066,2.1127691267701296
1684002605565875400,5.67627587890625,0.2047488688394397,0.08448505394286625,2.3597121238028365
1684002605575917600,5.68631787109375,0.17405021182887442,-0.2254209516852152,2.451138496428129
1684002605585959600,5.696360107421875,0.11345028872926496,-0.4142484663246683,2.5174131393041375
1684002605596002000,5.70640234375,0.06142723550279222,-0.5503273010501523,2.4691820145526644
1684002605606044100,5.716444580078125,0.008742690073889255,-0.5829524993140367,2.360746383574427
1684002605616086200,5.726486572265625,-0.04695427407480176,-0.650598526054008,2.2025308608696057
1684002605626128300,5.73652880859375,-0.08522373435957499,-0.7727670670718858,2.1062273979017077
1684002605636170600,5.746571044921875,-0.0926801563133999,-0.7572813034604311,2.0117020606966944
1684002605646212800,5.75661328125,-0.2603868843392008,-0.7660245896052594,1.433812618335944
1684002605656254900,5.7666552734375,-0.5460335015659004,-0.8915920256578793,0.834025859667217
1684002605666297000,5.776697509765625,-1.4717267751430168,-0.9932985306919153,0.060253620163018815
1684002605676339100,5.786739501953125,-2.669882774287862,-1.1394338606941736,-0.7857124806294806
1684002605686381600,5.796781982421875,-3.1621475219709767,-1.1036634445594025,-1.2294735907805996
1684002605696423600,5.806823974609375,-3.053880691377489,-0.9144296644924608,-1.5334308146109763
1684002605706465600,5.8168662109375,-2.823931217270845,-0.6287250519073485,-1.7195386886380208
1684002605716507800,5.826908203125,-2.4156739711685296,-0.17593765267681905,-1.973276615222561
1684002605726550200,5.83695068359375,-1.7784463165713473,0.30545902249088214,-2.1625635624094475
1684002605736592300,5.84699267578125,-1.0669038295484996,0.47450828547850044,-1.8225991725855089
1684002605746634400,5.857034912109375,-0.5661845207452006,0.5802516937960174,-1.214687824235115
1684002605756676600,5.867076904296875,-0.2827799022290012,0.588699340768315,-0.5938367843759217
1684002605766718600,5.877119140625,-0.08934637912772465,0.6040449142902959,-0.0015220642159960872
1684002605776761000,5.887161376953125,-0.0011433735992330744,0.5877351762082395,0.3340296744463899
1684002605786803100,5.89720361328125,0.2471824287904779,0.5761423110455146,0.33313751227441474
1684002605796845200,5.90724560546875,0.6257603167096858,0.44529151928430344,0.2912926673441201
1684002605806887300,5.917287841796875,0.9356593489353835,0.16915321357406432,0.17081737512481368
1684002605816929600,5.927330078125,1.0808975696657992,-0.13738727569849926,-0.006613731448091611
1684002605826971800,5.937372314453125,1.1112375259556997,-0.3619241713709594,-0.23367404935530287
1684002605837013900,5.947414306640625,1.2462757825500026,-0.5209274292532742,-0.4764280318518631
1684002605847056000,5.95745654296875,1.4331418274095078,-0.6075906754720142,-0.6642403601952691
1684002605857098200,5.96749853515625,1.5756257773360256,-0.6147212981708446,-0.6464123726620121
1684002605867140600,5.977541015625,1.7266068458031325,-0.8702373504202725,-0.8842501640231217
1684002605877182600,5.9875830078125,1.9681773186254021,-1.0824890136214054,-0.8854079245245218
1684002605887224800,5.997625244140625,1.966581463776614,-1.372191429156047,-0.9057803154444287
1684002605897266900,6.007667236328125,1.733443856063829,-1.5490579604797514,-0.9136314391649305
1684002605907309000,6.01770947265625,1.556136965867116,-1.3333797456202359,-0.7057800293270332
1684002605917351300,6.027751708984375,1.5766572951304973,-0.7625560761851984,-0.6312341691060139
1684002605927393500,6.0377939453125,1.7445825339499406,-0.3362121582656075,-0.6155066489730185
1684002605937435600,6.0478359375,1.8309347630977606,-0.11313819883797645,-0.6059598921606587
1684002605947477600,6.057878173828125,1.7547773124083428,-0.023948669539933614,-0.5190067291457922
1684002605957519800,6.067920166015625,1.5781848430475443,0.04091930390887293,-0.4730606079928015
1684002605967562200,6.077962646484375,1.4380373955117727,0.20768260956769136,-0.529025077684254
1684002605977604300,6.088004638671875,1.4013854264932646,0.3637504577697647,-0.5872292518517835
1684002605987646400,6.098046875,1.4799900054390247,0.5551700591084844,-0.7262926101291951
1684002605997688600,6.1080888671875,1.4305653573010289,0.6723089217927538,-0.8387732506349848
1684002606007730900,6.11813134765625,1.3989632129219505,0.6593189240146083,-0.8597745894966453
1684002606017773000,6.12817333984375,1.5011591911336628,0.5726838112042653,-0.8769054411695725
1684002606027815100,6.138215576171875,1.5997864008546578,0.419227600010605,-0.8594794273249031
1684002606037857200,6.148257568359375,1.6999531985492085,0.3324813842126757,-0.8820891380498556
1684002606047899600,6.158300048828125,1.760198235660239,0.22360038761093531,-0.9477934837748396
1684002606057941600,6.168342041015625,1.7150886058706694,0.11156940457829582,-1.002160549084667
1684002606067983800,6.17838427734375,1.6333670615070426,-0.0301189421306132,-1.0099792479647054
1684002606078025900,6.18842626953125,1.4245014191105327,-0.15170192712159034,-0.9767179490390713
1684002606088068000,6.198468505859375,1.1603906154624115,-0.24738216410732136,-0.8844795225229682
1684002606098110400,6.2085107421875,0.7657567859550031,-0.3134422301354794,-0.5167469977657637
1684002606108152600,6.218552978515625,0.45289206492032436,-0.5655574798885078,-0.5602684022021305
1684002606118194600,6.228594970703125,0.33176732066744785,-0.7738065720381441,-0.4814901352633118
1684002606128236600,6.23863720703125,0.31135797503085455,-0.9413709641404615,-0.3020486832085127
1684002606138279100,6.248679443359375,0.3598698376450283,-1.0481247902373287,-0.21732282630636202
1684002606148321200,6.2587216796875,0.3902493714297938,-1.0747437477035433,-0.02700614943460145
1684002606158363300,6.268763671875,0.3725042343655379,-1.0673360824555216,0.10741949080442968
1684002606168405400,6.278805908203125,0.3608578443803745,-0.810680389443076,0.3342642784428027
1684002606178447600,6.288847900390625,0.20341849332223422,-0.8131923674988598,0.22733020783032346
1684002606188489900,6.298890380859375,0.19452118877289581,-0.9320340156508014,-0.11017274855192784
1684002606198532000,6.308932373046875,0.32853853693803375,-1.0177302360955849,-0.3785896302374961
1684002606208574100,6.318974609375,0.5558924676309163,-1.01461410523468,-0.5641422270706167
1684002606218616200,6.3290166015625,0.7849458457469269,-0.9589166640158124,-0.7106509208731452
1684002606228658400,6.339058837890625,0.9705617427030638,-0.9292845725420315,-1.0159711836498342
1684002606238700600,6.34910107421875,1.2098404168713377,-0.7665991781673751,-1.2201414108513724
1684002606248742800,6.359143310546875,1.3376356362458135,-0.9016170502983295,-1.7016572952309321
1684002606258784900,6.369185302734375,1.5578078030468676,-0.8101096152411809,-1.891692161561859
1684002606268827100,6.3792275390625,1.6650857925059335,-0.7451190947696522,-1.9143018722311254
1684002606278869200,6.38926953125,1.6482006311649644,-0.6947302818456624,-1.8335757255744312
1684002606288911600,6.39931201171875,1.5643849372646688,-0.5975189209882874,-1.6189274787301053
1684002606298953600,6.40935400390625,1.4429365396626308,-0.5592198371972968,-1.4312109946825842
1684002606308995800,6.419396240234375,1.36959576622302,-0.5963783265394565,-1.2417702674466073
1684002606319037900,6.429438232421875,1.3694850206177962,-0.5969429016830463,-1.0586261748080685
1684002606329080200,6.439480712890625,1.369445919857714,-0.5544710158810162,-0.9762144089486828
1684002606339122400,6.449522705078125,1.2728192806317509,-0.505703449293223,-0.9169793129999904
1684002606349164500,6.45956494140625,1.0839176177390015,-0.4571547508343301,-0.7998466491619812
1684002606359206600,6.46960693359375,0.8868703841509127,-0.4147748946827818,-0.7506198882989852
1684002606369248900,6.4796494140625,0.6817444562920416,-0.4410691260718465,-0.6646466255506603
1684002606379291100,6.48969140625,0.4686057568156268,-0.488714218184904,-0.5404667854985776
1684002606389333200,6.499733642578125,0.3693988322621378,-0.5626969338039808,-0.35700178153463163
1684002606399375300,6.509775634765625,0.4148427248597733,-0.6267805099473555,-0.20708608622964966
1684002606409417400,6.51981787109375,0.4757947921613668,-0.615984439904033,-0.19492197026934174
1684002606419459800,6.529860107421875,0.5145218370750523,-0.5992460251532051,-0.18313360207800464
1684002606429501900,6.53990234375,0.7240380047587789,-0.44024324403402304,-0.20979213709790034
1684002606439544000,6.5499443359375,1.129206895905705,-0.1833686828431025,-0.30440616613340565
1684002606449586100,6.559986572265625,1.459187746206596,0.12769269951156276,-0.3712396621878924
1684002606459628200,6.570028564453125,1.4951046704888127,0.32214784623446907,-0.4131398201278332
1684002606469670600,6.580071044921875,1.4117115736282684,0.4412717817909864,-0.40822505940671683
1684002606479712600,6.590113037109375,1.3299012183382346,0.4350676536519509,-0.4644670486578635
1684002606489754800,6.6001552734375,1.174595832989664,0.3049921989322639,-0.46334266666056123
1684002606499796900,6.610197265625,0.7319782972794528,0.12589502323050064,-0.29876565937101823
1684002606509839000,6.620239501953125,0.2753517627731704,0.06768941872239813,0.010218143495135142
1684002606519881400,6.63028173828125,-0.3832923173723582,-0.18752145756823693,0.54623031604629
1684002606529923600,6.640323974609375,-0.8254020214497826,-0.4688553808663632,1.0224490164932263
1684002606539965600,6.650365966796875,-0.5955406428324673,-0.519200801842028,1.5023055076529597
1684002606550007600,6.660408203125,0.11484587205645976,-0.4097695350836649,1.4812717438544667
1684002606560050100,6.670450439453125,1.1369984149796744,-0.019642352974935173,1.2782464028253575
1684002606570092200,6.68049267578125,2.626558780816672,0.28946590414923756,1.0112619399746423
1684002606580134300,6.69053466796875,3.9468531606945887,0.6454973222653397,0.5829353331953402
1684002606590176400,6.700576904296875,3.636772632524452,0.421662330480911,-0.03385925288014617
1684002606600218600,6.710618896484375,2.648100853044052,0.07322025293555622,-0.3915171624859871
1684002606610260900,6.720661376953125,1.978319287469504,-0.11315155027516667,-0.33460855485515895
1684002606620303000,6.730703369140625,1.1995875833696497,-0.3275203705600995,-0.4052124024042781
1684002606630345100,6.74074560546875,0.21676945684339,-0.41638946544269784,-0.8215117454914721
1684002606640387200,6.75078759765625,-0.5256842374534823,-0.5947713853862617,-1.2231621740462435
1684002606650429600,6.760830078125,-1.1611191035128723,-0.8493876457471041,-1.5823941230247607
1684002606660471600,6.7708720703125,-1.5085644722103853,-1.052071571309203,-1.8188300132588278
1684002606670513800,6.780914306640625,-1.529786348356516,-1.1639986037697299,-2.027239322640266
1684002606680556000,6.790956298828125,-1.343590378747082,-1.2661008833495535,-2.137532949393283
1684002606690598100,6.80099853515625,-0.9322937727978445,-1.4512987136123638,-2.051424503333443
1684002606700640400,6.811040771484375,-0.47923254968057194,-1.6398835181805262,-1.9884374141938843
1684002606710682600,6.8210830078125,0.03351521492959666,-1.7453999520021384,-1.908526897413829
1684002606720724600,6.831125,0.3518540858965316,-1.7560858727912203,-1.8684079647791973
1684002606730766800,6.841167236328125,0.33558923001987623,-1.779491424550857,-1.9189770222452225
1684002606740808900,6.851209228515625,0.2431024311277921,-1.8566737174399486,-1.8739228248189497
1684002606750851200,6.861251708984375,0.1652376651714882,-2.011734962448169,-1.725714206630796
1684002606760893400,6.871293701171875,0.11368358143845998,-2.020314693481572,-1.5963268280204577
1684002606770935500,6.8813359375,0.08955562102552746,-1.861805915880117,-1.5201349259539292
1684002606780977600,6.8913779296875,0.10835254194708904,-1.4646987916378442,-1.6019420623853295
1684002606791019600,6.901420166015625,0.2283750771792839,-0.9097290040209356,-1.5769014357796411
1684002606801062100,6.91146240234375,0.430127322790423,-0.38782215112173,-1.3819174765386915
1684002606811104200,6.921504638671875,0.600014269184146,-0.006682395827953952,-1.1178712846407193
1684002606821146300,6.931546630859375,0.7071591615002903,0.20964336385944823,-0.7116074560909845
1684002606831188400,6.9415888671875,1.0491825342415644,0.37862539294421865,-0.2376627921895624
1684002606841230800,6.951631103515625,1.5789263247953063,0.5177865028965589,0.21620941178407033
1684002606851272900,6.96167333984375,2.0067019461405042,0.6302571295840041,0.5579099655488732
1684002606861315000,6.97171533203125,2.209028244056422,0.7331490517253911,0.7573485376227065
1684002606871357100,6.981757568359375,2.3422508239555286,0.8239793777522929,0.824482441089346
1684002606881399200,6.991799560546875,2.3225462435903665,0.8233180046791512,0.9115257262368598
1684002606891441600,7.001842041015625,2.2248542308278205,0.6851081848300035,1.054946422485951
1684002606901483600,7.011884033203125,2.092341661427026,0.49218797671566056,1.2142672538644457
1684002606911525800,7.02192626953125,1.9087270498743192,0.3893113136913755,1.315745353764851
1684002606921567900,7.03196826171875,1.7507535218487036,0.32797241197182003,1.2441082000344805
1684002606931610000,7.042010498046875,1.7090301512451431,0.36277771003389253,1.1551179885703624
1684002606941652400,7.052052734375,1.66434741018986,0.44780349726939617,0.9771828652520576
1684002606951694600,7.062094970703125,1.5611592531837297,0.4894361495601634,0.7054238317845511
1684002606961736600,7.072136962890625,1.406653165873615,0.42291831981855554,0.42766284943862604
1684002606971778700,7.08217919921875,1.2907044887858112,0.2845821381095437,0.11060571659671693
1684002606981820800,7.09222119140625,1.1721270085138387,0.05598258981619771,-0.11843299870433785
1684002606991863200,7.102263671875,1.0844559668910074,-0.21924018873385104,-0.2685356139603072
1684002607001905300,7.1123056640625,0.9656808973416161,-0.46653556823941794,-0.3631072044364428
1684002607011947400,7.122347900390625,0.9769652486745363,-0.5994472503542612,-0.4489793776335414
1684002607021989600,7.132389892578125,1.112810611698169,-0.5845594406736684,-0.4777059555910613
1684002607032031900,7.142432373046875,1.2647259235342063,-0.44843292241233274,-0.4228501320384581
1684002607042074000,7.152474365234375,1.385042429013339,-0.2847909928457692,-0.4308304787280936
1684002607052116100,7.1625166015625,1.4102299212783047,-0.10335159299181791,-0.4183273315107143
1684002607062158300,7.17255859375,1.340972185089604,0.024267196758093572,-0.45242595679159936
1684002607072200400,7.182600830078125,1.2876009941572828,0.09111785899472134,-0.49016618719473776
1684002607082242700,7.19264306640625,1.2817270756251347,0.0926904677538106,-0.49095344554546444
1684002607092284800,7.202685302734375,1.269597053602472,-0.013555526920373985,-0.5452437401067055
1684002607102327000,7.212727294921875,1.304028272474677,-0.11003875739306399,-0.5735087394267693
1684002607112369100,7.22276953125,1.3287929296092578,-0.21796607969702697,-0.6156964301960718
1684002607122411400,7.232811767578125,1.3834482431794735,-0.2604646682486281,-0.728177070584351
1684002607132453600,7.24285400390625,1.5382266045080044,-0.23748493184364894,-0.7980384826700384
1684002607142495600,7.25289599609375,1.6763336657703494,-0.22818946848197114,-0.7850708962161504
1684002607152537800,7.262938232421875,1.8645317554324163,-0.19211101523086557,-0.7757501601494409
1684002607162579900,7.272980224609375,1.9726077317005462,-0.1676054001382098,-0.7893757820268774
1684002607172622300,7.283022705078125,1.9660785197991286,-0.18325805668321915,-0.7613959312426478
1684002607182664400,7.293064697265625,1.8382083178035031,-0.19139766709052394,-0.7256202696545048
1684002607192706600,7.30310693359375,1.6263258457190688,-0.20913887019654093,-0.6611385345731834
1684002607202748600,7.31314892578125,1.3599961997648105,-0.17974567407865513,-0.5905456544467628
1684002607212790600,7.323191162109375,1.105630636312613,-0.13475990289625187,-0.5145716668582365
1684002607222832800,7.333233154296875,0.8849090933304739,-0.1555271150477809,-0.39050197607289283
1684002607232875200,7.343275634765625,0.724621117183519,-0.26074981682203857,-0.3230834006556679
1684002607242917300,7.353317626953125,0.6162417531444572,-0.44986343390753314,-0.18247079854277895
1684002607252959400,7.36335986328125,0.5225396156954983,-0.5555782318148058,-0.11937570559718427
1684002607263001600,7.37340185546875,0.5063847899165589,-0.5446920394667071,-0.13368654264088262
1684002607273043900,7.3834443359375,0.4856997430431501,-0.4174413682142536,-0.2371778486809702
1684002607283086000,7.393486328125,0.5012505055526734,-0.25046062468899954,-0.3221516609150035
1684002607293128100,7.403528564453125,0.5301343200893583,-0.14402389518461464,-0.3526587486153961
1684002607303170200,7.413570556640625,0.565790891698578,-0.05972766877623298,-0.31683254252515236
1684002607313212600,7.423613037109375,0.5691152811625901,-0.03558635716600406,-0.26233530053428195
1684002607323254600,7.433655029296875,0.5837428569119084,-0.011443138178475986,-0.14095163347557496
1684002607333296800,7.443697265625,0.6113957763311346,-0.0038967132695752423,-0.005287170436458111
1684002607343338900,7.4537392578125,0.682319998725487,0.023022651735264715,0.13273668292065938
1684002607353381000,7.463781494140625,0.7796820402633444,0.040395736785812805,0.23686170578717922
1684002607363423400,7.47382373046875,0.8894898295431282,0.05751991276486527,0.33302259438038817
1684002607373465600,7.483865966796875,0.9655669926877212,0.06465244303264817,0.3637533188530089
1684002607383507600,7.493907958984375,0.9641522763982036,0.10013961785897278,0.2627601624739028
1684002607393549700,7.5039501953125,0.9394530058857804,0.1185016632213278,0.1330742835790263
1684002607403591900,7.5139921875,0.8732960223276833,0.12468624106249505,0.05140161528184156
1684002607413634200,7.52403466796875,0.7918821573101046,0.0972595215384117,0.029486179258251245
1684002607423676300,7.53407666015625,0.7011455297515753,0.05923080452226076,0.02825307855810845
1684002607433718400,7.544118896484375,0.6128470300267262,-0.004446983329960218,0.007532596643342861
1684002607443760600,7.554160888671875,0.5267862081005623,-0.10509395611928007,-0.058217048650535286
1684002607453802600,7.564203125,0.45215678204687615,-0.1502094269149761,-0.18929386149447963
1684002607463845000,7.574245361328125,0.3939419389092412,-0.14051723485852227,-0.3183917999929365
1684002607473887200,7.58428759765625,0.36462059623616533,-0.14493846900114352,-0.4004507065471366
1684002607483929300,7.59432958984375,0.38098233938787324,-0.15133953111598025,-0.4149355888880776
1684002607493971400,7.604371826171875,0.4205099940796908,-0.20424461361716248,-0.33908128740421
1684002607504013700,7.6144140625,0.44517511130013443,-0.24393463137688237,-0.32701110834134667
1684002607514055900,7.624456298828125,0.468229770633411,-0.19996547702447276,-0.33508968352142615
1684002607524098000,7.634498291015625,0.4977420568216882,-0.16528987887745356,-0.3508377076784246
1684002607534140100,7.64454052734375,0.5367484092512391,-0.11874198914766325,-0.30156373976472683
1684002607544182200,7.65458251953125,0.5563498139684658,-0.09357261663609978,-0.26143455517863634
1684002607554224600,7.664625,0.5659564139078835,-0.11562824260300898,-0.228458881304269
1684002607564266600,7.6746669921875,0.5203791855867327,-0.06439495089036289,-0.1865720749591464
1684002607574308800,7.684709228515625,0.47925543781916913,0.01635742177057537,-0.13856840130154785
1684002607584350900,7.694751220703125,0.42892700438121617,0.022500991851990605,-0.051759243020538345
1684002607594393000,7.70479345703125,0.36352813240807463,0.047100067123653576,0.05188226704893708
1684002607604435100,7.71483544921875,0.3144428134755377,0.0214252471179531,0.11756563194251447
1684002607614477600,7.7248779296875,0.2792815566738512,0.005027771044492365,0.1597399710351933
1684002607624519600,7.734919921875,0.23428034782125795,0.01919651023211671,0.14629936214453593
1684002607634561600,7.744962158203125,0.2191728950841712,0.016200065627153124,0.14625310891093424
1684002607644603800,7.755004150390625,0.22666066888404912,0.019837379527355904,0.036858081895180424
1684002607654646200,7.765046630859375,0.24001020186416813,0.06085205070821931,-0.03366661080193374
1684002607664688300,7.775088623046875,0.270357131992443,0.03976821891759008,-0.12469053285179248
1684002607674730400,7.785130859375,0.3050044179631816,0.0073099135040749575,-0.18117141726953692
1684002607684772600,7.7951728515625,0.3014186023714549,-0.0007648468149208112,-0.21497154230156057
1684002607694814600,7.805215087890625,0.33551907556674176,-0.02261829383082963,-0.1795387266885892
1684002607704857000,7.81525732421875,0.3760308622323375,-0.006214141994201279,-0.1654496193071882
1684002607714899100,7.825299560546875,0.42752575878452204,0.0360431671178211,-0.15114974992893515
1684002607724941200,7.835341552734375,0.40684539064795244,0.002448081913065909,-0.12250518794519624
1684002607734983300,7.8453837890625,0.3783867358126845,-0.0258359907763414,-0.03286933901075412
1684002607745025600,7.855426025390625,0.32820224753476546,-0.032408714439843625,-0.01978635791424358
1684002607755067800,7.86546826171875,0.3065685630123025,0.017601013137415484,0.059044838045859825
1684002607765109900,7.87551025390625,0.2762374878464779,0.0904436111121716,0.061403751268172505
1684002607775152000,7.885552490234375,0.22636145356805495,0.05851364149263719,0.19776678084851665
1684002607785194200,7.895594482421875,0.19664841891974222,0.03651428220280954,0.18813419328996558
1684002607795236300,7.90563671875,0.15316879762371305,0.08556270593254085,0.13170623767935188
1684002607805278600,7.915678955078125,0.09894835941722606,0.12895679460486603,0.07828664786477237
1684002607815320800,7.92572119140625,0.08668309452136963,0.15742301935203878,0.01600790031553106
1684002607825362900,7.93576318359375,0.11120218040906722,0.13350582124248264,0.03201484690539944
1684002607835405000,7.945805419921875,0.11979889866703052,0.08157348637275744,0.026093006045011934
1684002607845447100,7.955847412109375,0.15436547995357844,0.10114669796566716,0.03908872602687079
1684002607855489500,7.965889892578125,0.1972734332961988,0.13683128359117364,0.037753105179101555
1684002607865531600,7.975931884765625,0.21761196854933523,0.14361953735562455,0.03176021590662967
1684002607875573600,7.98597412109375,0.22049748890766105,0.15020942690121228,0.09645271295673627
1684002607885615800,7.99601611328125,0.2019286153988444,0.1378650665852881,0.13422822954218774
1684002607895658200,8.00605859375,0.1882588267071159,0.1468820570847556,0.12896204007928921
1684002607905700300,8.0161005859375,0.1764242649203152,0.1416778564448148,0.1028347015048914
1684002607915742400,8.026142822265625,0.18035018432971156,0.14129352559544858,0.06558942796731869
1684002607925784600,8.036184814453126,0.16232085226167248,0.1079120636015044,0.04314279541032363
1684002607935826600,8.04622705078125,0.1183403730981786,0.08448505401953223,0.014043331136289503
1684002607945869000,8.056269287109375,0.08917528376112936,0.08270454406605832,0.009108543398043581
1684002607955911100,8.0663115234375,0.0698658226858514,0.0762615202674847,0.013720035414483025
1684002607965953200,8.076353515625,0.04383921627383794,0.011192321659549058,0.032595634469859094
1684002607975995300,8.086395751953125,0.06805330509184968,0.043789863585818524,0.015888690917257694
1684002607986037400,8.096437744140625,0.08515119556002737,0.059273719857850855,-0.012542724539734887
1684002607996079800,8.106480224609374,0.1355526448838935,0.07211494442473435,0.025244712749231138
1684002608006121900,8.116522216796875,0.17385911941119336,0.10113239278695582,0.0056371688315009615
1684002608016164000,8.126564453125,0.23248368495772995,-0.02591419222347218,0.03311681730413425
1684002608026206100,8.1366064453125,0.24244278674390424,-0.0027322768983537396,0.008095741341543483
1684002608036248200,8.146648681640626,0.22082287066748346,0.04110622391483675,-0.04014539717861157
1684002608046290600,8.15669091796875,0.2275873423449964,0.05105018620222306,-0.031407356247542734
1684002608056332600,8.166733154296875,0.2085371016851146,0.0252914429128592,-0.023255825066247696
1684002608066374800,8.176775146484376,0.1994053126571227,0.004429817222354957,-0.029835700933801976
1684002608076416900,8.1868173828125,0.17831772550868977,-0.0493059158365163,-0.03906631473763549
1684002608086459300,8.196859619140625,0.14808678642083525,-0.1115713119990844,-0.0693202018959237
1684002608096501400,8.20690185546875,0.07874399418770335,-0.16555690754290484,-0.08940553663811375
1684002608106543600,8.21694384765625,0.0415498612607278,-0.13158702846720385,-0.09990787508415416
1684002608116585600,8.226986083984375,0.040928244612447505,-0.07922077183583053,-0.12425994884231041
1684002608126627800,8.237028076171875,0.059727251527433495,-0.06067752844058578,-0.09886598582300303
1684002608136670100,8.247070556640624,0.0738276243038937,-0.05421352384428868,-0.08102846153982304
1684002608146712200,8.257112548828125,0.08777695907970172,-0.04309368120515729,-0.08458614354401166
1684002608156754400,8.26715478515625,0.08775597822680517,-0.008459091228636247,-0.05021476731456337
1684002608166796500,8.27719677734375,0.08858942988874528,0.03289699551498347,-0.032641410889263305
1684002608176838600,8.287239013671876,0.09257316589330486,0.06908321386248645,-0.019825935366573295
1684002608186880600,8.297281005859375,0.12255990511799462,0.10260200514120132,-0.006735801692559104
1684002608196923100,8.307323486328125,0.1608664989522443,0.131160735934751,0.0021162031397249466
1684002608206965200,8.317365478515624,0.19081592564835193,0.1501369476366757,0.05154037479408757
1684002608217007300,8.32740771484375,0.2075775861643075,0.16893005366336267,0.13353824600368555
1684002608227049400,8.33744970703125,0.21156275268068062,0.18743133553053712,0.16257524488353586
1684002608237091800,8.3474921875,0.22902786734458788,0.20555496226541786,0.1934804915645912
1684002608247133900,8.3575341796875,0.20348823061296561,0.21858119959741137,0.2214374541132247
1684002608257176000,8.367576416015625,0.18527352791408952,0.24075031283865897,0.26299095161779085
1684002608267218100,8.377618408203125,0.145928502032996,0.23410129532809082,0.2729444504323591
1684002608277260200,8.38766064453125,0.11648690689903686,0.21089935302406135,0.2800865174554547
1684002608287302600,8.397702880859375,0.08508849160390453,0.21378135688606012,0.28913116456657545
1684002608297344600,8.4077451171875,0.06804442413829187,0.19293022153514075,0.26723480224107055
1684002608307386800,8.417787109375,0.072207093318816,0.14879894251025885,0.24090766912729328
1684002608317428900,8.427829345703126,0.05732858187074071,0.1170778274590717,0.22665119163771394
1684002608327471000,8.437871337890625,0.06163549434227907,0.1023416519603705,0.21963930129011922
1684002608337513400,8.447913818359375,0.06619346144545117,0.09022521956674895,0.17975425714930676
1684002608347555600,8.457955810546874,0.07567882539256005,0.0853366850952478,0.14511394484331364
1684002608357597600,8.467998046875,0.08040726185334653,0.07103061674275259,0.1391344070129402
1684002608367639700,8.4780400390625,0.10651516903536633,0.014634132388336824,0.13092756273501138
1684002608377681800,8.488082275390624,0.10674524309825666,-0.014830589281549365,0.10409450527187998
1684002608387724200,8.49812451171875,0.1332410574771668,-0.039034843584512625,0.10598421100985682
1684002608397766300,8.508166748046875,0.13341510304555124,-0.011060714640113621,0.13370800011584266
1684002608407808400,8.518208740234375,0.15065789231927051,0.07773208611911708,0.1374258995275357
1684002608417850600,8.5282509765625,0.14543128014716694,0.0850362778926081,0.12906074536944806
1684002608427892600,8.53829296875,0.19065177443053066,0.09693622574412994,0.13240909562943237
1684002608437935000,8.54833544921875,0.22569346429741305,0.11344051360760089,0.09820699692003645
1684002608447977100,8.55837744140625,0.25018906593368,0.13678264615660574,0.10716629024794239
1684002608458019200,8.568419677734376,0.2831244468155804,0.1456546784317762,0.10206460963330481
1684002608468061400,8.578461669921875,0.30995535857700834,0.14964294424861224,0.1254506112040296
1684002608478103600,8.58850390625,0.3093471526095961,0.11571216576854872,0.18133687978367896
1684002608488145800,8.598546142578124,0.2840555906363918,0.09389877312411045,0.1537876128665489
1684002608498188000,8.60858837890625,0.2417099476466055,0.06509494774708817,0.1570372581191427
1684002608508230100,8.61863037109375,0.15959060200605318,0.0717802049327878,0.11979818338269456
1684002608518272200,8.628672607421874,0.08098065860244835,0.009795188945994024,0.061551094159249295
1684002608528314300,8.638714599609376,0.03164410601676707,-0.02538490287066159,0.001780510016971801
1684002608538356600,8.648757080078125,-0.031020283655976953,-0.04112625134033633,-0.019276618933710885
1684002608548398800,8.658799072265625,-0.071105122518265,-0.04474544524272741,0.01188564290310107
1684002608558440900,8.66884130859375,-0.07427668564812402,-0.0528364182901556,0.035551071092542824
1684002608568483000,8.67888330078125,-0.05216002464745421,-0.029978752145724694,0.04935503007163775
1684002608578525100,8.688925537109375,-0.030940055788425114,0.004404067972676267,0.02034330363183408
1684002608588567600,8.6989677734375,-0.013080358582381789,0.06445884711664288,0.032029628750080905
1684002608598609600,8.709010009765626,0.0392100809179791,0.07907009125172094,0.06712722787569184
1684002608608651600,8.719052001953125,0.0828880072816951,0.08663654331922205,0.12758731850789887
1684002608618693800,8.72909423828125,0.15582525724833693,0.042489051930254956,0.14930915845420983
1684002608628736200,8.739136474609374,0.21019399153587823,0.03455638877875977,0.15412521374024504
1684002608638778300,8.7491787109375,0.26011252387255385,0.029208183404391203,0.09284257883552877
1684002608648820400,8.759220703125,0.3005253076986198,0.026347160243350123,0.03484487537804146
1684002608658862600,8.769262939453125,0.3664157390437352,0.007143974344366829,-0.04091596600679479
1684002608668904600,8.779304931640626,0.3929493428295787,0.014183044495866793,-0.09638738621323636
1684002608678946700,8.78934716796875,0.43459558489063554,-0.01649856565055519,-0.16472482684990564
1684002608688989100,8.799389404296875,0.4627201557684905,-0.03005123143943285,-0.16315793995376499
1684002608699031200,8.809431640625,0.49167370799269233,-0.03376102433235481,-0.170439243315338
1684002608709073300,8.8194736328125,0.47401535520551324,-0.025474548351194937,-0.17933654783750252
1684002608719115400,8.829515869140625,0.48097372044364617,0.027541160576053384,-0.14745235433840942
1684002608729157600,8.839557861328124,0.446479797345604,0.056273460451974185,-0.04726171499116739
1684002608739199900,8.849600341796876,0.3903827667248929,0.04921054848959118,0.06090831751101463
1684002608749242000,8.859642333984375,0.3531682490784533,0.08215141299243676,0.16254949586133183
1684002608759284100,8.8696845703125,0.2668228148742762,0.09785652162161226,0.26691579830741347
1684002608769326300,8.8797265625,0.1867097616857934,0.14835739130528613,0.3620162008810675
1684002608779368600,8.88976904296875,0.129413008768961,0.19069862367735016,0.4173469543757158
1684002608789410700,8.89981103515625,0.05969214444916431,0.203849792520119,0.4641027449648975
1684002608799452800,8.909853271484375,0.018156170873683496,0.24724674226502902,0.4860181809424357
1684002608809495000,8.919895263671876,-0.028427124023706136,0.2991533278867737,0.47397089006915943
1684002608819537100,8.9299375,-0.035755395931863866,0.3336048125154158,0.42643117900245314
1684002608829579400,8.939979736328125,-0.03552055361950386,0.3603315353804867,0.36061716083753387
1684002608839621600,8.95002197265625,-0.032958865267796476,0.35362243650671993,0.25583696369524483
1684002608849663600,8.96006396484375,-0.030569315026418537,0.34704780580408595,0.22115182876129563
1684002608859705800,8.970106201171875,-0.014369130135883972,0.2701091765049744,0.17089843763937446
1684002608869747900,8.980148193359375,0.005572080535786949,0.2394533157570629,0.15978240949760059
1684002608879790000,8.9901904296875,0.033610820767086186,0.18375587463182785,0.1426110267344784
1684002608889832400,9.000232666015625,0.02525043484495017,0.1928873062970471,0.14527845389521957
1684002608899874600,9.01027490234375,0.014620900153305583,0.16444587700908567,0.14362382883936425
1684002608909916600,9.02031689453125,0.021072268389057496,0.18146610249177922,0.18471002588595173
1684002608919958600,9.030359130859376,0.023456215962361093,0.17249488838770896,0.19700574876226018
1684002608930001100,9.0404013671875,0.03584122664608279,0.17786693581349772,0.22554779057203567
1684002608940043200,9.050443603515625,0.05292725555296423,0.1478548049262945,0.27007770542134446
1684002608950085300,9.060485595703126,0.050456762299595205,0.15118694322941434,0.28316879272587836
1684002608960127400,9.07052783203125,0.06125771990510349,0.1354608535131633,0.24652576446344923
1684002608970169600,9.08056982421875,0.07585334789627689,0.1387243270999591,0.28581666956495316
1684002608980211900,9.0906123046875,0.05704283715804397,0.10171699507762169,0.24177503591642852
1684002608990254000,9.100654296875,0.09493005273356528,0.0981512069845599,0.2335810663196602
1684002609000296100,9.110696533203123,0.11306548128660046,0.13449382793455997,0.1593804359190371
1684002609010338200,9.120738525390625,0.11381649979717755,0.14641666418393892,0.07903671281960724
1684002609020380300,9.13078076171875,0.15581834311669981,0.13907241821274063,-0.004812717551607778
1684002609030422600,9.140822998046875,0.13902676098929462,0.05627632142737703,-0.07081842432184064
1684002609040464800,9.150865234375,0.09923362744894033,-0.0418310164859691,-0.1497097015454908
1684002609050506900,9.1609072265625,-0.003427863041475895,-0.15484046941892946,-0.179745197145759
1684002609060549000,9.170949462890626,-0.12498140343191885,-0.2728281020754036,-0.19673776623869269
1684002609070591200,9.180991455078123,-0.25905132299121747,-0.34366416932744587,-0.19373035415219703
1684002609080633600,9.191033935546876,-0.39152187108853,-0.37719345102292295,-0.18038845077207588
1684002609090675600,9.201075927734376,-0.46625334019019443,-0.4020748137789026,-0.18290567395623858
1684002609100717700,9.2111181640625,-0.4689287542955155,-0.3757534027271632,-0.21250581735506058
1684002609110759900,9.22116015625,-0.35570561895803277,-0.33900260914874597,-0.19797992708606912
1684002609120802000,9.231202392578124,-0.20657503597566348,-0.26139736173856165,-0.1493639946167738
1684002609130844300,9.24124462890625,-0.025812745019327905,-0.17413139336445874,-0.10437011710022999
1684002609140886400,9.251286865234375,0.13993442069551018,-0.07510757446870392,-0.0462694166410507
1684002609150928600,9.261328857421876,0.293004989455077,-0.002328872722013943,0.06459426880640688
1684002609160970600,9.27137109375,0.4313331842756888,0.08451175682464018,0.20118761074365252
1684002609171012800,9.2814130859375,0.5899533032958735,0.149557113690301,0.3014702797536678
1684002609181055200,9.29145556640625,0.692526102102515,0.21180629733686385,0.38704395292835325
1684002609191097300,9.30149755859375,0.7672250271068447,0.28507614129972225,0.5189642908000579
1684002609201139400,9.311539794921876,0.8258537052967203,0.35491752629303375,0.6044712067028108
1684002609211181600,9.321581787109375,0.8379806279967325,0.40003395090006294,0.6911373137846721
1684002609221223600,9.3316240234375,0.8422863483250562,0.45844268806529276,0.77170705790646
1684002609231266000,9.341666259765624,0.8440102338212011,0.5251922606949136,0.8249573706562727
1684002609241308100,9.35170849609375,0.8362178801291298,0.5625104904179772,0.8961086273678202
1684002609251350200,9.36175048828125,0.8327947854375385,0.5095605849762903,0.9494123459864124
1684002609261392300,9.371792724609374,0.8012533186823838,0.49705982204279475,0.9450402259099544
1684002609271434400,9.381834716796876,0.7635854484163603,0.49343109114426986,0.824970245517683
1684002609281476800,9.391877197265623,0.6560212373516497,0.45635795584735395,0.6951460837701258
1684002609291518900,9.401919189453125,0.5239599943226768,0.3938694001989949,0.5513672827647083
1684002609301561000,9.41196142578125,0.3652832508949409,0.3160018920472295,0.4926524163071063
1684002609311603100,9.42200341796875,0.20794379701929167,0.3174400328343637,0.4070734978818012
1684002609321645200,9.432045654296877,0.0440653561480162,0.3688335418430505,0.38698101055305134
1684002609331687600,9.442087890625,0.014608204236913818,0.37522029870706075,0.3603405951862803
1684002609341729600,9.452130126953126,0.06917989256631367,0.33252048496757486,0.35507392873667964
1684002609351771800,9.462172119140623,0.17349696167817666,0.3543500899396005,0.3869791031276288
1684002609361813900,9.47221435546875,0.31628739835638237,0.4039020537049261,0.384327888635523
1684002609371856000,9.48225634765625,0.4643653034973561,0.42862606044108187,0.42291069012938315
1684002609381898400,9.492298828125,0.5970807670992289,0.43346405017735157,0.40788221357799287
1684002609391940600,9.5023408203125,0.7322586178457798,0.411611557041294,0.4226188659493654
1684002609401982600,9.512383056640624,0.8241651654338051,0.3731555938475372,0.41774940491565316
1684002609412024800,9.522425048828126,0.8493940233930336,0.39639282232957207,0.3989911079692136
1684002609422067100,9.532467529296875,0.8514809607382465,0.46429443354542566,0.40275001527002213
1684002609432109200,9.542509521484376,0.8246512412747583,0.5315523148615291,0.42643737782527796
1684002609442151300,9.5525517578125,0.8012239337542646,0.6123294830277829,0.45309162141960135
1684002609452193500,9.56259375,0.7773585915880871,0.6922092438446917,0.5342040062992736
1684002609462235600,9.572635986328123,0.76755362747333,0.7685375213798465,0.6117405890689978
1684002609472277600,9.582677978515624,0.7499885559781841,0.8762116432754046,0.7108469010365
1684002609482320000,9.592720458984376,0.7381916045862088,0.891714096051978,0.7666349410971729
1684002609492362200,9.602762451171875,0.7120646833222961,0.8416137695534055,0.9125499726493825
1684002609502404300,9.6128046875,0.6562592982872368,0.742655277144944,1.039777278816393
1684002609512446400,9.6228466796875,0.46619451044309906,0.677828788668989,1.0236206053901855
1684002609522488600,9.632888916015624,0.16858541965231016,0.5596981047462253,0.8859243394387165
1684002609532530900,9.64293115234375,-0.23399019246068356,0.4463920593769507,0.6914844514251053
1684002609542573000,9.652973388671874,-0.587599337050971,0.24184322345504541,0.4611310958904465
1684002609552615100,9.663015380859376,-0.9596186876341468,-0.03095817557715468,0.27107429511804415
1684002609562657200,9.6730576171875,-1.3290913106565065,-0.33338832859539197,0.13113069545622413
1684002609572699300,9.683099609375,-1.5997841358114762,-0.6053600311634885,-0.032884597614662586
1684002609582741600,9.69314208984375,-1.76774060717561,-0.7916374207904274,-0.27573204054572975
1684002609592783800,9.70318408203125,-1.8002125025581222,-0.8751964569476494,-0.5391569138796787
1684002609602825900,9.713226318359377,-1.6312460898922554,-0.894396781942637,-0.6745767591882834
1684002609612868000,9.723268310546874,-1.3224050998407535,-0.9310054778523595,-0.7635149954704163
1684002609622910100,9.733310546875,-1.0841470957126993,-0.9998207091778359,-0.7272477150941223
1684002609632952600,9.743352783203123,-0.8868480323538328,-1.1650257110771818,-0.8085227011913523
1684002609642994600,9.75339501953125,-0.7385367156030757,-1.2440433502821249,-0.854790687580688
1684002609653036600,9.76343701171875,-0.5736765264163725,-1.4107275008819633,-0.9056210517806091
1684002609663078800,9.773479248046876,-0.4796409605648466,-1.4043083189804673,-0.8653473855299412
1684002609673120900,9.783521240234377,-0.4718446135435222,-1.4231967927456801,-0.7077827453234745
1684002609683163300,9.793563720703125,-0.5160585045240023,-1.5083036422754117,-0.4984207154519508
1684002609693205400,9.803605712890626,-0.6883604527526637,-1.4619884490248158,-0.15722560881892444
1684002609703247600,9.81364794921875,-1.0196241141156395,-1.3500719071847889,0.09714031216595129
1684002609713289600,9.82368994140625,-1.2105678319978526,-1.173501014725636,0.3145232200169598
1684002609723331800,9.833732177734374,-1.1692042350992105,-1.0118989943084462,0.41068124768288494
1684002609733374100,9.8437744140625,-1.0578935146043373,-0.7312097550245192,0.3597989082303825
1684002609743416200,9.853816650390623,-0.9330703020354788,-0.2783327102691216,0.2775254250174737
1684002609753458400,9.863858642578125,-0.8008449078314002,0.09597301499952178,0.24019002904886214
1684002609763500500,9.87390087890625,-0.6218144894786578,0.32525253285179656,0.23785829562106045
1684002609773542600,9.88394287109375,-0.46418440350789497,0.4388656614710914,0.24459075932832777
1684002609783584900,9.8939853515625,-0.4014835356479187,0.5397672654971135,0.15799665458354567
1684002609793627100,9.90402734375,-0.3589340448305,0.5134401320378211,0.0028944015535725008
1684002609803669200,9.914069580078126,-0.10897433759833225,0.40604305259772516,-0.12172555918000792
1684002609813711300,9.924111572265623,0.2701697350266229,0.36469554918726677,-0.43637657153048975
1684002609823753400,9.93415380859375,0.5941061377742315,0.4477949141986886,-0.7333211897903333
1684002609833795800,9.944196044921876,0.9387146830644207,0.3735713959149893,-0.8189482689491199
1684002609843837900,9.95423828125,1.330981612129763,0.27835178358647117,-0.6923842431474159
1684002609853880000,9.9642802734375,1.6299551725890942,0.041697502029583944,-0.40948200209449376
1684002609863922100,9.974322509765624,1.7516801358273197,-0.019168853757400326,-0.19050264357533198
1684002609873964200,9.984364501953126,1.763043284459091,-0.014362335270123781,-0.09602689741982623
1684002609884006600,9.994406982421877,1.7148480414488496,0.0015592574381524367,-0.0518646241070894
1684002609894048600,10.004448974609376,1.7038877011065876,0.22906970981391386,0.06304645531199228
1684002609904090800,10.0144912109375,1.7976264952474417,0.595594406044152,0.17878103252982938
1684002609914132900,10.024533203125,1.919592499662032,0.9021582602650969,0.2526755331054686
1684002609924175000,10.034575439453125,1.9396661520304534,1.0210971831461235,0.4538102149284367
1684002609934217100,10.044617431640624,1.9297950266685346,1.0258803367638982,0.5814399719910017
1684002609944259600,10.054659912109376,1.9920212030945024,0.9614725112306215,0.6767172812503055
1684002609954301600,10.064701904296877,2.0086359976847006,0.8686108588658512,0.6854205131781829
1684002609964343600,10.074744140625,1.9886540174730454,0.7718529701024648,0.5822696684551046
1684002609974385800,10.0847861328125,1.8062121867961936,0.6287517547353796,0.4864721296831402
1684002609984428200,10.09482861328125,1.5151922703006742,0.42042160043617677,0.36839818969299903
1684002609994470300,10.10487060546875,1.1793973447255026,0.18043375001961412,0.2184133530731124
1684002610004512400,10.114912841796874,0.8168187738142298,-0.11976146692569002,-0.05999755857109396
1684002610014554600,10.124954833984376,0.4067516326092586,-0.4920873641808415,-0.3401894568589659
1684002610024596600,10.1349970703125,0.11576735970799203,-0.7867336272622073,-0.5828652383263577
1684002610034639000,10.145039306640625,0.06695175166210045,-1.0621585844847383,-0.8388252258380477
1684002610044681100,10.15508154296875,0.20758008969726063,-1.4587297439224323,-1.2481107712972919
1684002610054723200,10.16512353515625,0.32328689091701895,-1.725266456773714,-1.453132390966786
1684002610064765400,10.175165771484377,0.33569705473971806,-1.8861942289813505,-1.6285934448770365
1684002610074807500,10.185207763671874,0.34607231627543134,-1.9927282335145786,-1.8144726751862332
1684002610084849600,10.19525,0.40099430090733973,-1.7351789475367128,-1.7133262157722462
1684002610094892000,10.205292236328123,0.30037689210998986,-1.812709808418963,-1.9442448615952608
1684002610104934100,10.21533447265625,0.3337274789202295,-1.8692274095081014,-2.0959753990496433
1684002610114976200,10.22537646484375,0.38273429859932157,-1.755946636273162,-1.8502533434057484
1684002610125018300,10.235418701171875,0.4029959440988405,-1.5917549132930628,-1.595678567914788
1684002610135060600,10.2454609375,0.4394657610641796,-1.3683423997223614,-1.3537778855860727
1684002610145102800,10.255503173828124,0.4803123472963039,-1.2125959396863155,-1.1891956328951527
1684002610155144900,10.265545166015626,0.4988495112242033,-1.0694923399438212,-1.0487356186984809
1684002610165187000,10.27558740234375,0.4971084595252118,-0.9774804114582953,-0.8676528930516181
1684002610175229100,10.28562939453125,0.5167982579489336,-0.8749580382957491,-0.6871523856452825
1684002610185271500,10.295671875,0.5644192695464129,-0.8028202057075181,-0.5602483749323088
1684002610195313600,10.3057138671875,0.6045953035632882,-0.7444682121132644,-0.5233755111733212
1684002610205355600,10.315756103515625,0.6140851974852314,-0.6615962981997853,-0.5146102906534045
1684002610215397800,10.325798095703124,0.623083114575702,-0.6116142273558033,-0.5174593926555402
1684002610225439900,10.33584033203125,0.6609011888545179,-0.611280918185094,-0.527049064602584
1684002610235482000,10.34588232421875,0.7113807201753901,-0.6317949295219677,-0.574127674208546
1684002610245524400,10.3559248046875,0.7820065020974103,-0.632096290583097,-0.6172723769620589
1684002610255566600,10.365966796875,0.8155874013307317,-0.5196137428658766,-0.5687165260733407
1684002610265608600,10.376009033203124,0.8326392173583497,-0.7297587394311799,-0.8730282783537686
1684002610275650700,10.386051025390625,0.8641884326988196,-0.686143875204246,-0.9562082290641472
1684002610285693100,10.396093505859374,0.8567866087596474,-0.6426849366206812,-0.941208362573959
1684002610295735200,10.406135498046876,0.8440576791671544,-0.6353802680275753,-0.9169335366380609
1684002610305777300,10.416177734375,0.9426337480364967,-0.611707210474269,-0.9339308739566874
1684002610315819400,10.4262197265625,1.084684371973832,-0.5691981315341145,-0.9277915955683197
1684002610325861600,10.436261962890624,1.2037982938941367,-0.5174674987858378,-0.9032444954903497
1684002610335903600,10.446303955078124,1.1708084345671175,-0.4235172271427981,-0.8267188071687429
1684002610345946000,10.456346435546877,1.0742040871681213,-0.26419496532393894,-0.7939138412002114
1684002610355988100,10.466388427734374,1.0572618246513634,-0.11602973937791052,-0.8262133597225877
1684002610366030300,10.4764306640625,1.0864539145216239,0.012004852313097792,-0.9355530739577672
1684002610376072400,10.48647265625,1.1284132003420821,0.0796146392560097,-1.0195899009936136
1684002610386114600,10.496514892578125,1.1493661403976752,-0.0016655921940666747,-1.0979700087955933
1684002610396156800,10.50655712890625,1.0390230417826969,-0.18205451968067737,-1.1470804215027595
1684002610406199000,10.516599365234375,0.8068524597645543,-0.3760490417824137,-1.1767168044688914
1684002610416241100,10.526641357421877,0.5745016336534056,-0.5452871323647337,-1.2848663330275945
1684002610426283200,10.53668359375,0.4317699670312002,-0.6318292617727388,-1.4072575568633254
1684002610436325300,10.5467255859375,0.4477642774372601,-0.5563607215460337,-1.504152298070294
1684002610446367600,10.55676806640625,0.43956279757065986,-0.4721059798205114,-1.585505485680148
1684002610456409800,10.56681005859375,0.2648316620488614,-0.43458461767713163,-1.5815243719961385
1684002610466451900,10.576852294921874,0.1224782466917301,-0.41555833814333604,-1.4299526215211495
1684002610476494000,10.586894287109375,0.19317758089237388,-0.37655591951583856,-1.2385735512229479
1684002610486536100,10.5969365234375,0.5246540308797815,-0.29275226589248243,-1.047428607873939
1684002610496578600,10.606978759765624,0.8944600822373406,-0.1539454458526797,-0.8792033194380843
1684002610506620600,10.61702099609375,1.018784284710078,-0.05580186840888916,-0.5966000555596097
1684002610516662600,10.62706298828125,0.8671371935065945,0.06074714660111406,-0.27638864522922835
1684002610526704800,10.637105224609376,0.5647971630913525,0.14945125581347254,0.004026413035448571
1684002610536746900,10.647147216796874,0.3181405066906149,0.2790164948588473,0.23461723331870363
1684002610546789300,10.657189697265624,0.02983331676087652,0.3672246933977252,0.4678306578348029
1684002610556831400,10.667231689453123,-0.2598584889129116,0.351029395908262,0.6629486085091794
1684002610566873600,10.67727392578125,-0.3115168809489515,0.27098274213058,0.7122406959945116
1684002610576915600,10.68731591796875,-0.16642606253838507,0.2591767311014173,0.7060098648297375
1684002610586957700,10.697358154296875,0.07188594345459885,0.2731857299003162,0.6390256882890382
1684002610597000100,10.707400390625,0.22195458418017647,0.10360813150935508,0.4068298339927518
1684002610607042200,10.717442626953124,0.24451482292967508,-0.33885574346129044,0.10462474830953421
1684002610617084300,10.727484619140624,0.1509238481530634,-0.9405341148045668,-0.2206120491943038
1684002610627126400,10.73752685546875,-0.18956029422839066,-1.69135952010103,-0.42764186858731545
1684002610637168600,10.74756884765625,-0.5969115496932468,-2.550702095072901,-0.5003576278425338
1684002610647210900,10.757611328125,-1.0417288542739076,-3.2559866904087884,-0.5486493110375681
1684002610657253000,10.7676533203125,-1.4642567634850325,-3.695795059219232,-0.6835994720344177
1684002610667295200,10.777695556640625,-1.7989474534957928,-3.878914833156903,-0.8803596497719975
1684002610677337300,10.787737548828124,-1.6454432010484676,-3.4486908913017946,-1.172974109710669
1684002610687379400,10.79777978515625,-0.7714748381899674,-2.2464971542362404,-1.2691144943321533
1684002610697421700,10.807822265625,0.5547566414826515,-0.9894499780309252,-1.2300519944225068
1684002610707463900,10.8178642578125,1.897621154853406,-0.04439640034531592,-1.1210656167578632
1684002610717506000,10.82790625,2.8351426125353907,0.5175862311930753,-0.992601871465677
1684002610727548100,10.837948486328123,3.284420013473083,0.6969857215755404,-0.8823485374358321
1684002610737590200,10.847990478515625,3.280022144349443,0.707184791554877,-0.7354960441611597
1684002610747632300,10.85803271484375,3.0793197156800307,0.6440362930860947,-0.5683851242637882
1684002610757674600,10.868074951171875,2.803623676296351,0.5795879363840503,-0.3519554138728595
1684002610767716800,10.8781171875,2.534141540532068,0.4924769402694406,-0.16616773600269946
1684002610777758900,10.8881591796875,2.3223881721220456,0.38473749162399523,-0.029879093184292636
1684002610787801000,10.898201416015626,2.19980573660945,0.33229494100763984,-0.0033564567740972944
1684002610797843400,10.908243896484375,1.9912232159514485,0.2534379959023629,-0.06047391886372419
1684002610807885600,10.918285888671877,1.709045290903436,0.18150663374346032,-0.19526576998803216
1684002610817927600,10.928327880859374,1.3278959989404118,0.1306295393094063,-0.31938791289970553
1684002610827969600,10.9383701171875,0.9881734848843667,8.773817551857884e-05,-0.38353347779846103
1684002610838011800,10.948412109375,0.7587397097388592,-0.2319860458871068,-0.345883846258146
1684002610848053900,10.958454345703124,0.6421306133334472,-0.4897165299330527,-0.3225569725069311
1684002610858096300,10.96849658203125,0.6391965151094731,-0.650755882293075,-0.46555280670344895
1684002610868138400,10.978538818359375,0.6972669363928667,-0.7695856093626168,-0.6015691756599031
1684002610878180600,10.988580810546877,0.9772491455332374,-0.7794284820038059,-0.6350407599223601
1684002610888222600,10.998623046875,1.2605214117911216,-0.7418489457020815,-0.7702560424839343
1684002610898264800,11.0086650390625,1.4895911216366193,-0.692585945178702,-0.8277072904943291
1684002610908307100,11.01870751953125,1.6702008246186102,-0.5458021163981923,-0.9226951597403173
1684002610918349200,11.02874951171875,1.7491590976923448,-0.44486618038579234,-0.8881893156985009
1684002610928391300,11.038791748046876,1.6865893603124453,-0.38503742212967434,-0.8566365242685747
1684002610938433500,11.048833740234375,1.477609515257277,-0.395328521687179,-0.7120299339266042
1684002610948475600,11.0588759765625,1.1673171519881338,-0.5338182447727623,-0.5564184189784235
1684002610958517900,11.06891845703125,0.8728715182040461,-0.6433296203610904,-0.46473789206437927
1684002610968560000,11.07896044921875,0.7337576150743608,-0.7072935103802752,-0.41010761273184404
1684002610978602200,11.08900244140625,0.6768706442175547,-0.7519035339285375,-0.35828018200162814
1684002610988644300,11.099044677734376,0.6951136587214615,-0.7411947250568691,-0.3375821113914781
1684002610998686400,11.109086669921876,0.7314083575930342,-0.7181062698920436,-0.34316682819622435
1684002611008728600,11.11912890625,0.7882292270265967,-0.5891790391285866,-0.4392948150702579
1684002611018770900,11.129171142578125,0.8407825826662284,-0.5377235413513283,-0.5792565345820009
1684002611028813000,11.13921337890625,0.9706466197957583,-0.4651060104212923,-0.6450586318893715
1684002611038855100,11.14925537109375,1.1271467209122894,-0.3829317093772288,-0.6815185547704956
1684002611048897200,11.159297607421877,1.3121641874323375,-0.25982284558826385,-0.6737141608166817
1684002611058939600,11.169340087890625,1.5279300212441074,-0.15049934376120971,-0.6881437301505243
1684002611068981600,11.179382080078126,1.6653071641119792,-0.06416130067576727,-0.6479291914729864
1684002611079023800,11.189424072265624,1.7938774824863837,0.006566047499102582,-0.5650262833708424
1684002611089065900,11.19946630859375,1.8991324902334572,0.06901073469647451,-0.4442725180597168
1684002611099108000,11.20950830078125,1.9575635193603647,0.09435558330715059,-0.295720577177375
1684002611109150100,11.219550537109376,1.9774854182684143,0.13264846800782493,-0.11027097693898241
1684002611119192600,11.229593017578123,1.9297914505160545,0.16439151765889154,0.05647659306628254
1684002611129234600,11.239635009765625,1.883436083896666,0.18215370171019227,0.17786121372691102
1684002611139276600,11.249677001953126,1.7765777110892136,0.17161560046353097,0.3304514884712291
1684002611149318800,11.25971923828125,1.617331504829667,0.15420818344778295,0.4328732491903828
1684002611159360900,11.26976123046875,1.4353921412524182,0.22056961052174381,0.5042638779314141
1684002611169403300,11.2798037109375,1.2625896929911098,0.24614143353890233,0.5516810416933169
1684002611179445400,11.289845703125,1.0637341737613195,0.2617940903627229,0.5724282265685069
1684002611189487600,11.299887939453123,0.9284494518082855,0.25997924798421623,0.585062027078077
1684002611199529600,11.309929931640625,0.8078878521774212,0.22849655150839066,0.5676431655757822
1684002611209571800,11.31997216796875,0.6832990050126326,0.14619922628071588,0.49917984023213374
1684002611219614100,11.3300146484375,0.6339161396530237,0.07074832926914865,0.45649290077334365
1684002611229656200,11.340056640625,0.5755087731938671,-0.021648406885362768,0.3392605783229852
1684002611239698400,11.3500986328125,0.5231228470489032,-0.10408115393106629,0.18914937984020883
1684002611249740500,11.360140869140626,0.5869004725695047,-0.17909336088787833,0.2089462280087354
1684002611259782600,11.370182861328123,0.7007056473198309,-0.20166110990112288,0.18512344363347485
1684002611269824600,11.38022509765625,0.8364076614844292,-0.1837711335397781,0.11796855915979966
1684002611279867100,11.390267333984376,0.9803586006610228,-0.09690570847538012,0.08876419081324437
1684002611289909200,11.4003095703125,1.080550432154006,-0.11566925047172598,0.03280925765738982
1684002611299951300,11.4103515625,1.1871166229203853,-0.1803226472233533,0.01908540734962243
1684002611309993400,11.420393798828124,1.2324321270977965,-0.20468807226757993,-0.10280132299403406
1684002611320035800,11.430436279296876,1.2389167546037556,-0.2557668685846525,-0.28487873085907284
1684002611330077900,11.440478271484375,1.1841689348293754,-0.28759193412968886,-0.5261387825571674
1684002611340120000,11.450520263671876,1.1122252940867332,-0.3186931611943083,-0.7107849121942185
1684002611350162100,11.4605625,1.0980156660531137,-0.36841297155865416,-0.7701206205936378
1684002611360204200,11.4706044921875,1.116746306309665,-0.45895957949197375,-0.6961936952039738
1684002611370246300,11.480646728515625,1.1512669323525682,-0.46368980409671384,-0.7043018340544903
1684002611380288600,11.490689208984374,1.206329941738208,-0.4126987456638925,-0.7193846703459817
1684002611390330800,11.500731201171876,1.2559137343590976,-0.42185688018870054,-0.7467527390021345
1684002611400372900,11.510773193359377,1.286249160763428,-0.4252414704195838,-0.7730669975027469
1684002611410415000,11.5208154296875,1.266568899174191,-0.3830289841315136,-0.8132510185794993
1684002611420457100,11.530857421875,1.1864805221891426,-0.3666734694725155,-0.8524279595038655
1684002611430499600,11.54089990234375,1.0856007337629852,-0.3495683670342759,-0.8447585105805989
1684002611440541600,11.55094189453125,0.9846706986948259,-0.2909011840131971,-0.821030616815912
1684002611450583700,11.560984130859374,0.8554859161695307,-0.21220397960191484,-0.8050413130805115
1684002611460625800,11.571026123046876,0.7332956194751109,-0.14249134061799715,-0.7065229416393399
1684002611470668000,11.581068359375,0.6104159951033161,-0.15126228337258757,-0.5524148940757511
1684002611480710300,11.59111083984375,0.4663836361175002,-0.1907768248534074,-0.39337491999092905
1684002611490752400,11.60115283203125,0.33208334441305476,-0.2016458510875293,-0.20620822905757233
1684002611500794600,11.61119482421875,0.17016234998670665,-0.1612005233980224,-0.028752803722693385
1684002611510836600,11.621237060546877,0.05185337376506142,-0.11714839926923709,-0.03976106647986161
1684002611520878800,11.631279052734374,-0.03596141189434043,-0.08972454069536166,-0.05987024301206506
1684002611530921100,11.641321533203126,-0.05691645286118256,-0.12655544291857557,-0.003005504574016815
1684002611540963200,11.65136376953125,-0.05102072659932314,-0.08449363703443405,0.07985115055305593
1684002611551005400,11.66140576171875,-0.019240006828320097,-0.040108680759516964,0.10505485541813728
1684002611561047600,11.67144775390625,0.038330987230492504,0.02337741871679556,0.1874866485077338
1684002611571089600,11.681489990234375,0.12741716210026927,0.09132289899341976,0.2167477607553818
1684002611581132000,11.691532470703123,0.2486420871650298,0.13032531737145472,0.20267677298088066
1684002611591174100,11.701574462890624,0.3556671739653764,0.18103122729130536,0.255241394085535
1684002611601216200,11.711616455078126,0.4623129962117316,0.2003469467116125,0.27626323701786065
1684002611611258300,11.72165869140625,0.5513322949327506,0.19308090210053552,0.29920339593533446
1684002611621300400,11.73170068359375,0.6384308338065889,0.1759643554132251,0.2929511070784549
1684002611631342600,11.741742919921874,0.7008661627768592,0.10370922082140063,0.26965045923280756
1684002611641384900,11.751785400390624,0.7483587859769814,0.04986286156128342,0.21211671818399744
1684002611651427000,11.761827392578123,0.7948125599233785,-0.03625583642560081,0.10812425620123114
1684002611661469100,11.771869384765624,0.8017522097923225,-0.06243801121989837,-0.03946876515867762
1684002611671511200,11.78191162109375,0.7974292040436822,-0.15443038941081605,-0.24166488658136423
1684002611681553600,11.7919541015625,0.7367767095674727,-0.1932516098332012,-0.3960170745627186
1684002611691595600,11.80199609375,0.6560024618992034,-0.27858638755540477,-0.4772706032267526
1684002611701637800,11.8120380859375,0.5417239070453223,-0.3412771224210249,-0.49349260343257173
1684002611711679900,11.822080322265624,0.43039926883642826,-0.358250618066607,-0.5306630134824147
1684002611721722000,11.832122314453123,0.2895109653368395,-0.3446598053620003,-0.5088443756224285
1684002611731764100,11.84216455078125,0.15124092997384087,-0.34010601043004923,-0.5238809586433458
1684002611741806600,11.85220703125,0.021538555677992715,-0.3609170913237797,-0.47628355027989466
1684002611751848600,11.8622490234375,-0.11268509916925937,-0.32477092731322665,-0.405700206771599
1684002611761890700,11.872291015625,-0.23340255020773917,-0.2965040205602367,-0.3767132759925507
1684002611771932800,11.882333251953124,-0.3226348161340663,-0.25708961485018056,-0.3485803604152553
1684002611781975000,11.892375244140624,-0.3604930638337337,-0.2749338150093578,-0.2788815497770997
1684002611792017300,11.902417724609377,-0.35871177903522083,-0.2526912687311412,-0.22743844970561186
1684002611802059400,11.9124599609375,-0.2846636474290058,-0.20757865906062273,-0.1399059296131048
1684002611812101600,11.922501953125,-0.1617391407829989,-0.16590023048444694,-0.11103534688003038
1684002611822143600,11.9325439453125,0.002663590169320581,-0.11362171167210784,-0.052929401460671904
1684002611832185800,11.942586181640625,0.18953463419191688,-0.09567642202774637,-0.050816535908378445
1684002611842228100,11.952628662109374,0.33817958823818345,-0.05015659348539657,-0.0893769264808394
1684002611852270300,11.962670654296875,0.4713627396498869,-0.04094123843684906,-0.1323614121626403
1684002611862312400,11.972712646484377,0.5340571403174675,-0.03199291213994587,-0.22186326980719037
1684002611872354600,11.9827548828125,0.5880964995476556,-0.04664230346207854,-0.22255468357801883
1684002611882396600,11.992796875,0.5908670424876253,-0.07754039771820331,-0.21381282813161023
1684002611892438600,12.002839111328123,0.5545593500669268,-0.1195592879253899,-0.20965719221666043
1684002611902481100,12.012881591796877,0.4705329537720159,-0.16769027716098087,-0.23098421084978643
1684002611912523200,12.022923583984374,0.3523181080524718,-0.1864576339979324,-0.24901294722311704
1684002611922565300,12.032965576171875,0.22532153136352745,-0.19753837582174685,-0.24967479701332593
1684002611932607400,12.0430078125,0.13575570271212706,-0.16103649152346633,-0.24032926560072884
1684002611942649600,12.0530498046875,0.06289769717146985,-0.1459836960406426,-0.21403741834072676
1684002611952691900,12.06309228515625,0.018911741592174076,-0.12391757956969393,-0.11955451962634978
1684002611962734000,12.073134521484375,-0.019804909913013716,-0.09041309353735066,-0.047793865147750664
1684002611972776100,12.083176513671877,-0.029381457678987304,-0.05522060380922501,-0.026886940075708
1684002611982818200,12.093218505859374,0.025415275140184573,-0.030226707355666453,0.026251792867182253
1684002611992860300,12.1032607421875,0.08685832470609299,-0.013000488427962741,0.09209871283304523
1684002612002902600,12.11330322265625,0.1677246540593111,-0.027076721168253118,0.09019899368400025
1684002612012944800,12.12334521484375,0.24024315184742695,0.015142440634277452,0.08754873265486508
1684002612022986900,12.13338720703125,0.3066390157342298,0.01866245262195977,0.030221462321458226
1684002612033029000,12.143429443359375,0.32000538700266634,0.019528389134458174,-0.017153263189582303
1684002612043071200,12.153471435546876,0.3259087205556601,-0.024621963626684246,-0.019484996640616096
1684002612053113600,12.163513916015624,0.3282734156268283,-0.025876045260519696,-0.024510860521268753
1684002612063155600,12.17355615234375,0.3266831934446436,-0.04845333095636767,-0.05327367783196459
1684002612073197700,12.18359814453125,0.3284683822603537,-0.058866500836058606,-0.10506534573694991
1684002612083239900,12.19364013671875,0.2939060329885254,-0.04769706733363692,-0.1249876021078669
1684002612093282000,12.203682373046876,0.32307964564339253,-0.07163906107374073,-0.15798139571397676
1684002612103324100,12.213724365234375,0.31884294761388043,-0.0689516067893443,-0.17097043982282673
1684002612113366400,12.223766845703125,0.31926992533192333,-0.06126213071096705,-0.22549486159611418
1684002612123408600,12.23380908203125,0.3095444738403857,-0.02511215203412627,-0.1913843155691331
1684002612133450600,12.24385107421875,0.2898829578516875,0.015315055913675598,-0.17165803917569425
1684002612143492800,12.25389306640625,0.3132785557841511,0.017765998877727576,-0.11626720433817082
1684002612153534900,12.263935302734374,0.29899477970064803,0.02062320714531714,-0.051544666301155936
1684002612163577300,12.273977783203126,0.3024678826594016,0.04014205914643285,0.014860153210060173
1684002612173619400,12.284019775390624,0.2365278154090091,0.07131671904251366,0.021648883742549002
1684002612183661600,12.294061767578125,0.24330350761443328,0.07861804957235513,0.030977725901614607
1684002612193703600,12.30410400390625,0.17910619092224192,-0.0058565138632638404,0.07102489464196382
1684002612203745600,12.31414599609375,0.07382844394133116,-0.09823989856829271,0.09880447398986007
1684002612213788100,12.3241884765625,-0.03130910538781551,-0.10421276080879675,0.10045242309852426
1684002612223830200,12.334230712890625,-0.07903151208308262,-0.08892345431569895,0.11146163934728066
1684002612233872300,12.344272705078126,-0.07123450932103115,-0.059998512396236554,0.17603778840009754
1684002612243914400,12.354314697265623,-0.007450066484951468,0.024476051188364458,0.21046304707521168
1684002612253956600,12.36435693359375,0.028725989280057106,0.10218906412560037,0.3090767860274164
1684002612263998900,12.3743994140625,0.05295049772268693,0.15892696390305472,0.41862773879484444
1684002612274041000,12.38444140625,0.06698373694622992,0.19259357451911535,0.47049236290833857
1684002612284083100,12.3944833984375,0.14611488576526285,0.2270183563900946,0.46314048768528115
1684002612294125200,12.404525634765625,0.2859018445214894,0.2482519149517441,0.3131995202135119
1684002612304167300,12.414567626953126,0.3967332541491209,0.24980258940558644,0.1319789886314157
1684002612314209500,12.42460986328125,0.45265990494516556,0.18080329880355345,-0.07896947854120255
1684002612324251800,12.43465234375,0.49278086425641254,0.1465559004816623,-0.21699810022643445
1684002612334293900,12.4446943359375,0.541274607038024,0.13506603234529993,-0.2709159851210475
1684002612344336000,12.454736328125,0.6281187532953744,0.10354995737344018,-0.2868762014915492
1684002612354378200,12.464778564453123,0.7237946986189644,0.08050346373316195,-0.3032989502083034
1684002612364420300,12.474820556640625,0.7798098324540443,0.05867576590553257,-0.3155832290237981
1684002612374462600,12.484863037109376,0.7716920971455985,0.05448913575662841,-0.2839350700075215
1684002612384504800,12.4949052734375,0.7024549841893792,0.008590698084595947,-0.17417907711973538
