time,seconds_elapsed,z,y,x
1684179648527183600,0.032583984375,-1.5417134147883166e-10,4.2257362830682844e-11,-7.627114647701956e-11
1684179648537224400,0.042624755859375,0.1051177978349066,-0.024436473869490303,0.018459796860356568
1684179648547265200,0.05266552734375,0.14860963827536075,0.028342723930509756,0.08184432972014663
1684179648557306000,0.06270654296875,0.013202667268950303,0.14370107661433887,0.043948650429372974
1684179648567346900,0.072747314453125,-0.18465089808021132,0.043614387529573063,-0.008294105450976884
1684179648577387600,0.0827880859375,-0.46617889405003426,-0.13402748115098162,-0.1961593627998622
1684179648587428300,0.09282861328125,-0.2169251440207547,-0.33159685128337385,-0.22597646711671399
1684179648597469100,0.102869384765625,0.1818556785393382,-0.08742856966235021,-0.019944190826063284
1684179648607509900,0.112910400390625,0.09334754955288044,0.11539077761011557,0.1917610167726555
1684179648617550800,0.122951171875,0.12941789629513162,0.07335710539501197,0.15579748152814774
1684179648627591600,0.132991943359375,0.012813091112436966,0.25592851636713115,0.11543512335343402
1684179648637632400,0.14303271484375,-0.4330658914217923,-0.012888908382922261,-0.21268367753404457
1684179648647673300,0.15307373046875,-0.4041042328052161,-0.15173482888890458,-0.25721406939291347
1684179648657714100,0.163114501953125,-0.3682107926541732,0.05339002614430888,-0.03753900528123247
1684179648667754900,0.1731552734375,0.06510925287912793,0.3146848678672842,-0.043993949881726245
1684179648677795800,0.183196044921875,0.4723925591635029,0.39114618293466125,-0.13085079198755664
1684179648687836600,0.193237060546875,0.6260032652617546,0.2695164681827485,-0.2675323486450785
1684179648697877400,0.20327783203125,0.612824916764469,0.07802963267340345,-0.34984302515455956
1684179648707918000,0.213318359375,0.45109558104428443,0.13663101191237592,-0.432927131628987
1684179648717958800,0.223359130859375,0.27580785742013736,0.19187307360525105,-0.21552801131860785
1684179648727999600,0.233400146484375,-0.13162088400557495,0.275903940301761,0.10925626754294401
1684179648738040600,0.24344091796875,-0.34157180788103425,0.483351230654161,0.24138164515775984
1684179648748081300,0.253481689453125,-0.6969995499363946,0.6412525177237782,0.011280536585284525
1684179648758122200,0.2635224609375,-0.7054405213253478,0.4379467963417032,-0.173685073894671
1684179648768163000,0.2735634765625,-0.2815093992404323,0.2450876236325558,-0.4312925337372417
1684179648778203800,0.283604248046875,0.32329416267253425,0.02048110955997507,-0.30516099939137165
1684179648788244600,0.29364501953125,0.5246744155337756,-0.06785631176983647,-0.1954960821901319
1684179648798285200,0.303685546875,0.1197400092552212,0.16453528403187262,-0.23275613777166865
1684179648808326100,0.3137265625,-0.12177515030533863,2.5711834430902227,-1.0845141410910921
1684179648818366900,0.323767333984375,-0.31694412218797946,0.5990631580033371,-0.1794734000119481
1684179648828407600,0.33380810546875,-0.11095261581675658,-0.12367486960645396,-0.46335744866832623
1684179648838448600,0.343848876953125,-0.04922628396595276,-0.12879943853243195,-0.924551010173921
1684179648848489400,0.353889892578125,0.5084426401529253,-0.20102834705616446,-1.2910490036861315
1684179648858530200,0.3639306640625,0.8151979447076971,-0.3303499221914691,-0.9491910933976964
1684179648868571100,0.373971435546875,0.5804786681302985,-0.368245601766013,-0.5925951004729922
1684179648878611900,0.38401220703125,0.34937739374085536,-0.46829605111323047,0.14502906815118458
1684179648888652600,0.39405322265625,-0.2447202205174031,-0.3243126868691405,0.40492057812154264
1684179648898693300,0.40409375,-1.104080319438601,-0.17863750465887085,0.4860744476688919
1684179648908734100,0.414134521484375,-1.337455987763294,-0.0005211830828166706,0.3842544554872554
1684179648918775000,0.42417529296875,-1.0009298324556382,0.13674688329504403,0.324353218173383
1684179648928815800,0.43421630859375,-0.46169292925354444,0.07632827764493873,0.31988430023883285
1684179648938856600,0.444257080078125,-0.025118351077681584,-0.0896306037851157,0.4725856781231164
1684179648948897500,0.4542978515625,-0.10449898237424946,-0.0986018180903173,0.3340644835921825
1684179648958938300,0.464338623046875,-0.327007651330703,-0.08677244183161652,0.015416145379459449
1684179648968979100,0.474379638671875,-0.3135619163235833,-0.19768857958470212,-0.2231378554961966
1684179648979020000,0.48442041015625,-0.26095968491070526,-0.27127218245294765,-0.5385169981895842
1684179648989060600,0.4944609375,-0.06113272892447134,-0.20883893974902762,-0.8198547364178238
1684179648999101400,0.504501708984375,0.12675195929735072,-0.059581279702182965,-0.8724541664525508
1684179649009142200,0.51454248046875,0.37294811007730105,0.1572299003997285,-0.8982362747009314
1684179649019183000,0.52458349609375,0.40605324520849817,0.13057518012250705,-0.5777235030462878
1684179649029223900,0.534624267578125,0.30294266345159043,0.10750389083194738,-0.33577346798472674
1684179649039264600,0.5446650390625,0.41293370719451883,0.41254949566152793,-0.2801418306093404
1684179649049305600,0.554705810546875,0.4297837613887128,0.5288515090986065,-0.03122901910895751
1684179649059346400,0.564746826171875,0.1373406052023652,0.4887077807404147,0.3345746994970562
1684179649069387200,0.57478759765625,0.2253223955498665,0.5639925003168843,0.3194952010849144
1684179649079428000,0.584828369140625,-0.06884616623134393,0.36784315114984645,0.1999034881268671
1684179649089468600,0.594868896484375,-0.7852284907486792,0.3099799156306737,0.38117790229521015
1684179649099509400,0.604909912109375,-1.4025526045981653,0.456837177186082,0.4867343902155543
1684179649109550300,0.61495068359375,-1.0976617336447312,0.6832437513574132,0.21482372289665636
1684179649119591100,0.624991455078125,-0.6439355612645972,0.6584305763386584,0.16474819183579623
1684179649129631900,0.6350322265625,-0.12125539781660373,0.3613677025723799,0.1384935378718129
1684179649139672800,0.6450732421875,0.14935898768228056,-0.14360904703291097,0.07225131970559805
1684179649149713600,0.655114013671875,0.1462956667169507,-0.30772876725644926,-0.06216526034282108
1684179649159754400,0.66515478515625,0.06770014768133845,-0.15862894068452688,-0.3980722428410972
1684179649169795200,0.675195556640625,0.08136487018190379,-0.21275711064638975,-0.37059402469823455
1684179649179835800,0.685236328125,0.21613895895405347,-0.20388269407328077,-0.28363418576854565
1684179649189876600,0.695277099609375,0.3944317100998363,-0.04725933071399939,-0.4521741866670269
1684179649199917600,0.70531787109375,0.17486798759919958,-0.05237674719694824,-0.2653646469543515
1684179649209958300,0.715358642578125,0.024885415891716358,0.14676237102471293,-0.02417945853996563
1684179649219999200,0.725399658203125,-0.07174289220057097,0.19416618350336362,0.4848079682043838
1684179649230040000,0.7354404296875,-0.2926133870176767,0.43938446032177225,0.7638854981054624
1684179649240080800,0.745481201171875,-0.5787695646452959,0.40709447861103315,0.8373184203899126
1684179649250121600,0.75552197265625,-0.40943849089945245,0.24491071705085238,0.9090843200119278
1684179649260162600,0.76556298828125,-0.08778190617863571,0.17923450478344358,0.9463596343935413
1684179649270203300,0.775603759765625,-0.04649496085105943,0.101812362586245,0.6495447159117271
1684179649280244100,0.78564453125,-0.13977217675005674,-0.0035529135584625097,0.6503410338875076
1684179649290285000,0.795685302734375,-0.39281058315275247,0.10761737838952386,0.3571882247531606
1684179649300325600,0.805725830078125,-0.47610092164671014,0.15202188481088136,0.11354160327154401
1684179649310366400,0.815766845703125,-0.543857574398507,0.006903648336970239,-0.1314382552582591
1684179649320407200,0.8258076171875,-0.5381629467150512,-0.23154735561506068,-0.11216735831560115
1684179649330448000,0.835848388671875,-0.2782025338031516,-0.23938941951118906,0.16805648816047097
1684179649340488900,0.84588916015625,-0.1941030024630811,-0.10938692087056782,0.3402509690892106
1684179649350529600,0.85593017578125,-0.33049035073628547,-0.10168218619600367,0.5758895873892409
1684179649360570600,0.865970947265625,-0.43581318863663016,-0.0653967857265561,0.5508365631389427
1684179649370611400,0.87601171875,-0.5370037556969606,-0.14594554899649698,0.513648986882376
1684179649380652200,0.886052490234375,-0.5905370710768408,-0.1701312064860021,0.25028800966651243
1684179649390692800,0.89609326171875,-0.44945931425809754,-0.39131641392095695,0.35026550281302854
1684179649400733600,0.906134033203125,-0.40494680402864025,-0.4244723319134366,0.22937011721686132
1684179649410774400,0.9161748046875,-0.7644925118834592,-0.38475847255104045,-0.045689582849871395
1684179649420815300,0.926215576171875,-0.8266084193499921,-0.1155829429272954,-0.5331258774644956
1684179649430856100,0.936256591796875,-0.5886194706666218,-0.004882335703225871,-0.9002566336992998
1684179649440896900,0.94629736328125,-0.15583419802984963,0.0617818831467438,-1.0672645569305392
1684179649450937800,0.956338134765625,0.297693252652606,-0.013163566663879547,-0.7681069372408105
1684179649460978600,0.96637890625,0.23215603812572774,0.0357832909354798,-0.015852928201247722
1684179649471019400,0.976419921875,-0.44298434255097935,0.0050039292624485775,0.6706671713069483
1684179649481060000,0.98646044921875,-0.9126071929200879,-0.11368608464304397,1.1781511306770311
1684179649491100800,0.996501220703125,-1.103906393061028,-0.28175115585371985,1.2990984917763295
1684179649501141600,1.0065419921875,-1.046390056632616,-0.5823121070817745,1.0625257492251279
1684179649511182600,1.0165830078125,-0.9616880417084726,-1.0175104140536484,0.6857247351329993
1684179649521223300,1.026623779296875,-1.3046000004698948,-1.4034085274852584,0.4643769264156931
1684179649531264200,1.03666455078125,-1.6456716060980596,-1.435734272100455,1.378107547775746
1684179649541305000,1.046705322265625,-1.280075311539926,-1.0935702323149854,2.5214219093848684
1684179649551345800,1.056746337890625,-0.9753623009457497,-0.7816643714086112,2.8749933243384307
1684179649561386600,1.066787109375,-0.6671886443580592,-0.594240188733451,2.168344497689392
1684179649571427600,1.076827880859375,-0.041476726439539764,-0.4510869980203496,1.1616115569009018
1684179649581468100,1.086868408203125,0.7293946741809052,-0.4761109350753102,0.537084579527001
1684179649591508900,1.096909423828125,1.1882236003129674,-0.30528116224202806,-0.0009536743218202859
1684179649601549700,1.1069501953125,1.3102365730497318,-0.16411352172871374,-0.5745005608334562
1684179649611590600,1.116990966796875,1.510729312923766,-0.03144550312798969,-1.1615686417779385
1684179649621631400,1.12703173828125,1.6403520108344385,0.07121944433436662,-1.3241705894273155
1684179649631672200,1.13707275390625,1.335259199123505,0.3843026160842746,-1.5639090538397125
1684179649641713100,1.147113525390625,0.9164420365008182,0.7661628724771506,-2.093894481710421
1684179649651753900,1.157154296875,0.4255748986608755,1.084532260838483,-2.510776519852152
1684179649661794700,1.167195068359375,0.24187231059084652,1.2626872062335632,-2.5322709083896227
1684179649671835300,1.177235595703125,0.5414979457505396,1.3211426735829999,-2.0796866416470214
1684179649681876100,1.187276611328125,0.739319920560241,0.6384816170419247,-1.4171838761622677
1684179649691917000,1.1973173828125,0.7389427422473699,0.24058532724623452,-0.9513292311191648
1684179649701957800,1.207358154296875,0.39444863796693547,-0.07295703900881921,-0.561627388056577
1684179649711998600,1.21739892578125,-0.373558402180666,-0.790836334262126,-0.6672763825279435
1684179649722039500,1.22743994140625,0.2616288660891277,-0.1954617500279088,-0.7672934532066374
1684179649732080300,1.237480712890625,0.6324021816656242,0.25604867932303527,-0.5927219391003009
1684179649742121100,1.247521484375,1.0681273936395594,0.6146802901858157,-1.3309707641582216
1684179649752162000,1.257562255859375,1.3620783090081081,0.6271815299391473,-0.5900940895557455
1684179649762202600,1.26760302734375,1.5759422778299983,0.7589449883597942,-0.005424022647966154
1684179649772243400,1.277643798828125,1.9238765239631648,0.4348912237417787,0.5294022558727706
1684179649782284200,1.2876845703125,2.39279031750837,0.325147628782251,0.6197729110582325
1684179649792325000,1.297725341796875,2.677052974610556,-0.08649158473501789,1.0577635765844935
1684179649802365900,1.307766357421875,2.1647639274839356,-0.1670441628308752,1.3368964195175177
1684179649812406600,1.31780712890625,1.6532301904020126,0.00841522229792081,0.9924235344564687
1684179649822447600,1.327847900390625,1.3291740416192301,-0.14337110518830168,0.729891300233179
1684179649832488400,1.337888671875,1.1554447411064646,-0.731302738181329,0.8603491783198495
1684179649842529200,1.3479296875,1.0486929414914912,-1.1578269004513981,0.23536443711710875
1684179649852570000,1.357970458984375,-0.15413254507642282,-1.6158452034311461,-0.37891054142781666
1684179649862610900,1.36801123046875,-0.9440201522494295,-1.9917426108655203,-0.5483236313917808
1684179649872651400,1.3780517578125,0.0082188843577002,-1.0146188735651518,-0.828254699868486
1684179649882692300,1.3880927734375,1.0916745662574259,0.5327377319623489,-0.768442154008686
1684179649892733100,1.398133544921875,1.9858243466054122,0.7984476089897168,-0.09653234490368184
1684179649902773900,1.40817431640625,3.3623497486449176,0.40908336633227244,0.25803136835595913
1684179649912814800,1.418215087890625,4.14998149879258,-0.0678167342487725,0.32356452935403596
1684179649922855600,1.428256103515625,3.754775524164766,-0.3948678969999802,0.35750961293349753
1684179649932896400,1.438296875,2.9717767238156148,-0.15836811059664962,0.041765689887049116
1684179649942937300,1.448337646484375,4.189124107317226,1.124884605484212,-0.04538774500256078
1684179649952978100,1.45837841796875,4.389851570108207,1.9311499596618984,-0.5019359586769843
1684179649963018600,1.468419189453125,1.78770852080518,0.3580331802130722,-0.5493836402791312
1684179649973059600,1.4784599609375,-0.254902243761633,-0.5387878417763016,-0.7229676245385358
1684179649983100300,1.488500732421875,-0.5193829535884611,-0.23474502554453922,-0.7294812202052735
1684179649993141200,1.49854150390625,-0.2874042988197601,-0.3815445901324037,-0.4543390274350622
1684179650003182000,1.50858251953125,0.32016259422053567,-0.5119504926946817,-0.3361315727912795
1684179650013222800,1.518623291015625,0.7633342146140579,-0.7928366659735163,-0.3571457862471839
1684179650023263600,1.5286640625,1.6568917035483681,-1.031994819813156,0.25051975244971303
1684179650033304600,1.538704833984375,1.6981897353710864,-1.241536617268247,1.0119414329953393
1684179650043345300,1.548745849609375,0.2900829912095777,-1.4830741881745462,0.7227368354934132
1684179650053385900,1.558786376953125,-0.4102174639667866,-1.2524476050796292,0.8423213960003304
1684179650063426700,1.5688271484375,-0.06457826487923671,-0.34079122544721546,0.3903474807895499
1684179650073467600,1.578867919921875,0.4643644988953224,0.6399121283477488,-0.1881484985459415
1684179650083508400,1.58890869140625,0.6529039739453208,1.1206254959060218,-0.41162061699899566
1684179650093549200,1.59894970703125,0.6648417115002363,1.334518909526521,-0.5513720512724167
1684179650103590100,1.608990478515625,0.2909221351006996,1.0886912345715782,-0.4235858918079452
1684179650113630900,1.61903125,0.1856887341754585,0.8988628389404917,-0.20381498346775032
1684179650123671700,1.629072021484375,0.520872592804918,0.8127245902607639,0.6719779968032762
1684179650133712600,1.639113037109375,1.3938077689765733,1.5497679711145311,1.2637376785269638
1684179650143753100,1.649153564453125,1.6943848133330857,1.2310295105379014,2.149626731730017
1684179650153794000,1.6591943359375,1.4076509475626613,-0.9522986411917664,3.1334152221774745
1684179650163834800,1.669235107421875,0.7789864540943704,-0.6169719697233444,2.091418266305339
1684179650173875600,1.679276123046875,0.288197219370112,0.2333426475100168,0.9003520012033549
1684179650183916500,1.68931689453125,0.004194334146305886,0.7700595855885879,0.010592460568209554
1684179650193957300,1.699357666015625,-0.17309293148050137,0.9821262359549855,-0.7169437407222098
1684179650203998100,1.7093984375,-0.009512320103494995,0.8989319801317998,-0.9164056777016344
1684179650214039000,1.719439453125,0.20165434497438164,0.6820178031285327,-0.5264120100369158
1684179650224079800,1.729480224609375,0.2166947275645347,0.2772727013212929,0.12139081946412643
1684179650234120400,1.739520751953125,0.42052555095699995,0.42958736424916855,0.3037953377198226
1684179650244161200,1.7495615234375,0.8665890098333185,-0.3785028456442026,1.3681674002506772
1684179650254202000,1.7596025390625,1.5377262831448306,0.5305938720613965,1.3499116896494128
1684179650264242900,1.769643310546875,1.0598391293802694,-0.09819984427886749,1.1850180625517484
1684179650274283600,1.77968408203125,0.9404982327283191,-0.10277748102542926,0.9579091071510359
1684179650284324600,1.789724853515625,0.9498186709025422,0.24974727642352165,0.3351278304665976
1684179650294365400,1.799765869140625,0.7577839493381651,0.28752422326638344,-0.23736143131628626
1684179650304406200,1.809806640625,0.8556933404148852,0.0981287956002249,-0.5345134736235002
1684179650314447000,1.819847412109375,0.9912854433752655,0.24311923990999068,-0.6777606009666175
1684179650324487600,1.829887939453125,0.9908796547644226,0.3391108511389341,-0.6566176413031052
1684179650334528400,1.8399287109375,1.231257200249725,0.09123802170962497,-0.4506978987163047
1684179650344569300,1.8499697265625,1.4463436604019628,-0.3611841200993427,-0.38750505436451455
1684179650354610100,1.860010498046875,1.272035718088947,-0.3101768491984391,-0.06865453728632433
1684179650364650900,1.87005126953125,1.011323809475411,-0.6353683470932102,0.5256953239540909
1684179650374691800,1.880092041015625,0.9338483811444805,-0.6757850646940917,0.8118438721592247
1684179650384732600,1.890133056640625,0.9538589715926363,-0.6221494673656727,0.7155022622120953
1684179650394773400,1.900173828125,0.7496409415085036,-0.3968715667336818,0.44872999187983126
1684179650404814300,1.910214599609375,0.5239582062193584,-0.19148635874297265,0.46172189704243805
1684179650414854800,1.920255126953125,0.5127555131428271,-0.08797073368408484,0.5502800941488133
1684179650424895600,1.930296142578125,0.47748643162823834,-0.29902744283648336,0.5481333731566331
1684179650434936600,1.9403369140625,0.6484094262244637,-0.49287796030312725,0.32674598703567026
1684179650444977300,1.950377685546875,0.9001511931565591,-0.4362144469120224,0.01901245130679434
1684179650455018200,1.96041845703125,1.1097962856010692,-0.7534160614745072,0.1399993896094897
1684179650465059000,1.97045947265625,1.5057833195708161,-0.44348812108973834,0.0689768791726704
1684179650475099800,1.980500244140625,1.0448238849977554,0.12059688567714318,0.10042333607365138
1684179650485140600,1.990541015625,0.25175368785874996,0.09401798244730239,-0.028687954078507147
1684179650495181600,2.000581787109375,-0.6089826224630362,-0.10497760773611552,0.2630877495498601
1684179650505222300,2.010622802734375,-0.7624042035442608,0.2750034331391522,0.44089984884981076
1684179650515262900,2.020663330078125,-0.7145571708941099,0.42764568327057545,0.692767620202334
1684179650525303600,2.0307041015625,-0.566600501690288,0.032563209458971586,0.8213858602735454
1684179650535344600,2.040744873046875,-0.18836703883138148,-0.16646003722849348,1.2682318686732548
1684179650545385400,2.050785888671875,0.13729694482331717,-0.11045551318003093,1.533671855874992
1684179650555426200,2.06082666015625,0.2372751533322384,-0.0697765350928079,1.257712364286683
1684179650565467100,2.070867431640625,0.47434180983924085,-0.40637397776977413,0.6639194488427036
1684179650575507900,2.080908203125,0.8441918491394605,-0.6236982344949178,0.11175918590073114
1684179650585548600,2.09094921875,0.8917275071153815,-0.5865964889041168,0.042052745911717176
1684179650595589600,2.100989990234375,0.5290215016618239,-0.3608942031280601,0.3122110368008947
1684179650605630100,2.111030517578125,0.259710520423452,-0.15210533127720083,0.5287475585560774
1684179650615671000,2.1210712890625,-0.01578986631164514,-0.597969055225212,0.6126194000101984
1684179650625711800,2.1311123046875,0.09664165971316949,-0.8883476256837091,0.48222351085073045
1684179650635752600,2.141153076171875,0.45096620914311025,-0.9869098663294845,0.06231498721315226
1684179650645793500,2.15119384765625,0.39559558033975056,-1.0688705444158002,-0.4206023217389132
1684179650655834300,2.161234619140625,0.26154705874200795,-0.8021297453763823,-0.6712646483613836
1684179650665875100,2.171275634765625,0.1913219689516271,-0.5976810455380639,-0.7753636836362134
1684179650675916000,2.18131640625,0.36779162287299744,-0.5134916305435058,-0.9383547306461253
1684179650685956800,2.191357177734375,0.49192613348753433,-0.402519226109811,-0.9718070030282224
1684179650695997400,2.201397705078125,0.5048148034435437,-0.33295631403210274,-0.623678207439687
1684179650706038200,2.2114384765625,0.6047006248330643,-0.25225353235474085,-0.1867327688581439
1684179650716079000,2.2214794921875,0.6969122289724614,-0.037441253643709364,0.059720516064134845
1684179650726119900,2.231520263671875,0.5291215181812285,0.15997886649700382,0.1912355423066054
1684179650736160600,2.24156103515625,0.1756223438388692,0.3153743744300367,0.3874373435016862
1684179650746201600,2.251601806640625,-0.26421201228378155,0.47338581088330817,0.3985581397884557
1684179650756242400,2.261642822265625,-0.6045313477827604,0.6430788040165086,0.37979888925147615
1684179650766283200,2.27168359375,-0.876300752216429,0.8439254761529361,0.27089977267321624
1684179650776324000,2.281724365234375,-1.1107587814697573,0.9781312940838409,0.1975746153687494
1684179650786364600,2.291764892578125,-1.2220575810643595,0.9674510956032677,-0.03879785543641359
1684179650796405400,2.301805908203125,-1.3084661959515795,0.794456958607029,-0.21031618113357312
1684179650806446300,2.3118466796875,-1.3980528117339999,0.4859056474254456,-0.03605413450646132
1684179650816487100,2.321887451171875,-1.1973561047759362,0.40519428248616896,0.5379376413060337
1684179650826527900,2.33192822265625,-1.1023819445571281,0.21332263940359045,0.924190521320148
1684179650836568800,2.34196923828125,-0.9923548700056987,0.13668823237644054,0.9392318725398355
1684179650846609600,2.352010009765625,-1.4229046106266166,0.8536090850736119,0.6661744116345826
1684179650856650400,2.36205078125,-1.4684307575131281,-0.38518619524659486,0.33173561097069004
1684179650866691200,2.372091552734375,-1.1971523760552043,-0.6689462661901769,0.11317205441073541
1684179650876731800,2.38213232421875,-1.0069282055410913,-0.651118278585548,-0.03571748737928425
1684179650886772600,2.392173095703125,-0.8836910726306426,-0.7028627394861504,-0.1685528754823567
1684179650896813600,2.4022138671875,-0.7901976109771521,-1.2371225356129285,-0.19779157645724704
1684179650906854300,2.412254638671875,-0.6794037818295589,-1.7314090729977423,-0.105453968079584
1684179650916895200,2.422295654296875,-0.45903038981899796,-1.7119808196928048,-0.03444004066058181
1684179650926936000,2.43233642578125,-0.34263849271756774,-1.6787309645961672,0.40466356292525507
1684179650936976800,2.442377197265625,-0.25585436819315227,-1.8222923277701923,0.6319060324450102
1684179650947017600,2.45241796875,-0.18266630184654523,-1.7849111557447266,0.6263527870208017
1684179650957058600,2.462458984375,-0.2635321615505118,-1.8311290741249961,0.5177006720663714
1684179650967099100,2.47249951171875,-0.2194714545625758,-1.5492124557298173,0.33407449722819926
1684179650977139900,2.482540283203125,-0.0177340508459506,-1.012810707193862,-0.19864034662413363
1684179650987180600,2.4925810546875,-0.14370322229229682,-1.1186981199879578,-0.517847061122736
1684179650997221600,2.5026220703125,-0.15087032321905794,-1.1802577971313242,-0.16269874565298545
1684179651007262400,2.512662841796875,0.21482872954238563,-1.0137348174832173,-0.06930589678532913
1684179651017303200,2.52270361328125,0.5421319008008102,-0.6793684959715878,-0.06071567527111236
1684179651027344000,2.532744384765625,0.7480206489564457,-0.3290505409084198,-0.0010604858601249644
1684179651037384900,2.542785400390625,0.885529518103535,-0.10315179816328907,-0.07249975197418576
1684179651047425500,2.552825927734375,1.1369194983536026,0.13198089601096785,-0.41286373135066146
1684179651057466300,2.56286669921875,1.2917054893000819,0.4909844399567028,-0.7692875862216526
1684179651067507100,2.572907470703125,1.4246242046300908,0.6077437400796731,-1.076111793634059
1684179651077548000,2.5829482421875,1.8171058893379273,0.8797078132926175,-1.230550289041245
1684179651087588800,2.5929892578125,1.857442259775045,0.6412096022253522,-1.1292247773060242
1684179651097629600,2.603030029296875,2.223165035171945,0.19087123882291954,-1.4555778502212293
1684179651107670400,2.61307080078125,2.334888935018118,0.12856769561634632,-1.3964314459874605
1684179651117711300,2.623111572265625,2.2727503777299702,-0.10576725008654908,-1.0832433700715558
1684179651127752100,2.633152587890625,2.1300582885935366,-0.1366462707996013,-1.322427272677645
1684179651137792900,2.643193359375,0.4080686569140236,0.2719321251087254,-2.0427794456243324
1684179651147833800,2.653234130859375,-1.4588844774875245,0.7447972298496327,-2.538895130191708
1684179651157874400,2.663274658203125,-1.7580223084009898,1.1918506621077956,-2.5657234191495366
1684179651167915200,2.673315673828125,-1.6641144752277561,0.8270292280643479,-2.018918037346457
1684179651177956000,2.6833564453125,-1.394325494662781,-0.2018780708501547,-0.8834462164990283
1684179651187996800,2.693397216796875,-0.6231842041768092,-1.0429258345444061,0.36748123180346337
1684179651198037600,2.70343798828125,-0.16774082172071889,-1.5102062224724124,1.4358625412356218
1684179651208078600,2.71347900390625,-0.20903491983055153,-1.6805753706093929,1.855706691797606
1684179651218119300,2.723519775390625,-0.11500930783934951,-1.3854861259948075,1.2002944945424399
1684179651228160200,2.733560546875,0.11729049675942964,-1.1411299705936984,-0.12103271486955741
1684179651238201000,2.743601318359375,0.18840789795385468,-0.7556715011089591,-0.926614761375254
1684179651248241600,2.75364208984375,0.6051654813931202,-0.25925922405356444,-1.3609781266073004
1684179651258282400,2.763682861328125,0.6738078594697696,0.004243850661923752,-1.596147537386895
1684179651268323200,2.7737236328125,0.33914756770823756,-0.2080440520156688,-1.846838951084547
1684179651278364100,2.783764404296875,0.3446578977873189,-0.3826375007132296,-1.7939140796463535
1684179651288404900,2.793805419921875,0.7244322300140744,-0.40113115307761027,-1.1694388390368962
1684179651298445700,2.80384619140625,1.2256395817102104,-0.3513631820764038,-0.5744924544954287
1684179651308486600,2.813886962890625,1.0599858761481855,-0.7042627333987321,-0.07168340677689002
1684179651318527400,2.823927734375,0.7252223490508981,-0.8261713982400728,0.06052351010434862
1684179651328568200,2.83396875,0.6896274091367414,-0.3421201704675476,-0.09063005453111489
1684179651338608800,2.84400927734375,0.7471811772155748,-0.14368629460692064,-0.3670306206627951
1684179651348649600,2.854050048828125,0.632273674118085,-0.4373536110237188,-0.7286987304454042
1684179651358690600,2.8640908203125,0.8702590465198053,-0.21828842173162322,-0.7325677869880176
1684179651368731300,2.874131591796875,0.855288267081015,0.1858263014871682,-0.612213611560084
1684179651378772100,2.884172607421875,0.2826511860356459,0.27178955071313327,-0.829657077657049
1684179651388813000,2.89421337890625,-0.425082921924752,0.0958299636963882,-0.9374136925210524
1684179651398853800,2.904254150390625,-0.7787022589347661,0.14398097988796962,-0.9565753938373771
1684179651408894600,2.914294921875,-0.7110550403530066,-0.11602592477608634,-0.6955089569573952
1684179651418935500,2.9243359375,0.17996048930115163,-0.1853532790696391,-0.42582130436940974
1684179651428976000,2.93437646484375,0.586958169842021,-0.3885946273644036,-0.7618079186842133
1684179651439016900,2.944417236328125,0.6479742525741656,-0.2766246795755989,-0.39351844791638957
1684179651449057600,2.9544580078125,0.672356367108154,0.41288232803423075,0.5960769653515846
1684179651459098600,2.9644990234375,1.0629801749362724,1.0350103379279423,0.8929052352682398
1684179651469139400,2.974539794921875,1.2415769099129081,0.5052838325382746,-0.9416470526914982
1684179651479180200,2.98458056640625,1.3963298797262418,0.17302465441844256,-2.15898609163111
1684179651489221000,2.994621337890625,1.3155865668193782,0.10176658637565236,-2.270223140708859
1684179651499261900,3.004662353515625,1.153247594851375,0.16412353505325306,-1.5925226212781298
1684179651509302600,3.014703125,0.8134119510477075,0.07716035836372387,-0.782320022396391
1684179651519343300,3.02474365234375,0.7861211299593507,-0.027905940921968266,-0.2577877044589895
1684179651529384100,3.034784423828125,1.1125113965759628,-0.07034778603619954,0.1251344680836039
1684179651539424900,3.044825439453125,0.7954409121302208,-0.374170303342856,0.3970346450774073
1684179651549465800,3.0548662109375,-0.5181806086734997,-0.7733683587018381,0.421163082118909
1684179651559506600,3.064906982421875,-2.1453084944092944,-0.6864781379945821,0.4350862504919253
1684179651569547400,3.07494775390625,-3.0041792392491646,0.7061448097943822,0.377483844679748
1684179651579588300,3.08498876953125,-3.0726783275973544,1.576559066690216,1.0176668165405176
1684179651589629100,3.095029541015625,-4.050542831259054,0.021323203991825603,0.32776355742311397
1684179651599669600,3.105070068359375,-3.053091526042834,-0.35011196120962873,0.2698068619336606
1684179651609710600,3.11511083984375,-2.0602011681024073,-0.22979307167351473,0.48467397697715986
1684179651619751300,3.12515185546875,-1.489816904054465,-0.35583066940242697,0.3198900224298483
1684179651629792200,3.135192626953125,-1.1182136535062817,-0.4719052314107699,0.019348621342595018
1684179651639833000,3.1452333984375,-0.8275966644260337,-0.5221834181963866,-0.39935684209638905
1684179651649873800,3.155274169921875,-0.5196065902351402,-0.20812559118406548,-0.8145279884479488
1684179651659914600,3.165315185546875,-0.02192282678515746,-0.08756017690231874,-1.036878585987264
1684179651669955600,3.17535595703125,0.29641842843811267,-0.26592063905505714,-1.018569469514375
1684179651679996300,3.185396728515625,0.4015699624520205,-0.4429311751717921,-1.0075540543755261
1684179651690037200,3.1954375,0.27728891370397873,-0.153311252464855,-1.0843648909723487
1684179651700078000,3.205478515625,0.21590948104953553,-0.00824737540994482,-1.0821528434777818
1684179651710118600,3.21551904296875,0.06257867810619118,-0.14888000474551602,-0.9460034370178173
1684179651720159400,3.225559814453125,-0.45546102526161697,-0.46047973648461815,-0.6375093458342983
1684179651730200200,3.2356005859375,-1.246011018812257,-0.7496623991989168,0.015983581407887047
1684179651740241100,3.245641357421875,-2.0535783768906977,-0.9909086228146478,0.8626122473506391
1684179651750281900,3.255682373046875,-2.5854153634032127,-1.0509214401777032,1.7010450362998644
1684179651760322700,3.26572314453125,-2.5526850224797815,-0.6887426375690927,2.311134338425421
1684179651770363600,3.275763916015625,-1.8648946286014172,-0.27367496499277677,2.551387786790517
1684179651780404400,3.2858046875,-0.7416197061255757,-0.2694692611798429,2.3680491447155436
1684179651790445200,3.295845703125,0.7564460040751941,-0.44841670981441933,1.9245080947922177
1684179651800485800,3.30588623046875,1.8272702693168918,0.2504515647313113,1.017438411682016
1684179651810526600,3.315927001953125,2.601083278705131,0.18259572969325977,0.2733392713519358
1684179651820567600,3.3259677734375,2.9609382151645773,-0.3834409714663357,-0.4668078422092991
1684179651830608300,3.3360087890625,2.6896786690280616,-0.7674283981563298,-1.1590161324758026
1684179651840649100,3.346049560546875,1.914545297571433,-0.855130195456364,-1.8438110351458978
1684179651850690000,3.35609033203125,1.0746531486547224,-0.620528221259798,-2.1770436762487355
1684179651860730800,3.366131103515625,0.21413302421943164,-0.524413108987579,-2.133107423766346
1684179651870771600,3.376172119140625,-0.235328793419749,-0.4060506821142614,-1.8959376812603463
1684179651880812500,3.386212890625,-0.13322651382319206,-0.01955032335393418,-1.2790689469139445
1684179651890853000,3.39625341796875,0.3608851433753217,0.5840110779630037,-0.2448406220378115
1684179651900893900,3.406294189453125,0.8550288677343602,1.0104455949526,0.47348785388532205
1684179651910934600,3.416335205078125,1.345569253023352,1.057984352011147,0.7301740646806016
1684179651920975600,3.4263759765625,1.604296326662816,1.5871653558138172,0.6922936438773079
1684179651931016400,3.436416748046875,1.5194683075166462,1.6288585663929207,0.2936534882097851
1684179651941057200,3.44645751953125,1.2553279400671682,1.2936992646637957,-0.06528377530648923
1684179651951098000,3.45649853515625,0.8019506336424403,0.8395657540888617,-0.4679846762734614
1684179651961138900,3.466539306640625,0.3744779227413689,0.26392745965585673,-0.7178783416652237
1684179651971179600,3.476580078125,0.05341333149852116,-0.2684879303596989,-1.0627586843051682
1684179651981220300,3.48662060546875,0.1748574376812322,-0.5429773329602405,-1.206723213247966
1684179651991261100,3.49666162109375,0.5072079896033356,-0.9863719939492148,-0.8993935585145606
1684179652001301900,3.506702392578125,0.9792901278007573,-1.1122407913231087,-0.5713758469381596
1684179652011342800,3.5167431640625,1.2542158366344225,-1.3186655043392308,-0.19048500058283718
1684179652021383600,3.526783935546875,1.3583123683065585,-1.2906837463486578,0.20280647288483108
1684179652031424400,3.536824951171875,1.436887383398963,-0.8135032653476385,0.34940052019277906
1684179652041465300,3.54686572265625,1.3216770888438676,-0.3705530166249155,0.3313241006596217
1684179652051506100,3.556906494140625,1.2770665884863188,-0.21886444085044007,0.374962806750912
1684179652061546900,3.566947265625,1.3763633965599371,-0.1280565261406731,0.2200641631972854
1684179652071587600,3.57698779296875,1.6820878981426735,-0.06555271141333803,-0.028021335685718497
1684179652081628300,3.58702880859375,1.8750067949784346,0.17290210732982497,-0.4144325257445852
1684179652091669200,3.597069580078125,1.9178903104140042,0.25150871267179425,-0.7096085546893727
1684179652101710000,3.6071103515625,1.7865883112384446,0.3250226974901812,-1.0855174063871553
1684179652111750800,3.617151123046875,1.695036888223662,0.0416622162088369,-1.255272150057408
1684179652121791600,3.627192138671875,1.7262854576700841,-0.24343299865261062,-1.1129071711151821
1684179652131832600,3.63723291015625,1.7780287265706878,-0.437552452089312,-0.6958675384341885
1684179652141873300,3.647273681640625,1.6605060100426525,-0.7869539259897517,-0.15293979648496966
1684179652151914200,3.657314453125,1.5563287734436657,-1.0345878601704765,0.4872832298232254
1684179652161954700,3.667355224609375,1.4352185725765856,-1.0987262725974827,1.0955400466088974
1684179652171995600,3.67739599609375,1.2165489197635884,-0.8176698684377716,1.1780209541696824
1684179652182036400,3.687436767578125,0.8259698152629765,-0.4970703126433886,0.5592341423278521
1684179652192077200,3.6974775390625,0.5589632988436825,-0.34608554837942007,-0.3536505698638581
1684179652202118100,3.7075185546875,0.56521773337586,-0.10499668116340219,-1.1350913047417204
1684179652212158900,3.717559326171875,0.6818315981765316,-0.04625415805736518,-1.6402883529683694
1684179652222199600,3.72760009765625,0.8392145634534346,-0.15784740452801144,-1.801999330532442
1684179652232240600,3.737640869140625,0.8771050571610414,-0.23000431070054891,-1.7949717044893527
1684179652242281100,3.747681640625,0.8352746962160696,-0.23632907878893755,-1.5118181704577924
1684179652252322000,3.757722412109375,0.6513059139759605,-0.24713325509507558,-1.2293939590617864
1684179652262362800,3.76776318359375,0.5314424634001909,-0.22850513470678324,-0.7215001582469945
1684179652272403600,3.777803955078125,0.3545802236500088,0.008981704650852346,-0.4640669823577027
1684179652282444500,3.787844970703125,0.2685610054172741,0.2749233246461049,-0.3726501465481339
1684179652292485300,3.7978857421875,0.3002377749103953,0.5934257507584753,-0.48453617094759105
1684179652302526100,3.807926513671875,0.38483178626866826,0.7261724473020467,-0.5758457185420659
1684179652312567000,3.81796728515625,0.3503563701834131,0.5690965652124589,-0.5233430862598937
1684179652322607800,3.82800830078125,0.4814768135650778,0.4164428710994003,-0.27736139298174006
1684179652332648600,3.838049072265625,0.5938794016917632,0.07834053040105468,0.2804341314970766
1684179652342689500,3.84808984375,0.6574521660668642,-0.19839191433885953,0.6935844421398248
1684179652352730300,3.858130615234375,0.9078358410830105,0.12905025486389457,1.116677284213471
1684179652362770900,3.868171142578125,0.9764820934164398,0.23477935791322724,1.2206606865010163
1684179652372811600,3.878212158203125,0.8126866220121317,-0.0004158018232547789,1.0694298744550155
1684179652382852600,3.8882529296875,0.6094555855007002,-0.30976295474344634,0.7800369262715031
1684179652392893400,3.898293701171875,0.5928150415107346,-0.3530864714676606,0.4767003060041459
1684179652402934200,3.90833447265625,0.6957459448802129,-0.5472631455101087,0.0790958404509378
1684179652412975000,3.91837548828125,0.6704904437547483,-0.771199226498107,-0.041766881903894895
1684179652423015900,3.928416259765625,0.44001579295018917,-1.0506439208639562,0.03878068932536368
1684179652433056600,3.93845703125,0.23415899274355126,-1.0399551392501385,0.21403718001957106
1684179652443097300,3.94849755859375,0.2311060430259845,-0.41203212736703065,0.43200469025125
1684179652453138100,3.95853857421875,0.22637516262203078,-0.24492073070690332,0.48267364510716787
1684179652463178900,3.968579345703125,0.5727224350270532,0.09745883945202402,0.31248450270957423
1684179652473219800,3.9786201171875,0.7615795731569286,-0.09527015670519924,-0.11510825141508348
1684179652483260600,3.988660888671875,1.1508424283593228,-0.002886772174358773,-0.5272400378375357
1684179652493301400,3.998701904296875,1.2274883985173817,-0.250173568838768,-0.7534170149487837
1684179652503342300,4.00874267578125,1.0414186715941496,-0.24795627597637834,-0.8562641144285436
1684179652513383100,4.018783447265625,0.6768152712589993,-0.2837381361834125,-0.7263400553640814
1684179652523423900,4.02882421875,0.3773353994425231,-0.26029968244066953,-0.5374653339270149
1684179652533464800,4.038865234375,0.10710972547740094,-0.3432321548794119,-0.25253796572821896
1684179652543505300,4.04890576171875,0.012068450326094415,-0.25433731082562927,0.07466387737894505
1684179652553546200,4.058946533203125,0.18722712998076319,-0.3654069902150777,0.29544186583394716
1684179652563587000,4.0689873046875,0.46354877951091156,-0.3132781982178642,0.41850113882297996
1684179652573627800,4.0790283203125,0.7547754644879174,-0.4041147231830045,0.36451482761471854
1684179652583668600,4.089069091796875,0.8553234933806493,-0.491748809854639,0.38970232011338024
1684179652593709600,4.09910986328125,1.1189461945609922,-0.6120386123502397,0.32894849776553653
1684179652603750300,4.109150634765625,1.335861563681274,-0.4702291487560269,-0.054389953570031485
1684179652613791200,4.119191650390625,1.4438587426673282,-0.24960041034819114,-0.39823865901982974
1684179652623832000,4.129232421875,1.4117515087711847,0.05560588837203892,-0.525521278421688
1684179652633872600,4.13927294921875,1.2795357704851444,0.3605957030433742,-0.5572340487667788
1684179652643913400,4.149313720703125,1.1044038536060943,0.5511722564568997,-0.1915774344522792
1684179652653954200,4.159354736328125,0.7026457785770218,-0.14579772959595308,0.29179072382841365
1684179652663995100,4.1693955078125,0.5046410560406855,-0.5679769515278785,0.8292188644491437
1684179652674035900,4.179436279296875,0.5157316327742523,-0.49324607851961666,1.4191918372097458
1684179652684076600,4.18947705078125,0.7762267589450351,-0.21480178821211945,1.4838943482336102
1684179652694117600,4.19951806640625,1.1296899317816984,-0.0031108857141260784,0.8697698115549503
1684179652704158400,4.209558837890625,1.2210276126721016,-0.1270866394090651,0.14992356290466938
1684179652714199200,4.219599609375,1.1023396253848963,-0.5166378021708383,-0.2538092136560451
1684179652724239800,4.22964013671875,0.9909993410562341,0.04088592548511342,-0.43189358720054716
1684179652734280600,4.239680908203125,0.24912372242614242,1.3515348435937498,-0.8382573128237198
1684179652744321500,4.249721923828125,-0.17667752513986076,1.3468275070775553,0.058296442065588504
1684179652754362300,4.2597626953125,0.6550093293122703,0.7349290848366199,-0.22113442439689424
1684179652764403100,4.269803466796875,0.5485472679460607,0.6267147063589089,-0.697340488429804
1684179652774444000,4.27984423828125,0.13440623878505753,0.9575691222530529,-0.9621753692218027
1684179652784484800,4.28988525390625,-0.469028621994697,1.315420627601089,-1.0899209975592157
1684179652794525600,4.299926025390625,-0.7510147691362834,1.2799739836009765,-1.0444636343524532
1684179652804566400,4.309966796875,-0.9282170533663049,-0.45285129556811454,-0.4169132708972577
1684179652814607000,4.32000732421875,-0.5724353791073206,-0.983266830361122,0.3307931422722695
1684179652824647900,4.33004833984375,0.06625911582090636,-0.9635763169151402,0.7439482213267359
1684179652834688600,4.340089111328125,0.4481701852820486,-0.5243988037390037,0.8762919903691088
1684179652844729600,4.3501298828125,0.5407621859605792,-0.15527915953026908,0.900129795026094
1684179652854770400,4.360170654296875,0.4284808634688795,0.12456703176491721,0.9594342708434924
1684179652864811200,4.370211669921875,0.2768813967260545,0.5992364881998558,0.9546964168063883
1684179652874852000,4.38025244140625,0.2756438254251973,1.2719640732875663,0.9237337113424295
1684179652884892800,4.390293212890625,-0.09499230973004082,0.8698959352037824,0.6963694096228672
1684179652894933600,4.400333984375,-0.3178843854998441,0.3649492264482339,0.46729135522399695
1684179652904974600,4.410375,-0.30900102870603036,-0.04288578043497995,0.3453462124013358
1684179652915015300,4.420415771484375,-0.25064429641453906,-0.6889152527496092,0.20851612095232536
1684179652925056200,4.43045654296875,-0.06036654104952286,-1.0801649094150498,0.08249521260684776
1684179652935096800,4.4404970703125,0.26687732354955374,-1.1201066969591038,0.04512763006986266
1684179652945137600,4.4505380859375,0.4115982352319571,-1.211120605429146,-0.07741427414617351
1684179652955178400,4.460578857421875,0.5036476851619324,-1.1674118042571104,-0.05910301194019236
1684179652965219200,4.47061962890625,0.5610358714900537,-0.7836494445068055,0.15060806282856742
1684179652975260100,4.480660400390625,0.4433581827794169,-0.3605289458961522,0.3938269613687925
1684179652985300900,4.490701416015625,0.21398448953111465,-0.1338262557590605,0.624160289789885
1684179652995341700,4.5007421875,0.0489895195325738,0.017767906154981545,0.7424781322448634
1684179653005382600,4.510782958984375,-0.015921935413984893,0.23431015007652942,0.7691278457814916
1684179653015423400,4.52082373046875,0.002947062141813976,0.3407621383018734,0.7500743864236653
1684179653025464000,4.530864501953125,0.040848672368051876,0.3046207427843753,0.551567792889021
1684179653035504800,4.5409052734375,0.1394448281027427,0.3585014343997547,0.4653165339237943
1684179653045545600,4.550946044921875,0.1213881672392847,0.5143966673538457,0.30344533936513635
1684179653055586600,4.56098681640625,0.072320505982841,0.5358581544292179,0.20803809183233896
1684179653065627300,4.57102783203125,-0.042119085682905906,0.34230804446810603,0.19434905050351767
1684179653075668100,4.581068603515625,-0.07806806266739166,0.07752990727490809,0.21655702592254744
1684179653085709000,4.591109375,-0.040976218909114,-0.18655776967119556,0.2628781795854465
1684179653095749800,4.601150146484375,0.11834082018681198,-0.47371864316190637,0.2834870814524332
1684179653105790600,4.61119091796875,0.3359360993051288,-1.2311477662619232,0.4766879081056826
1684179653115831200,4.621231689453125,0.7083798645977181,-1.2622079848699235,0.47557091703266513
1684179653125872000,4.6312724609375,1.047660350789451,-0.18383312226566792,0.10408473005051423
1684179653135912900,4.641313232421875,0.7397852541432139,-0.18288326267990282,-0.08394908897578758
1684179653145953600,4.65135400390625,0.35709813223078674,-0.5390768051230973,-0.2532222271297315
1684179653155994600,4.66139501953125,0.17826116093821448,-0.4163112639632812,-0.40822243675668374
1684179653166035400,4.671435791015625,0.20265713328576093,-0.1357641220494806,-0.5105519295773279
1684179653176076200,4.6814765625,0.40169388057263805,0.08024024966751574,-0.3853321076663572
1684179653186117000,4.691517333984375,0.5238510369923896,0.07412433623931142,-0.3512270451001189
1684179653196157900,4.701558349609375,0.5335302948786694,0.013386726470182188,-0.24177074439815988
1684179653206198600,4.71159912109375,0.4492565392783727,0.014875411907689314,-0.13959956172872248
1684179653216239300,4.7216396484375,0.27437931285859096,-0.012208938633586762,-0.06578898426442838
1684179653226280100,4.731680419921875,0.09920617936336293,-0.036325454855826986,0.0006000996429868472
1684179653236320900,4.741721435546875,0.048415526776123166,-0.07157993306296889,0.10837411885589386
1684179653246361800,4.75176220703125,0.25490847219153884,0.16462612145448682,0.2651014327487581
1684179653256402600,4.761802978515625,0.18843536078345527,-0.02865886699733753,0.5212638377000249
1684179653266443400,4.77184375,0.2427440285525337,0.022209167551193343,0.5389909745010295
1684179653276484300,4.781884765625,0.2808275520621983,0.025086402947588137,0.5330119131726162
1684179653286525100,4.791925537109375,0.3547707796653057,0.02791213980169812,0.5202891825856963
1684179653296565900,4.80196630859375,0.3811145425998896,-0.007491111772298594,0.5105602741385038
1684179653306606600,4.8120068359375,0.403685241962185,-0.021293640064548494,0.5136327742289072
1684179653316647300,4.8220478515625,0.35649845022437504,-0.034964561479049465,0.5276188850606188
1684179653326688200,4.832088623046875,0.24802368883986087,0.01607322686559171,0.5197787284351725
1684179653336729000,4.84212939453125,0.18686325848221416,0.10049629201923124,0.5997562408466705
1684179653346769800,4.852170166015625,0.2185826599260305,0.14156150807959877,0.7209603787383062
1684179653356810600,4.862211181640625,0.33990380168411966,0.2919254301816348,0.8817665577438327
1684179653366851600,4.872251953125,0.4303972721785893,0.48901367205725305,1.135717868781493
1684179653376892300,4.882292724609375,0.4478316903041105,0.47265338898428383,1.2724474667056673
1684179653386933200,4.89233349609375,0.43091329923890154,0.41818904885632097,1.373297691498931
1684179653396974000,4.90237451171875,0.3741760849595103,0.38500213618294576,1.4335793256227498
1684179653407014600,4.9124150390625,0.31793475148555456,0.3845224380811253,1.4609204530684488
1684179653417055400,4.922455810546875,0.35180702799980285,0.4540214538879763,1.5244315862681121
1684179653427096200,4.93249658203125,0.38492882242364196,0.5289411545551188,1.5391379595369798
1684179653437137100,4.942537353515625,0.45372921235813235,0.6704368591187417,1.5551325082691851
1684179653447177900,4.952578369140625,0.5577256679645614,0.6843309402958369,1.5015840530714746
1684179653457218700,4.962619140625,0.6484951973436448,0.5914287566149236,1.4921321870319861
1684179653467259600,4.972659912109375,0.8025941848808372,0.5959072112611502,1.4434789418671226
1684179653477300400,4.98270068359375,0.9809824228345786,0.5362482070535638,1.3714183568434328
1684179653487341200,4.99274169921875,1.1921620367596584,0.45595836632035225,1.337872147555686
1684179653497382100,5.002782470703125,1.3406713008206412,0.2867832184145827,1.3337419032695839
1684179653507422900,5.0128232421875,1.48539710047331,0.4233398437697568,1.2336338758550995
1684179653517463700,5.022864013671875,1.6182191372118855,0.750531196735555,0.9878317118193181
1684179653527504300,5.03290478515625,1.5424451829019903,0.9147911071713593,0.84092485906535
1684179653537545100,5.042945556640625,1.2591272592697094,0.9224805832360896,0.815126299964811
1684179653547586000,5.052986328125,0.8426329494887534,0.8563451767098839,0.7025506497351546
1684179653557626800,5.063027099609375,0.29361617566179754,0.7833328248331186,0.5823634863839489
1684179653567667600,5.073068115234375,-0.42339745166652576,0.5624284742533635,0.45467352876763667
1684179653577708500,5.08310888671875,-1.2828232049856285,0.29689311975991317,0.09681248652981833
1684179653587749300,5.093149658203125,-2.0384967326206147,0.04228878019175313,-0.2583497763722814
1684179653597790100,5.1031904296875,-2.8780014515916954,-0.4060173035804687,-0.5346255302768326
1684179653607831000,5.1132314453125,-3.477188825659507,-0.9653549193950958,-0.7960582972164946
1684179653617871600,5.12327197265625,-2.9081456660831186,-1.233753204220314,-0.9478595257258424
1684179653627912400,5.133312744140625,-2.47936224926061,-1.3909511566216328,-1.2093209028655347
1684179653637953200,5.143353515625,-1.9544414281535059,-1.4091243745494393,-1.315521597893676
1684179653647994000,5.15339453125,-1.4800356626413196,-1.2394199372358505,-1.2401295900244138
1684179653658034900,5.163435302734375,-1.2430012225911293,-1.0029163360581697,-0.9621437788173727
1684179653668075600,5.17347607421875,-0.9118746519261943,-0.6672220231041124,-0.6253616214287298
1684179653678116600,5.183516845703125,-0.5995727776747568,-0.45019912719638716,-0.28329050546009926
1684179653688157400,5.193557861328125,-0.40896266698160727,-0.33988761893658004,-0.03062593953287732
1684179653698198200,5.2035986328125,-0.26046299933858247,-0.3529996872534358,0.11727458222632248
1684179653708239000,5.213639404296875,-0.11565268041684747,-0.40600395190866734,0.33839398619299
1684179653718279600,5.223679931640625,0.009670257602675413,-0.48495197290706454,0.6322816013926715
1684179653728320400,5.233720947265625,0.042857527729540275,-0.5519685744118764,0.838813602977832
1684179653738361300,5.24376171875,0.012079537021760746,-0.6599216459844984,0.8170480728163283
1684179653748402100,5.253802490234375,-0.07903069268002219,-0.7922897338676849,0.47066879279034657
1684179653758442900,5.26384326171875,-0.09828269492009385,-0.8278284073277488,0.21212160586812534
1684179653768483800,5.27388427734375,-0.0008929967051690572,-0.8440294265497373,-0.017392978117708718
1684179653778524600,5.283925048828125,0.22213715313101068,-0.9276885987123308,-0.14903596040970757
1684179653788565400,5.2939658203125,0.5371311902832965,-1.021751403802798,-0.16943001755725492
1684179653798606300,5.304006591796875,0.733871340875716,-1.1571416853212826,-0.14204198118785927
1684179653808647100,5.314047607421875,0.9059576988063566,-1.2493171690431508,-0.13218712804126703
1684179653818687600,5.324088134765625,1.112138748297697,-1.1273612975694844,-0.274757146897893
1684179653828728600,5.33412890625,1.3931789399305263,-0.8045282364542254,-0.5975745916272179
1684179653838769300,5.344169677734375,1.6335468292754645,-0.39926910398587334,-0.9097594023671436
1684179653848810200,5.35421044921875,1.7440091370646873,0.03472614286557643,-1.0725010634020393
1684179653858851000,5.36425146484375,1.8439468145022144,0.30296516409938373,-1.1193550823528702
1684179653868891800,5.374292236328125,1.7779182194512126,0.4119586945010133,-1.2005519866330085
1684179653878932600,5.3843330078125,1.5090155600737039,0.4370527267212684,-1.2624479531419008
1684179653888973600,5.394373779296875,1.1470084190244518,0.4341363906766754,-1.2668080329402536
1684179653899014300,5.404414794921875,0.8803014754619453,0.40154170990757776,-1.1022160052732142
1684179653909055200,5.41445556640625,0.7679249048624025,0.3153810502008782,-0.8561043738413947
1684179653919095600,5.42449609375,0.9204038379917462,0.2426576615558109,-0.8865305183974366
1684179653929136600,5.434536865234375,1.2550386189838254,0.23782157916554295,-1.0016884804323904
1684179653939177400,5.444577880859375,1.6068632602440953,0.24940681464851489,-1.0162187815791475
1684179653949218200,5.45461865234375,2.0299932955430675,0.23488235464493026,-0.885536909070067
1684179653959259100,5.464659423828125,2.3239276407763962,0.30557727818902936,-0.6644536255993153
1684179653969299900,5.4747001953125,2.296485900877799,0.37597179409335285,-0.5990395547603381
1684179653979340600,5.4847412109375,2.011586427701491,0.4263267518097786,-0.7689044476576894
1684179653989381600,5.494781982421875,1.5691819191563676,0.5006179811214702,-1.0272228718071392
1684179653999422400,5.50482275390625,0.967612385603606,0.49942111973537956,-1.1467702388805905
1684179654009463200,5.514863525390625,0.31168937689455284,0.4721403123017864,-1.1290488241628758
1684179654019503800,5.524904296875,-0.18063306817017344,0.3994293212849335,-1.1017141340690029
1684179654029544600,5.534945068359375,-0.43084764477637466,0.3243751527514526,-1.1361805201190147
1684179654039585500,5.54498583984375,-0.47690916062642813,0.25705623624581536,-1.180493950834353
1684179654049626300,5.555026611328125,-0.3169398307905276,0.21966838828999588,-1.2804994582806357
1684179654059667100,5.565067626953125,-0.21631956100673103,0.17456531519630905,-1.4385396241855
1684179654069708000,5.5751083984375,-0.11875534045445629,0.2463312150205679,-1.554186940181962
1684179654079748800,5.585149169921875,-0.08402919770707226,0.3393898011415491,-1.6454716919913024
1684179654089789600,5.59518994140625,-0.05892395970766211,0.4298620223904929,-1.6540049312729805
1684179654099830400,5.60523095703125,0.007363796283798953,0.47727012624751863,-1.5939778089766272
1684179654109871300,5.615271728515625,0.09388637551139886,0.43890380862041173,-1.4801437855880315
1684179654119912100,5.6253125,0.26528024680858986,0.3605136870382787,-1.3238173721987225
1684179654129952900,5.635353271484375,0.4592390059313624,0.2684946060185664,-1.1563045978639432
1684179654139993600,5.645393798828125,0.6401274203571087,0.22237205505374277,-1.0051578282041593
1684179654150034400,5.655434814453125,0.7533574105242694,0.18125152600183445,-0.8624442815741798
1684179654160075200,5.6654755859375,0.8140068054407303,0.16868305214519275,-0.7556608915785935
1684179654170116000,5.675516357421875,0.8654787541980522,0.17244434360906533,-0.6336184739615737
1684179654180156800,5.68555712890625,0.89541769038741,0.13043785100933097,-0.5217725038476577
1684179654190197600,5.69559814453125,0.9550018311395183,0.08854866022333784,-0.4077327250971852
1684179654200238600,5.705638916015625,0.9493584631448504,0.09031391153560457,-0.31538760659917364
1684179654210279300,5.7156796875,0.9533917902558076,0.13628768929522853,-0.2669818402394435
1684179654220320200,5.725720458984375,0.9136860371528769,0.1623086928142456,-0.17502498626184634
1684179654230361000,5.735761474609375,0.8540210724713825,0.20450210579211356,-0.1316318511713371
1684179654240401600,5.745802001953125,0.8036785125044632,0.25555038440482364,-0.11809098720886275
1684179654250442400,5.7558427734375,0.7348959446080243,0.3199834823824957,-0.14203917986745168
1684179654260483200,5.765883544921875,0.6942539214198987,0.3735227585469171,-0.21068429948670836
1684179654270524100,5.775924560546875,0.6514582634563767,0.3800945280685609,-0.26416516305747745
1684179654280564900,5.78596533203125,0.5853228568062561,0.38747024534427826,-0.3287847042361558
1684179654290605700,5.796006103515625,0.5366458892551471,0.38126564014247055,-0.36632180213771276
1684179654300646600,5.806046875,0.47897839548899845,0.385321617246402,-0.44998395440934624
1684179654310687400,5.816087890625,0.36944627764979415,0.4066314696454591,-0.5166262387381295
1684179654320728200,5.826128662109375,0.2685830594175469,0.4067335130129635,-0.542595148120779
1684179654330769100,5.83616943359375,0.14400339122262318,0.44983100878392007,-0.5782772302953876
1684179654340809900,5.846210205078125,0.04197978976098737,0.45199489593745873,-0.5856426953885285
1684179654350850600,5.8562509765625,-0.010637044759375625,0.42271518699251487,-0.5984802246782338
1684179654360891300,5.866291748046875,-0.04269075400061795,0.33104610457308276,-0.6812586784800828
1684179654370932100,5.87633251953125,-0.0928435324711007,0.22494602195933153,-0.766135692594696
1684179654380973000,5.886373291015625,-0.08987474444149807,0.23779106152934712,-0.8693936466399785
1684179654391013800,5.896414306640625,-0.0019514560571597883,0.13084888455786334,-0.7943291068095718
1684179654401054600,5.906455078125,0.14978051183106045,0.03698635096994506,-0.6145529747677573
1684179654411095600,5.916495849609375,0.2491276264408217,-0.019143104653092716,-0.6732376814258166
1684179654421136300,5.92653662109375,0.19609212884094815,0.02436637877311249,-0.8407734633162742
1684179654431177100,5.93657763671875,0.021040916393105926,0.02567195889923114,-1.0690168141498897
1684179654441218000,5.946618408203125,-0.19788551341141836,0.020033836479264055,-1.2218545673878518
1684179654451258600,5.956658935546875,-0.4024708270700641,0.01680469510715388,-1.187438487877303
1684179654461299400,5.96669970703125,-0.598471879992986,0.17333602894002534,-1.022745966956644
1684179654471340200,5.97674072265625,-0.7036850451902995,0.5270023346051979,-0.7600577473349075
1684179654481381000,5.986781494140625,-0.7070648669513754,0.8145627975450452,-0.44703501470791746
1684179654491421900,5.996822265625,-0.5577886104929828,0.8692989349066593,-0.12049746524221572
1684179654501462600,6.006863037109375,-0.4336540699836768,0.8353261947125262,0.10677397257659645
1684179654511503600,6.016904052734375,-0.30856943144773785,0.7106857299185158,0.26692301050951645
1684179654521544400,6.02694482421875,-0.18718433385331032,0.603159904517606,0.38495826724858706
1684179654531585200,6.036985595703125,-0.0027320384070240616,0.4649868010722634,0.37476420397737614
1684179654541626000,6.0470263671875,0.208042621589837,0.3512983321945832,0.3209130764359656
1684179654551666600,6.05706689453125,0.5178207160074876,0.2335920335060118,0.2531678676433159
1684179654561707400,6.06710791015625,0.7911374569982708,0.15269470216927472,0.1632563472438846
1684179654571748300,6.077148681640625,1.0412415264238957,0.0012474060024267421,0.07295066125752193
1684179654581789100,6.087189453125,1.3055458069967494,-0.32552051549074135,-0.14933091400432882
1684179654591829900,6.097230224609375,1.4689844846146047,-0.6982049941391651,-0.4130374193474503
1684179654601870800,6.107271240234375,1.6269416808005754,-1.0449132919231803,-0.6459363699272994
1684179654611911600,6.11731201171875,1.6422967910255204,-1.1861906050980116,-0.703256964736789
1684179654621952400,6.127352783203125,1.5876621008064757,-1.330018997153253,-0.8323674201651063
1684179654631993300,6.1373935546875,1.4675546885187167,-1.4359035492028847,-0.9720605610589333
1684179654642034100,6.1474345703125,1.1073300838864124,-1.8122138977270517,-0.9522441625981675
1684179654652074900,6.157475341796875,0.15369534488933212,-2.1315002442427335,-0.8650999068993809
1684179654662115800,6.16751611328125,-1.8447268008197983,-2.0706586837323053,-0.48751568793971417
1684179654672156600,6.177556884765625,-4.655274391164683,-1.5619325638447576,0.1289314031891147
1684179654682197400,6.187597900390625,-6.1863594055608395,-0.9145097731778495,0.5267848968351628
1684179654692238000,6.197638427734375,-5.0868334770725605,-0.2768640518017858,0.13616359231150477
1684179654702278800,6.20767919921875,-3.1956715583852144,0.13970470436448737,-0.7060699462588609
1684179654712319600,6.217719970703125,-1.455675244352946,0.4286127090261597,-1.2108694314070805
1684179654722360600,6.227760986328125,-0.14386796951248937,0.6427078247000745,-1.5483863354766128
1684179654732401300,6.2378017578125,0.7974295019344316,0.7358369825755116,-1.947490334374916
1684179654742442200,6.247842529296875,1.204320192349449,0.7611808777509064,-2.417033672380598
1684179654752483000,6.25788330078125,1.220701336742302,0.7281007767473431,-2.745924234388591
1684179654762523800,6.26792431640625,0.8899129032616455,0.7219772338721905,-2.738524198475173
1684179654772564600,6.277965087890625,0.3279377222995463,0.7800703049215095,-2.2000575066178647
1684179654782605600,6.288005859375,-0.23961782471664653,0.7224569321968701,-1.4101861715436186
1684179654792646300,6.298046630859375,-0.42421472085481265,0.49184989921424427,-0.79382455363327
1684179654802686900,6.30808740234375,-0.19243693338376638,0.19124794008199517,-0.5143662689562687
1684179654812727600,6.318128173828125,0.3773894309839408,0.007270812977837194,-0.4203611611581152
1684179654822768600,6.3281689453125,1.0156552791637474,-0.03124332424734702,-0.37260282050201005
1684179654832809400,6.338209716796875,1.5792874097407696,0.009140014692264152,-0.33350706103778693
1684179654842850200,6.348250732421875,1.9712780713491462,0.06442451490352452,-0.29942798617961813
1684179654852891100,6.35829150390625,2.1292583941504666,-0.01301670072138098,-0.2997376918151627
1684179654862931900,6.368332275390625,2.0847988128428385,-0.11039924633334511,-0.34608113778726385
1684179654872972600,6.378373046875,1.9731965066466912,-0.1823034285559453,-0.33758413789659625
1684179654883013600,6.3884140625,1.7470824719127707,-0.2192764282020801,-0.25115013125834396
1684179654893054400,6.398454833984375,1.4952505828064637,-0.18111324321667563,-0.22834444038127016
1684179654903095200,6.40849560546875,1.2336541412742157,-0.12105274191271843,-0.1708209514463293
1684179654913135800,6.4185361328125,1.0038970708283705,0.0702075956604849,-0.1588548422172449
1684179654923176600,6.428576904296875,0.7920000554617233,0.32270812986310676,-0.12682712064932447
1684179654933217500,6.438617919921875,0.5881500839703847,0.5572719573775544,-0.1648052931082093
1684179654943258300,6.44865869140625,0.3937416972357462,0.797769546535768,-0.2221510410790327
1684179654953299100,6.458699462890625,0.27651950715191836,0.9080333709219928,-0.4655562638463619
1684179654963340000,6.468740234375,0.29188472026587725,0.8570623398090662,-0.7827304602525021
1684179654973380800,6.47878125,0.41706264018625916,0.6330327987102748,-0.9306344986100541
1684179654983421600,6.488822021484375,0.6839938758039034,0.2052288055548955,-1.057219743823395
1684179654993462400,6.49886279296875,1.0539808272198783,-0.1894426345491392,-1.0739010572694034
1684179655003503300,6.508903564453125,1.452954173079112,-0.4027767181180697,-0.9577860832303091
1684179655013544100,6.518944580078125,1.819463253033112,-0.4848537445161751,-0.8185935021216372
1684179655023584600,6.528985107421875,2.1412281991042703,-0.4257535935479976,-0.5632086992716951
1684179655033625600,6.53902587890625,2.356445074059134,-0.33504104615010455,-0.3133521080246092
1684179655043666400,6.549066650390625,2.4831447601320114,-0.2648887634006753,-0.1274827718306577
1684179655053707200,6.559107666015625,2.502561569243131,-0.25798606862215295,0.046464443362660784
1684179655063748000,6.5691484375,2.394908428318238,-0.330968856717517,0.18029069896188682
1684179655073788800,6.579189208984375,2.1054899691868765,-0.42424201978682996,0.2154959440665701
1684179655083829600,6.58922998046875,1.7419877050546047,-0.14911651604512824,0.3244744539138864
1684179655093870600,6.59927099609375,1.2858209611057476,-0.12585830698513628,0.3598648308465382
1684179655103911300,6.609311767578125,0.7139084936741887,-0.31610870376143785,0.4659675358085581
1684179655113952200,6.6193525390625,0.14333683259921226,-0.3991756438978727,0.6972900629721143
1684179655123993000,6.629393310546875,-0.31159004561111336,-0.45101833355672377,0.8434445857770299
1684179655134033600,6.63943408203125,-0.5362704992398855,-0.3921699524163416,0.8750693799656161
1684179655144074400,6.649474853515625,-0.5857411623905807,-0.15823745721764523,0.694737434362637
1684179655154115200,6.659515625,-0.4429773091814055,0.09966945639464239,0.360046744486449
1684179655164156100,6.669556396484375,-0.14227381346451057,0.41927814470298447,-0.054245233631849285
1684179655174196900,6.679597412109375,0.17411993440498647,0.7116250992732465,-0.44743752472978743
1684179655184237700,6.68963818359375,0.4280382096958024,0.8593511580580613,-0.8029725552155613
1684179655194278600,6.699678955078125,0.5702426432580481,0.8053655624447191,-1.0270268917176373
1684179655204319400,6.7097197265625,0.6130951048030256,0.566960334821815,-1.141811132427759
1684179655214360200,6.7197607421875,0.6218609214070274,0.35700321207803676,-1.2901562452866728
1684179655224401100,6.729801513671875,0.6061836481924016,0.13940238949891906,-1.3037925958722973
1684179655234441900,6.73984228515625,0.5849739312937496,0.011981963935616038,-1.2351291179408057
1684179655244482700,6.749883056640625,0.5984565615086895,-0.1281213758561621,-1.017991661854916
1684179655254523600,6.759924072265625,0.5889503956378652,-0.20189857483824314,-0.730294227603431
1684179655264564400,6.76996484375,0.5973724721870584,-0.29079341906617895,-0.5224239826383167
1684179655274605000,6.78000537109375,0.5901737213642919,-0.3401737213090543,-0.35454320891056973
1684179655284645800,6.790046142578125,0.5837088823014899,-0.4783563614034859,0.07506668561026036
1684179655294686600,6.800087158203125,0.5063309669730984,-0.5613708496341383,0.3836843967841931
1684179655304727600,6.8101279296875,0.4186105431826708,-0.5441493986187428,0.5557546615533292
1684179655314768300,6.820168701171875,0.3222488761415859,-0.5391731261998124,0.8376690149715051
1684179655324809100,6.83020947265625,0.24216125905683542,-0.5221014023445673,1.084031820150333
1684179655334850000,6.84025048828125,0.1577246486625893,-0.44247245797710233,1.2410786151013926
1684179655344890800,6.850291259765625,0.07648858431559767,-0.3481340408092266,1.3089400529576758
1684179655354931600,6.86033203125,0.0006967484726664155,-0.29179000848903097,1.3315482139694241
1684179655364972500,6.870372802734375,-0.07220411307357945,-0.25208854675762216,1.343574285596902
1684179655375013300,6.88041357421875,-0.16052618628917006,-0.2648811341203408,1.3765524626048968
1684179655385054100,6.89045458984375,-0.21146488199771726,-0.25118350994300154,1.3278877735318764
1684179655395094600,6.9004951171875,-0.2050611972710661,-0.24943351759126342,1.265704154902966
1684179655405135600,6.910535888671875,-0.0788471103668594,-0.3290452957168625,1.2148061990796704
1684179655415176400,6.92057666015625,0.1510822624027582,-0.4731750489645037,1.1464213134097336
1684179655425217200,6.93061767578125,0.4905360340607886,-0.5934133530208043,1.1868494749409477
1684179655435258000,6.940658447265625,0.8165113330913093,-0.620543479890901,1.2273590563951198
1684179655445298900,6.95069921875,1.1291862725993107,-0.6191244126643312,1.3144292832157944
1684179655455339600,6.960739990234375,1.3642015458209333,-0.6151313780377857,1.39380168907582
1684179655465380600,6.970781005859375,1.4819773434382808,-0.7273645400668317,1.5016304254653488
1684179655475421400,6.98082177734375,1.5446937084611208,-0.8856353759187698,1.583408594168239
1684179655485462200,6.990862548828125,1.489560961705596,-0.9560546875918484,1.4844574929190117
1684179655495503000,7.0009033203125,1.4001939296591404,-0.9403715134231325,1.62268829337893
1684179655505543900,7.0109443359375,1.300538301507169,-0.703987121624576,1.7619990111384678
1684179655515584400,7.02098486328125,1.1504901646361982,-0.38097858426887404,1.703308463166748
1684179655525625300,7.031025634765625,0.9896786810187761,-0.00803279871930886,1.468315362990585
1684179655535666100,7.04106640625,0.8320105671954527,0.26795959479706744,1.1710196732770413
1684179655545706900,7.051107421875,0.6674008369029555,0.4056425095329375,0.8676218986704072
1684179655555747800,7.061148193359375,0.5331479906771635,0.4069538116596598,0.5539283751658571
1684179655565788600,7.07118896484375,0.39109563828135635,0.4414529798985301,0.3125391004924301
1684179655575829400,7.081229736328125,0.30570438491983537,0.5160026551543616,-0.06792855263428185
1684179655585870300,7.091270751953125,0.15175244216516648,0.5229282378930044,-0.5191602707370516
1684179655595911100,7.1013115234375,-0.026443362346717007,0.47886943820902916,-1.046670913679272
1684179655605951900,7.111352294921875,-0.25136598931412796,0.4194278718046242,-1.4769963026898976
1684179655615992800,7.12139306640625,-0.3698605596113767,0.2942113875837692,-1.8932667969383117
1684179655626033600,7.13143408203125,-0.43059992802350805,0.15324497211835542,-2.3330087661877292
1684179655636074200,7.141474609375,-0.33291122324940986,0.0724868773885932,-2.763352870819511
1684179655646115000,7.151515380859375,-0.09526714675243958,-0.011112213088167493,-3.331633806167997
1684179655656155800,7.16155615234375,0.25994572030439955,0.004202842631131859,-3.8570113182652728
1684179655666196600,7.17159716796875,0.5760548114001132,0.10821723928611038,-4.094361305105755
1684179655676237600,7.181637939453125,0.7537066341380214,0.2490139008517695,-3.9640967846851445
1684179655686278300,7.1916787109375,0.8466501235325643,0.37357711788368075,-3.467135667887114
1684179655696319200,7.201719482421875,0.8562647102868635,0.41493415841701,-2.9769108297219824
1684179655706360000,7.211760498046875,0.7230999470797439,0.4682826996553237,-2.432761430677729
1684179655716400800,7.22180126953125,0.46524834630841666,0.43670845031940925,-2.056428909369931
1684179655726441600,7.231842041015625,0.07865744832896486,0.43693447115148193,-1.7967104912285599
1684179655736482600,7.2418828125,-0.3750426770045557,0.5929870607258755,-1.8146138192458234
1684179655746523300,7.251923828125,-0.8589563368326076,0.778018951454282,-1.7486767769698566
1684179655756564100,7.261964599609375,-1.0972117185656431,0.9675865173847663,-1.5153625010740608
1684179655766605000,7.27200537109375,-0.9683653711495994,1.1309614181425613,-1.2776651382112993
1684179655776645800,7.282046142578125,-0.5387780071900059,1.1635236739289065,-1.1641976831707623
1684179655786686400,7.292086669921875,0.019997656338655193,1.1568078993374922,-0.9778976438712399
1684179655796727200,7.302127685546875,0.5996490119372827,1.0972309112290604,-0.7465999126466337
1684179655806768000,7.31216845703125,1.1122460366220692,0.954826354928373,-0.5076849460938913
1684179655816808900,7.322209228515625,1.4720528125019923,0.7209634782475216,-0.4495809076896845
1684179655826849600,7.33225,1.6265199184425574,0.36016368852179886,-0.5122435091994658
1684179655836890600,7.342291015625,1.6000096797735552,-0.25184154507342765,-0.7328238487366582
1684179655846931400,7.352331787109375,1.3876817225202651,-0.9736642837224114,-0.8208873272924397
1684179655856972200,7.36237255859375,0.8413117528335461,-1.580551147531981,-0.8505163193359573
1684179655867013000,7.372413330078125,-0.09116613875343046,-1.7223310471497446,-0.39808750150774974
1684179655877053900,7.382454345703125,-0.9868780969641707,-1.1745595933824655,0.9061975478162246
1684179655887094600,7.3924951171875,-1.6062496901487913,-0.767833709583745,2.1342964172005927
1684179655897135600,7.402535888671875,-1.7543680667023567,-0.6271286010831091,2.9581465720412092
1684179655907176400,7.41257666015625,-1.5639991760342515,-0.392712593006964,3.1801531314830775
1684179655917216900,7.422617431640625,-1.2366092204806967,0.08280944827360819,2.798116683843444
1684179655927257800,7.432658203125,-0.9894040821760403,0.47095775598077266,2.1818203925575377
1684179655937298600,7.442698974609375,-0.9559175968498484,0.5708589552871624,1.4353511333462057
1684179655947339400,7.45273974609375,-1.2529306411963548,0.6312761307296586,0.3092212675524868
1684179655957380300,7.46278076171875,-1.7630652190341645,0.8308973311614545,-0.9147567748961712
1684179655967421100,7.472821533203125,-1.6407076120726596,0.9857110976182871,-1.9538037776706694
1684179655977461900,7.4828623046875,-0.7822953462851392,1.140637397789884,-2.3896434307572196
1684179655987502800,7.492903076171875,0.3206391333931174,1.1151342393487207,-2.247845649615865
1684179655997543600,7.502944091796875,1.1605784893508786,0.7543849945643615,-1.9665501117462718
1684179656007584400,7.51298486328125,1.6627832651140408,0.2475690841590484,-1.7548768520846083
1684179656017625300,7.523025634765625,1.8837831021068434,-0.20950222011957842,-1.7083144187494628
1684179656027666100,7.53306640625,2.053650140679346,-0.577173233011763,-1.6595599651619033
1684179656037706900,7.543107421875,2.1433820725986,-0.7547845841156743,-1.5364243985289554
1684179656047747600,7.55314794921875,2.1059069633475143,-0.6806268691687998,-1.2259690762328388
1684179656057788300,7.563188720703125,1.9215962888019509,-0.41646480552216997,-0.7955362795906193
1684179656067829200,7.5732294921875,1.5596886871477158,-0.23682975777184617,-0.3840806484796157
1684179656077870000,7.5832705078125,0.8626930713766037,-0.25553035740738805,0.24887299540541474
1684179656087910800,7.593311279296875,-0.32617914665151143,-0.4218568803552585,0.9595160484395244
1684179656097951600,7.60335205078125,-2.3193421364122275,-0.8718643187809765,1.835342049739287
1684179656107992600,7.613392822265625,-5.2575330733350665,-1.4503784180138377,2.6796681881602487
1684179656118033300,7.623433837890625,-6.39274406441081,-1.5958852768608822,2.6594843862679403
1684179656128074200,7.633474609375,-5.319668769727186,-1.4328422546077193,2.041558265564693
1684179656138115000,7.643515380859375,-3.794381141624626,-1.2730779648958865,1.4746134279781458
1684179656148155800,7.65355615234375,-2.236722469505628,-1.0056228637904443,0.9448050259269183
1684179656158196600,7.66359716796875,-0.9781327246425905,-0.6950902937302181,0.3568830489344595
1684179656168237600,7.673637939453125,-0.1567951440266383,-0.4179248809093953,-0.2873690127858676
1684179656178278100,7.683678466796875,0.2520657777779562,-0.29816722865484585,-0.9840381145073148
1684179656188318900,7.69371923828125,0.40413689619124377,-0.3023681641245823,-1.3832175730541292
1684179656198359700,7.703760009765625,0.3966376782188878,-0.20750141142714215,-1.498649597263331
1684179656208400600,7.713801025390625,-0.007051587258731324,-0.20550632469251687,-1.3054153920191636
1684179656218441400,7.723841796875,-0.7820516824821373,-0.2387485503806194,-0.8188853263728816
1684179656228482200,7.733882568359375,-1.6422607899092176,-0.25925922383626937,-0.32542872440152426
1684179656238523100,7.74392333984375,-2.218296050896057,-0.17407226549078308,-0.01024317744577205
1684179656248563900,7.75396435546875,-1.9251178504632305,0.033716201780459476,0.16065406797392584
1684179656258604600,7.764005126953125,-0.8766417503562636,0.27703189845465725,0.046287536687431095
1684179656268645600,7.7740458984375,0.11956143376836972,0.48133564007965224,-0.1249012948153717
1684179656278686400,7.784086669921875,0.7712899445110221,0.6126575468998521,-0.26076006879942665
1684179656288727200,7.794127685546875,1.1325713396807653,0.7174377440466706,-0.4789986610513426
1684179656298768000,7.80416845703125,1.2203272581518774,0.9077901840156843,-0.827072143612437
1684179656308808900,7.814209228515625,1.1959751844776216,1.2090511321463344,-1.2230045794991953
1684179656318849600,7.82425,1.1155390739841824,1.350738048378698,-1.3361327648282475
1684179656328890600,7.834291015625,0.9111214874731032,1.3521738053819883,-1.1985342503062737
1684179656338931400,7.844331787109375,0.6956117153174722,1.2659606933826302,-0.7264509199234372
1684179656348972000,7.854372314453125,0.4861347676249397,0.9987487793228489,0.018575906622872
1684179656359012800,7.8644130859375,0.18640565878898777,0.5908498763361218,1.0109786986291527
1684179656369053600,7.8744541015625,-0.30496382702180985,0.09693908691656082,2.0224459169847275
1684179656379094400,7.884494873046875,-0.7220191955809288,-0.256089210444341,2.8719849585332864
1684179656389135300,7.89453564453125,-0.9110391140141497,-0.4607410430260739,3.3941297531229284
1684179656399176100,7.904576416015625,-0.6077821254336002,-0.37254619602977646,3.4960873126332395
1684179656409216900,7.914617431640625,-0.086594819971606,-0.28020668042431496,3.3362207414281624
1684179656419257800,7.924658203125,0.59681463257347,-0.1473884583109597,3.0473930833928504
1684179656429298600,7.934698974609375,1.2162870168405209,-0.04060554505934523,2.859151840248685
1684179656439339400,7.94473974609375,1.6839908362183205,0.04034328453366187,2.703802347168001
1684179656449380300,7.95478076171875,1.8555722235916128,0.15768146519531442,2.6112587450322176
1684179656459421100,7.964821533203125,1.7923557758509663,0.22760105148192472,2.6715216637294414
1684179656469461900,7.9748623046875,1.4409079551801116,0.46259593952414946,2.6254997254595103
1684179656479502800,7.984903076171875,0.8812391758043869,0.8026399611552284,2.0396258832080973
1684179656489543300,7.99494384765625,0.12125754351672349,0.8985538482118981,1.25623440747843
1684179656499584200,8.004984619140625,-0.7118413448313191,0.8540763853379428,0.48631405834196756
1684179656509625000,8.015025390625,-1.468494415197919,0.7837123870730486,-0.14792966846334232
1684179656519665800,8.025066162109376,-2.0552713871808184,0.7090282440578193,-0.4404358862797078
1684179656529706600,8.035107177734375,-2.361013412374828,0.602694511401006,-0.574452161643518
1684179656539747600,8.04514794921875,-2.2905981542364926,0.3295660018651424,-0.4650039673588234
1684179656549788300,8.055188720703125,-1.8382105828205946,-0.054688453761022424,-0.25751066195234396
1684179656559829200,8.0652294921875,-1.1779482363897145,-0.2753906249261745,-0.020133495336099563
1684179656569870000,8.0752705078125,-0.5775640011599296,-0.39143562328661374,0.27195286755409415
1684179656579910800,8.085311279296874,-0.20337343226799603,-0.5048913956070106,0.5506863593614525
1684179656589951600,8.09535205078125,-0.1429231166350045,-0.5392398833851091,0.7877364158263686
1684179656599992600,8.105392822265625,-0.2829830646242203,-0.4455451966383168,0.9139323235614962
1684179656610033300,8.115433837890626,-0.5171394347815557,-0.3015775680562248,1.0183014869131084
1684179656620074200,8.125474609375,-0.7792882918812631,-0.24835777280670698,1.162854432947469
1684179656630115000,8.135515380859376,-0.9781875609980801,-0.14915657035614818,1.1203346253417021
1684179656640155600,8.145555908203125,-1.1012935638102286,-0.10166740409813238,0.9927043914414194
1684179656650196400,8.1555966796875,-1.168369889392427,-0.155900955171821,0.8259003163595098
1684179656660237200,8.1656376953125,-1.2340400219137129,-0.13533687585903653,0.55890226362607
1684179656670278100,8.175678466796874,-1.1134594679348815,-0.06884002700888507,0.5139522552777347
1684179656680318900,8.18571923828125,-0.8205531834383737,0.03901576986091331,0.4422371388058777
1684179656690359600,8.195760009765625,-0.46251463884935057,0.16251468664198082,0.4852392672755021
1684179656700400600,8.205801025390626,-0.27298343189252716,0.23515510549914184,0.3893558979952495
1684179656710441400,8.215841796875,-0.23009288313174886,0.33777046204733485,0.24317669885459434
1684179656720482200,8.225882568359374,-0.29592037202005045,0.3785982132370632,0.025573491881825186
1684179656730523100,8.23592333984375,-0.29852640626080834,0.2786636353112073,-0.08307361594848256
1684179656740563900,8.24596435546875,-0.08225107194095488,0.3039655685396862,-0.02485108379010271
1684179656750604600,8.256005126953125,0.2621142865232039,0.4355916975964631,-0.21729373919998166
1684179656760645600,8.2660458984375,0.5398339033395485,0.5778131485199705,-0.339711189217553
1684179656770686400,8.276086669921876,0.6021497845418815,0.7327880859149406,-0.4740476607404458
1684179656780727200,8.286127685546875,0.5804548264640012,0.8644533157580253,-0.5553052424593623
1684179656790768000,8.29616845703125,0.49457836159647844,0.9702644349403555,-0.6695537567385541
1684179656800808900,8.306209228515625,0.34917521471201657,1.1048212052885316,-0.7858250140985489
1684179656810849600,8.31625,0.29497647293245577,1.124680042177169,-0.7857019900831569
1684179656820890600,8.326291015625,0.27187693110801947,1.0639882086500672,-0.6691524983396085
1684179656830931100,8.33633154296875,0.3164492846317663,0.9374532700300291,-0.5089406967462698
1684179656840972000,8.346372314453125,0.3210176823886147,0.7856435777062946,-0.36917328841506986
1684179656851012800,8.3564130859375,0.34774065029006956,0.6373634338077666,-0.2023015022885369
1684179656861053600,8.3664541015625,0.3369531632063014,0.5191898346864378,-0.023692369570264653
1684179656871094400,8.376494873046875,0.36493879556546477,0.5434741974176371,0.051429986885787614
1684179656881135300,8.38653564453125,0.38255172977180313,0.7146701812232825,-0.045844554726124614
1684179656891176100,8.396576416015625,0.4003982842853083,0.8122835159293363,-0.3257422448228317
1684179656901216900,8.406617431640624,0.37224301713349367,0.7474384307060914,-0.8001775741710454
1684179656911257800,8.416658203125,0.258999317725739,0.5437927245609813,-1.4763736724553758
1684179656921298600,8.426698974609375,-0.00040626521898405474,0.28672504416715283,-2.315078258487783
1684179656931339400,8.43673974609375,-0.3607641459314373,-0.03225803379466992,-3.2040421962052994
1684179656941380300,8.44678076171875,-0.8453488946274874,-0.1947565078157135,-3.828790187867185
1684179656951421100,8.456821533203126,-1.299194574308322,-0.1783428192920318,-4.1349859237514694
1684179656961461900,8.4668623046875,-1.5847378969182946,-0.12300300603743185,-3.85115671169079
1684179656971502800,8.476903076171874,-1.4257522820641042,-0.07416725168593233,-3.293945074069569
1684179656981543600,8.486944091796875,-0.9444673657395667,-0.034625053428293716,-2.6482422352979897
1684179656991584400,8.49698486328125,-0.42942491179876047,-0.034622192431307555,-2.097194671641489
1684179657001625000,8.507025390625,-0.009229987721470791,-0.06479740145289054,-1.6676361562582214
1684179657011665800,8.517066162109375,0.2631609737119039,-0.22114658353757097,-1.4360091686146341
1684179657021706600,8.527107177734376,0.40342897186056914,-0.5661401748327604,-1.3494234086289427
1684179657031747600,8.53714794921875,0.5128627419278476,-1.0576467513203502,-1.5110120773461149
1684179657041788300,8.547188720703126,0.5279545782856653,-1.6487178802260807,-1.5849244595739596
1684179657051829200,8.5572294921875,0.37593308096703965,-2.250762939411351,-1.4547426700300836
1684179657061870000,8.5672705078125,0.15343727156397405,-2.5690813063867135,-0.9760355949311702
1684179657071910800,8.577311279296875,-0.3493961393605937,-2.1946897506231693,0.3217134474737116
1684179657081951600,8.58735205078125,-0.8838801385658197,-1.5598411558804601,1.6007043123069076
1684179657091992600,8.597392822265626,-1.2233281136739775,-0.9911499022663384,2.377602100411981
1684179657102033300,8.607433837890625,-1.2490866184395653,-0.6536340713481497,2.5187363625471413
1684179657112074200,8.617474609375,-1.206929206857555,-0.5547609329694763,2.3555481433631926
1684179657122115000,8.627515380859375,-1.1390964984604366,-0.4626359939322857,2.0499858854958526
1684179657132155800,8.63755615234375,-1.00330257425976,-0.37730216978237874,1.7267490626526705
1684179657142196600,8.64759716796875,-0.9207599162331704,-0.35354709626308756,1.3543419839111712
1684179657152237600,8.657637939453124,-0.8828523158813083,-0.231315612903069,0.9665434359811271
1684179657162278300,8.6676787109375,-0.9611032009581731,-0.0702972413078731,0.6652302740941278
1684179657172318900,8.67771923828125,-1.1128859520259795,-0.009441375667129964,0.32938504220613346
1684179657182359700,8.687760009765626,-1.3100458383055686,-0.11148548126226923,-0.1242454051358994
1684179657192400600,8.697801025390625,-1.5343587396722203,-0.3094873427918025,-0.3960545062524808
1684179657202441400,8.707841796875,-1.6856472491667007,-0.18937873841450645,-0.4983632563515685
1684179657212482200,8.717882568359375,-1.5063527822348224,0.1543588637147547,-0.5493471623855108
1684179657222523100,8.72792333984375,-0.9057226179623078,0.7478094100872374,-0.9936373235307822
1684179657232563900,8.73796435546875,-0.29849788549622264,1.2174482346671323,-1.7726252078736269
1684179657242604600,8.748005126953124,0.25340732945081423,1.400406360575959,-2.2323217392510877
1684179657252645600,8.7580458984375,0.6111822726025997,1.4396228789746266,-2.1007897853779887
1684179657262686400,8.768086669921875,0.6903929114651146,1.4796261786612008,-1.5388567447010233
1684179657272727200,8.778127685546876,0.8243293165432001,1.2140741348735655,-0.7740321157839213
1684179657282768000,8.78816845703125,0.9251847266924625,0.731035232611029,-0.25315999982430354
1684179657292808900,8.798209228515624,0.9648782013011558,0.42833805094859245,-0.021032094987570367
1684179657302849600,8.80825,1.0414974689667567,0.31503391275389914,0.023947000574222277
1684179657312890600,8.818291015625,1.1875674725625331,0.277931213403917,0.039239883543084615
1684179657322931400,8.828331787109375,1.307758331257525,0.21844005589346566,0.16260933895219248
1684179657332972200,8.83837255859375,1.3865078687478871,0.10767364492350956,0.40641450867399015
1684179657343013000,8.848413330078126,1.4263557196829417,-0.04950523371070295,0.67707347854756
1684179657353053900,8.858454345703125,1.4594147205636294,-0.1354532241214632,0.9847030639108857
1684179657363094600,8.8684951171875,1.4660085440486113,-0.1398782730364178,1.3072808981812716
1684179657373135600,8.878535888671875,1.3872358797737538,-0.14088439956588733,1.5871359111261505
1684179657383176400,8.88857666015625,1.2162618637016955,-0.13368511206121783,1.6284910441479679
1684179657393216900,8.898617431640625,1.0077613592649113,-0.11177349083854321,1.6344002484434066
1684179657403257800,8.908658203125,0.8303228617844852,-0.12108230576432982,1.6518886089027591
1684179657413298600,8.918698974609375,0.6483284830882428,-0.18507480613831762,1.7660130263251443
1684179657423339400,8.92873974609375,0.4866333903373551,-0.31477165205538377,1.9170629977629265
1684179657433380300,8.93878076171875,0.31267836685071804,-0.5167541502663151,2.01558017719944
1684179657443421100,8.948821533203125,0.2061071991513497,-0.750247955402273,2.061900615653435
1684179657453461900,8.9588623046875,0.1076672970281386,-0.8483667373059853,2.0454077721389545
1684179657463502800,8.968903076171875,0.08451542270748758,-0.9211902617074569,2.0520539284930512
1684179657473543600,8.978944091796874,0.09838277101193504,-0.9349966049046676,2.133417129517722
1684179657483584400,8.98898486328125,0.15107250212899673,-0.9043426514596454,2.0292501449110447
1684179657493625300,8.999025634765625,0.2124325931321669,-0.88235187533338,1.9083744287973687
1684179657503666100,9.00906640625,0.2504001259998,-0.9071884156554613,1.7372189761031138
1684179657513706900,9.019107421875,0.27040308695620485,-0.8976097106368073,1.53526997574938
1684179657523747800,9.029148193359376,0.283049046971188,-0.799063682583167,1.3035651445080907
1684179657533788600,9.03918896484375,0.3102307617553619,-0.7290143966700792,1.0906448363930874
1684179657543829400,9.049229736328124,0.32939764873010313,-0.6470155714299203,0.9471232892374118
1684179657553870300,9.059270751953123,0.341002315369976,-0.5220556257816749,0.8677873611436903
1684179657563911100,9.0693115234375,0.3329854904589376,-0.3424129486604006,0.8213717938800955
1684179657573951900,9.079352294921875,0.28427866093109555,-0.19918632515370038,0.8223993778444022
1684179657583992800,9.08939306640625,0.17413139348251436,-0.1090364457370899,0.8565609455751294
1684179657594033300,9.099433837890626,0.030298829013479522,-0.024145126481761724,0.7908208369772655
1684179657604074200,9.109474609375,-0.05336624379924119,-0.11641120910549908,0.7576417922678677
1684179657614115000,9.119515380859376,-0.03279530997221641,-0.275375366169391,0.7595679760925681
1684179657624155800,9.12955615234375,0.09347534174558168,-0.36951828007782883,0.7606213091509447
1684179657634196600,9.13959716796875,0.276057422173177,-0.4420223236806545,0.7674160003782365
1684179657644237600,9.149637939453124,0.42264771469046913,-0.5692691801647995,0.7789700030865928
1684179657654278300,9.1596787109375,0.5464345812344121,-0.607831001377389,0.8638753891706311
1684179657664319200,9.169719482421876,0.5943251848280791,-0.5649576187252164,0.9613015651924718
1684179657674360000,9.179760498046877,0.5079714655387186,-0.42885112765814765,0.9967188833563376
1684179657684400800,9.18980126953125,0.2868923546408279,-0.3787555692931558,0.9892680645419447
1684179657694441600,9.199842041015623,0.06125986588738941,-0.3068456649067949,0.9176108837515657
1684179657704482600,9.2098828125,-0.14943987129235137,-0.25380992889023035,0.7872819901776359
1684179657714523300,9.219923828125,-0.3272475005016583,-0.1814880370806271,0.6682417393553417
1684179657724564100,9.229964599609374,-0.4600630104765802,-0.04232501984750643,0.5419268608956732
1684179657734605000,9.24000537109375,-0.5840362310545824,0.10363960251655828,0.3897745609246009
1684179657744645800,9.250046142578125,-0.6675937773381855,0.19665431995123714,0.07597494115087512
1684179657754686600,9.260087158203126,-0.6749935149900863,0.2747526169672442,-0.21353816980595028
1684179657764727500,9.2701279296875,-0.6056564451446184,0.29711723314803645,-0.35535669327123415
1684179657774768300,9.280168701171876,-0.4153500796177465,0.3165349960453201,-0.3068256378505342
1684179657784809100,9.29020947265625,-0.09165936704470123,0.18016815168016168,-0.2073225975655428
1684179657794850000,9.30025048828125,0.19702112675179143,0.010057449269976903,-0.08359217649466313
1684179657804890800,9.310291259765624,0.457242786758085,-0.07201480873745568,-0.034036636346398176
1684179657814931600,9.32033203125,0.663081884432324,-0.17377281203817097,-0.011017084119745672
1684179657824972500,9.330372802734376,0.7845486998319703,-0.22816753380696733,0.06838417041912763
1684179657835013300,9.34041357421875,0.856512427251777,-0.3402147292946403,0.1769635678603445
1684179657845053900,9.350454345703126,0.871425032593308,-0.3757171631547323,0.24666619307219867
1684179657855094600,9.3604951171875,0.8577985763398304,-0.3871755599371838,0.31262397771866784
1684179657865135600,9.370535888671874,0.8108346463353298,-0.40554618819220956,0.3313570021010556
1684179657875176400,9.38057666015625,0.7144386768638065,-0.3948106765121756,0.3215787411374872
1684179657885217200,9.39061767578125,0.5882350804035503,-0.39314746861238653,0.24007654203490963
1684179657895258000,9.400658447265624,0.40896809096140757,-0.2978363037687784,0.14676809317764683
1684179657905298900,9.41069921875,0.22017163022004013,-0.1546211243671845,-0.050972700292703135
1684179657915339600,9.420739990234376,0.010249614684352166,-0.0139703749218454,-0.18981838229303524
1684179657925380600,9.430781005859377,-0.17964252838425399,0.06653022772875425,-0.383544921955591
1684179657935421400,9.44082177734375,-0.4010590015945177,0.07498073579182614,-0.5502419471970624
1684179657945462200,9.450862548828123,-0.6425385476013759,0.14300346360935498,-0.6731293200785107
1684179657955503000,9.4609033203125,-0.84170812349315,0.21791172034325224,-0.7707200050995122
1684179657965543900,9.4709443359375,-0.9997913837300658,0.33778476705663313,-0.8344850541575367
1684179657975584600,9.480985107421876,-1.065637826939784,0.368726730300602,-0.8155789375879584
1684179657985625600,9.49102587890625,-0.9613497256730634,0.4350852968104578,-0.6395804882095818
1684179657995666400,9.501066650390625,-0.6727413536464235,0.4244079589775926,-0.4266011715060973
1684179658005707200,9.511107666015626,-0.2881461679480503,0.4011173249330649,-0.24883580196785485
1684179658015748000,9.5211484375,0.04012978083752697,0.34366035449027105,-0.1213095188102207
1684179658025788800,9.531189208984374,0.34066170442418253,0.31434917460002537,-0.006786346457037332
1684179658035829600,9.54122998046875,0.561482548797313,0.28439712525766475,-0.027194976680282975
1684179658045870600,9.55127099609375,0.7392205595804785,0.14836502068382063,-0.09530854221221965
1684179658055911300,9.561311767578124,0.8582592606634578,0.023571967929634764,-0.010714769285488137
1684179658065952200,9.5713525390625,0.9227727651495611,-0.12318992616158118,0.03663492190878749
1684179658075993000,9.581393310546876,0.9180194139013078,-0.24619388566254943,0.14134454723765033
1684179658086033600,9.59143408203125,0.856263697183274,-0.2902660370800052,0.28800415985830813
1684179658096074400,9.601474853515626,0.7716919183854327,-0.3200149535624391,0.4214742184173833
1684179658106115200,9.611515625,0.6270626785040736,-0.32333660134836556,0.5699355603383304
1684179658116156300,9.621556640625,0.49257934104143686,-0.34070491778352563,0.6946368217966186
1684179658126197200,9.63159765625,0.32792371507874085,-0.3720903396571143,0.795665264251289
1684179658136238000,9.641638427734376,0.11877465255996784,-0.41756916059997323,0.8494567871161477
1684179658146278600,9.651678955078124,-0.11774444595749001,-0.4125213623615179,0.9584670067097203
1684179658156319400,9.6617197265625,-0.41593217863646653,-0.37608146672945286,0.967256784557025
1684179658166360200,9.6717607421875,-0.72245216377532,-0.3823337554178352,0.9315774440543024
1684179658176401100,9.681801513671877,-1.0289438963296955,-0.3618297575629214,0.8903818130397027
1684179658186441900,9.69184228515625,-1.2699172496089237,-0.38365459449634814,0.8080959321745688
1684179658196482700,9.701883056640623,-1.3953009844405937,-0.40707016004614105,0.723704099532327
1684179658206523600,9.711924072265624,-1.4018428324265175,-0.3938379286531263,0.6852822303778886
1684179658216564400,9.72196484375,-1.252970218588272,-0.30819892884048017,0.6875050068207712
1684179658226605200,9.732005615234376,-0.9645546078196907,-0.2651739120291739,0.6177136898086729
1684179658236646100,9.74204638671875,-0.6792951822325124,-0.27935123451196386,0.6123490333635098
1684179658246686900,9.75208740234375,-0.40913411967043495,-0.26943016039068773,0.6134727001722039
1684179658256727700,9.762128173828126,-0.21931171409290398,-0.2426462173806281,0.5636191368475371
1684179658266768600,9.7721689453125,-0.05485302214550456,-0.23017120357586707,0.5491342544746779
1684179658276809400,9.782209716796874,0.05034947400631153,-0.22243976582457706,0.5316989421894487
1684179658286850200,9.792250732421875,0.15782827141307842,-0.21715736390508616,0.5043578148954085
1684179658296891100,9.80229150390625,0.20703941573530138,-0.2119321822883837,0.5099837781633292
1684179658306931900,9.812332275390624,0.24081009624965075,-0.16847610474657299,0.4694285392523485
1684179658316972600,9.822373046875,0.23533612488708114,-0.10361385360900345,0.4139008521254206
1684179658327013600,9.8324140625,0.1554258466088746,-0.05324649812708834,0.3197519778959743
1684179658337054400,9.842454833984377,0.05932426452253075,-0.03162670137147371,0.25159192086944443
1684179658347095200,9.85249560546875,-0.04972177750570412,-0.043448448341381014,0.12827730190972478
1684179658357136000,9.862536376953123,-0.14241564269988333,-0.07436561575391232,0.08639264111460358
1684179658367176900,9.872577392578124,-0.2514950334662944,-0.04312896724392441,0.07810783390188755
1684179658377217600,9.8826181640625,-0.34500494594790043,-0.03581619267041508,0.05082726484987859
1684179658387258600,9.892658935546876,-0.41243118041687743,-0.01647281641335801,0.05711150166908069
1684179658397299400,9.90269970703125,-0.45084664215082765,0.0005807877869461416,0.0992856025658479
1684179658407340200,9.91274072265625,-0.43431574096703973,0.005829811177836067,0.09829902646269784
1684179658417380800,9.92278125,-0.39729404460060624,0.01119899739811706,0.13540410996322497
1684179658427421600,9.932822021484377,-0.3405298292634338,0.03578758234790908,0.15066528323183676
1684179658437462400,9.94286279296875,-0.25958046316605454,0.043738365116382745,0.17269420622126874
1684179658447503300,9.952903564453123,-0.1809668541488579,0.05175018311198465,0.15624475494923168
1684179658457544100,9.962944580078124,-0.10309118045620254,0.031039238085420754,0.12314462668884778
1684179658467584900,9.9729853515625,-0.031467735811444124,0.055658340472153144,0.09732699394410879
1684179658477625800,9.983026123046876,-0.004585504540750072,0.053062438915417315,0.05176353439217224
1684179658487666600,9.99306689453125,0.006048858121467908,0.06218242641620701,-0.0024747848102448884
1684179658497707400,10.00310791015625,0.010268867010590899,0.0545749664858402,-0.044041633474912856
1684179658507748300,10.013148681640626,-0.012673735724801693,0.04232501993600645,-0.077893495374858
1684179658517789100,10.023189453125,-0.06671988954470869,0.07027053831127683,-0.11832261075682708
1684179658527829900,10.033230224609374,-0.09924066075105291,0.05062389367718279,-0.14864230154221625
1684179658537870800,10.043271240234375,-0.14360886810730272,-0.011111259507235098,-0.1431357860517908
1684179658547911600,10.05331201171875,-0.19224780802122027,-0.05780887615522344,-0.15625858297761058
1684179658557952400,10.063352783203126,-0.244658321127024,-0.08954906466414794,-0.08455586433656558
1684179658567993300,10.0733935546875,-0.30466476082298555,-0.08764457697452781,-0.05200815194373913
1684179658578034100,10.0834345703125,-0.33406019228046985,-0.04551410674925184,-0.04636549948891743
1684179658588074900,10.093475341796877,-0.3522941767921238,-0.02267646791256204,-0.043677568421806395
1684179658598115800,10.10351611328125,-0.35280448207998066,0.03521156300066895,-0.1071379184933681
1684179658608156600,10.113556884765623,-0.34059613944813716,0.07571697241865318,-0.14366006854322927
1684179658618197400,10.123597900390624,-0.2944562135850535,0.08973121647528744,-0.1254634857452273
1684179658628238300,10.133638671875,-0.24568939204792653,0.09883117684068209,-0.12865591038130478
1684179658638279100,10.143679443359376,-0.16405352949964835,0.07241630552185088,-0.15035629275077342
1684179658648319900,10.15372021484375,-0.08346611246485298,0.055821418873274194,-0.15506029128139462
1684179658658360800,10.16376123046875,-0.032343387664384146,0.03004837036108784,-0.15720152864271375
1684179658668401600,10.173802001953124,0.019930184039448417,0.02821063989363062,-0.13807964332816228
1684179658678442400,10.1838427734375,0.04940277334230325,0.0051822661502741625,-0.13578295714074531
1684179658688483200,10.193883544921874,0.0607523321665458,0.008359909080921867,-0.15939664852517155
1684179658698524100,10.203924560546875,0.04519408942407685,0.04209613807199714,-0.13805079469503864
1684179658708564900,10.21396533203125,0.03887742768175817,0.08470725999330973,-0.12661409372405236
1684179658718605700,10.224006103515626,0.02350133652134135,0.0890064239237312,-0.13200902946375268
1684179658728646600,10.234046875,0.03210115443661481,0.11915874492455934,-0.14207458496140796
1684179658738687400,10.244087890625,0.033449411412399606,0.13460826881873353,-0.17529606824191885
1684179658748728200,10.254128662109377,0.04385191208747032,0.14734935769862845,-0.23832416521874095
1684179658758769100,10.26416943359375,0.0324403046381361,0.18094253538904997,-0.23879361156580967
1684179658768809900,10.274210205078123,0.05146282922584792,0.1690921782453844,-0.30004692090182394
1684179658778850700,10.284251220703124,0.03697890040209643,0.15730953213300666,-0.301060915082328
1684179658788891600,10.2942919921875,0.0648061633251239,0.19026088720681528,-0.2944579125786975
1684179658798932400,10.304332763671876,0.08467042459201907,0.1424198150124938,-0.31096339224278197
1684179658808973200,10.31437353515625,0.07794708015782832,0.1163511275266063,-0.2865798475152431
1684179658819014100,10.32441455078125,0.08977419144480718,0.10001468662655265,-0.2670137881293624
1684179658829054600,10.334455078125,0.0891276599410345,0.029715538070338027,-0.21699309362962252
1684179658839095500,10.344495849609377,0.0737674236790512,-0.011183738728852456,-0.15606975557208966
1684179658849136300,10.35453662109375,0.042065918365691915,0.016930580226477972,-0.09165835382065185
1684179658859177100,10.36457763671875,-0.0006434916801084893,0.028217315718546486,-0.09692311299364369
1684179658869218000,10.374618408203125,-0.028466433390692138,0.015830993660007453,-0.08343148226909713
1684179658879258800,10.3846591796875,-0.04435640574249669,0.046004295422524426,-0.11016798027542943
1684179658889299600,10.394699951171877,-0.09776061775195123,0.059158325036725176,-0.1340196132871442
1684179658899340500,10.404740966796876,-0.13584995286702925,0.07674121848972092,-0.11250734325028001
1684179658909381300,10.41478173828125,-0.1535197199157829,0.053997993494146766,-0.08644890780674541
1684179658919422100,10.424822509765624,-0.16243439911317045,0.02225208287335213,-0.048914909211537856
1684179658929463000,10.43486328125,-0.11135751019320242,-0.004241943240640073,-0.05661129953029176
1684179658939503800,10.444904296875,-0.06339138745960063,-0.004447937032961745,-0.038121223301129784
1684179658949544600,10.454945068359375,-0.0070299505756400375,0.014117240996403158,-0.01272034635344023
1684179658959585500,10.46498583984375,0.0059804916549122305,-0.019457816913280693,0.021788358832532058
1684179658969626300,10.475026611328126,0.028135478511024912,-0.01244068157050619,0.046257496032069884
1684179658979667100,10.485067626953125,0.047083139530498065,0.01803302757488959,0.060727834724779634
1684179658989708000,10.4951083984375,0.053031921487608984,-0.01793003094786099,0.08189654354559345
1684179658999748800,10.505149169921877,0.04814237359790553,-0.022718429600550216,0.09316921239954216
1684179659009789600,10.51518994140625,4.529942962380735e-05,-0.0038509367880050216,0.06867957108980564
1684179659019830400,10.52523095703125,-0.040561258808638846,0.0029497146521857247,0.08920311924581686
1684179659029871300,10.535271728515625,-0.08998408899409241,-0.00912284861049714,0.055004835184463766
1684179659039912100,10.5453125,-0.12937265621045205,-0.028062820510951755,0.030770778495268263
1684179659049952900,10.555353271484377,-0.15874516955738474,-0.07026290891054711,-0.023568868527060978
1684179659059993800,10.565394287109376,-0.21289223440776744,-0.05068397531487952,-0.02941060071780861
1684179659070034600,10.57543505859375,-0.21513429268420936,-0.03624343879724938,0.0242764948044747
1684179659080075400,10.585475830078124,-0.19925764204801044,-0.03615093227458776,0.08435845383511666
1684179659090116300,10.5955166015625,-0.18041613684020147,-0.06428718554874495,0.1270344257558478
1684179659100157100,10.6055576171875,-0.12872552862923217,-0.07781124110133263,0.15014648442462805
1684179659110197900,10.615598388671875,-0.1128565670173184,-0.0721979141470579,0.18916487693882866
1684179659120238800,10.62563916015625,-0.07330250742958591,-0.06890773774036749,0.23900318136554513
1684179659130279600,10.635679931640626,-0.04631263027370797,-0.08433914189811717,0.2474598885003206
1684179659140320400,10.645720947265623,-0.018000721787446074,-0.12058067323126967,0.2435424327866389
1684179659150361300,10.65576171875,-0.007037103083761178,-0.12085247032541784,0.23710966111368992
1684179659160402100,10.665802490234377,-0.0033818184730969223,-0.12339115126825048,0.24700069435458535
1684179659170442900,10.67584326171875,0.00020390748334752053,-0.0528793334222723,0.2330975532013509
1684179659180483800,10.68588427734375,0.015511453126092176,-0.042365074182517844,0.20049953462107128
1684179659190524600,10.695925048828125,0.028241604597472526,-0.0650196073957467,0.2109284399259762
1684179659200565400,10.7059658203125,0.02655696881124864,-0.06143188484235847,0.195368051555827
1684179659210606300,10.716006591796877,0.05524608490119615,-0.10028934474069089,0.22478318216434715
1684179659220647100,10.726047607421876,0.054668187986939315,-0.11027240756677427,0.20896649348804353
1684179659230687900,10.73608837890625,0.04410699016028857,-0.1153755187977245,0.249802589484782
1684179659240728800,10.746129150390624,0.0686426460385759,-0.08038139347639073,0.2428388595033397
1684179659250769600,10.756169921875,0.026757419027873996,-0.08595466616949927,0.24998164176897933
1684179659260810400,10.7662109375,0.02577477685590734,-0.10786628731209169,0.23805475237090182
1684179659270851200,10.776251708984375,0.029698699755242895,-0.11288928986491426,0.24976015091929715
1684179659280892100,10.78629248046875,0.03381121150792608,-0.13665390018482249,0.2189104556804037
1684179659290932900,10.796333251953126,0.028638422430540687,-0.08707046517177511,0.24283933649045614
1684179659300973700,10.8063740234375,0.037898540388572294,-0.08302879326878182,0.21221446982118292
1684179659311014600,10.8164150390625,0.03775948287641445,-0.08611392972048683,0.22214055058321414
1684179659321055400,10.826455810546875,0.035256802903411516,-0.07977008826582523,0.22025060671935628
1684179659331096200,10.83649658203125,0.04412746420377375,-0.08773517621332907,0.2562294005908713
1684179659341137100,10.846537353515624,0.03608030077893155,-0.1073389054156148,0.2727265356421389
1684179659351177900,10.856578369140625,0.009465753996783325,-0.15244770061989996,0.281703233744835
1684179659361218700,10.866619140625,-0.009234458372498087,-0.1591167451458926,0.2787623403951764
1684179659371259600,10.876659912109377,-0.02980890874030774,-0.1491289139181691,0.3133592605872517
1684179659381300400,10.88670068359375,-0.050221771020012185,-0.15571784982900214,0.3023939133657315
1684179659391341200,10.89674169921875,-0.04459664223854947,-0.12918472280233984,0.2961173058363881
1684179659401382100,10.906782470703124,-0.08134531974547109,-0.1406984330103002,0.3015348912190962
1684179659411422900,10.9168232421875,-0.09363967183124094,-0.12127685548705393,0.29469037064811965
1684179659421463700,10.926864013671874,-0.10741662959859509,-0.1350193023934638,0.28769564633185074
1684179659431504600,10.936905029296875,-0.14841434372519344,-0.12962818145712307,0.27365279190830016
1684179659441545400,10.94694580078125,-0.12448841347854438,-0.1407175065540012,0.23612141598906394
1684179659451586200,10.956986572265626,-0.11230379328326223,-0.10919570913634237,0.19911670676968407
1684179659461627100,10.96702734375,-0.07638904442530182,-0.1181907654723182,0.2074191570895216
1684179659471667900,10.977068359375,-0.05497848985536448,-0.10107326506823201,0.18948769579001606
1684179659481708600,10.987109130859375,-0.03175517908747349,-0.0676956177939944,0.1833770275239213
1684179659491749600,10.99714990234375,-0.02072650194856009,-0.030083656484689133,0.17002105711358229
1684179659501790400,11.007190673828124,0.009163647984419022,-0.01420021051141662,0.15662407872861536
1684179659511831200,11.017231689453125,0.03899821647833147,-0.0009918212572698941,0.09896636008876503
1684179659521872000,11.0272724609375,0.06385838985001692,-0.014014244023340708,0.07091617581880055
1684179659531912900,11.037313232421877,0.09961780896766492,-0.005734443547497056,0.03181600568560992
1684179659541953600,11.04735400390625,0.10287877930177243,0.016463279712099252,-0.0183868409049139
1684179659551994600,11.05739501953125,0.07396689053309957,-0.015915870611905924,-0.02541851993922995
1684179659562035400,11.067435791015624,0.021324604801068285,-0.000672340247060846,-0.032439231771489344
1684179659572076200,11.0774765625,-0.025474041599567378,0.0378503800386267,-0.027502059998358686
1684179659582117000,11.087517333984374,-0.02818375830463108,0.08034515380978428,-0.07634353654681694
1684179659592157900,11.097558349609375,-0.008834302443953881,0.09376144409267016,-0.12855410593860223
1684179659602198600,11.10759912109375,0.015153795532094911,0.09741210937542706,-0.13472056387814688
1684179659612239600,11.117639892578126,0.04529798030323236,0.07732486718528589,-0.14277696616767177
1684179659622280400,11.1276806640625,0.04600536831515866,0.05982589719377158,-0.11751031879317916
1684179659632321200,11.1377216796875,0.05608698734955363,0.05901241306676794,-0.0853335856960196
1684179659642361800,11.14776220703125,0.03815996638476411,0.03232479084055671,-0.025404930181472832
1684179659652402600,11.157802978515624,0.0530424416336956,0.041329383763873774,0.01247596755201961
1684179659662443400,11.16784375,0.011645704683194522,0.03370571145200278,0.016486644815610785
1684179659672484300,11.177884765625,-0.07176083339452899,0.002653122023071673,-0.003480911198902567
1684179659682525100,11.187925537109376,-0.1585646568797794,-0.056105613822796184,-0.02357578278191983
1684179659692565900,11.19796630859375,-0.22794386750756987,-0.0714511871028245,-0.07421851150577835
1684179659702606800,11.208007080078126,-0.2730016708477131,-0.030007362280365667,-0.09557342533021213
1684179659712647600,11.218048095703123,-0.23638063677197832,0.020211219777995355,-0.07149624829876827
1684179659722688400,11.2280888671875,-0.20701569325396638,0.043723106231793644,-0.07101750383070893
1684179659732729300,11.238129638671875,-0.14107310769551262,0.038637161218347246,-0.061015367476333286
1684179659742770100,11.24817041015625,-0.06600484241956169,0.036013603393089226,-0.06762909881548315
1684179659752810900,11.25821142578125,-0.020188063439399155,0.07109546662044879,-0.0905647277988658
1684179659762851800,11.268252197265625,0.0199322401961096,0.058481216448386705,-0.09894037245958921
1684179659772892600,11.27829296875,0.06582075354770614,0.027168273914774357,-0.12350678429271472
1684179659782933400,11.288333740234377,0.08666250113932825,0.029353141731208,-0.09367609031102661
1684179659792974600,11.298375,0.10393708952775572,0.022121429486278984,-0.05282258990272542
1684179659803015300,11.308415771484375,0.08220601071666025,0.022174835191310884,0.003349065818850886
1684179659813056200,11.31845654296875,0.06910920141841738,-0.034211158808427594,0.006426334235077671
1684179659823097000,11.328497314453124,0.04152360564840588,-0.07787990574498971,0.04701042167586975
1684179659833137800,11.338538330078125,-0.03698486079773498,-0.06424522403690935,0.13146376613292968
1684179659843178600,11.3485791015625,-0.10600179422499255,-0.020047187752977157,0.22346591946467353
1684179659853219600,11.358619873046877,-0.18036434049244443,-0.014039039595716013,0.20266795143755187
1684179659863260300,11.36866064453125,-0.18767601264846104,0.01786136636379964,0.11124563232638955
1684179659873301200,11.37870166015625,-0.19712603090517855,-0.01907634716539612,0.023820877130064037
1684179659883342000,11.388742431640624,-0.1915278731781997,-0.013093948329917223,-0.0076699256729222814
1684179659893382800,11.398783203125,-0.1755182445078252,0.0021839142610355165,0.03220725059596882
1684179659903423600,11.408823974609374,-0.16351792213110483,-0.015769958655310792,0.088077783446042
1684179659913464600,11.418864990234376,-0.12712179139756816,-0.03816127776113907,0.14793968204842392
1684179659923505300,11.42890576171875,-0.07189989098378415,-0.034254074096358535,0.21147322644411515
1684179659933546200,11.438946533203126,-0.015632838079509048,-0.06560039514214919,0.1439864635326347
1684179659943587000,11.4489873046875,0.038442015720107366,-0.07047557824345996,0.1102311610242359
1684179659953627800,11.4590283203125,0.03570473191453056,-0.006955146830496404,0.017808199045297325
1684179659963668600,11.469069091796875,0.022288411838207536,0.08132171632535211,-0.054135560995275604
1684179659973709600,11.47910986328125,-0.003577113115174156,0.17738056186249865,-0.09384369853349485
1684179659983750300,11.489150634765624,-0.03158441185753847,0.2268886566308607,-0.11570239057869396
1684179659993791200,11.499191650390625,-0.025866866091053473,0.21643066404405958,-0.1573853492331289
1684179660003832000,11.509232421875,-0.0034628510394390235,0.15404605867375812,-0.1973035334371372
1684179660013872600,11.51927294921875,0.02515763038791016,0.0876226425448122,-0.24478936196831144
1684179660023913600,11.52931396484375,0.04046916958702843,0.014864921615515605,-0.21266508095877318
1684179660033954600,11.53935498046875,0.026124089952396932,-0.04294395445388612,-0.151680707866193
1684179660043995100,11.5493955078125,-0.0035502612327163534,-0.08364486707204571,-0.060176134126308074
1684179660054036100,11.5594365234375,-0.09979531171575438,-0.09573364251128487,0.14368844041159934
1684179660064077000,11.569477294921874,-0.18461222942840064,-0.16422462473649255,0.3633770941868794
1684179660074117600,11.57951806640625,-0.22594347609878773,-0.24776840215818288,0.543403387079127
1684179660084158600,11.58955908203125,-0.2310623378351891,-0.23263931262012638,0.6758718489657587
1684179660094199200,11.599599609375,-0.1542031466088915,-0.2355690003096999,0.6169679163939811
1684179660104240300,11.609640625,-0.030572712409715534,-0.20943069441910625,0.36353278148495144
1684179660114280900,11.619681396484374,0.08922281851573834,-0.0869626999141856,0.047643423203256235
1684179660124322000,11.629722412109375,0.19080010051852953,0.040462494021165696,-0.17563939090844777
1684179660134362600,11.639762939453124,0.2255887687711501,0.15856552127812584,-0.31695842730369855
1684179660144403600,11.649803955078124,0.2779947222992985,0.21576595318890066,-0.3542277813307174
1684179660154444500,11.659844970703125,0.34014800190846645,0.14479064931830204,-0.3433229923879117
1684179660164485000,11.669885498046876,0.376857012404009,0.06303119665120911,-0.3038039207794888
1684179660174525900,11.67992626953125,0.35979861031020977,-0.024607658390414875,-0.22709751125496483
1684179660184567000,11.68996728515625,0.22079089293459864,-0.09431934344597984,-0.07447195056616002
1684179660194607800,11.70000830078125,0.05958160753405279,-0.030920982369328113,0.023316383466346385
1684179660204648600,11.710049072265624,-0.027654081512064343,0.036484718336287685,0.05979228022175419
1684179660214689500,11.72008984375,0.05099007489970758,0.05132770534900215,-0.010955095384776757
1684179660224730300,11.730130615234376,0.22696170202657148,0.051926612775126876,-0.14428043369945914
1684179660234771100,11.740171630859376,0.38433486212602874,0.08065128334507739,-0.2775373458284329
1684179660244812000,11.75021240234375,0.42718732354493016,0.13687801359888566,-0.34217810636651413
1684179660254852800,11.760253173828126,0.32942041761616475,0.1400308609619483,-0.350832939121004
1684179660264893600,11.7702939453125,0.13534182293021188,0.10282135014789247,-0.27144002910589127
1684179660274934400,11.7803349609375,-0.04536414142643914,0.09203529348065413,-0.18355965608410482
1684179660284975300,11.790375732421875,-0.16959543518024214,0.04609203337171408,-0.08037042611529811
1684179660295016100,11.80041650390625,-0.245473623430914,-0.02964019781904061,-0.02830934522900422
1684179660305056900,11.810457275390624,-0.25277397038115373,-0.05463790880200411,0.008810520167370318
1684179660315097800,11.820498291015625,-0.2163100987316751,-0.029766082661041957,0.04539752013062948
1684179660325138600,11.8305390625,-0.14708676941853868,0.0017414093092979954,0.03907775885437394
1684179660335179400,11.840579833984377,-0.058262646203985566,-0.03558826455692164,0.05647993104123643
1684179660345220300,11.85062060546875,-0.0015389024181964898,-0.037047386086254776,0.05025458336088816
1684179660355261100,11.86066162109375,0.052501320887529325,-0.06205654139849817,0.12905907628126173
1684179660365301900,11.870702392578124,0.12234520909962056,-0.05838203442420934,0.16884422292795626
1684179660375342800,11.8807431640625,0.16351360086202876,-0.031239509622940993,0.17251801497218822
1684179660385383600,11.890783935546876,0.14936688539709014,0.03783988968381778,0.17106437684546108
1684179660395424400,11.900824951171876,0.08103412395572139,0.07039642332604182,0.09656357766051811
1684179660405465300,11.91086572265625,-0.005689024923970366,0.06229305275595082,0.032968759698772415
1684179660415506100,11.920906494140626,-0.054483234994444525,0.09658718115839285,-0.017294883759729443
1684179660425546900,11.930947265625,-0.054192423786589325,0.08780097956523847,-0.08260822298367203
1684179660435587800,11.94098828125,-0.004186361863200249,0.08134269707790656,-0.11796689030359955
1684179660445628600,11.951029052734375,0.023373752732745764,0.09365654003330455,-0.10748839377962231
1684179660455669400,11.96106982421875,0.04298949231138949,0.11268138885645862,-0.09203362451660171
1684179660465710300,11.971110595703124,0.05918559441940459,0.08419990527599416,-0.10481834406959004
1684179660475751100,11.9811513671875,0.0484361946473218,0.056161880388779735,-0.09854936612817726
1684179660485791900,11.9911923828125,0.017981886832418414,0.014423370440736888,-0.11355686188884996
1684179660495832800,12.001233154296877,-0.05522108073173887,0.03693866732554063,-0.08839035035005373
1684179660505873600,12.01127392578125,-0.08745838690778507,0.0025787351933043365,-0.11076951029221033
1684179660515914400,12.021314697265623,-0.09720219670973819,0.015858650168379947,-0.09497118009471937
1684179660525955200,12.031355712890624,-0.07942420249177233,0.02184104924257299,-0.10746955888263253
1684179660535996100,12.041396484375,-0.034638464554364215,-0.012295722925069006,-0.09841275220683841
1684179660546036900,12.051437255859376,0.01247453690122008,0.0035753250643127833,-0.09414005278986362
1684179660556077700,12.06147802734375,0.06766271604926,0.019230842720034544,-0.1325454710325636
1684179660566118600,12.07151904296875,0.06660270681545168,0.027585029529831162,-0.1446392536300326
1684179660576159400,12.081559814453126,0.05525729045988136,0.033419609227631285,-0.14949417116906
1684179660586200200,12.0916005859375,0.03005313874384273,0.06743621843956442,-0.1543629168994866
1684179660596241100,12.101641357421874,0.01986587038477951,0.05846118916800906,-0.16364336020528172
1684179660606281900,12.111682373046875,-0.0037110746289320843,0.04016876217500288,-0.1395893097321813
1684179660616322700,12.12172314453125,-0.02433073524272187,0.015048980787406527,-0.08978652947327638
1684179660626363600,12.131763916015624,-0.0307427644743902,-0.012089729265389083,-0.019389629537730057
1684179660636404400,12.1418046875,-0.06362074619439788,-0.03643894191303692,0.007417917378376637
1684179660646445200,12.151845703125,-0.09205427756197253,-0.06039619463161323,0.014879703434393056
1684179660656486100,12.161886474609377,-0.12927442805645292,-0.015632629388784555,0.052681207704845814
1684179660666526900,12.17192724609375,-0.12919819350132716,0.11572837819945912,0.18341708181030061
1684179660676567700,12.181968017578123,-0.10365012284538827,0.056741714657133395,0.1468436719837319
1684179660686608600,12.192009033203124,-0.0579116342759413,-0.22029399862899407,0.057263135804087546
1684179660696649400,12.2020498046875,0.007133364708698643,-0.35157108314592683,-0.004419565327612217
1684179660706690200,12.212090576171876,0.0246689616360917,-0.4289722442253245,-0.06465172766912194
1684179660716731100,12.22213134765625,0.041846096605343615,-0.42750358579185993,-0.04585981365645072
1684179660726771900,12.23217236328125,0.07422506808870209,-0.371907234253487,-0.04635620115612818
1684179660736812600,12.242213134765626,0.10705608116017519,-0.1829586029465842,0.030386209518963717
1684179660746853600,12.25225390625,0.10279545180671215,0.02177810674187025,0.16421604140343515
1684179660756894400,12.262294677734374,0.0858392417344788,0.29860591881836956,0.3210344314887823
1684179660766935200,12.272335693359375,0.04183924195531577,0.4816703795926997,0.4693462848732416
1684179660776976000,12.28237646484375,-0.040556997032156414,0.5303030015021188,0.4840371608188643
1684179660787016900,12.292417236328124,-0.13190558569601174,0.2724857330716295,0.28986430179360606
1684179660797057600,12.3024580078125,-0.1891038119492383,0.0638618468805711,0.0677213669323541
1684179660807098600,12.3124990234375,-0.2292454241639978,0.06823158246643204,-0.06364417075898254
1684179660817139400,12.322539794921877,-0.25025737286930044,0.08656692502518308,-0.1313898562799302
1684179660827180200,12.33258056640625,-0.2567715048284329,0.11152553554869425,-0.22580909722086515
1684179660837221000,12.342621337890623,-0.2744459212932531,0.16166210187034039,-0.30583238604740526
1684179660847261900,12.352662353515624,-0.28160694245668993,0.1329936982381676,-0.35759973520139066
1684179660857302600,12.362703125,-0.30171275140188836,0.017571449394194093,-0.34673881532656065
1684179660867343600,12.372743896484376,-0.30576828121262617,-0.09591960916802765,-0.3123347758819917
1684179660877384400,12.38278466796875,-0.3022938073324538,-0.2497940061899494,-0.30436372748950546
1684179660887425500,12.392825927734377,-0.21299348785643665,-0.3516645430828876,-0.23724174509139626
1684179660897466300,12.40286669921875,-0.08519455772945143,-0.31056690217433963,-0.09804749500359193
1684179660907507100,12.412907470703123,0.038068324395836864,-0.09350776681620339,0.059726238096082886
1684179660917548000,12.4229482421875,0.1549362241860853,0.044700622460555964,0.14837670334140687
1684179660927588800,12.4329892578125,0.15860259515926467,0.07239055637584636,0.17844176291743338
1684179660937629600,12.443030029296876,0.11778292067818612,0.03611946108868721,0.18166041368976707
1684179660947670400,12.45307080078125,0.0775116085679279,0.024065971381468692,0.21517705907039095
