time,seconds_elapsed,z,y,x
1684002599922172300,0.03257275390625,6.465770638762762e-11,1.1008856544100537e-10,-1.0743717489874079e-11
1684002599932214400,0.04261474609375,-0.13991832729338313,-0.2564082144233126,0.008311748451916342
1684002599942256800,0.0526572265625,-0.3167037963822536,0.08165621754982032,0.16304874418541349
1684002599952298900,0.06269921875,-0.7601604461813745,0.27226591108788917,0.3450956345621177
1684002599962341000,0.072741455078125,-1.183868408298681,-0.2594943048259364,-0.23119640359737398
1684002599972383400,0.08278369140625,-1.1253843308508966,-0.2306847572871039,-0.14011335367538427
1684002599982425600,0.092825927734375,-0.7044134140396737,0.43289637559560473,0.20736503611546803
1684002599992467600,0.102867919921875,-0.7714343071308304,0.5770859717877799,0.32976102834858906
1684002600002509700,0.11291015625,-0.709033966025433,0.38139557847737,-0.09132242190362293
1684002600012552100,0.122952392578125,-0.1153807638839245,0.26536989213707757,-0.5719742775174401
1684002600022594200,0.13299462890625,0.5559811592673343,0.19509935376942425,-0.39685964579773025
1684002600032636300,0.14303662109375,0.3553009032804643,-0.00773715976359187,0.018275260958929552
1684002600042678600,0.1530791015625,0.5594396591451344,-0.545665502441243,0.16855430597742557
1684002600052720800,0.163121337890625,0.40910196311690356,-1.1901366712524877,0.00853872290236382
1684002600062762900,0.173163330078125,0.3965859413455105,-1.1257359982507416,-0.014692783349733294
1684002600072805300,0.183205810546875,0.2914991379669648,-0.4262926579642861,0.009080410011853725
1684002600082847400,0.193247802734375,0.48323726651219445,0.7887234689272131,-0.05223131190886218
1684002600092889600,0.2032900390625,0.3827886582749093,1.3257472515142663,0.4763431549267795
1684002600102931600,0.21333203125,-0.03585863121679909,0.6358082295634098,0.6816663741921147
1684002600112974000,0.22337451171875,-0.4213180541787422,-0.1179089546731953,0.38266134266523083
1684002600123016100,0.23341650390625,-0.3641409873123547,-0.19281721108941563,0.17475128182516567
1684002600133058200,0.243458740234375,0.4561100005709336,-0.028551578456765155,0.2033972739909245
1684002600143100600,0.2535009765625,1.445336341733739,-0.14530420317406711,0.509581088916141
1684002600153142600,0.263543212890625,1.7699604036071765,-0.595479965146684,0.791966438183478
1684002600163184800,0.273585205078125,1.1115407943064584,-0.9221520424339467,0.1846632957621387
1684002600173226900,0.28362744140625,0.3668127059577026,-1.3439173700121472,-0.6953940390774151
1684002600183269300,0.293669677734375,0.058526992814304846,-1.288446903245385,-1.3060975074180372
1684002600193311400,0.3037119140625,-0.07806396480764725,-0.7173795699845337,-1.061731815243516
1684002600203353600,0.31375390625,0.3248271941638516,-0.3033380508631651,0.37512969980760863
1684002600213395900,0.32379638671875,0.5929765701265254,0.07154083249647117,1.3132929802667281
1684002600223438000,0.33383837890625,0.33551406872210304,0.264339923785947,3.017375469398825
1684002600233480100,0.343880615234375,0.14035511016210414,0.25591278079127766,1.3596868513509315
1684002600243522600,0.3539228515625,-1.1421861648747111,0.2691574096463645,0.05985689174155835
1684002600253564600,0.363965087890625,-1.4972882269733203,-0.14098739637446778,-0.9244594573922245
1684002600263606600,0.374007080078125,-0.9934158325269505,0.7553515434234799,-1.6464726924098219
1684002600273648800,0.38404931640625,-1.006042480402727,0.7818968296869534,-1.0091938973074759
1684002600283691200,0.394091552734375,-0.1188049317021664,0.5576224327639883,-0.027860164584552708
1684002600293733300,0.4041337890625,-1.9176225661571016,1.5166246891598987,4.06267547601028
1684002600303775400,0.41417578125,-5.033740997295126,3.1314551830348525,6.217612743471086
1684002600313817600,0.424218017578125,-2.458240986026641,4.267944336035102,3.9009370804943666
1684002600323859900,0.43426025390625,-1.4353713989435657,4.157759666513809,3.4589147566473057
1684002600333902000,0.444302490234375,-2.18299055097548,0.8503789901109424,0.39202404026554005
1684002600343944100,0.454344482421875,-1.3587560654504875,0.18650102617845948,-1.068261146576146
1684002600353986600,0.464386962890625,-0.2844324112997622,0.9821753500386923,-1.4015197752132942
1684002600364028600,0.474428955078125,-0.5646805763068192,0.820047736320257,-1.4446277618165464
1684002600374070600,0.48447119140625,-0.33903312685046183,0.7201721669581375,-1.5262813567488596
1684002600384112800,0.49451318359375,0.5988006591946613,0.7865135669728124,-1.580134391819739
1684002600394155200,0.5045556640625,0.8275508879727085,0.7786350250105952,-1.5257554054294868
1684002600404197300,0.51459765625,0.6452670097610587,0.734780549988522,-1.6462087631494056
1684002600414239400,0.524639892578125,-0.14259552962944588,0.8019957543664687,-1.9257082940020582
1684002600424281800,0.53468212890625,-0.7380399704373501,0.8923348188343728,-2.01380062094688
1684002600434323900,0.544724365234375,-0.803555488708102,0.8280149697491945,-2.127645015814001
1684002600444366000,0.554766357421875,-0.3719067574597776,0.5956073999925268,-2.054000854569496
1684002600454408400,0.564808837890625,0.7436685561243638,0.1841464041977796,-2.250030040688343
1684002600464450600,0.574850830078125,1.7364327907807182,-0.4952065944228844,-1.8796672820399407
1684002600474492600,0.58489306640625,1.7903740405109287,-0.7528139353436355,-1.3198032380074394
1684002600484534600,0.59493505859375,0.9485125542668039,-1.0592418909790509,-1.5825996398662738
1684002600494577100,0.6049775390625,-0.454949140387928,-0.7177071569994072,-1.6265058517702697
1684002600504619200,0.61501953125,-1.0185825823855275,-0.7560344933781054,-1.0721406937906326
1684002600514661300,0.625061767578125,-0.7103469370832353,-0.6087063550090512,-0.6714811324770243
1684002600524703600,0.63510400390625,-0.9339126349825989,-0.35519540316297793,-0.27125740050552827
1684002600534745800,0.645146240234375,-1.101667881012961,-0.3027923107757803,-0.3857402800712029
1684002600544787900,0.655188232421875,-1.029641628306916,-0.3342212438563152,-0.8045482635102482
1684002600554830000,0.66523046875,-0.6154500843343488,-0.32611215118286596,-0.9404687881258194
1684002600564872400,0.675272705078125,-0.007744192958679813,-0.48790085323594007,-0.9236736298580813
1684002600574914600,0.68531494140625,0.24511909467135956,-1.0415333509235014,-0.7131290436778416
1684002600584956600,0.69535693359375,0.5951274634583849,-0.9078778028403293,-0.7008466720643095
1684002600594998600,0.705399169921875,0.6577196122195912,-1.0768707989959947,-0.2410564422776947
1684002600605041100,0.71544140625,0.08070588102709832,-1.2084705828976063,-0.01253509515655855
1684002600615083200,0.725483642578125,-0.633722722474228,-1.1399939059498732,-0.3590927125109323
1684002600625125300,0.735525634765625,-1.528349280338451,-0.7508127690168385,-0.9628896713024524
1684002600635167600,0.745568115234375,-2.080744505050703,-0.2380045652554018,-1.5350914001062177
1684002600645209800,0.755610107421875,-2.276562929217629,1.324345350294965,-3.40040493009371
1684002600655251900,0.76565234375,-1.058218836798544,2.7562527656784956,-4.3898029327485695
1684002600665294300,0.775694580078125,2.1562943458626975,1.747753977747433,-1.6495604516065927
1684002600675336400,0.78573681640625,1.4725441932922676,0.003659248271591203,-0.7248754502943333
1684002600685378600,0.79577880859375,0.6870915889892472,0.2424607277003411,-1.154156684822919
1684002600695420600,0.805821044921875,0.8314952849527676,0.6169060468214509,-2.065009117072068
1684002600705463000,0.81586328125,1.2284736632523996,0.41297483434496857,-2.2250962258436595
1684002600715505100,0.825905517578125,1.429540157334939,0.17444086077249638,-1.7781896591871498
1684002600725547200,0.835947509765625,2.257659673731712,0.051298856762650905,-0.6537189483195391
1684002600735589600,0.845989990234375,2.9177005292182168,0.09324789052693686,0.8429632186827387
1684002600745631600,0.856031982421875,3.262798070777443,0.23584532747506565,1.2183933257477342
1684002600755673800,0.86607421875,3.342176198954435,0.3059623242482997,1.3692493438663127
1684002600765715900,0.8761162109375,3.108575105590958,0.6394920348068224,1.2122640608671844
1684002600775758300,0.88615869140625,2.2820894716890594,0.2873194217644059,1.381564140259005
1684002600785800400,0.89620068359375,1.5543661117000018,0.013072252267862006,1.6938896178419318
1684002600795842600,0.906242919921875,0.9636986256529729,0.08669686333659267,1.646717071478899
1684002600805884600,0.916284912109375,0.4756062030552555,0.5314159395091965,1.4696044922390696
1684002600815927000,0.926327392578125,0.012006997967547842,0.4069163798284313,0.7364206315001846
1684002600825969100,0.936369384765625,-0.4122416973063714,0.2732448577054535,-0.07507991807336466
1684002600836011200,0.94641162109375,-0.3840476274765701,-0.019873618998523076,-0.2053356170468622
1684002600846053600,0.956453857421875,-0.15272605424055824,-0.27139425270633827,-0.09928131095277716
1684002600856095600,0.96649609375,-0.008659482087910775,-0.5918388367035455,-0.19316482545872887
1684002600866137800,0.9765380859375,0.16786181923140545,-0.6933526991318579,-0.8343811034830763
1684002600876180100,0.98658056640625,-0.3249402642239695,-0.8518571853553685,-0.7367057800838237
1684002600886222300,0.99662255859375,-0.9921151399143242,-0.7682209013481098,-1.1034259796143577
1684002600896264400,1.006664794921875,-1.5463420152653808,-0.8292770384251192,-0.7362957000638263
1684002600906306600,1.016706787109375,-1.9349465369406582,-0.3203463553383264,-0.44938659679079196
1684002600916348800,1.026749267578125,-1.6983582974563227,-0.24761438353190224,0.0252389906853793
1684002600926391000,1.036791259765625,-1.3220028876961696,-0.1587624550327296,0.45518207544520595
1684002600936433100,1.04683349609375,-0.7037361860869109,-0.21837139131752958,1.0097961424818862
1684002600946475200,1.05687548828125,-0.2420036941797891,-0.25552272801813597,1.0902166366906818
1684002600956517600,1.06691796875,-0.1422382593049878,-0.21421003336534028,0.8080635069852135
1684002600966559600,1.0769599609375,-0.3416351377139124,-0.23707628238354034,0.220010757473362
1684002600976601800,1.087002197265625,-1.1304563284215436,-0.41765022286065706,0.05027389528215231
1684002600986644100,1.09704443359375,-1.275616884285145,-0.20582532885051177,-0.08216953263855353
1684002600996686300,1.107086669921875,-1.2210018634819741,-0.4240560532060826,0.10391521450254329
1684002601006728400,1.117128662109375,-1.3913640976249517,-0.5713753698726587,0.05393886567674563
1684002601016770600,1.1271708984375,-1.1675287485777897,-0.6241650580993695,0.23901176457394016
1684002601026812800,1.137213134765625,-0.8505048751893544,-0.5349407195631013,0.9666757585179492
1684002601036855000,1.14725537109375,-0.7903948426665968,-0.10473537439780758,1.099799156207926
1684002601046897100,1.15729736328125,-0.6007503868181334,-0.19314336776906776,0.9884433746101634
1684002601056939200,1.167339599609375,-0.3025697468512389,-0.3424024581866837,0.21873760217673668
1684002601066981600,1.1773818359375,-0.348889350731533,-0.465929508242146,-0.4525327682689025
1684002601077023600,1.187424072265625,-0.22147250174238514,-0.7811927794812508,-0.6079645157006569
1684002601087065800,1.197466064453125,-0.4096801279862251,-0.740412712108384,-0.5748233796300061
1684002601097107900,1.20750830078125,-0.6243556737605729,-0.672112941615592,-0.43517208090479037
1684002601107150300,1.217550537109375,-0.5765491723273231,-0.5262646674117544,-0.6806659698619056
1684002601117192400,1.2275927734375,-0.6703870296768721,-0.7048673630075266,-1.0929913519719632
1684002601127234600,1.237634765625,-0.7003967761083542,-0.3080310822981028,-1.26457309734404
1684002601137276800,1.24767724609375,-0.2762234211661474,0.06486988083038542,-1.073626041398362
1684002601147319000,1.25771923828125,-0.0695538521406578,0.2382783890927406,-0.5311479568738027
1684002601157361100,1.267761474609375,0.09227657314468496,0.1941761969757507,0.4789361953413211
1684002601167403200,1.277803466796875,-0.2644038199184867,0.1470856667817762,0.7839002610316688
1684002601177445600,1.287845947265625,1.2716468573460473,-3.6847343443837604,3.3585538864013085
1684002601187487600,1.29788818359375,1.6362967491222469,-1.7063369750567092,0.6735782623048835
1684002601197529800,1.30793017578125,0.21171200283822253,0.8109257221767412,-1.4747939110026107
1684002601207571900,1.31797216796875,-0.5635848044104841,1.699172973643349,-1.84330272665435
1684002601217614300,1.3280146484375,-0.4325844049453963,0.7598342894166485,-0.5783081053403617
1684002601227656400,1.338056884765625,0.07115435607546308,0.20274543767978992,-0.16388225557529298
1684002601237698600,1.348098876953125,0.038169622296312926,0.0431313515936962,-0.20738410955437175
1684002601247740800,1.358141357421875,-0.6360144615404646,-0.18122434612332833,-0.007616996655373828
1684002601257783000,1.368183349609375,-0.7766534088704901,-0.20880079251732853,0.12441539762573751
1684002601267825100,1.3782255859375,-0.4778895376770071,0.06202220916772777,-0.2600965499905777
1684002601277867200,1.388267578125,-0.16683053969613204,-0.13245868690942028,-0.6437425614450534
1684002601287909600,1.39831005859375,0.2848665118090545,-0.5304808617017289,-1.1985878945229713
1684002601297951600,1.40835205078125,0.3163573145978692,1.0561261175234018,-2.3409729005639717
1684002601307993800,1.418394287109375,0.19461476800816138,0.7306602000172091,-1.4829778672284297
1684002601318035900,1.428436279296875,0.019338309672615524,-0.21860122689510403,-0.5376081467055275
1684002601328078300,1.438478759765625,0.008643388709707192,-1.1596775054481727,0.3596048355859367
1684002601338120400,1.448520751953125,-0.07571619737980366,-2.1085600851730653,0.8115119933660853
1684002601348162600,1.45856298828125,-0.25033146140128326,-2.289270877756577,0.5335206984933378
1684002601358204600,1.46860498046875,0.06803327803999994,-1.5580482481698736,-0.7884855270050596
1684002601368247000,1.4786474609375,0.10244482741635931,-0.5025172232465571,-1.9661364554785847
1684002601378289100,1.488689453125,-0.10341936353882998,-0.03794527061976918,-2.0233516693645694
1684002601388331200,1.498731689453125,-0.1422621606626969,0.0938720703822144,-1.3213605881210289
1684002601398373600,1.50877392578125,0.6322437524915192,-0.04807519912534945,-1.3398184776349737
1684002601408415600,1.518816162109375,1.3666512966781097,-0.4484992028657405,-1.4353017806301707
1684002601418457800,1.528858154296875,1.6733345984790018,-0.23842430116455515,-1.5597696305126718
1684002601428499900,1.538900390625,1.548160076149491,0.22129344936375878,-1.690694332123485
1684002601438542300,1.548942626953125,1.1477812528510203,0.7023658752128049,-1.4097204208700438
1684002601448584400,1.55898486328125,0.42188119877255437,0.692952394557413,-1.3487839699193718
1684002601458626600,1.56902685546875,-0.26766645895526203,0.4534916877553515,-2.2339973449806454
1684002601468668800,1.5790693359375,-1.04187905779869,0.18728303902744817,-1.7768154145400477
1684002601478711000,1.589111328125,-0.5417366027571413,0.7980089187792436,-0.12413215633734834
1684002601488753100,1.599153564453125,1.153211116741678,0.9411559103636915,1.5222492216522996
1684002601498795200,1.609195556640625,0.5081557034832136,1.2010035513371071,0.6880321503332418
1684002601508837300,1.61923779296875,0.24479186527810404,0.5149307251862011,-0.2765893935669932
1684002601518879600,1.629280029296875,-0.4704587459397007,-0.41383457173334276,-1.1126160621834413
1684002601528921800,1.639322265625,-0.8151677846073185,-0.9523987769361745,-1.7099342347354658
1684002601538963900,1.6493642578125,-0.6243982316066035,-0.7653942109254078,-1.6365146637808128
1684002601549006300,1.65940673828125,-0.7535326481172454,-0.47784709916935486,-1.4006338118303365
1684002601559048400,1.66944873046875,-0.5290930271311635,-0.12161445616768807,-1.380579948256208
1684002601569090600,1.679490966796875,-0.14732241640398078,0.10228776924095996,-1.1394643784919796
1684002601579132600,1.689532958984375,0.5590124129743911,0.1465210914592485,-0.714564323505558
1684002601589175000,1.699575439453125,0.8264409303036034,-0.0749468804474823,-0.3432350157440108
1684002601599217100,1.709617431640625,1.097563147557172,0.059680461933623905,-0.20706176755418745
1684002601609259200,1.71965966796875,0.9822840690379344,-0.2931094171049694,0.006463050835611754
1684002601619301300,1.72970166015625,0.4775698184046096,-0.8362541199171054,0.17913341516039713
1684002601629343600,1.739744140625,0.5232894421169277,-0.4739265440718134,0.23497772234466577
1684002601639385800,1.7497861328125,0.35489130023734966,-0.12224388122004304,0.24858760836150198
1684002601649427900,1.759828369140625,-0.2193493842783519,-0.41538095492156857,0.983649253785928
1684002601659470000,1.769870361328125,-0.2691938876573847,-0.25180196751504824,0.9585781098458827
1684002601669512400,1.779912841796875,-0.2661290168159344,0.41888380048239293,0.06734275818791986
1684002601679554600,1.789954833984375,-0.4024441242747982,0.2435774803298042,-0.6419301034530861
1684002601689596600,1.7999970703125,-0.37162733097407047,-0.2326698302451382,-0.9982609747912907
1684002601699638600,1.8100390625,-0.3168587683933695,-0.21690988540043873,-0.8820304871845939
1684002601709681100,1.82008154296875,-0.5972583294518379,0.31294059748383846,-0.7712526320815358
1684002601719723200,1.83012353515625,-0.6744778156814042,0.15625333769734184,-0.3315544129149424
1684002601729765300,1.840165771484375,-0.44449424743432125,-0.04998874668682983,-0.01980018615946034
1684002601739807400,1.850207763671875,-0.013457655848074575,-0.5251808165806258,0.652325630211058
1684002601749849800,1.860250244140625,0.19999289509272902,-0.6132860184803149,1.3073320388378353
1684002601759891900,1.870292236328125,0.35846424103086755,0.6007509231811639,0.4037065506748492
1684002601769934000,1.88033447265625,0.027521610239295412,0.8039402963364108,0.30944824213701283
1684002601779976400,1.890376708984375,-0.20023727416718068,0.6971602440698493,0.17461299898238006
1684002601790018600,1.9004189453125,-0.3263990878145706,1.1309847832808888,-0.06548213959767128
1684002601800060600,1.9104609375,-0.2282737492578893,1.0848135946745698,-0.5096673966107916
1684002601810102600,1.920503173828125,-0.30652654179915956,-0.04111337657262994,-0.47374534597845963
1684002601820145100,1.93054541015625,-0.599964737924511,-0.4284462928849122,-0.2338962554966013
1684002601830187200,1.940587646484375,-0.9132514000241454,-0.013560295031243294,0.2670288085286003
1684002601840229300,1.950629638671875,-1.0630083083036486,0.3265762328185539,0.28214931484515743
1684002601850271400,1.960671875,-1.0514773131541937,0.19262933740395818,0.26656913760908596
1684002601860313800,1.970714111328125,-0.9491095543818744,0.1439204215725668,0.23257637025062192
1684002601870355900,1.98075634765625,-1.0360313654778197,0.2135653495550363,0.020394325093424058
1684002601880398000,1.99079833984375,-0.6742937565343945,0.9822640418195306,1.1058568954438655
1684002601890440100,2.000840576171875,-0.7058066129506166,-0.13967752452230306,0.5030908584302959
1684002601900482600,2.0108828125,-0.32922255998870104,-0.4361023901855524,0.6845617293809826
1684002601910524600,2.020925048828125,-0.6065480113996127,-1.3947501183412194,0.3012208937264109
1684002601920566600,2.030967041015625,-0.23983567957848323,-2.114212036047004,0.4950971603605498
1684002601930608800,2.04100927734375,-0.13953918221885225,-1.8822364806951446,0.6702814101516809
1684002601940651200,2.051051513671875,-0.4630885721392829,-1.5463514328472678,1.8127956390665665
1684002601950693300,2.06109375,-0.05189222101289022,-1.032963752775479,3.1678781508636327
1684002601960735400,2.0711357421875,-0.2121223211283851,0.1238832472005262,3.4401206969157854
1684002601970777600,2.081177978515625,-0.3635618090150953,0.10711765292117227,3.1619110107578874
1684002601980819900,2.09122021484375,-0.15754967932823755,-0.5270242690524575,2.11178779595975
1684002601990862000,2.101262451171875,1.2226347922378198,-1.374222755421905,0.8231105803745132
1684002602000904100,2.111304443359375,1.0743174553991357,-1.1901640891642504,0.20243740079649986
1684002602010946200,2.1213466796875,0.8015456797250636,-0.3847017289696121,-0.5970764160842188
1684002602020988600,2.131388916015625,0.46159541591386966,0.21591520307813045,-2.5233287811805556
1684002602031030600,2.14143115234375,0.18959927562097276,0.4945096969171843,-3.691106319472842
1684002602041072800,2.15147314453125,0.23189044016532032,1.0401520729347389,-2.805469036240228
1684002602051115200,2.161515625,0.5430772303398718,1.357680320758036,-2.3963780402934476
1684002602061157300,2.1715576171875,0.3610812426287757,1.117908001074729,-2.124197959827044
1684002602071199400,2.181599853515625,0.27596604813292275,0.5825843812181268,-1.5930457115998682
1684002602081241600,2.191641845703125,0.4915907978737499,0.05699729920316891,-1.5444607735181521
1684002602091283900,2.201684326171875,0.8644142149047385,-0.3540029527154539,-1.7565274236911956
1684002602101326000,2.211726318359375,1.2394367456591535,-0.6026849746547485,-1.681818962032493
1684002602111368100,2.2217685546875,1.4217804669867868,-0.9138216970851912,-1.1516666412222791
1684002602121410200,2.231810546875,1.5445322988954169,-0.986408233711503,-0.6335959433656676
1684002602131452600,2.24185302734375,1.5222499371220835,-0.5439147948908037,-0.2812128068007068
1684002602141494600,2.25189501953125,1.5601549146954845,0.4361824989494259,-0.14353847503743977
1684002602151536800,2.261937255859375,1.5699518917811317,0.9950237274101241,-0.16085433946872824
1684002602161578900,2.271979248046875,1.6545672414822994,1.0864629746014607,-0.5961141587583748
1684002602171621300,2.282021728515625,1.811790466326965,0.9265832900415145,-1.0734605789224292
1684002602181663400,2.292063720703125,1.8350450992130192,0.34513473510391807,-1.7237682343934566
1684002602191705600,2.30210595703125,1.6375637055943133,-0.23436927803354957,-2.0949296950716487
1684002602201747600,2.31214794921875,1.2039041519372062,-0.43489265448647274,-2.097836971280485
1684002602211789700,2.322190185546875,0.5010731817339462,-0.6859865188930789,-2.1741819382666474
1684002602221832100,2.332232421875,-0.0274135469179449,-1.6782498359570566,-1.8239049910875893
1684002602231874200,2.342274658203125,0.17773592460602403,-2.695344447991623,-0.9995746611523101
1684002602241916300,2.352316650390625,0.9041558505756282,-2.3254504203293864,-0.02682065952223783
1684002602251958600,2.362359130859375,1.3326407670924452,-1.501873970083353,0.4649100303892526
1684002602262000800,2.372401123046875,1.4807771443749205,-1.096767425421306,0.44925642000099975
1684002602272042900,2.382443359375,1.4772068261877016,-0.9088649749371599,-0.24890232071127125
1684002602282085000,2.3924853515625,1.314490795068119,-1.1114311218160242,-0.9768028258412388
1684002602292127400,2.40252783203125,0.9344003199513548,-1.4711985588315664,-1.691286087050935
1684002602302169600,2.41256982421875,0.3863603473684509,-1.473060131101583,-2.243629455519769
1684002602312211600,2.422612060546875,-0.057881951330858376,-1.1417145729805107,-2.4027523994737425
1684002602322253700,2.432654052734375,-0.15854875738950103,-0.8666234015350079,-2.07275485984497
1684002602332296100,2.442696533203125,0.11446081103420534,-1.0680861472889884,-1.2574257850583317
1684002602342338200,2.452738525390625,0.536150813258974,-0.8662271498090196,-0.5147023201378415
1684002602352380300,2.46278076171875,0.8028105496788118,-0.5454483031139729,-0.1372547151107922
1684002602362422400,2.47282275390625,0.7572821973683231,-0.42010211946244014,-0.05633258822270047
1684002602372464800,2.482865234375,0.7212718128014205,-0.5830965043396096,-0.2331070900220287
1684002602382506900,2.4929072265625,0.7226044536509972,-0.44288015347172044,-0.3167729377961733
1684002602392549000,2.502949462890625,0.8339595795364808,-0.5576786996406472,-0.4805426596671731
1684002602402591200,2.512991455078125,0.8348587750099702,-1.2103290556811421,-0.47097873677847435
1684002602412633600,2.523033935546875,0.8777995109100073,-1.37459945685807,0.0013761520618733418
1684002602422675600,2.533075927734375,0.8484430909214491,-0.8265099523715255,0.6837725638856401
1684002602432717700,2.5431181640625,0.7548540234028541,0.12237501134225551,0.9156270028788391
1684002602442759900,2.55316015625,0.5667752028299062,0.40648698806031036,0.7691202163491591
1684002602452802200,2.56320263671875,0.5892018078528775,0.7114906312911804,0.1465535164127423
1684002602462844300,2.57324462890625,0.46695795662109907,0.9516763685868443,-0.29656600952381823
1684002602472886400,2.583286865234375,0.36025384062452614,0.9317984580964789,-0.6133112906491092
1684002602482928600,2.593328857421875,0.18788349633316456,2.2047195434632996,-1.117249488919087
1684002602492970900,2.603371337890625,-0.08723971251431333,1.395385265205759,-1.3670988082247193
1684002602503013000,2.613413330078125,-0.3320373295817266,0.38099193583085134,-1.3048372267918245
1684002602513055200,2.62345556640625,-0.2085115014206207,-0.6524653435667794,-0.6794099807735243
1684002602523097300,2.63349755859375,0.062451451952793245,-1.0482201576568182,0.05040645601317161
1684002602533139400,2.643539794921875,0.025707215031407007,-1.4048829078213467,0.08101940147943278
1684002602543181700,2.65358203125,-0.6135709286959082,-1.598548412395993,-0.3405604362648433
1684002602553223900,2.663624267578125,-0.38920611149019374,-1.3364491463066972,0.07779264447581666
1684002602563266000,2.673666259765625,0.7559298873535241,-0.04141283037070918,0.3031897544147092
1684002602573308100,2.68370849609375,0.3515660762464398,0.0655031204485484,-0.10295391094279473
1684002602583350400,2.693750732421875,0.21651870022935055,0.06006669998061271,-0.5237817765536193
1684002602593392600,2.70379296875,0.5102688668571053,0.32014369965230877,-0.4141654968781357
1684002602603434600,2.7138349609375,0.5843765736987527,0.45998907102578795,-0.5460867881182819
1684002602613476800,2.723877197265625,0.5126165151064558,0.4915552140497324,-0.6305384635040051
1684002602623519200,2.73391943359375,0.6000732779453986,0.676879405977036,-0.7716283798585194
1684002602633561300,2.743961669921875,0.6551327705007775,0.6478815078380691,-0.7117228509525487
1684002602643603400,2.754003662109375,0.58657175298436,0.6987352369621996,-0.7703838348765383
1684002602653645600,2.7640458984375,0.5158291458225647,0.638550281527224,-0.8676300048575213
1684002602663687900,2.774088134765625,0.4525123237929291,0.3124456405849966,-0.6620993615337427
1684002602673730000,2.78413037109375,0.5684002636808471,-0.21159410463826797,-0.5507731437082701
1684002602683772100,2.79417236328125,0.8747917413398764,0.06069374073853545,0.32830429069559536
1684002602693814200,2.804214599609375,0.6699777245303633,-0.46017837515123317,1.1805424689830375
1684002602703856600,2.814257080078125,0.4393245578760913,-0.9001431464586735,1.7852835655079096
1684002602713898600,2.824299072265625,0.38502776611234035,-0.6624445914773938,1.766253471389155
1684002602723940800,2.834341064453125,-0.3347749114605063,1.4976668359006493,0.5681838988889443
1684002602733983200,2.844383544921875,-0.21950615935958143,0.05659723284129089,-0.6909046173297759
1684002602744025300,2.85442578125,0.30218523737192593,0.49333477015051524,-0.8064699172125649
1684002602754067400,2.8644677734375,0.21242567898057513,0.753478527155393,-0.8997435569657624
1684002602764109600,2.874510009765625,0.21390080442611092,0.18323135377171146,-0.9948620797199051
1684002602774151600,2.884552001953125,0.5088438987108832,0.2004003526051484,-0.3752889632996576
1684002602784194000,2.894594482421875,0.14070200932561286,0.15898704532581948,0.6885981559371412
1684002602794236100,2.904636474609375,-0.18193775407321816,-0.2561140060654929,1.4343318939848515
1684002602804278200,2.9146787109375,-1.1248474120173162,0.021736621777241116,0.18663024900158834
1684002602814320300,2.924720703125,0.023200154456254948,-0.5542998314989857,0.9564900397892256
1684002602824362600,2.93476318359375,0.2652543782367286,-0.17813253407935603,1.345720767881117
1684002602834404800,2.94480517578125,0.23636583984762136,1.2618150710210196,0.9614391326112411
1684002602844446900,2.954847412109375,-0.8725718857123343,0.8429350852661232,-1.841993331907506
1684002602854489300,2.9648896484375,-0.0486030129959408,-0.8516731262895317,-1.5058660508362396
1684002602864531400,2.974931884765625,0.4359900951257233,0.39250183115962767,0.15327215206535802
1684002602874573600,2.984973876953125,0.14480489482977413,0.1231350899314699,0.6745328903662537
1684002602884615600,2.99501611328125,0.2164305745811241,-0.3830118179611861,1.0716166496099118
1684002602894657600,3.00505810546875,-0.442327082038337,2.2152895926940714,-0.8053383826309112
1684002602904700100,3.0151005859375,0.09402313816564942,-0.33827733995682757,-1.517370700949702
1684002602914742200,3.025142578125,0.7316780685646271,0.03166580195481926,-0.2899131775536528
1684002602924784300,3.035184814453125,0.5732758045275813,0.5129847526452956,0.48233938214646355
1684002602934826400,3.045226806640625,0.45903423413201655,2.4628949164994935,1.0567436217175117
1684002602944868800,3.055269287109375,-0.616265118014262,0.6709198950074812,-1.274260997725937
1684002602954910900,3.065311279296875,0.15521368391656826,-1.2050704954666442,-0.3006124496176852
1684002602964953000,3.075353515625,0.8029997347858596,-0.25985145574187357,1.304302692418511
1684002602974995100,3.0853955078125,0.7943416832990915,0.023084640456778726,2.3469452858329
1684002602985037600,3.09543798828125,0.5008516906521525,-0.2724695205660265,2.579140186387895
1684002602995079600,3.10547998046875,0.45233041048707834,-0.3641338348868033,2.5969066620204084
1684002603005121600,3.115522216796875,0.4206295311918606,0.02050304407082562,2.2491326331614285
1684002603015163800,3.125564208984375,0.18925894800061285,0.32192516323197595,1.555490970499731
1684002603025206200,3.135606689453125,0.2798145414665692,2.3524904251813243,1.3665218353127433
1684002603035248300,3.145648681640625,-0.5436719655075827,2.4633622171224223,-2.5930244922245937
1684002603045290400,3.15569091796875,-0.025081589748562384,-1.301040649576311,-1.9529163837411705
1684002603055332600,3.16573291015625,1.5510067940466605,-0.3886022567119065,1.3841600418259228
1684002603065374600,3.175775146484375,1.531251430491767,0.45842266072162685,3.000000477026374
1684002603075417000,3.1858173828125,1.3429675102640604,-0.023224830738575453,2.922916412391579
1684002603085459100,3.195859619140625,1.3545470238424664,0.17160987843968403,2.097670078325643
1684002603095501200,3.205901611328125,1.0205441714592611,0.31240844720599736,1.085717678082612
1684002603105543300,3.21594384765625,0.5568984151654341,0.4258365631108024,0.2521343230597294
1684002603115585600,3.225986083984375,-0.027871433585387767,0.39948463445918614,0.08690357212856027
1684002603125627800,3.2360283203125,-0.4499067962029599,0.7185220717650124,0.36210536957899
1684002603135669900,3.2460703125,-0.7161337135306721,0.8302927016483742,0.5321087837814685
1684002603145712000,3.256112548828125,-0.29850518709403867,3.739628314927195,1.5049386024770457
1684002603155754400,3.26615478515625,0.2285056860757345,-0.10027408591297501,0.19275808337441191
1684002603165796600,3.276197021484375,0.6177396179292372,0.0717306137195303,1.176676273176657
1684002603175838600,3.286239013671875,0.8689336778112707,0.339518547067111,1.2523856163218468
1684002603185880800,3.29628125,1.0028941630365458,0.49674129485012225,0.7431325912189267
1684002603195923100,3.306323486328125,1.2802098988848367,0.07373523727895734,1.0041613578965745
1684002603205965200,3.31636572265625,1.2578991651493596,-0.4409236907153419,1.2862758636370784
1684002603216007300,3.32640771484375,1.1339623929505593,-0.6461582183747104,1.2380399705005436
1684002603226049500,3.336449951171875,0.8063370585278582,-0.6353845596526633,0.7607808112888159
1684002603236091800,3.3464921875,0.3892264365902291,-0.4953775407372342,0.485662937220797
1684002603246133900,3.356534423828125,0.24694220729146318,-0.4432964324787045,0.23981523520152467
1684002603256176000,3.366576416015625,0.23109029242227572,2.1169142723934433,0.8899483679361073
1684002603266218200,3.37661865234375,-0.41647380572174536,0.5777969359629923,-1.267266750372129
1684002603276260600,3.386660888671875,-0.7541041970089856,0.3234920501726979,-1.332482814873223
1684002603286302600,3.396703125,-0.8824368118416858,0.6787500381612684,-1.2080314160285026
1684002603296344800,3.4067451171875,-1.1025401353864612,1.1677923203481255,-1.2901573180469408
1684002603306386900,3.416787353515625,-1.0748343467544021,1.2165145874843186,-1.5096273422287436
1684002603316429000,3.426829345703125,-1.1988012791556213,0.9685220719310516,-1.5039558409087792
1684002603326471300,3.436871826171875,-1.2885150907965373,0.7848033904482938,-1.2451756000766914
1684002603336513500,3.446913818359375,-1.238406896686079,0.7259664535431806,-1.3303008078828256
1684002603346555600,3.4569560546875,-1.4328886271556296,0.17384147651332266,-1.3000257015876495
1684002603356597600,3.466998046875,-1.6192785501861384,-0.26827716819072467,-1.2973294257504722
1684002603366640000,3.47704052734375,-1.376576423556564,-0.0851602554026457,-0.7988224029656389
1684002603376682200,3.48708251953125,-0.9055035114133636,-0.04481315626540162,-0.2481780052564429
1684002603386724300,3.497124755859375,-0.6942839621451836,-0.4658803941570546,0.3474860191993488
1684002603396766400,3.507166748046875,-0.587279140877267,-0.6654653549097491,0.902287244691602
1684002603406808800,3.517209228515625,-0.13197207460614838,-1.9916610718783891,1.2727289200461085
1684002603416850900,3.527251220703125,0.05420744401224206,0.10248088849111212,2.678485631767473
1684002603426893000,3.53729345703125,-0.1755418778141656,-1.1353931426301593,1.822067260774797
1684002603436935100,3.54733544921875,-0.6322194338095121,-1.9180297851695887,2.1652221678631696
1684002603446977500,3.5573779296875,-0.575786113728453,-0.7333307266828453,2.940981149634766
1684002603457019600,3.567419921875,-0.7231074573232343,-1.4830265043969824,2.039445638833132
1684002603467061600,3.577462158203125,-0.5497142075969996,-1.0423240659940853,2.0531890392716714
1684002603477103800,3.587504150390625,-0.5067970751838309,-1.7801074981601077,1.30835914608102
1684002603487146200,3.597546630859375,0.10723865023567297,-0.04057311997427712,0.7792744636362237
1684002603497188300,3.607588623046875,0.10122919083423701,-1.2149868011776535,-0.31365990650144643
1684002603507230400,3.617630859375,0.6959174870954228,-0.07193756100910359,-0.3285260201053604
1684002603517272600,3.6276728515625,0.5639612674488843,-0.21458625801826495,-0.07443904871894233
1684002603527314600,3.637715087890625,0.41214871416878696,-1.0612449645874806,-0.5829882621611572
1684002603537357000,3.64775732421875,0.2639998197805084,-1.264688491820219,-1.3362661601007884
1684002603547399100,3.657799560546875,0.31605207920217354,-1.2717895507205406,-1.3556084632990661
1684002603557441200,3.667841552734375,0.08679556857904205,-1.238760948075792,-1.258644938498278
1684002603567483300,3.6778837890625,-0.020794391667594538,-1.5401554107665343,-1.5690267087108527
1684002603577525600,3.687926025390625,0.30102443701122095,-0.09640884400745141,-0.9427847862874714
1684002603587567800,3.69796826171875,0.4663336277044891,-0.8963193893072576,-1.3242107628925885
1684002603597609900,3.70801025390625,0.6936694383860741,-1.1029348372336818,-1.2317645549467235
1684002603607652000,3.718052490234375,0.9139362573184083,-0.4260368347646166,-0.744246244396347
1684002603617694400,3.7280947265625,1.0810023546080754,-0.6099376678190211,-0.9315700529335521
1684002603627736600,3.738136962890625,1.1303575039506133,-0.35726833336115815,-0.5363283157252782
1684002603637778600,3.748178955078125,1.1847406626484132,0.15895652771892615,0.07341432563305039
1684002603647820600,3.75822119140625,1.0940275191644007,0.5217895506822261,0.6777796746337841
1684002603657863100,3.768263427734375,0.943956613661864,0.8316850661980686,1.0448911190741461
1684002603667905200,3.7783056640625,0.7409746647677664,0.9849233628921567,1.1423571110016353
1684002603677947300,3.78834765625,0.7306987046974885,0.9135961532387192,0.9543960094013858
1684002603687989400,3.798389892578125,0.7184408903848575,0.8491258622692016,0.37773680686191
1684002603698031800,3.80843212890625,0.7919646502564983,1.1004958153463245,-0.8108510970959338
1684002603708073900,3.818474365234375,0.6444332598275956,1.4691100119824978,-1.3303310870991472
1684002603718116000,3.828516357421875,0.43746685974051547,1.1323833465732822,-2.1656184197874873
1684002603728158100,3.83855859375,0.2597517967808621,0.909232139539298,-2.6702170372451235
1684002603738200200,3.8486005859375,0.1395823954735815,0.45491600037955376,-3.083012342406931
1684002603748242600,3.85864306640625,0.11129593846212248,-0.03353309637517996,-3.27198934545559
1684002603758284600,3.86868505859375,0.16831064209358113,-0.5932798384295207,-3.130217075480093
1684002603768326800,3.878727294921875,0.2505362033674193,-0.6774206163170223,-2.793412208695344
1684002603778368900,3.888769287109375,0.14720201502781102,-0.7421932221798498,-2.1154952048654367
1684002603788411300,3.898811767578125,0.2840692996103998,-0.1178598403302423,-1.4566528796070977
1684002603798453400,3.908853759765625,0.3009369373069306,0.1326065062390025,-0.7335660456975501
1684002603808495600,3.91889599609375,-0.11310553542771848,-0.10908794414915784,-0.06682348240750254
1684002603818537600,3.92893798828125,-0.7530596255835085,-0.5830116272601807,0.4259860515125352
1684002603828580000,3.93898046875,-1.1275820731417103,-0.8974819183456242,0.7215216159606346
1684002603838622100,3.9490224609375,-1.2016168833532657,-0.6650419236023295,0.7777066229970374
1684002603848664200,3.959064697265625,-1.2701920272532663,-0.5516929626760844,0.6839482783628654
1684002603858706400,3.969106689453125,-1.3065382242413914,-0.7615356443558933,0.5960822105043581
1684002603868748600,3.979149169921875,-1.157536029691747,-0.8352041244657848,0.4347162246922846
1684002603878790800,3.989191162109375,-0.8929830789243938,-0.6881513596062241,0.4413828850441153
1684002603888832900,3.9992333984375,-0.5768944025299574,-0.5906658172719171,0.4501934050524938
1684002603898875100,4.009275390625,-0.28027462965803823,-0.17994117738576082,0.6340599059882361
1684002603908917200,4.019317626953125,-0.2003635167022272,-0.6306695937940854,0.16055727000260253
1684002603918959600,4.02935986328125,-0.05818533889612811,-0.5696640014756252,-0.06122684474045732
1684002603929001600,4.039402099609375,-0.054842591178953334,-0.27937889091852,-0.10419559470487719
1684002603939043800,4.049444091796875,-0.12201082709256285,0.03495311730278501,-0.09474515911607015
1684002603949085900,4.059486328125,-0.2321102617276706,0.1935539245407115,0.015750885066849036
1684002603959128200,4.069528564453125,-0.2948955298341919,0.022654533329312963,-0.04597711560479132
1684002603969170400,4.07957080078125,-0.19898128510241384,-0.06171417250955841,-0.23171997080984832
1684002603979212500,4.08961279296875,-0.004094243086163936,0.002172470102682306,-0.27906465524420426
1684002603989254600,4.099655029296875,0.20365464700821828,0.5021448136105882,-0.2245311735751438
1684002603999296900,4.109697265625,0.26825118057400327,0.6626434325897019,-0.4036760329287344
1684002604009339100,4.119739501953125,0.5500705241635854,1.5058031083019954,-0.20564556124784816
1684002604019381200,4.129781494140625,0.6344423295888284,1.7552137376200325,-0.020808219874730003
1684002604029423300,4.13982373046875,0.5746859311374185,1.4291400909045389,-0.05453538902312331
1684002604039465400,4.14986572265625,0.5559810400822046,1.3051424025405927,-0.1793761253251981
1684002604049507800,4.159908203125,0.5267974139716476,1.1420464515749231,-0.5002374650096596
1684002604059549900,4.1699501953125,0.4825010299750232,0.7169790266535783,-1.007703065829869
1684002604069592000,4.179992431640625,0.6417745352347854,0.3401880264275218,-1.2106325626324568
1684002604079634100,4.190034423828125,0.6415824890847077,-0.5648460388593374,-1.6447393894913238
1684002604089676500,4.200076904296875,0.554953455810486,-1.1191053390026267,-1.8196108340589452
1684002604099718600,4.210118896484375,0.5568130016061571,-0.9925136566207144,-1.5836238861583565
1684002604109760600,4.2201611328125,0.4774775504931862,-0.5474290847761812,-1.2070271968640356
1684002604119802800,4.230203125,0.403189420669458,0.11916923523573111,-0.6135535239479027
1684002604129845200,4.24024560546875,0.29678606986199796,0.552824020459244,-0.2709851265357888
1684002604139887300,4.25028759765625,0.00161647784037542,0.524952411599525,-0.04436206811930552
1684002604149929400,4.260329833984375,-0.3227446078798529,0.28669357300636816,0.09339761723218849
1684002604159971600,4.270371826171875,-0.6401815413356627,0.1799707412195241,0.2850494385581012
1684002604170013600,4.2804140625,-0.6330163478569516,0.16595554350448108,0.19729328152286443
1684002604180056000,4.290456298828125,-0.5309498309717994,0.610238075414741,-0.10790824898718536
1684002604190098100,4.30049853515625,-0.1857397555825655,0.75118350990774,-0.5837302207293704
1684002604200140200,4.31054052734375,0.024676084539472534,0.5424852371947994,-0.9455108640747252
1684002604210182300,4.320582763671875,0.10942721348259919,0.7895650864113214,-0.868257999598058
1684002604220224600,4.330625,0.24040484435738663,0.7279806135161958,-0.7599256039471322
1684002604230266800,4.340667236328125,0.39761519424812564,-0.4911041260059525,-1.4035477639119995
1684002604240308900,4.350709228515625,0.39122343064124443,-0.23176097868912895,-0.9205453394503115
1684002604250351000,4.36075146484375,0.46584987650101595,-0.6586627959901071,-0.9398927688927323
1684002604260393400,4.370793701171875,0.5352858303921633,-0.39293479915438084,-0.4173221588390567
1684002604270435600,4.3808359375,0.3140060901355635,-0.3379173277310274,-0.00687170028101041
1684002604280477600,4.3908779296875,0.0016200543014607183,-0.06537342072552167,0.04255676259040923
1684002604290519700,4.400920166015625,-0.2396092414050882,-0.090939521844398,-0.10183811198677734
1684002604300561800,4.410962158203125,-0.3610041140591265,-0.15117359158413315,-0.1212129593078677
1684002604310604200,4.421004638671875,-0.45731878294477996,0.1653671263819538,-0.043862819651513
1684002604320646300,4.431046630859375,-0.46600174899052843,0.37245368962546804,-0.0011887550820346468
1684002604330688400,4.4410888671875,-0.17078375812116184,1.0247077941562581,-0.12007951748133784
1684002604340730600,4.451130859375,-0.003618001953477468,1.1927428244396476,0.19718074813101677
1684002604350772900,4.46117333984375,0.17023968677337334,1.0443711281036046,0.3466477395401596
1684002604360815000,4.47121533203125,0.28053832057126654,0.778530120817546,0.24120426181825375
1684002604370857100,4.481257568359375,0.3026936053118151,0.9353413581776913,0.4357857703162728
1684002604380899200,4.491299560546875,0.010164260803881456,0.4750175475916413,0.6342239380809257
1684002604390941400,4.501341796875,-0.24407327161122072,0.020130157327853098,0.7799158096873666
1684002604400983700,4.511384033203125,-0.5086847543311322,-0.36943149565764444,0.8869943619457016
1684002604411025800,4.52142626953125,-0.9208705425670651,-1.0617847441842012,0.7317996025147556
1684002604421068000,4.53146826171875,-1.1513906718722602,-1.656530380406197,0.4814105033127691
1684002604431110100,4.541510498046875,-1.134053826460148,-1.9421043397099016,0.24610996239729466
1684002604441152400,4.551552734375,-1.1231813431010724,-2.2006254197927793,0.4114003180798218
1684002604451194600,4.561594970703125,-1.3285083770152812,-2.2846822739667587,0.5910634993073252
1684002604461236600,4.571636962890625,-2.022722244166528,-2.039466857901274,0.8383226394334158
1684002604471278800,4.58167919921875,-3.32789707185423,-1.5559177398911068,1.5326871873438117
1684002604481321100,4.591721435546875,-4.469295024853407,-1.3389749525479941,2.104474544504912
1684002604491363200,4.601763671875,-3.2036046980666053,-0.5981941221753847,1.9862756727646804
1684002604501405400,4.6118056640625,-1.4895944595279802,0.06834506992719601,1.3266677856209255
1684002604511447600,4.621847900390625,-0.11291372767438858,0.5684528351611341,0.7334232329785312
1684002604521489600,4.631889892578125,1.0870785713099653,1.0888371467606255,0.06127119070374121
1684002604531532000,4.641932373046875,1.5080287456543184,1.3242001533000403,-0.09600782387731845
1684002604541574100,4.651974365234375,1.5285130739180428,1.469534873876634,-0.30883693710837556
1684002604551616200,4.6620166015625,1.2587370872355972,1.3478670119447853,-0.5882167815115329
1684002604561658300,4.67205859375,0.8717709779646953,1.0248079299577264,-0.9495277404419442
1684002604571700600,4.68210107421875,0.6034567356769972,0.7046976088878603,-1.1462655066685954
1684002604581742800,4.69214306640625,0.5766413210953548,0.6010942458191604,-1.2762680053497826
1684002604591784900,4.702185302734375,0.4324532449618628,0.2889871596640705,-1.3117647172839395
1684002604601827000,4.712227294921875,0.4467876554333502,0.11684989939254928,-1.1157371998412082
1684002604611869400,4.722269775390625,0.5034612418550934,0.012271881125271552,-0.974040985014039
1684002604621911600,4.732311767578125,0.5309682489861334,-0.029559135436194147,-0.8962669373061916
1684002604631953600,4.74235400390625,0.528270006167564,-0.1044111252570081,-0.6728687285044543
1684002604641995600,4.75239599609375,0.5813638568534291,-0.11219120025082129,-0.46270275108681314
1684002604652038100,4.7624384765625,0.6429769992579402,-0.1036844253654396,-0.3045711517024525
1684002604662080200,4.77248046875,0.6984642148096976,-0.0867261886742363,-0.20862817762814378
1684002604672122300,4.782522705078125,0.7447469234748562,-0.07811927787899214,-0.23658132551238895
1684002604682164400,4.792564697265625,0.7703148723471375,-0.04877948749519945,-0.28452539445206587
1684002604692206600,4.80260693359375,0.7206121683372098,0.0033626555760237885,-0.3265562058647344
1684002604702248900,4.812649169921875,0.6488894224745594,0.1188144682681315,-0.4868340491880578
1684002604712291000,4.82269140625,0.6142930388218305,0.15001964559383613,-0.5608229635970573
1684002604722333100,4.8327333984375,0.5484526157544777,0.11746978767073167,-0.6396863461227087
1684002604732375200,4.842775634765625,0.5223684311660975,0.035921096678650365,-0.5461401938145364
1684002604742417600,4.85281787109375,0.5132572054465926,0.0649976730499454,-0.403274536171371
1684002604752459600,4.862860107421875,0.4378711581041624,0.04329776764024378,-0.2393960953199681
1684002604762501800,4.872902099609375,0.3008897005422599,0.02500247946742178,-0.18972969050597777
1684002604772543900,4.8829443359375,0.24963679904778754,-0.08112335206841703,-0.09959793085305815
1684002604782586300,4.892986572265625,0.15518514810498799,-0.23779964462529232,-0.26548528670564847
1684002604792628400,4.90302880859375,0.05363781752431745,-0.20676994327311976,-0.30909776688836443
1684002604802670600,4.91307080078125,0.06051340687087025,-0.3106012345339642,-0.27374219897802154
1684002604812712600,4.923113037109375,0.16412918261955778,-0.49393558495647694,-0.22433042533298886
1684002604822754700,4.933155029296875,0.38727074858151217,-0.607730865451748,-0.2717490196296462
1684002604832797100,4.943197509765625,0.6548079847716592,-0.5503063201539048,-0.1854634285383598
1684002604842839200,4.953239501953125,0.8506060242396931,-0.4652976988925462,-0.12504100811814603
1684002604852881300,4.96328173828125,1.0279545783334239,-0.21922969807820433,-0.23381805408476714
1684002604862923400,4.97332373046875,1.1412999629033838,-0.1892337799497123,-0.30008459088717
1684002604872965800,4.9833662109375,1.1674025058432096,-0.09089756000935868,-0.3125834464920733
1684002604883007900,4.993408203125,1.1694726944439042,-0.03232002260532878,-0.3272609710776255
1684002604893050000,5.003450439453125,1.1384148598488149,-0.04212570201306662,-0.3943734168709604
1684002604903092100,5.013492431640625,1.094655513663064,-0.02158164989487471,-0.5076804161327759
1684002604913134300,5.02353466796875,0.9993371964051483,-0.022960662878488965,-0.5612459183388444
1684002604923176600,5.033576904296875,0.8650998473556769,-0.08416080470190353,-0.5810003279716989
1684002604933218700,5.043619140625,0.7627632617650535,-0.13109779366301547,-0.5839972496522131
1684002604943260800,5.0536611328125,0.6536326408814666,-0.15974617016778678,-0.5552787780728693
1684002604953303000,5.063703369140625,0.540719866790751,-0.37443828582191535,-0.7509465216910126
1684002604963345300,5.073745849609375,0.5375147462648736,-0.4353466034601529,-0.8115744591065571
1684002604973387400,5.083787841796875,0.43606621034804344,-0.40742874146790325,-0.6994409559831871
1684002604983429600,5.093829833984375,0.32268202305591476,-0.3852186202026886,-0.5773892403278192
1684002604993471600,5.1038720703125,0.14907997847761542,-0.3405971525876639,-0.5016222000477213
1684002605003513800,5.1139140625,0.01884013406464795,-0.2354202268633046,-0.3957467079445626
1684002605013556100,5.12395654296875,-0.08695936199025815,-0.09616947186111453,-0.248088836628113
1684002605023598300,5.13399853515625,-0.163093268944073,0.05078315718178352,-0.12098407738546751
1684002605033640400,5.144040771484375,-0.20035779478057955,0.21010398862480328,-0.01931428912538655
1684002605043682600,5.154082763671875,-0.2186770439496137,0.3313131333293689,0.12576627732911197
1684002605053724600,5.164125,-0.19714576009000967,0.4025058746095049,0.21142816548760993
1684002605063767000,5.17416748046875,-0.14826303726467885,0.4190063476774969,0.3572392464741271
1684002605073809100,5.18420947265625,-0.08422243599505534,0.4141912461090121,0.48629474636906944
1684002605083851200,5.19425146484375,-0.02407926325287073,0.3617715835389304,0.6032586097403055
1684002605093893300,5.204293701171875,0.05600154395824283,0.36467647549335236,0.672569751645673
1684002605103935600,5.214336181640625,0.15116864437751093,0.38927173615191546,0.7013955116056185
1684002605113977800,5.224378173828125,0.2375758290628398,0.42601490026262967,0.7042689322990952
1684002605124019900,5.234420166015625,0.28678983454958695,0.44210338601763566,0.7326207159830086
1684002605134062000,5.24446240234375,0.3096200824091208,0.4696645737619289,0.7227392195826351
1684002605144104400,5.2545048828125,0.30632758140913174,0.4779415129710938,0.734227180521316
1684002605154146600,5.264546875,0.32219910619140574,0.4979629515764458,0.7325272560561293
1684002605164188600,5.274589111328125,0.3768957256865306,0.4558315277158231,0.7904472351228261
1684002605174230600,5.284631103515625,0.40996140239687584,0.42811775199622865,0.8004860878030228
1684002605184272800,5.294673095703125,0.44198125595838605,0.4170179366854995,0.7889251708403605
1684002605194315200,5.304715576171875,0.41540360434099965,0.4249448776226799,0.7249512672902935
1684002605204357300,5.3147578125,0.35938560960284965,0.4326791762844412,0.6777544020426985
1684002605214399400,5.3247998046875,0.30081367484301696,0.4162721633973217,0.668553352294083
1684002605224441600,5.334842041015625,0.2541647554569784,0.3376073837913768,0.6089210510776958
1684002605234483900,5.34488427734375,0.22632431993490768,0.31859683994918486,0.5682182312992331
1684002605244526000,5.354926513671875,0.20268291219539944,0.32553768150432705,0.5127763748827293
1684002605254568100,5.364968505859375,0.1542549730142701,0.3608770370518433,0.4023470880012061
1684002605264610200,5.3750107421875,0.07995432629553001,0.34804058086907363,0.33523988720013936
1684002605274652600,5.385052978515625,0.0018047689634263938,0.3377294540714956,0.3140401840304459
1684002605284694600,5.39509521484375,-0.06790989628236331,0.3278446197821684,0.2325391768910489
1684002605294736800,5.40513720703125,-0.10250455153867165,0.2807226179661374,0.2327938080351705
1684002605304778900,5.415179443359375,-0.14647066590279095,0.2512102127200422,0.2310147284928382
1684002605314821000,5.425221435546875,-0.16147702918461027,0.2509746551746928,0.20158624647941065
1684002605324863400,5.435263916015625,-0.15934598445105802,0.1687707901212966,0.1940803527788325
1684002605334905600,5.445305908203125,-0.15405535700284018,0.08838367462734706,0.1492214203493633
1684002605344947600,5.45534814453125,-0.14553463468688757,0.045347213738459825,0.06340646751846041
1684002605354989700,5.46539013671875,-0.11302286393538474,0.06713294984948141,0.017158031464264666
1684002605365032100,5.4754326171875,-0.08041095733812187,0.15958213812480002,-0.02813100811660615
1684002605375074200,5.485474609375,-0.008172035224998079,0.21019172659762586,-0.2148704528416129
1684002605385116300,5.495516845703125,0.17985862502496483,0.23628234855444524,-0.05043506617048699
1684002605395158400,5.505558837890625,0.34161973010947305,0.3079624175653628,0.08344888671057522
1684002605405200600,5.51560107421875,0.4468923210300555,0.27839946744986166,0.21771097174420206
1684002605415242900,5.525643310546875,0.5558567046330793,0.30005455013210713,0.3172106743051202
1684002605425285000,5.535685546875,0.6607547402031013,0.3554677963140828,0.43896961216288916
1684002605435327200,5.5457275390625,0.7580958604127911,0.4105663298984969,0.6100029946480453
1684002605445369300,5.555769775390625,0.8303418160073162,0.5259437561510707,0.7060155867691158
1684002605455411400,5.565811767578125,0.8581043482361368,0.5943975449371973,0.8621087074644453
1684002605465453700,5.575854248046875,0.8439956904142069,0.6024131774745113,0.9687108993917493
1684002605475495900,5.585896240234375,0.8270897863833719,0.57950592036708,1.149466991388454
1684002605485538000,5.5959384765625,0.740576028849433,0.6300640106386483,1.3068981169252458
1684002605495580100,5.60598046875,0.6293479204309117,0.6515417099004203,1.4973464013132318
1684002605505622400,5.61602294921875,0.5646173954461948,0.6794137954623067,1.651182651595768
1684002605515664600,5.62606494140625,0.47030961522097076,0.6853580475996233,1.8231942653512923
1684002605525706600,5.636107177734375,0.37025558948404536,0.6766176223324782,1.8926141260541698
1684002605535748800,5.646149169921875,0.34166467182535176,0.6407642365059187,2.0075502394725406
1684002605545790900,5.65619140625,0.2774507999152251,0.6129741669887694,2.0551991462664514
1684002605555833300,5.666233642578125,0.2261072395800233,0.43950080861009344,2.1127691268911897
1684002605565875400,5.67627587890625,0.20474886875679424,0.08448505414604418,2.3597121238119607
1684002605575917600,5.68631787109375,0.17405021193376802,-0.22542095194746567,2.451138496425282
1684002605585959600,5.696360107421875,0.1134502888016599,-0.41424846650222213,2.51741313928413
1684002605596002000,5.70640234375,0.061427235608155176,-0.5503273010061795,2.469182014555875
1684002605606044100,5.716444580078125,0.00874269013344672,-0.5829524995178529,2.3607463837076144
1684002605616086200,5.726486572265625,-0.04695427425704089,-0.6505985261052234,2.202530860927337
1684002605626128300,5.73652880859375,-0.08522373432005305,-0.7727670668786912,2.1062273978706014
1684002605636170600,5.746571044921875,-0.09268015624285927,-0.7572813035460388,2.0117020606740494
1684002605646212800,5.75661328125,-0.2603868842903879,-0.7660245896311241,1.4338126183712263
1684002605656254900,5.7666552734375,-0.5460335015566664,-0.8915920257706119,0.8340258599245285
1684002605666297000,5.776697509765625,-1.4717267752679775,-0.9932985305534269,0.06025362017584896
1684002605676339100,5.786739501953125,-2.6698827743909312,-1.139433860755953,-0.785712480513589
1684002605686381600,5.796781982421875,-3.162147521902059,-1.103663444566333,-1.229473590882492
1684002605696423600,5.806823974609375,-3.0538806914442542,-0.9144296644373892,-1.5334308146373292
1684002605706465600,5.8168662109375,-2.823931217276778,-0.6287250518647904,-1.7195386886705597
1684002605716507800,5.826908203125,-2.415673971217913,-0.17593765266199507,-1.97327661523659
1684002605726550200,5.83695068359375,-1.7784463168137157,0.3054590225744887,-2.1625635625161577
1684002605736592300,5.84699267578125,-1.0669038296538425,0.4745082853976463,-1.8225991726387045
1684002605746634400,5.857034912109375,-0.5661845207175334,0.5802516938995104,-1.2146878241629004
1684002605756676600,5.867076904296875,-0.2827799021866269,0.5886993407327439,-0.5938367844326378
1684002605766718600,5.877119140625,-0.08934637900402938,0.6040449144358437,-0.0015220641340581455
1684002605776761000,5.887161376953125,-0.0011433736448071869,0.5877351761734251,0.3340296746193586
1684002605786803100,5.89720361328125,0.24718242898402434,0.5761423110578927,0.3331375122259212
1684002605796845200,5.90724560546875,0.6257603169134989,0.44529151917052373,0.29129266749184884
1684002605806887300,5.917287841796875,0.935659348946787,0.16915321347420662,0.17081737518317872
1684002605816929600,5.927330078125,1.0808975696032412,-0.13738727581220667,-0.0066137314175225125
1684002605826971800,5.937372314453125,1.1112375259275398,-0.3619241714709198,-0.23367404937494754
1684002605837013900,5.947414306640625,1.246275782417442,-0.5209274292694757,-0.4764280320026094
1684002605847056000,5.95745654296875,1.4331418275145866,-0.6075906753284404,-0.6642403601371171
1684002605857098200,5.96749853515625,1.5756257771252067,-0.6147212980821608,-0.6464123725648648
1684002605867140600,5.977541015625,1.7266068458081119,-0.8702373506200314,-0.8842501639745982
1684002605877182600,5.9875830078125,1.9681773186021365,-1.082489013757715,-0.8854079245045219
1684002605887224800,5.997625244140625,1.9665814638628887,-1.3721914290791553,-0.905780315289925
1684002605897266900,6.007667236328125,1.7334438562744945,-1.5490579607016364,-0.9136314393666393
1684002605907309000,6.01770947265625,1.5561369656721538,-1.3333797455222223,-0.7057800293093416
1684002605917351300,6.027751708984375,1.5766572953030555,-0.7625560760368065,-0.6312341689822009
1684002605927393500,6.0377939453125,1.7445825338425873,-0.3362121580225885,-0.6155066491015827
1684002605937435600,6.0478359375,1.830934762939927,-0.1131381987209313,-0.6059598922674159
1684002605947477600,6.057878173828125,1.7547773124026598,-0.023948669476813553,-0.519006729020385
1684002605957519800,6.067920166015625,1.5781848429678214,0.040919303823635685,-0.47306060803507705
1684002605967562200,6.077962646484375,1.4380373954241636,0.20768260947805442,-0.5290250778088994
1684002605977604300,6.088004638671875,1.4013854265959536,0.3637504577188011,-0.5872292519304289
1684002605987646400,6.098046875,1.4799900054214656,0.5551700591034596,-0.7262926101207938
1684002605997688600,6.1080888671875,1.4305653573591328,0.6723089217906839,-0.8387732504947766
1684002606007730900,6.11813134765625,1.398963213069533,0.6593189239399737,-0.8597745895199408
1684002606017773000,6.12817333984375,1.5011591912995728,0.5726838112598817,-0.8769054413643805
1684002606027815100,6.138215576171875,1.599786400730277,0.4192275999746356,-0.8594794274508595
1684002606037857200,6.148257568359375,1.699953198442908,0.3324813842157964,-0.882089138019123
1684002606047899600,6.158300048828125,1.7601982354955907,0.2236003876520224,-0.9477934838888845
1684002606057941600,6.168342041015625,1.715088605818114,0.11156940456219833,-1.0021605490813077
1684002606067983800,6.17838427734375,1.6333670617131704,-0.03011894224721397,-1.009979247944579
1684002606078025900,6.18842626953125,1.4245014190187588,-0.15170192720670567,-0.9767179489599159
1684002606088068000,6.198468505859375,1.1603906153940822,-0.24738216400488228,-0.8844795227829317
1684002606098110400,6.2085107421875,0.7657567857289166,-0.31344223021276324,-0.5167469979636058
1684002606108152600,6.218552978515625,0.45289206504778096,-0.5655574799574244,-0.5602684020735573
1684002606118194600,6.228594970703125,0.33176732059645087,-0.7738065719793646,-0.4814901351303502
1684002606128236600,6.23863720703125,0.3113579749733836,-0.9413709639523106,-0.302048683192749
1684002606138279100,6.248679443359375,0.3598698377998694,-1.0481247901832513,-0.21732282638464592
1684002606148321200,6.2587216796875,0.39024937158880196,-1.0747437477202573,-0.02700614930429506
1684002606158363300,6.268763671875,0.37250423419199813,-1.0673360823263578,0.10741949076882247
1684002606168405400,6.278805908203125,0.3608578443868012,-0.810680389224892,0.33426427842696843
1684002606178447600,6.288847900390625,0.20341849335245,-0.8131923676410479,0.22733020781932436
1684002606188489900,6.298890380859375,0.19452118871151022,-0.9320340155096493,-0.11017274868907534
1684002606198532000,6.308932373046875,0.3285385371398235,-1.017730236100046,-0.37858963020004427
1684002606208574100,6.318974609375,0.5558924673456618,-1.014614105094334,-0.564142227103062
1684002606218616200,6.3290166015625,0.7849458456114562,-0.9589166640653586,-0.7106509208452118
1684002606228658400,6.339058837890625,0.9705617426119771,-0.92928457257633,-1.0159711839631134
1684002606238700600,6.34910107421875,1.2098404170115924,-0.7665991782757364,-1.220141410782086
1684002606248742800,6.359143310546875,1.3376356362305448,-0.9016170502609799,-1.7016572952507683
1684002606258784900,6.369185302734375,1.5578078032232483,-0.8101096152494333,-1.891692161501618
1684002606268827100,6.3792275390625,1.6650857925267513,-0.7451190947609664,-1.914301872127049
1684002606278869200,6.38926953125,1.6482006310344692,-0.6947302819004615,-1.8335757256986545
1684002606288911600,6.39931201171875,1.5643849373586403,-0.5975189209628833,-1.6189274787574455
1684002606298953600,6.40935400390625,1.44293653975018,-0.5592198371746415,-1.4312109948489387
1684002606308995800,6.419396240234375,1.3695957661917402,-0.5963783265325596,-1.241770267532716
1684002606319037900,6.429438232421875,1.369485020673258,-0.596942901483184,-1.0586261750850465
1684002606329080200,6.439480712890625,1.369445919994089,-0.5544710159025905,-0.9762144087089285
1684002606339122400,6.449522705078125,1.2728192806411602,-0.5057034491247443,-0.9169793128775295
1684002606349164500,6.45956494140625,1.0839176177541905,-0.45715475099271147,-0.7998466492074302
1684002606359206600,6.46960693359375,0.8868703843582891,-0.41477489475626833,-0.7506198882880065
1684002606369248900,6.4796494140625,0.681744456246576,-0.44106912607245585,-0.6646466255718995
1684002606379291100,6.48969140625,0.46860575683976496,-0.48871421812045795,-0.5404667854215874
1684002606389333200,6.499733642578125,0.36939883226135667,-0.5626969336323269,-0.35700178155274864
1684002606399375300,6.509775634765625,0.41484272486314505,-0.6267805099272646,-0.2070860861296128
1684002606409417400,6.51981787109375,0.4757947921526851,-0.615984439791492,-0.19492197030381686
1684002606419459800,6.529860107421875,0.5145218373002668,-0.5992460251050701,-0.18313360222908315
1684002606429501900,6.53990234375,0.7240380048630196,-0.4402432442289264,-0.20979213715010217
1684002606439544000,6.5499443359375,1.129206895865583,-0.183368682689253,-0.30440616596909864
1684002606449586100,6.559986572265625,1.4591877461613991,0.1276926995939403,-0.37123966223332505
1684002606459628200,6.570028564453125,1.4951046703578832,0.32214784611019587,-0.41313982014064643
1684002606469670600,6.580071044921875,1.4117115734862862,0.4412717819453166,-0.40822505955134186
1684002606479712600,6.590113037109375,1.3299012183825984,0.43506765369715206,-0.464467048749708
1684002606489754800,6.6001552734375,1.1745958327621273,0.30499219899702196,-0.4633426667133049
1684002606499796900,6.610197265625,0.7319782973204205,0.125895023284133,-0.2987656593968732
1684002606509839000,6.620239501953125,0.2753517626449413,0.06768941874492175,0.010218143452730389
1684002606519881400,6.63028173828125,-0.38329231737610286,-0.1875214578371118,0.5462303159886372
1684002606529923600,6.640323974609375,-0.8254020213979179,-0.468855381011145,1.0224490167077722
1684002606539965600,6.650365966796875,-0.5955406428582355,-0.51920080181743,1.502305507628118
1684002606550007600,6.660408203125,0.11484587195913991,-0.4097695351626042,1.4812717436893592
1684002606560050100,6.670450439453125,1.136998414976193,-0.019642353120436738,1.2782464027418945
1684002606570092200,6.68049267578125,2.626558780631512,0.2894659041697196,1.011261940024563
1684002606580134300,6.69053466796875,3.946853160861365,0.6454973220184861,0.5829353332126358
1684002606590176400,6.700576904296875,3.6367726325830283,0.42166233073594145,-0.03385925295487475
1684002606600218600,6.710618896484375,2.648100852986477,0.07322025294210481,-0.3915171623291377
1684002606610260900,6.720661376953125,1.978319287327747,-0.11315155020458063,-0.3346085548402461
1684002606620303000,6.730703369140625,1.1995875836775018,-0.32752037054916017,-0.40521240239907264
1684002606630345100,6.74074560546875,0.21676945686335167,-0.4163894653854423,-0.8215117453519301
1684002606640387200,6.75078759765625,-0.5256842374786311,-0.5947713853107156,-1.223162174248399
1684002606650429600,6.760830078125,-1.16111910348454,-0.8493876458160703,-1.5823941229748053
1684002606660471600,6.7708720703125,-1.5085644721617408,-1.0520715713329298,-1.8188300134003161
1684002606670513800,6.780914306640625,-1.5297863484089824,-1.1639986038392096,-2.0272393225494723
1684002606680556000,6.790956298828125,-1.3435903787400645,-1.2661008834722272,-2.1375329495326136
1684002606690598100,6.80099853515625,-0.932293772763648,-1.451298713612909,-2.051424503295881
1684002606700640400,6.811040771484375,-0.4792325496385952,-1.6398835182147125,-1.9884374141903585
1684002606710682600,6.8210830078125,0.03351521479886781,-1.745399951932712,-1.908526897334109
1684002606720724600,6.831125,0.3518540857595663,-1.756085872716198,-1.8684079647438616
1684002606730766800,6.841167236328125,0.33558923024762327,-1.7794914245141529,-1.9189770221535518
1684002606740808900,6.851209228515625,0.24310243126756256,-1.856673717472601,-1.8739228249361035
1684002606750851200,6.861251708984375,0.1652376649875636,-2.0117349625514134,-1.725714206579036
1684002606760893400,6.871293701171875,0.11368358140142534,-2.0203146934939236,-1.596326827976438
1684002606770935500,6.8813359375,0.08955562118619062,-1.861805915803794,-1.5201349257054109
1684002606780977600,6.8913779296875,0.10835254207221719,-1.4646987915074656,-1.6019420623512342
1684002606791019600,6.901420166015625,0.2283750771166317,-0.9097290039146848,-1.5769014359216744
1684002606801062100,6.91146240234375,0.4301273225237088,-0.3878221511737523,-1.3819174766836222
1684002606811104200,6.921504638671875,0.6000142693044704,-0.006682395967319258,-1.117871284649157
1684002606821146300,6.931546630859375,0.7071591616051977,0.2096433639177041,-0.7116074561415437
1684002606831188400,6.9415888671875,1.0491825342259318,0.378625392839995,-0.2376627922539775
1684002606841230800,6.951631103515625,1.5789263247649865,0.5177865027656097,0.21620941168846994
1684002606851272900,6.96167333984375,2.006701946118649,0.6302571295502688,0.5579099654235833
1684002606861315000,6.97171533203125,2.2090282439827966,0.7331490516561997,0.7573485375478034
1684002606871357100,6.981757568359375,2.342250824047442,0.8239793777748534,0.8244824409625152
1684002606881399200,6.991799560546875,2.3225462436033366,0.823318004648526,0.9115257262884552
1684002606891441600,7.001842041015625,2.2248542308573542,0.6851081849017495,1.0549464225427618
1684002606901483600,7.011884033203125,2.092341661449118,0.49218797673305775,1.2142672539158408
1684002606911525800,7.02192626953125,1.9087270498655835,0.3893113134652636,1.315745353746563
1684002606921567900,7.03196826171875,1.7507535220581458,0.32797241211456446,1.2441081999941117
1684002606931610000,7.042010498046875,1.709030151405364,0.3627777099027833,1.1551179886161098
1684002606941652400,7.052052734375,1.664347410342444,0.4478034974142312,0.9771828652114288
1684002606951694600,7.062094970703125,1.5611592532459753,0.4894361494932701,0.7054238319032986
1684002606961736600,7.072136962890625,1.4066531657489159,0.4229183198909352,0.42766284943221816
1684002606971778700,7.08217919921875,1.2907044887876717,0.2845821379787614,0.11060571659952437
1684002606981820800,7.09222119140625,1.1721270084195454,0.055982589688599683,-0.1184329985523161
1684002606991863200,7.102263671875,1.084455966861346,-0.21924018866752298,-0.2685356140555155
1684002607001905300,7.1123056640625,0.9656808972491066,-0.4665355682382297,-0.363107204439675
1684002607011947400,7.122347900390625,0.9769652485717928,-0.5994472503343299,-0.44897937758938317
1684002607021989600,7.132389892578125,1.1128106118563028,-0.5845594406802223,-0.4777059554053696
1684002607032031900,7.142432373046875,1.2647259234809483,-0.4484329224097165,-0.42285013210905964
1684002607042074000,7.152474365234375,1.3850424290029808,-0.28479099286423526,-0.43083047861434765
1684002607052116100,7.1625166015625,1.4102299212361242,-0.1033515929590644,-0.4183273315773159
1684002607062158300,7.17255859375,1.3409721851591518,0.024267196586895298,-0.45242595673765684
1684002607072200400,7.182600830078125,1.287600994064297,0.0911178587864022,-0.4901661873441134
1684002607082242700,7.19264306640625,1.2817270755756276,0.09269046776481674,-0.49095344531342217
1684002607092284800,7.202685302734375,1.2695970534333625,-0.013555526632283817,-0.5452437401704646
1684002607102327000,7.212727294921875,1.304028272589597,-0.11003875734882997,-0.5735087396043571
1684002607112369100,7.22276953125,1.3287929296042988,-0.2179660798155528,-0.6156964301244287
1684002607122411400,7.232811767578125,1.383448243152801,-0.2604646682613108,-0.7281770704712619
1684002607132453600,7.24285400390625,1.5382266045773165,-0.2374849318422651,-0.7980384826676237
1684002607142495600,7.25289599609375,1.6763336659078836,-0.22818946827237835,-0.7850708961376556
1684002607152537800,7.262938232421875,1.8645317553896976,-0.1921110152000027,-0.7757501603401137
1684002607162579900,7.272980224609375,1.9726077316579846,-0.1676054001520428,-0.7893757821007108
1684002607172622300,7.283022705078125,1.9660785198330044,-0.18325805666297432,-0.7613959312684844
1684002607182664400,7.293064697265625,1.8382083178310151,-0.1913976669712066,-0.7256202697527351
1684002607192706600,7.30310693359375,1.6263258457784735,-0.20913887014527138,-0.6611385345015559
1684002607202748600,7.31314892578125,1.3599961995655863,-0.17974567412060263,-0.5905456541698837
1684002607212790600,7.323191162109375,1.105630636231011,-0.1347599029769068,-0.5145716668226152
1684002607222832800,7.333233154296875,0.8849090933148487,-0.1555271147163783,-0.39050197604530273
1684002607232875200,7.343275634765625,0.724621117180836,-0.2607498169132283,-0.32308340064532687
1684002607242917300,7.353317626953125,0.616241753059395,-0.4498634339047886,-0.18247079844062644
1684002607252959400,7.36335986328125,0.5225396157133666,-0.5555782317263523,-0.11937570561587924
1684002607263001600,7.37340185546875,0.5063847900885003,-0.544692039510609,-0.13368654254031806
1684002607273043900,7.3834443359375,0.4856997430004316,-0.41744136828696715,-0.23717784881842977
1684002607283086000,7.393486328125,0.5012505055829416,-0.25046062464026075,-0.3221516607833528
1684002607293128100,7.403528564453125,0.5301343202543942,-0.14402389517539715,-0.35265874858152263
1684002607303170200,7.413570556640625,0.5657908916655133,-0.05972766877260089,-0.31683254252712584
1684002607313212600,7.423613037109375,0.5691152811204447,-0.03558635713507703,-0.2623353005154241
1684002607323254600,7.433655029296875,0.5837428569848506,-0.011443138160935899,-0.14095163355165127
1684002607333296800,7.443697265625,0.6113957764274702,-0.003896713229409862,-0.005287170309210936
1684002607343338900,7.4537392578125,0.6823199987807398,0.0230226517600126,0.13273668295077232
1684002607353381000,7.463781494140625,0.7796820402148052,0.04039573666103398,0.23686170572567017
1684002607363423400,7.47382373046875,0.8894898296787687,0.05751991280016916,0.33302259443792814
1684002607373465600,7.483865966796875,0.9655669925862752,0.06465244302988388,0.3637533187502868
1684002607383507600,7.493907958984375,0.9641522763971394,0.10013961775828158,0.26276016253947126
1684002607393549700,7.5039501953125,0.9394530058007271,0.11850166316446374,0.13307428356499834
1684002607403591900,7.5139921875,0.873296022358773,0.12468624109035086,0.05140161532940089
1684002607413634200,7.52403466796875,0.7918821573090835,0.097259521467397,0.029486179407960913
1684002607423676300,7.53407666015625,0.7011455297472466,0.05923080446502566,0.028253078567545217
1684002607433718400,7.544118896484375,0.6128470301635323,-0.004446983188267776,0.007532596424477277
1684002607443760600,7.554160888671875,0.5267862082085182,-0.10509395594125116,-0.05821704863507749
1684002607453802600,7.564203125,0.452156782127285,-0.15020942692123063,-0.1892938612655744
1684002607463845000,7.574245361328125,0.3939419388168493,-0.1405172348453938,-0.3183917998491599
1684002607473887200,7.58428759765625,0.364620596119049,-0.14493846896308288,-0.400450706520177
1684002607483929300,7.59432958984375,0.38098233949051113,-0.15133953110501522,-0.414935588834976
1684002607493971400,7.604371826171875,0.42050999408893197,-0.20424461370091282,-0.33908128743575994
1684002607504013700,7.6144140625,0.4451751112809413,-0.24393463116190905,-0.3270111083346706
1684002607514055900,7.624456298828125,0.4682297706016042,-0.19996547703333353,-0.3350896833817886
1684002607524098000,7.634498291015625,0.49774205683192957,-0.16528987895137903,-0.3508377075631989
1684002607534140100,7.64454052734375,0.5367484092133309,-0.11874198909517363,-0.30156373987023966
1684002607544182200,7.65458251953125,0.5563498140208067,-0.09357261670720379,-0.2614345552161688
1684002607554224600,7.664625,0.5659564137528682,-0.11562824247665911,-0.22845888133395068
1684002607564266600,7.6746669921875,0.5203791856522643,-0.06439495079909324,-0.18657207489092673
1684002607574308800,7.684709228515625,0.479255437849892,0.01635742177206494,-0.13856840144416524
1684002607584350900,7.694751220703125,0.4289270043428094,0.02250099179095625,-0.05175924312099626
1684002607594393000,7.70479345703125,0.363528132317405,0.04710006705518998,0.05188226696763096
1684002607604435100,7.71483544921875,0.3144428134189808,0.021425247074000717,0.11756563183882707
1684002607614477600,7.7248779296875,0.2792815566195562,0.005027770875902086,0.15973997111468624
1684002607624519600,7.734919921875,0.234280347853252,0.019196510326322597,0.14629936214130979
1684002607634561600,7.744962158203125,0.21917289489859373,0.016200065678070336,0.14625310902042146
1684002607644603800,7.755004150390625,0.2266606688716261,0.01983737944818706,0.036858081804206445
1684002607654646200,7.765046630859375,0.24001020190033262,0.060852050852055,-0.033666610805692304
1684002607664688300,7.775088623046875,0.270357131857386,0.039768219035300006,-0.12469053263792776
1684002607674730400,7.785130859375,0.3050044178688838,0.007309913625201527,-0.18117141731300493
1684002607684772600,7.7951728515625,0.30141860243390206,-0.000764846795911791,-0.21497154225975051
1684002607694814600,7.805215087890625,0.33551907546022247,-0.02261829380775393,-0.17953872696501239
1684002607704857000,7.81525732421875,0.3760308624353807,-0.006214141756895735,-0.16544961920788243
1684002607714899100,7.825299560546875,0.42752575879123483,0.0360431671677523,-0.15114974976926082
1684002607724941200,7.835341552734375,0.40684539066878095,0.002448081789613254,-0.12250518790702514
1684002607734983300,7.8453837890625,0.3783867358899151,-0.02583599081564899,-0.032869339051623155
1684002607745025600,7.855426025390625,0.3282022475597724,-0.032408714252856956,-0.019786357920984755
1684002607755067800,7.86546826171875,0.30656856310368247,0.01760101331523885,0.059044837985224814
1684002607765109900,7.87551025390625,0.2762374877581083,0.09044361119005129,0.06140375120910351
1684002607775152000,7.885552490234375,0.226361453528929,0.058513641409449334,0.19776678085841407
1684002607785194200,7.895594482421875,0.19664841885886605,0.036514282155555175,0.1881341933944445
1684002607795236300,7.90563671875,0.15316879748246146,0.08556270596324535,0.13170623762909148
1684002607805278600,7.915678955078125,0.09894835950899379,0.12895679470858135,0.07828664786129234
1684002607815320800,7.92572119140625,0.08668309460381067,0.15742301938500664,0.016007900129932983
1684002607825362900,7.93576318359375,0.11120218029957227,0.13350582115980378,0.032014846850917336
1684002607835405000,7.945805419921875,0.11979889879703375,0.08157348638575253,0.026093006213733404
1684002607845447100,7.955847412109375,0.15436547986533483,0.1011466978927467,0.039088725968935305
1684002607855489500,7.965889892578125,0.19727343328756455,0.13683128359650282,0.037753105198440474
1684002607865531600,7.975931884765625,0.21761196858816845,0.14361953736781252,0.031760215670263825
1684002607875573600,7.98597412109375,0.22049748897988444,0.1502094269913822,0.09645271302155713
1684002607885615800,7.99601611328125,0.20192861562184442,0.13786506659803094,0.1342282295355587
1684002607895658200,8.00605859375,0.1882588267348089,0.14688205720183606,0.1289620399961985
1684002607905700300,8.0161005859375,0.17642426482384352,0.14167785639404792,0.10283470155459261
1684002607915742400,8.026142822265625,0.18035018454457669,0.14129352578522522,0.06558942793970673
1684002607925784600,8.036184814453126,0.16232085216462877,0.10791206370038302,0.04314279570410584
1684002607935826600,8.04622705078125,0.11834037310081759,0.0844850539354646,0.014043331225012999
1684002607945869000,8.056269287109375,0.08917528387029308,0.08270454414718535,0.009108543377999096
1684002607955911100,8.0663115234375,0.06986582287488297,0.07626152041669368,0.013720035714138329
1684002607965953200,8.076353515625,0.04383921623216857,0.011192321801148118,0.03259563449772174
1684002607975995300,8.086395751953125,0.06805330512880431,0.04378986362795285,0.01588869093050158
1684002607986037400,8.096437744140625,0.08515119562624264,0.059273719704498684,-0.012542724583599483
1684002607996079800,8.106480224609374,0.13555264482966073,0.07211494452938327,0.02524471289090444
1684002608006121900,8.116522216796875,0.17385911941915888,0.10113239281435053,0.005637168833881843
1684002608016164000,8.126564453125,0.23248368510939668,-0.025914192309977574,0.03311681749779745
1684002608026206100,8.1366064453125,0.24244278672397943,-0.0027322767690008574,0.008095741275856657
1684002608036248200,8.146648681640626,0.22082287076377377,0.0411062240280534,-0.04014539727658102
1684002608046290600,8.15669091796875,0.22758734234792585,0.05105018630502853,-0.03140735618891392
1684002608056332600,8.166733154296875,0.20853710176234116,0.025291442949069688,-0.02325582500502301
1684002608066374800,8.176775146484376,0.19940531248070473,0.004429817234227356,-0.029835701056900324
1684002608076416900,8.1868173828125,0.17831772566939363,-0.049305915875178005,-0.03906631472782156
1684002608086459300,8.196859619140625,0.14808678617865273,-0.11157131202443472,-0.069320201947227
1684002608096501400,8.20690185546875,0.07874399416689591,-0.16555690757669725,-0.08940553663509095
1684002608106543600,8.21694384765625,0.04154986134154937,-0.13158702848083056,-0.09990787510318017
1684002608116585600,8.226986083984375,0.04092824462592403,-0.07922077178829047,-0.12425994865488114
1684002608126627800,8.237028076171875,0.05972725152450045,-0.060677528305694825,-0.09886598594205186
1684002608136670100,8.247070556640624,0.07382762426477765,-0.05421352400266822,-0.08102846141112383
1684002608146712200,8.257112548828125,0.08777695886260715,-0.043093681248848804,-0.08458614348454185
1684002608156754400,8.26715478515625,0.08775597822211574,-0.008459091075029405,-0.05021476753405795
1684002608166796500,8.27719677734375,0.0885894299623635,0.03289699548447712,-0.03264141093756342
1684002608176838600,8.287239013671876,0.09257316578886746,0.06908321380590916,-0.01982593528272999
1684002608186880600,8.297281005859375,0.12255990496756852,0.10260200491147792,-0.006735801550972513
1684002608196923100,8.307323486328125,0.16086649889749546,0.1311607359650851,0.002116203302078118
1684002608206965200,8.317365478515624,0.19081592570651762,0.15013694746262024,0.05154037471652391
1684002608217007300,8.32740771484375,0.20757758615751315,0.16893005366939717,0.13353824605633352
1684002608227049400,8.33744970703125,0.21156275287224796,0.1874313355635626,0.16257524474399337
1684002608237091800,8.3474921875,0.22902786729762484,0.20555496205431625,0.1934804915885398
1684002608247133900,8.3575341796875,0.2034882306709532,0.2185811997277122,0.2214374541827826
1684002608257176000,8.367576416015625,0.18527352805082858,0.24075031286292659,0.2629909515379344
1684002608267218100,8.377618408203125,0.1459285020840876,0.23410129551694886,0.2729444504013302
1684002608277260200,8.38766064453125,0.11648690684203328,0.21089935308961635,0.28008651724371564
1684002608287302600,8.397702880859375,0.08508849143251657,0.2137813567293778,0.28913116469968303
1684002608297344600,8.4077451171875,0.06804442396094858,0.19293022149560823,0.2672348022164271
1684002608307386800,8.417787109375,0.07220709320363788,0.1487989426730725,0.24090766910457656
1684002608317428900,8.427829345703126,0.057328581801408526,0.11707782744231307,0.22665119184654944
1684002608327471000,8.437871337890625,0.061635494260500634,0.10234165198683505,0.21963930125973916
1684002608337513400,8.447913818359375,0.066193461430378,0.09022521979946664,0.17975425715673132
1684002608347555600,8.457955810546874,0.07567882550843537,0.08533668508167057,0.14511394502901673
1684002608357597600,8.467998046875,0.0804072618641173,0.07103061677488397,0.13913440712376687
1684002608367639700,8.4780400390625,0.1065151691269042,0.014634132351598755,0.13092756270087066
1684002608377681800,8.488082275390624,0.10674524299497147,-0.014830589266372643,0.10409450540992285
1684002608387724200,8.49812451171875,0.13324105754866009,-0.03903484344845845,0.10598421113452758
1684002608397766300,8.508166748046875,0.13341510303363968,-0.011060714706845182,0.13370800020427812
1684002608407808400,8.518208740234375,0.1506578922345996,0.07773208616261718,0.13742589943839373
1684002608417850600,8.5282509765625,0.14543128016964457,0.08503627780888509,0.12906074532902995
1684002608427892600,8.53829296875,0.1906517744703424,0.09693622594784793,0.13240909590073577
1684002608437935000,8.54833544921875,0.2256934644084408,0.11344051365455847,0.09820699697914301
1684002608447977100,8.55837744140625,0.25018906591193973,0.13678264610039567,0.10716629028225481
1684002608458019200,8.568419677734376,0.28312444695051736,0.1456546783490819,0.10206460948069489
1684002608468061400,8.578461669921875,0.3099553585432734,0.14964294435504213,0.1254506111978651
1684002608478103600,8.58850390625,0.3093471527106841,0.11571216589578766,0.1813368796882131
1684002608488145800,8.598546142578124,0.2840555906928868,0.09389877310285591,0.15378761300700192
1684002608498188000,8.60858837890625,0.24170994750457284,0.06509494773960103,0.15703725817603764
1684002608508230100,8.61863037109375,0.15959060179819856,0.0717802047718881,0.11979818328914862
1684002608518272200,8.628672607421874,0.08098065851361574,0.009795188826881355,0.06155109408923568
1684002608528314300,8.638714599609376,0.03164410589709421,-0.025384903136912905,0.0017805100200243393
1684002608538356600,8.648757080078125,-0.031020283720128602,-0.041126251231889496,-0.019276619100968784
1684002608548398800,8.658799072265625,-0.0711051226371478,-0.04474544535664462,0.011885642916662371
1684002608558440900,8.66884130859375,-0.07427668573843116,-0.05283641813539294,0.0355510713041818
1684002608568483000,8.67888330078125,-0.052160024579852915,-0.029978752042613445,0.04935503013371027
1684002608578525100,8.688925537109375,-0.030940055807208336,0.0044040679372745525,0.020343303670907822
1684002608588567600,8.6989677734375,-0.013080358483904158,0.0644588470675399,0.032029628668216244
1684002608598609600,8.709010009765626,0.0392100810687613,0.0790700911581088,0.06712722770940856
1684002608608651600,8.719052001953125,0.08288800728662757,0.08663654334959422,0.1275873185784559
1684002608618693800,8.72909423828125,0.15582525736219005,0.042489051692601254,0.1493091582230418
1684002608628736200,8.739136474609374,0.21019399148395737,0.03455638872877387,0.1541252135183604
1684002608638778300,8.7491787109375,0.26011252387407574,0.0292081831764313,0.09284257904421268
1684002608648820400,8.759220703125,0.30052530755275636,0.026347160181837744,0.034844875218359356
1684002608658862600,8.769262939453125,0.36641573899811236,0.007143974274607346,-0.04091596594302667
1684002608668904600,8.779304931640626,0.39294934271732146,0.014183044382850842,-0.09638738631119483
1684002608678946700,8.78934716796875,0.43459558475480975,-0.01649856575927958,-0.16472482679762607
1684002608688989100,8.799389404296875,0.4627201556950834,-0.030051231383277602,-0.1631579399021307
1684002608699031200,8.809431640625,0.49167370797912413,-0.03376102433540108,-0.17043924322124124
1684002608709073300,8.8194736328125,0.4740153550192167,-0.02547454844064377,-0.17933654784394318
1684002608719115400,8.829515869140625,0.4809737207172008,0.02754116051272237,-0.14745235441261909
1684002608729157600,8.839557861328124,0.44647979727806303,0.05627346035950065,-0.04726171481891255
1684002608739199900,8.849600341796876,0.3903827666874986,0.04921054851640468,0.06090831749118183
1684002608749242000,8.859642333984375,0.3531682491288159,0.08215141295737,0.16254949569971747
1684002608759284100,8.8696845703125,0.26682281483376635,0.09785652168172873,0.26691579811563604
1684002608769326300,8.8797265625,0.1867097616102225,0.1483573913791,0.36201620091163245
1684002608779368600,8.88976904296875,0.1294130088816878,0.1906986236487782,0.41734695441360986
1684002608789410700,8.89981103515625,0.05969214445362596,0.2038497924625474,0.46410274514640837
1684002608799452800,8.909853271484375,0.01815617088409674,0.24724674227129254,0.48601818084055415
1684002608809495000,8.919895263671876,-0.028427123960931805,0.2991533280002441,0.4739708900851565
1684002608819537100,8.9299375,-0.03575539580673002,0.3336048126522855,0.42643117894222865
1684002608829579400,8.939979736328125,-0.03552055374614016,0.36033153525820055,0.36061716070936356
1684002608839621600,8.95002197265625,-0.032958865120769315,0.35362243648355457,0.255836963508687
1684002608849663600,8.96006396484375,-0.03056931500245898,0.34704780560640797,0.22115182876972037
1684002608859705800,8.970106201171875,-0.014369130154332173,0.27010917654926264,0.17089843759682338
1684002608869747900,8.980148193359375,0.00557208056984869,0.2394533157771645,0.15978240982079428
1684002608879790000,8.9901904296875,0.03361082060889894,0.18375587459204193,0.14261102673908727
1684002608889832400,9.000232666015625,0.025250434762664007,0.1928873062103864,0.1452784538796114
1684002608899874600,9.01027490234375,0.014620900011273821,0.16444587708236796,0.1436238289211363
1684002608909916600,9.02031689453125,0.02107226835007571,0.1814661026282837,0.18471002568675424
1684002608919958600,9.030359130859376,0.02345621574848698,0.1724948882052826,0.19700574883320468
1684002608930001100,9.0404013671875,0.03584122646105531,0.17786693561140998,0.22554779036967293
1684002608940043200,9.050443603515625,0.052927255723549255,0.14785480501353637,0.27007770524387675
1684002608950085300,9.060485595703126,0.05045676221725411,0.15118694315592648,0.28316879273674117
1684002608960127400,9.07052783203125,0.0612577199950041,0.13546085363509003,0.2465257643598854
1684002608970169600,9.08056982421875,0.07585334777912114,0.13872432708589502,0.2858166694200937
1684002608980211900,9.0906123046875,0.057042837069293424,0.10171699535031806,0.24177503591686034
1684002608990254000,9.100654296875,0.09493005270109187,0.09815120690841649,0.23358106607656637
1684002609000296100,9.110696533203123,0.11306548114075596,0.1344938277615041,0.15938043586119993
1684002609010338200,9.120738525390625,0.11381649983546153,0.1464166641885457,0.07903671267214513
1684002609020380300,9.13078076171875,0.15581834308710998,0.13907241827328629,-0.004812717473952303
1684002609030422600,9.140822998046875,0.13902676091691468,0.05627632128787164,-0.07081842411404432
1684002609040464800,9.150865234375,0.09923362717843544,-0.0418310165609514,-0.1497097016303007
1684002609050506900,9.1609072265625,-0.003427863033742869,-0.1548404693091518,-0.17974519737223302
1684002609060549000,9.170949462890626,-0.12498140334537265,-0.2728281019856634,-0.19673776614226113
1684002609070591200,9.180991455078123,-0.25905132288786914,-0.34366416924202886,-0.19373035436616082
1684002609080633600,9.191033935546876,-0.391521871244799,-0.37719345088142747,-0.1803884506185147
1684002609090675600,9.201075927734376,-0.46625334025566173,-0.40207481400007183,-0.18290567394865306
1684002609100717700,9.2111181640625,-0.4689287544060932,-0.3757534025615653,-0.21250581725148862
1684002609110759900,9.22116015625,-0.355705618903,-0.33900260926191955,-0.1979799272069775
1684002609120802000,9.231202392578124,-0.20657503600549873,-0.26139736162557325,-0.14936399453386953
1684002609130844300,9.24124462890625,-0.025812745023838884,-0.1741313934475167,-0.10437011724436766
1684002609140886400,9.251286865234375,0.13993442058223032,-0.07510757437915323,-0.046269416945204846
1684002609150928600,9.261328857421876,0.29300498973589056,-0.0023288726571552734,0.06459426885507742
1684002609160970600,9.27137109375,0.4313331841458391,0.0845117569456594,0.2011876104746803
1684002609171012800,9.2814130859375,0.589953303276528,0.14955711350852663,0.30147027969908463
1684002609181055200,9.29145556640625,0.6925261022124045,0.21180629737183146,0.38704395281932336
1684002609191097300,9.30149755859375,0.7672250270853465,0.2850761412182802,0.5189642905097765
1684002609201139400,9.311539794921876,0.8258537054276434,0.35491752625692363,0.6044712067151553
1684002609211181600,9.321581787109375,0.8379806281304998,0.40003395081671406,0.6911373138472398
1684002609221223600,9.3316240234375,0.8422863483836264,0.45844268802752824,0.7717070580487304
1684002609231266000,9.341666259765624,0.84401023379225,0.5251922608283598,0.8249573707910978
1684002609241308100,9.35170849609375,0.8362178802196064,0.5625104904106883,0.8961086272366834
1684002609251350200,9.36175048828125,0.832794785484828,0.5095605849253442,0.9494123457256807
1684002609261392300,9.371792724609374,0.8012533188481002,0.4970598220092017,0.9450402259532013
1684002609271434400,9.381834716796876,0.7635854483664187,0.4934310913013336,0.8249702454385045
1684002609281476800,9.391877197265623,0.6560212374086514,0.45635795586190864,0.6951460838669286
1684002609291518900,9.401919189453125,0.5239599942900969,0.3938693999843135,0.5513672828359731
1684002609301561000,9.41196142578125,0.36528325091991254,0.31600189199400325,0.4926524162430874
1684002609311603100,9.42200341796875,0.20794379703687482,0.3174400329864579,0.4070734977922082
1684002609321645200,9.432045654296877,0.04406535628356866,0.36883354185021305,0.3869810104943916
1684002609331687600,9.442087890625,0.014608204285756153,0.3752202987773638,0.36034059526269907
1684002609341729600,9.452130126953126,0.06917989256386275,0.3325204850980081,0.3550739287132803
1684002609351771800,9.462172119140623,0.17349696156900113,0.3543500901002928,0.3869791030407995
1684002609361813900,9.47221435546875,0.31628739835446884,0.4039020537537425,0.38432788851724214
1684002609371856000,9.48225634765625,0.46436530343723686,0.4286260605512326,0.42291069039416396
1684002609381898400,9.492298828125,0.5970807670175758,0.433464050180946,0.40788221371324684
1684002609391940600,9.5023408203125,0.7322586179668629,0.4116115569786037,0.4226188659666757
1684002609401982600,9.512383056640624,0.8241651654324375,0.37315559388756847,0.417749405023231
1684002609412024800,9.522425048828126,0.8493940233859334,0.3963928222901451,0.3989911079327879
1684002609422067100,9.532467529296875,0.851480960829892,0.4642944336738358,0.4027500153345483
1684002609432109200,9.542509521484376,0.8246512411722912,0.5315523147095946,0.4264373778522956
1684002609442151300,9.5525517578125,0.801223933716233,0.6123294831864948,0.4530916215688994
1684002609452193500,9.56259375,0.7773585916469616,0.6922092438063908,0.534204006233489
1684002609462235600,9.572635986328123,0.767553627495662,0.7685375214272039,0.6117405890818813
1684002609472277600,9.582677978515624,0.7499885558256351,0.8762116432411959,0.7108469009572607
1684002609482320000,9.592720458984376,0.7381916044973097,0.8917140962022657,0.7666349410052606
1684002609492362200,9.602762451171875,0.7120646832996639,0.8416137694536,0.9125499724259069
1684002609502404300,9.6128046875,0.6562592983682064,0.7426552772494751,1.0397772787913322
1684002609512446400,9.6228466796875,0.46619451047027394,0.6778287886195804,1.0236206053213035
1684002609522488600,9.632888916015624,0.1685854195220007,0.5596981047856338,0.8859243394147792
1684002609532530900,9.64293115234375,-0.23399019241769414,0.4463920594216087,0.6914844513848313
1684002609542573000,9.652973388671874,-0.5875993371212437,0.24184322363017027,0.4611310959054607
1684002609552615100,9.663015380859376,-0.9596186874667157,-0.030958175622901686,0.27107429521729753
1684002609562657200,9.6730576171875,-1.3290913104220112,-0.33338832855523487,0.131130695310614
1684002609572699300,9.683099609375,-1.5997841357642966,-0.6053600310508749,-0.03288459777727162
1684002609582741600,9.69314208984375,-1.7677406072023432,-0.7916374206361535,-0.2757320404505307
1684002609592783800,9.70318408203125,-1.8002125023034272,-0.8751964569104624,-0.5391569138848146
1684002609602825900,9.713226318359377,-1.6312460899349635,-0.8943967819828169,-0.6745767593502422
1684002609612868000,9.723268310546874,-1.322405099840091,-0.9310054777435205,-0.7635149954116415
1684002609622910100,9.733310546875,-1.084147095683478,-0.9998207092327139,-0.7272477149697721
1684002609632952600,9.743352783203123,-0.8868480325303627,-1.1650257110737763,-0.8085227012689159
1684002609642994600,9.75339501953125,-0.7385367155106773,-1.2440433503050843,-0.8547906875839353
1684002609653036600,9.76343701171875,-0.5736765265224757,-1.4107275009975087,-0.9056210517737662
1684002609663078800,9.773479248046876,-0.47964096059347544,-1.4043083191456427,-0.8653473855206442
1684002609673120900,9.783521240234377,-0.47184461350012924,-1.4231967926531632,-0.707782745435139
1684002609683163300,9.793563720703125,-0.5160585045686449,-1.5083036423323846,-0.49842071535728766
1684002609693205400,9.803605712890626,-0.6883604527859611,-1.4619884489665376,-0.1572256088387614
1684002609703247600,9.81364794921875,-1.0196241139524167,-1.3500719071813052,0.09714031219781244
1684002609713289600,9.82368994140625,-1.2105678318789594,-1.1735010148252816,0.31452322011846845
1684002609723331800,9.833732177734374,-1.169204235096995,-1.011898994527606,0.4106812476917382
1684002609733374100,9.8437744140625,-1.0578935145760673,-0.7312097548962153,0.3597989081767572
1684002609743416200,9.853816650390623,-0.9330703020771388,-0.27833271036256285,0.2775254249079261
1684002609753458400,9.863858642578125,-0.800844907809543,0.09597301487757627,0.2401900292250763
1684002609763500500,9.87390087890625,-0.6218144893793169,0.32525253292404643,0.23785829549689444
1684002609773542600,9.88394287109375,-0.46418440348904133,0.43886566166177987,0.24459075938665958
1684002609783584900,9.8939853515625,-0.4014835358034429,0.5397672653292093,0.1579966545582652
1684002609793627100,9.90402734375,-0.35893404484948843,0.5134401321072813,0.002894401701314321
1684002609803669200,9.914069580078126,-0.10897433760030648,0.4060430526247894,-0.12172555921780473
1684002609813711300,9.924111572265623,0.27016973485857204,0.3646955491249772,-0.43637657147598014
1684002609823753400,9.93415380859375,0.5941061377911754,0.4477949143175099,-0.7333211900506014
1684002609833795800,9.944196044921876,0.9387146830690526,0.3735713959150561,-0.8189482687313445
1684002609843837900,9.95423828125,1.3309816121709763,0.2783517837644896,-0.6923842430054551
1684002609853880000,9.9642802734375,1.6299551725527377,0.04169750211084091,-0.4094820022502267
1684002609863922100,9.974322509765624,1.7516801357472642,-0.01916885367929231,-0.19050264372826947
1684002609873964200,9.984364501953126,1.7630432844235222,-0.014362335159595693,-0.09602689743671451
1684002609884006600,9.994406982421877,1.7148480415347986,0.001559257429336102,-0.05186462412752549
1684002609894048600,10.004448974609376,1.7038877010683438,0.22906970984890818,0.06304645536414628
1684002609904090800,10.0144912109375,1.7976264954527303,0.5955944059908629,0.17878103262374406
1684002609914132900,10.024533203125,1.9195924997243166,0.9021582603284821,0.2526755333208582
1684002609924175000,10.034575439453125,1.939666152161058,1.0210971831502262,0.45381021486691364
1684002609934217100,10.044617431640624,1.9297950269033388,1.0258803366909997,0.5814399718424976
1684002609944259600,10.054659912109376,1.9920212030393316,0.9614725111971371,0.6767172813413104
1684002609954301600,10.064701904296877,2.008635997683587,0.8686108589927396,0.685420513148501
1684002609964343600,10.074744140625,1.9886540174490062,0.7718529702594837,0.5822696686842393
1684002609974385800,10.0847861328125,1.8062121867781156,0.628751754643746,0.48647212984432653
1684002609984428200,10.09482861328125,1.5151922701338925,0.4204216004456972,0.36839818962050735
1684002609994470300,10.10487060546875,1.179397344657493,0.1804337501931714,0.21841335293560235
1684002610004512400,10.114912841796874,0.8168187738557708,-0.11976146712562588,-0.059997558621644444
1684002610014554600,10.124954833984376,0.4067516328392802,-0.4920873642396205,-0.34018945699814757
1684002610024596600,10.1349970703125,0.1157673598758755,-0.786733627401595,-0.5828652380056282
1684002610034639000,10.145039306640625,0.06695175179413879,-1.0621585846008266,-0.8388252256606693
1684002610044681100,10.15508154296875,0.2075800896494582,-1.4587297441168747,-1.2481107710681418
1684002610054723200,10.16512353515625,0.32328689101452357,-1.7252664565660418,-1.453132391000899
1684002610064765400,10.175165771484377,0.33569705486473694,-1.8861942289858984,-1.6285934448019872
1684002610074807500,10.185207763671874,0.34607231607101363,-1.9927282332969793,-1.8144726752399143
1684002610084849600,10.19525,0.4009943008339658,-1.735178947354385,-1.713326215725008
1684002610094892000,10.205292236328123,0.30037689216328184,-1.8127098084458182,-1.9442448616099208
1684002610104934100,10.21533447265625,0.3337274788553727,-1.8692274093767258,-2.0959753988503267
1684002610114976200,10.22537646484375,0.38273429861530084,-1.7559466362411407,-1.8502533436210098
1684002610125018300,10.235418701171875,0.4029959441549173,-1.5917549134249462,-1.595678567935775
1684002610135060600,10.2454609375,0.4394657611715962,-1.3683423996435913,-1.3537778854035962
1684002610145102800,10.255503173828124,0.48031234739684725,-1.2125959397552768,-1.1891956330019573
1684002610155144900,10.265545166015626,0.49884951118474474,-1.0694923400582483,-1.0487356185783776
1684002610165187000,10.27558740234375,0.49710845949674004,-0.9774804115999709,-0.8676528931498222
1684002610175229100,10.28562939453125,0.5167982579696654,-0.8749580383002394,-0.6871523856777567
1684002610185271500,10.295671875,0.5644192696096902,-0.8028202058164597,-0.5602483749742706
1684002610195313600,10.3057138671875,0.6045953035589252,-0.7444682123016729,-0.5233755110653974
1684002610205355600,10.315756103515625,0.6140851974800002,-0.6615962982173768,-0.5146102904746028
1684002610215397800,10.325798095703124,0.6230831146199238,-0.6116142274137546,-0.5174593924852509
1684002610225439900,10.33584033203125,0.660901188894119,-0.611280918111252,-0.527049064629446
1684002610235482000,10.34588232421875,0.7113807201752976,-0.6317949295060201,-0.5741276741219937
1684002610245524400,10.3559248046875,0.7820065020692181,-0.6320962905213376,-0.6172723769450765
1684002610255566600,10.365966796875,0.8155874015744313,-0.5196137428850943,-0.5687165260164717
1684002610265608600,10.376009033203124,0.8326392173650979,-0.7297587394865024,-0.8730282782780047
1684002610275650700,10.386051025390625,0.8641884325436618,-0.6861438750320106,-0.9562082290397079
1684002610285693100,10.396093505859374,0.8567866087628395,-0.6426849366351596,-0.9412083626610324
1684002610295735200,10.406135498046876,0.8440576790501568,-0.6353802680963858,-0.9169335363320078
1684002610305777300,10.416177734375,0.9426337480106096,-0.6117072105076867,-0.9339308737641863
1684002610315819400,10.4262197265625,1.0846843718812564,-0.5691981314221762,-0.9277915955083363
1684002610325861600,10.436261962890624,1.2037982940060856,-0.5174674988147521,-0.9032444952469251
1684002610335903600,10.446303955078124,1.170808434474249,-0.42351722710777034,-0.8267188073064954
1684002610345946000,10.456346435546877,1.0742040873282792,-0.264194965320115,-0.7939138412447126
1684002610355988100,10.466388427734374,1.057261824458651,-0.11602973932178638,-0.8262133598396543
1684002610366030300,10.4764306640625,1.0864539146997865,0.012004852169805819,-0.935553073858792
1684002610376072400,10.48647265625,1.128413200412769,0.07961463939681838,-1.019589901003524
1684002610386114600,10.496514892578125,1.149366140346656,-0.0016655922377250391,-1.0979700087558797
1684002610396156800,10.50655712890625,1.039023041788994,-0.18205451979221485,-1.1470804215081256
1684002610406199000,10.516599365234375,0.8068524598277955,-0.37604904170824077,-1.1767168044672793
1684002610416241100,10.526641357421877,0.5745016335651104,-0.5452871323321904,-1.2848663329715346
1684002610426283200,10.53668359375,0.43176996698702036,-0.6318292617367809,-1.4072575567640875
1684002610436325300,10.5467255859375,0.44776427740690505,-0.5563607215512366,-1.504152298082973
1684002610446367600,10.55676806640625,0.4395627976056238,-0.4721059798250224,-1.5855054854378265
1684002610456409800,10.56681005859375,0.2648316621595255,-0.43458461768971657,-1.5815243719883232
1684002610466451900,10.576852294921874,0.12247824656341445,-0.41555833824210564,-1.4299526215431073
1684002610476494000,10.586894287109375,0.19317758080904696,-0.376555919541031,-1.2385735512928973
1684002610486536100,10.5969365234375,0.524654030688312,-0.29275226589220077,-1.0474286079362398
1684002610496578600,10.606978759765624,0.8944600821232735,-0.15394544594725057,-0.8792033196491483
1684002610506620600,10.61702099609375,1.0187842845174309,-0.05580186853056168,-0.5966000558783191
1684002610516662600,10.62706298828125,0.8671371936092236,0.06074714652950482,-0.2763886452773803
1684002610526704800,10.637105224609376,0.5647971630312197,0.14945125585494784,0.004026413095113318
1684002610536746900,10.647147216796874,0.31814050686147255,0.27901649481725577,0.23461723329083684
1684002610546789300,10.657189697265624,0.029833316699676045,0.36722469336754404,0.46783065798014156
1684002610556831400,10.667231689453123,-0.25985848899826086,0.35102939612868833,0.6629486083254299
1684002610566873600,10.67727392578125,-0.311516881033805,0.27098274226364405,0.7122406960181155
1684002610576915600,10.68731591796875,-0.16642606266033744,0.25917673097950195,0.7060098649182511
1684002610586957700,10.697358154296875,0.07188594343686833,0.2731857300447084,0.639025688123274
1684002610597000100,10.707400390625,0.22195458415122826,0.10360813135909322,0.40682983392144684
1684002610607042200,10.717442626953124,0.2445148229637087,-0.33885574337612884,0.10462474814502565
1684002610617084300,10.727484619140624,0.15092384815891438,-0.9405341148141562,-0.22061204907550974
1684002610627126400,10.73752685546875,-0.18956029407945438,-1.6913595199322726,-0.427641868572283
1684002610637168600,10.74756884765625,-0.5969115495024709,-2.5507020949700387,-0.5003576278746089
1684002610647210900,10.757611328125,-1.0417288540519603,-3.255986690640121,-0.5486493110893951
1684002610657253000,10.7676533203125,-1.4642567635542303,-3.695795059215571,-0.6835994720403766
1684002610667295200,10.777695556640625,-1.7989474535378762,-3.8789148330949796,-0.880359649689637
1684002610677337300,10.787737548828124,-1.6454432012072777,-3.4486908913501515,-1.1729741095730972
1684002610687379400,10.79777978515625,-0.7714748382581996,-2.246497154156896,-1.2691144943081387
1684002610697421700,10.807822265625,0.5547566414356039,-0.9894499778461131,-1.2300519943736794
1684002610707463900,10.8178642578125,1.8976211547788675,-0.044396400478409696,-1.121065616714926
1684002610717506000,10.82790625,2.835142612550167,0.5175862311437757,-0.9926018716180606
1684002610727548100,10.837948486328123,3.2844200134024866,0.6969857216560795,-0.8823485374729009
1684002610737590200,10.847990478515625,3.2800221444777833,0.7071847914341362,-0.7354960442710445
1684002610747632300,10.85803271484375,3.079319715487213,0.6440362931467242,-0.568385124210305
1684002610757674600,10.868074951171875,2.8036236763785585,0.5795879364605393,-0.35195541371946976
1684002610767716800,10.8781171875,2.5341415405096632,0.4924769402575305,-0.16616773604937124
1684002610777758900,10.8881591796875,2.322388172088761,0.38473749162462034,-0.029879093123739216
1684002610787801000,10.898201416015626,2.1998057366630803,0.3322949408705926,-0.0033564566755562826
1684002610797843400,10.908243896484375,1.991223215983094,0.2534379959221232,-0.06047391876556426
1684002610807885600,10.918285888671877,1.7090452908660518,0.18150663365525757,-0.19526576988779046
1684002610817927600,10.928327880859374,1.3278959989006376,0.13062953938399308,-0.31938791274329686
1684002610827969600,10.9383701171875,0.9881734848217031,8.773807069597987e-05,-0.383533477760314
1684002610838011800,10.948412109375,0.7587397098998617,-0.2319860457158339,-0.3458838461221853
1684002610848053900,10.958454345703124,0.642130613281029,-0.4897165298750843,-0.3225569724915682
1684002610858096300,10.96849658203125,0.6391965151068665,-0.6507558822776494,-0.4655528070068585
1684002610868138400,10.978538818359375,0.6972669363983934,-0.7695856095738073,-0.601569175794114
1684002610878180600,10.988580810546877,0.9772491454688302,-0.7794284821454124,-0.6350407599251093
1684002610888222600,10.998623046875,1.2605214119114025,-0.7418489456298741,-0.7702560426106572
1684002610898264800,11.0086650390625,1.4895911216743802,-0.6925859450759579,-0.8277072906016713
1684002610908307100,11.01870751953125,1.6702008246725202,-0.5458021162465614,-0.9226951600881012
1684002610918349200,11.02874951171875,1.7491590974908198,-0.44486618046273035,-0.8881893158600543
1684002610928391300,11.038791748046876,1.6865893602711082,-0.3850374222965129,-0.8566365240667618
1684002610938433500,11.048833740234375,1.477609515352475,-0.39532852170906085,-0.7120299338136012
1684002610948475600,11.0588759765625,1.1673171521827381,-0.5338182449965349,-0.5564184187725949
1684002610958517900,11.06891845703125,0.8728715181433193,-0.6433296203727572,-0.4647378921236705
1684002610968560000,11.07896044921875,0.7337576149810566,-0.7072935105433166,-0.4101076124700328
1684002610978602200,11.08900244140625,0.6768706440682991,-0.7519035339435048,-0.3582801817793689
1684002610988644300,11.099044677734376,0.6951136588366827,-0.7411947250977815,-0.33758211132913574
1684002610998686400,11.109086669921876,0.7314083575865554,-0.71810626975041,-0.34316682800874687
1684002611008728600,11.11912890625,0.7882292270089291,-0.5891790389459673,-0.43929481509661505
1684002611018770900,11.129171142578125,0.8407825826642453,-0.5377235413302394,-0.5792565344013814
1684002611028813000,11.13921337890625,0.9706466197961505,-0.4651060103898671,-0.6450586319164024
1684002611038855100,11.14925537109375,1.127146720881775,-0.3829317094240663,-0.6815185548430984
1684002611048897200,11.159297607421877,1.312164187469112,-0.25982284548029866,-0.673714160827887
1684002611058939600,11.169340087890625,1.5279300213691966,-0.15049934386138172,-0.6881437301687513
1684002611068981600,11.179382080078126,1.6653071642963064,-0.0641613006275733,-0.6479291915588198
1684002611079023800,11.189424072265624,1.7938774823301538,0.006566047685471327,-0.5650262832810939
1684002611089065900,11.19946630859375,1.8991324902684965,0.06901073460234214,-0.4442725180505407
1684002611099108000,11.20950830078125,1.9575635194829677,0.0943555831916592,-0.29572057742311325
1684002611109150100,11.219550537109376,1.9774854183475161,0.13264846807029645,-0.1102709771003359
1684002611119192600,11.229593017578123,1.9297914504214095,0.16439151781022912,0.05647659301460585
1684002611129234600,11.239635009765625,1.8834360836055357,0.18215370167842526,0.1778612137774591
1684002611139276600,11.249677001953126,1.7765777111429182,0.1716156004678826,0.33045148852576045
1684002611149318800,11.25971923828125,1.6173315047001924,0.1542081832101006,0.43287324907116714
1684002611159360900,11.26976123046875,1.4353921411702488,0.22056961046887966,0.5042638778025134
1684002611169403300,11.2798037109375,1.2625896929682567,0.24614143372961633,0.5516810417486319
1684002611179445400,11.289845703125,1.0637341737437551,0.2617940901437635,0.5724282264477099
1684002611189487600,11.299887939453123,0.9284494519656605,0.2599792481807204,0.5850620268950086
1684002611199529600,11.309929931640625,0.8078878521026989,0.22849655156433982,0.5676431656506502
1684002611209571800,11.31997216796875,0.6832990049649936,0.14619922656963477,0.49917984007976185
1684002611219614100,11.3300146484375,0.6339161397252686,0.07074832912818281,0.45649290078255
1684002611229656200,11.340056640625,0.5755087733281566,-0.02164840681459105,0.3392605783163064
1684002611239698400,11.3500986328125,0.5231228471512577,-0.1040811537074507,0.18914937966126572
1684002611249740500,11.360140869140626,0.5869004727796164,-0.1790933608289821,0.20894622802358664
1684002611259782600,11.370182861328123,0.7007056474286059,-0.20166110997134226,0.1851234435229393
1684002611269824600,11.38022509765625,0.8364076614119037,-0.18377113342799983,0.11796855931164618
1684002611279867100,11.390267333984376,0.9803586006671335,-0.096905708305685,0.08876419079692206
1684002611289909200,11.4003095703125,1.0805504323885113,-0.11566925042036612,0.032809257413929045
1684002611299951300,11.4103515625,1.1871166229959786,-0.18032264695734107,0.019085407237527465
1684002611309993400,11.420393798828124,1.2324321271686831,-0.20468807225666408,-0.10280132286614312
1684002611320035800,11.430436279296876,1.2389167547233806,-0.25576686862308484,-0.2848787307633633
1684002611330077900,11.440478271484375,1.184168934771693,-0.2875919341541745,-0.5261387825986492
1684002611340120000,11.450520263671876,1.1122252940759494,-0.3186931609945642,-0.7107849121196894
1684002611350162100,11.4605625,1.098015665911587,-0.3684129714624555,-0.7701206206991861
1684002611360204200,11.4706044921875,1.1167463064870164,-0.458959579386224,-0.6961936950607933
1684002611370246300,11.480646728515625,1.1512669325242548,-0.4636898040249903,-0.7043018339871232
1684002611380288600,11.490689208984374,1.20632994173533,-0.4126987457127416,-0.7193846701666985
1684002611390330800,11.500731201171876,1.2559137344771278,-0.4218568801485131,-0.7467527387870055
1684002611400372900,11.510773193359377,1.2862491608734594,-0.4252414702679659,-0.7730669974931542
1684002611410415000,11.5208154296875,1.2665688990377075,-0.3830289840321503,-0.8132510185279476
1684002611420457100,11.530857421875,1.186480522172821,-0.3666734694478193,-0.8524279594528955
1684002611430499600,11.54089990234375,1.0856007336456812,-0.34956836693248233,-0.8447585106560688
1684002611440541600,11.55094189453125,0.98467069854157,-0.290901184020346,-0.8210306169387858
1684002611450583700,11.560984130859374,0.8554859160436288,-0.2122039793503384,-0.805041313074526
1684002611460625800,11.571026123046876,0.7332956193336416,-0.14249134061442062,-0.7065229415982842
1684002611470668000,11.581068359375,0.6104159951315294,-0.15126228322844928,-0.5524148940523198
1684002611480710300,11.59111083984375,0.4663836359749984,-0.19077682489102588,-0.3933749198284931
1684002611490752400,11.60115283203125,0.3320833445977645,-0.20164585122815537,-0.2062082290061263
1684002611500794600,11.61119482421875,0.17016234989154377,-0.16120052349119346,-0.02875280374207801
1684002611510836600,11.621237060546877,0.05185337366660907,-0.11714839948772597,-0.03976106658096136
1684002611520878800,11.631279052734374,-0.035961411805205325,-0.0897245407913456,-0.059870242993244165
1684002611530921100,11.641321533203126,-0.056916452761783976,-0.1265554428539411,-0.003005504497484982
1684002611540963200,11.65136376953125,-0.051020726375085895,-0.08449363706229836,0.07985115044128598
1684002611551005400,11.66140576171875,-0.019240006899929652,-0.04010868072265172,0.10505485547686536
1684002611561047600,11.67144775390625,0.03833098698471059,0.02337741845510649,0.18748664839041357
1684002611571089600,11.681489990234375,0.12741716206691328,0.09132289892655476,0.216747760700817
1684002611581132000,11.691532470703123,0.24864208700387647,0.1303253173989738,0.20267677312640847
1684002611591174100,11.701574462890624,0.3556671738032131,0.18103122709556124,0.2552413939368316
1684002611601216200,11.711616455078126,0.4623129963534039,0.20034694661669167,0.27626323695283284
1684002611611258300,11.72165869140625,0.5513322949659818,0.19308090204433495,0.2992033957922981
1684002611621300400,11.73170068359375,0.6384308338468656,0.17596435545813188,0.2929511069026763
1684002611631342600,11.741742919921874,0.7008661628179867,0.10370922070687333,0.269650459409497
1684002611641384900,11.751785400390624,0.7483587862406446,0.04986286162857513,0.21211671825919196
1684002611651427000,11.761827392578123,0.7948125600993611,-0.03625583655874954,0.10812425625076459
1684002611661469100,11.771869384765624,0.8017522097327652,-0.06243801112080698,-0.039468765160880506
1684002611671511200,11.78191162109375,0.7974292039209078,-0.15443038946355375,-0.2416648863156009
1684002611681553600,11.7919541015625,0.7367767094427631,-0.19325160986319193,-0.39601707458993324
1684002611691595600,11.80199609375,0.6560024617456556,-0.27858638759822524,-0.4772706033462198
1684002611701637800,11.8120380859375,0.5417239070145852,-0.3412771224887008,-0.4934926034299765
1684002611711679900,11.822080322265624,0.4303992687485026,-0.3582506179662495,-0.5306630135184724
1684002611721722000,11.832122314453123,0.2895109654326242,-0.34465980528003165,-0.5088443757535828
1684002611731764100,11.84216455078125,0.1512409298644001,-0.34010601038172456,-0.5238809586643594
1684002611741806600,11.85220703125,0.021538555476930715,-0.36091709133057187,-0.4762835501346152
1684002611751848600,11.8622490234375,-0.1126850992412005,-0.32477092728006823,-0.40570020681118907
1684002611761890700,11.872291015625,-0.23340255014323613,-0.29650402069962173,-0.37671327584067604
1684002611771932800,11.882333251953124,-0.32263481623981183,-0.2570896147343239,-0.3485803604937257
1684002611781975000,11.892375244140624,-0.3604930638398898,-0.27493381511449233,-0.27888154992654896
1684002611792017300,11.902417724609377,-0.35871177920978664,-0.25269126895836164,-0.2274384498432639
1684002611802059400,11.9124599609375,-0.284663647421609,-0.2075786589782816,-0.13990592955819775
1684002611812101600,11.922501953125,-0.16173914081838864,-0.16590023030293502,-0.11103534695546963
1684002611822143600,11.9325439453125,0.0026635900643507777,-0.1136217115781827,-0.05292940145342732
1684002611832185800,11.942586181640625,0.18953463436678833,-0.09567642195608934,-0.050816536129477674
1684002611842228100,11.952628662109374,0.33817958815248844,-0.05015659330979792,-0.08937692633213377
1684002611852270300,11.962670654296875,0.4713627399478989,-0.04094123841005367,-0.1323614120745607
1684002611862312400,11.972712646484377,0.5340571402749128,-0.031992912328194144,-0.2218632699734884
1684002611872354600,11.9827548828125,0.5880964994618013,-0.0466423034232416,-0.222554683754555
1684002611882396600,11.992796875,0.5908670425233069,-0.07754039765346517,-0.21381282811355676
1684002611892438600,12.002839111328123,0.5545593499673032,-0.11955928792916228,-0.20965719219656478
1684002611902481100,12.012881591796877,0.4705329537856417,-0.1676902771099162,-0.23098421102524513
1684002611912523200,12.022923583984374,0.35231810801910435,-0.18645763391340436,-0.24901294712375954
1684002611922565300,12.032965576171875,0.22532153135257052,-0.19753837591727155,-0.24967479715777335
1684002611932607400,12.0430078125,0.13575570281902055,-0.16103649134042466,-0.2403292656358657
1684002611942649600,12.0530498046875,0.06289769707377844,-0.14598369599568733,-0.2140374185107087
1684002611952691900,12.06309228515625,0.01891174180957533,-0.12391757964918249,-0.11955451966976458
1684002611962734000,12.073134521484375,-0.019804909985255595,-0.09041309361912238,-0.04779386523567225
1684002611972776100,12.083176513671877,-0.029381457725315932,-0.055220603971581954,-0.026886940022826693
1684002611982818200,12.093218505859374,0.02541527535568977,-0.030226707446986353,0.02625179293079589
1684002611992860300,12.1032607421875,0.08685832470086143,-0.013000488351165839,0.0920987128329324
1684002612002902600,12.11330322265625,0.16772465399431782,-0.027076721189600944,0.09019899365431107
1684002612012944800,12.12334521484375,0.24024315164902257,0.015142440675852053,0.08754873273982335
1684002612022986900,12.13338720703125,0.3066390158001732,0.018662452587377386,0.030221462305577127
1684002612033029000,12.143429443359375,0.3200053869861495,0.01952838911166822,-0.017153262967609488
1684002612043071200,12.153471435546876,0.32590872034271456,-0.024621963589755137,-0.019484996751793954
1684002612053113600,12.163513916015624,0.32827341552043865,-0.025876045042187035,-0.024510860498722028
1684002612063155600,12.17355615234375,0.3266831935965569,-0.048453330996665815,-0.05327367801507678
1684002612073197700,12.18359814453125,0.32846838239801823,-0.05886650084455635,-0.105065345712785
1684002612083239900,12.19364013671875,0.29390603296357626,-0.047697067153004216,-0.12498760229221918
1684002612093282000,12.203682373046876,0.323079645571603,-0.07163906096105355,-0.15798139577137754
1684002612103324100,12.213724365234375,0.3188429476350606,-0.06895160684163477,-0.170970440006538
1684002612113366400,12.223766845703125,0.3192699253727995,-0.061262130606114566,-0.22549486154087
1684002612123408600,12.23380908203125,0.3095444738033081,-0.025112152226606347,-0.19138431559141564
1684002612133450600,12.24385107421875,0.2898829580085636,0.015315055804942452,-0.17165803890585704
1684002612143492800,12.25389306640625,0.3132785559007621,0.017765998984855202,-0.11626720427966274
1684002612153534900,12.263935302734374,0.29899477950394343,0.02062320716597895,-0.05154466627378782
1684002612163577300,12.273977783203126,0.3024678825593041,0.04014205942109867,0.014860153225320317
1684002612173619400,12.284019775390624,0.2365278153557887,0.07131671916617742,0.021648883713693588
1684002612183661600,12.294061767578125,0.24330350751459234,0.07861804960320239,0.030977725981540048
1684002612193703600,12.30410400390625,0.17910619079726353,-0.005856513988759839,0.07102489468519715
1684002612203745600,12.31414599609375,0.07382844386297371,-0.0982398987841862,0.0988044739531402
1684002612213788100,12.3241884765625,-0.03130910542446023,-0.10421276084329976,0.10045242305617706
1684002612223830200,12.334230712890625,-0.0790315121366277,-0.08892345429269052,0.11146163932428105
1684002612233872300,12.344272705078126,-0.07123450930464995,-0.05999851214970778,0.1760377884474378
1684002612243914400,12.354314697265623,-0.007450066327277535,0.02447605136520365,0.21046304702597368
1684002612253956600,12.36435693359375,0.028725989123630835,0.1021890641826824,0.30907678602916566
1684002612263998900,12.3743994140625,0.05295049761239335,0.1589269637355332,0.4186277390388017
1684002612274041000,12.38444140625,0.06698373705229306,0.19259357461996918,0.47049236315123916
1684002612284083100,12.3944833984375,0.1461148857968424,0.22701835636262,0.463140487567754
1684002612294125200,12.404525634765625,0.28590184451575906,0.24825191498605986,0.31319952002322954
1684002612304167300,12.414567626953126,0.396733254142889,0.249802589379831,0.13197898864005145
1684002612314209500,12.42460986328125,0.4526599049857883,0.18080329892248548,-0.07896947853164579
1684002612324251800,12.43465234375,0.4927808641883297,0.14655590062026966,-0.21699810011662038
1684002612334293900,12.4446943359375,0.5412746072193891,0.13506603232652736,-0.27091598498282593
1684002612344336000,12.454736328125,0.6281187533468866,0.10354995714218468,-0.28687620171567435
1684002612354378200,12.464778564453123,0.7237946987226703,0.0805034638409642,-0.30329895008006424
1684002612364420300,12.474820556640625,0.7798098324729443,0.05867576599074085,-0.3155832290000423
1684002612374462600,12.484863037109376,0.7716920971375604,0.05448913561562846,-0.2839350699182514
1684002612384504800,12.4949052734375,0.7024549843277615,0.00859069840527287,-0.17417907716012196
1684002612394546900,12.504947265625,0.5703384281381749,-0.03392791744284302,-0.12943840027768017
