time,seconds_elapsed,z,y,x
1684006682436113600,0.034513916015625,-5.805926890866422e-12,5.1775220928306294e-11,-1.6545911675708543e-10
1684006682446154600,0.04455517578125,-0.06100511561080458,0.10747671122372766,0.1898484230223971
1684006682456195600,0.054595947265625,0.1359763145540343,0.37999105456684,-0.08846044532378991
1684006682466236600,0.064636962890625,0.11893939968517103,0.39209079743786296,-0.22197246543289095
1684006682476277600,0.074677978515625,0.3683228492594963,0.36699771874769577,0.016413927151819607
1684006682486318600,0.084718994140625,0.5347142219195297,0.28696727758504226,-0.21907210351229287
1684006682496359600,0.094760009765625,0.2992920874976101,-0.08108711247789704,-0.7251801491481121
1684006682506400600,0.104801025390625,0.5661029815343288,-0.22537231448235254,-0.6402409075910731
1684006682516441800,0.11484228515625,0.5309443472473437,-0.3560557367240985,-0.8842525481404236
1684006682526482600,0.124883056640625,0.7049770355887959,-0.4067111015021204,-0.6127517222768677
1684006682536523600,0.134924072265625,1.036493301378965,-0.5166130065853818,-0.2911651134133528
1684006682546564800,0.144965087890625,0.9479379654322034,0.1138796806374801,-0.24474430085503127
1684006682556605900,0.15500634765625,0.310950279090909,0.26321125021939823,-0.30378198633332987
1684006682566646600,0.165047119140625,-0.30578899392536046,-0.42933702463254153,0.3443365097253111
1684006682576687800,0.175088134765625,0.27390336993702585,0.5504746436936058,0.7612206936638808
1684006682586728900,0.18512939453125,0.3865742682564019,0.741014957405606,0.8760836122511075
1684006682596769600,0.195170166015625,0.5893974304215522,0.3507561684424376,0.7032530309398565
1684006682606810800,0.205211181640625,0.10856771459561466,0.24205970745703778,0.49241447467416105
1684006682616851900,0.215252197265625,0.21699285509490385,0.315566539834605,-0.12029218671089374
1684006682626893000,0.22529345703125,0.43086624151354197,-0.7701630592745876,0.6631698607123684
1684006682636933800,0.235334228515625,0.5730028153002441,-0.24912261964787058,0.28335762025429506
1684006682646974900,0.245375244140625,-0.08112525935935573,0.2487187385244901,-0.1676778795055929
1684006682657016000,0.25541650390625,-0.433113098187053,0.03809881191038262,-0.09024858474745355
1684006682667057100,0.26545751953125,-0.6533370017231498,0.7676634787817106,-0.6690349579509779
1684006682677097900,0.275498291015625,-1.256649970909067,-0.22008228315291065,0.21642255775600408
1684006682687139000,0.285539306640625,-0.8781614302794004,-0.04150962816684269,0.4503860474776644
1684006682697180100,0.29558056640625,-0.06395244595079576,0.4338626860988944,0.2701663971431622
1684006682707220900,0.305621337890625,0.7652711868548698,0.6460027693826519,0.20395326605355454
1684006682717262000,0.315662353515625,0.5280671118380944,0.3379807471696812,0.5209131241106116
1684006682727303100,0.325703369140625,0.7415614128156154,0.45946788794807,0.6287202834328444
1684006682737343900,0.335744384765625,0.04029798515012982,0.720461845415127,0.5275807382032787
1684006682747385000,0.345785400390625,-0.9820256232609937,0.691474914648025,0.015454292251533925
1684006682757426100,0.355826416015625,-1.7830042840357758,0.249382972621793,0.21426630025992116
1684006682767467200,0.36586767578125,-1.4502594471653925,0.19134187696391408,0.53149032591047
1684006682777508300,0.37590869140625,-1.1131331922396364,0.2620768546807122,1.0733356477139633
1684006682787549100,0.385949462890625,-1.0426952838415056,0.30761194223914523,1.291019916554951
1684006682797590200,0.395990478515625,-0.9416050911121274,0.11784505843635837,1.1555147170331597
1684006682807631300,0.40603173828125,-1.338439226109837,-0.8585624694111147,0.06188392641527916
1684006682817672100,0.416072509765625,0.4877262115554807,-1.1824574471365379,0.5860528946041279
1684006682827713200,0.426113525390625,1.134818077275744,-1.290184974563799,0.12258434297286715
1684006682837754300,0.43615478515625,0.6816029550024926,-1.3725600241741815,-0.35795307171837815
1684006682847795100,0.446195556640625,-1.4292620421048308,-1.3360133172116948,-2.109086513595068
1684006682857836200,0.456236572265625,-1.2616441250261405,-1.284557819442377,-0.41706418984445276
1684006682867877300,0.466277587890625,0.9020755290655305,-1.4021253586646087,0.6752309799194878
1684006682877918400,0.47631884765625,0.6932830811892439,-1.7534666061119204,0.45535802847850126
1684006682887959200,0.486359619140625,0.8963599205449292,-1.7314977645864622,0.2349581718984168
1684006682898000300,0.496400634765625,1.0783469677321282,-2.0815534591443035,-0.19288682934135104
1684006682908041400,0.50644189453125,1.0540831090381024,-2.0092711448430407,-0.3642535210505746
1684006682918082600,0.51648291015625,0.8515335321463151,-1.1616678238369798,-1.1245379448977952
1684006682928123300,0.526523681640625,-0.5529001952467825,-0.33483886718771255,-1.1313905716414088
1684006682938164400,0.536564697265625,0.2124810219968487,-1.2575230598014107,0.24142074567574143
1684006682948205600,0.54660595703125,1.7384412287426383,-0.5787358284875348,0.7873640059597778
1684006682958246300,0.556646728515625,1.2974016667572317,-0.657665729594202,0.04857921599227474
1684006682968287400,0.566687744140625,0.9098896980192674,-0.12946271894726927,-0.5628657341875541
1684006682978328600,0.57672900390625,0.02199673640545546,0.6576457022208548,-0.6415843964517154
1684006682988369600,0.58677001953125,-0.273228645419238,1.1542620660174074,-0.055394172721121585
1684006682998410400,0.596810791015625,1.8234570025151706,0.7539334298162417,1.5888319016265702
1684006683008451600,0.606851806640625,4.314011573759877,1.989562511317274,3.991854190757916
1684006683018492600,0.61689306640625,0.25666928286383967,1.0891523361148006,0.30308008188923147
1684006683028533600,0.62693408203125,-4.427324771987316,2.407266139868934,-3.3757510187154
1684006683038574600,0.636974853515625,-6.771905422225098,2.288096666449405,-2.595473766378433
1684006683048615600,0.64701611328125,-1.6184675693310677,2.095563888585029,1.113533496868575
1684006683058656600,0.65705712890625,0.8490412236366126,1.7936401366991026,1.4309735299853774
1684006683068697600,0.667097900390625,-0.5341606140533631,1.0314388275133763,0.4052000046220941
1684006683078738600,0.677138916015625,-0.5837750435198773,0.866619587070607,0.1652560234181897
1684006683088779600,0.68718017578125,-0.42792558656983004,0.5639276505048502,0.30224466331069916
1684006683098820800,0.69722119140625,-0.5343296527608511,0.20645856851782557,0.10955238338319576
1684006683108861600,0.707261962890625,-0.2579576970114617,-0.19079923627632067,0.01508998858515409
1684006683118902600,0.71730322265625,0.056977272017100566,0.0569429396762586,-0.14699649798308614
1684006683128943800,0.72734423828125,-0.13076829914674573,-0.03827285770996889,-0.5222148894927631
1684006683138984900,0.73738525390625,0.1458983420568149,-0.029512405303464082,-0.44429540635082987
1684006683149025600,0.747426025390625,0.3222398758255474,-0.08041763310202807,-0.2009878157347737
1684006683159066800,0.75746728515625,0.18597030641796194,0.10278844830081653,-0.09222984326275395
1684006683169107900,0.76750830078125,0.32987546917416544,0.143587589309845,0.05038881302662671
1684006683179148600,0.777549072265625,0.4465279578743431,-0.04571104061857737,-0.23502016067535128
1684006683189189800,0.787590087890625,0.7836785316833204,-0.050554752351541894,-0.2839789388623411
1684006683199230900,0.79763134765625,1.0820226668969206,-0.2996854783662359,-0.3313932419876834
1684006683209272000,0.80767236328125,1.1024470329694596,-0.40279960616270055,-0.5462598800949434
1684006683219312800,0.817713134765625,1.423429966070366,-0.44441318515249967,-0.6609296799399168
1684006683229353900,0.82775439453125,1.2923822403908156,-0.3984270095819239,-0.45813417424211533
1684006683239395000,0.83779541015625,0.8029294013743814,-0.020247936134526984,-0.5807847977248035
1684006683249436100,0.84783642578125,0.2132415771378463,0.10667610174296537,-0.574878692782306
1684006683259476900,0.857877197265625,0.31004381193216674,0.10617017747006446,-0.5779910086658715
1684006683269518000,0.86791845703125,0.2533769608159466,0.15776681887235874,-0.5390691757040993
1684006683279559100,0.87795947265625,0.15936231611873092,0.19002151484532542,-0.47997093202480545
1684006683289599900,0.888000244140625,0.37445163722350866,0.07268905642162554,-0.23229169850535472
1684006683299641000,0.89804150390625,0.4245276450506388,0.061205386951703744,-0.07504129412783428
1684006683309682100,0.90808251953125,0.4101276398269644,0.042414665213080904,-0.0343570709872264
1684006683319723200,0.91812353515625,0.49239206310443323,-0.040113449107827846,-0.11795139327825588
1684006683329764000,0.928164306640625,0.2344536781594066,0.11029720321981694,-0.07708024989504422
1684006683339805100,0.93820556640625,-0.010416507694323719,0.12123346336840768,-0.19121646884684682
1684006683349846200,0.94824658203125,-0.014822483076938462,0.2035493852260993,-0.386035442337795
1684006683359887300,0.95828759765625,-0.09995818135124329,0.11975812916463902,-0.42080688483097894
1684006683369928100,0.96832861328125,-0.11188793184076305,0.1327428819184957,-0.33086347596425697
1684006683379969200,0.97836962890625,-0.0675859451064768,0.03757143031827976,-0.2434611319458233
1684006683390010300,0.98841064453125,-0.0038194657569400763,-0.141615867773224,-0.14323234568099683
1684006683400051100,0.998451416015625,0.19809150685164256,-0.3304853439694449,-0.06239080427931939
1684006683410092200,1.00849267578125,0.3399243355237067,-0.2997403144415937,0.10102462769900754
1684006683420133300,1.01853369140625,0.11182212841052178,-0.409376144373238,0.44835329053166006
1684006683430174400,1.02857470703125,-0.0771126747539697,-0.40986394880537874,0.5106158256703709
1684006683440215200,1.03861572265625,-0.20504212392999063,-0.36353445048636096,0.6303601266111382
1684006683450256300,1.04865673828125,-0.47992277141865364,-0.2382445334952529,0.43266677852744995
1684006683460297400,1.05869775390625,-0.4326641560915011,-0.25426340117320906,0.31419706344139053
1684006683470338600,1.06873876953125,-0.2794568538617671,-0.29670143124777276,0.19780206665356212
1684006683480379300,1.07877978515625,-0.03958654402427574,-0.39113140099592064,0.02153110504153907
1684006683490420400,1.08882080078125,0.016972541859750587,-0.49475526815882287,0.006893634783944936
1684006683500461600,1.09886181640625,-0.015320777861318361,-0.351799011270296,-0.2332959175530553
1684006683510502300,1.10890283203125,-0.08103179922956205,-0.30515956889823864,-0.11887788768724569
1684006683520543400,1.11894384765625,-0.2115111350982522,-0.2407436371360242,0.17398738862176413
1684006683530584600,1.12898486328125,-0.0678114890382495,-0.1875929832183119,0.2775039674252223
1684006683540625600,1.13902587890625,0.16210460664844792,-0.22981691371237511,0.4147477150237492
1684006683550666400,1.14906689453125,0.22789478303182698,-0.18072938916848108,0.23257398615760264
1684006683560707600,1.15910791015625,0.11516809460236416,-0.07348489772360052,0.14713859550584504
1684006683570748600,1.16914892578125,0.041798114723690355,0.03265285479793993,0.02938508995828364
1684006683580789400,1.17918994140625,0.04819822312613115,0.09769344340530818,-0.09952068333486101
1684006683590830600,1.18923095703125,0.062252044662497584,0.182953834606382,-0.14310312275617046
1684006683600871600,1.19927197265625,0.13520574574642763,0.22292804735931573,-0.21406316741489387
1684006683610912600,1.20931298828125,0.14715194714593105,0.39576005934417857,-0.23457431785022784
1684006683620953600,1.21935400390625,0.21649122252436875,0.5526309013657128,-0.2928543091467997
1684006683630994600,1.22939501953125,0.14204216000252506,1.1861593723338768,-1.0528063772640104
1684006683641035600,1.23943603515625,-0.29729008666734535,1.2346968652598276,-0.9032807350743911
1684006683651076800,1.249477294921875,0.12304663663096345,1.272672653293186,-0.5178160666940745
1684006683661117600,1.25951806640625,0.41157770166524676,1.5713551045338854,-0.5771522523130489
1684006683671158600,1.26955908203125,0.41777610763052675,1.7508547305600088,-0.8483052254047463
1684006683681199800,1.27960009765625,0.4582326411669176,1.783523321204628,-1.0918264389119023
1684006683691240600,1.28964111328125,0.7389855384118236,1.90424871448166,-1.1750283242338835
1684006683701281600,1.29968212890625,1.02973771089796,2.0586624146294286,-0.9918432234245957
1684006683711322800,1.30972314453125,1.0742471218736867,2.1533060074206736,-0.8883996009052595
1684006683721363900,1.319764404296875,0.44277334213951425,2.1945500374801434,-0.9084730147264639
1684006683731405000,1.329805419921875,-0.3417556286515971,2.125797986974257,-0.8981065751056412
1684006683741445800,1.33984619140625,-0.5341367722046633,1.919484615225954,-0.8613348007423662
1684006683751486900,1.34988720703125,0.46441745758603475,1.8934245109705112,-1.1912794114058387
1684006683761528000,1.359928466796875,0.35171914111977426,0.9537696837158194,-2.603282928445023
1684006683771568800,1.36996923828125,-0.6064733267195722,0.16127681716673195,-1.7929210663460173
1684006683781609900,1.38001025390625,-0.5903571844618967,0.17352151868343943,-1.1589241029179054
1684006683791651000,1.390051513671875,0.15586137772972003,-0.12828397738823208,-0.5970153809860897
1684006683801691800,1.40009228515625,0.730870008537889,-0.7967853545123992,0.3871488571987992
1684006683811732900,1.41013330078125,1.7907124759336635,-1.0692701339624544,1.5156412124542624
1684006683821774000,1.42017431640625,2.378654479965651,-0.8754415512352723,2.61775970460936
1684006683831815100,1.430215576171875,2.150055885322781,-0.6062531471284887,3.229114532406435
1684006683841856200,1.440256591796875,1.1728466748242456,-0.7013444899100723,3.353109359845111
1684006683851897000,1.45029736328125,0.30864435434258164,-1.1477651596413798,3.2772798539160757
1684006683861938100,1.46033837890625,-0.6777443884382816,-2.3180165290788786,2.71423339837341
1684006683871979200,1.470379638671875,-1.4188539983423045,-1.4527177810091443,1.0184049607900356
1684006683882020000,1.48042041015625,-1.1944003105481067,-2.0297689436083886,1.9221353530002736
1684006683892061100,1.49046142578125,0.3226079045308267,-3.327381134088391,1.15829849246116
1684006683902102200,1.500502685546875,0.3205611706068351,-2.9257922173885866,1.3762664793969324
1684006683912143300,1.510543701171875,0.0899812878104777,-1.9352111816550341,0.19435501087058932
1684006683922184100,1.52058447265625,-0.7957847118684861,-1.3588266374399787,-0.8551630973479619
1684006683932225200,1.53062548828125,-1.308415651318564,-1.3610839843285742,-1.4047222136694526
1684006683942266300,1.540666748046875,-0.8871254919808744,-1.2720737456867166,-0.7705273627858116
1684006683952307400,1.550707763671875,0.023115940475843293,-1.138971328650341,0.5915765763966717
1684006683962348200,1.56074853515625,0.03098884986547045,-1.9815125464874264,1.4021711350566697
1684006683972389300,1.570789794921875,-1.033515214791917,-2.2143158913848677,0.9630489349846301
1684006683982430400,1.580830810546875,-1.2920030357190755,-1.7651705742151007,0.9734077454045134
1684006683992471200,1.59087158203125,-0.7460226416147031,-0.8825082777902094,1.0313072204335223
1684006684002512300,1.60091259765625,-0.35675752168550945,-0.529284954128628,1.4559116362518292
1684006684012553400,1.610953857421875,-0.27740004639766486,-0.42974853513176997,1.3243093490200872
1684006684022594600,1.620994873046875,0.22985056036545617,-0.5971250534777346,1.3270425795603296
1684006684032635300,1.63103564453125,0.38960608830027466,-0.8903851508695523,1.5125007628833762
1684006684042676400,1.641076904296875,0.5925636887885976,-1.2387290000439062,1.4020957945538632
1684006684052717600,1.651117919921875,0.5960121154987191,-1.418629646384521,1.1856679916635022
1684006684062758600,1.661158935546875,0.6014482378120204,-1.0759210586806194,1.1444978713324647
1684006684072799400,1.67119970703125,0.2895369230666322,-0.49496936796055385,0.7440443039920311
1684006684082840600,1.681240966796875,0.3077398240189441,0.09935331336983716,0.8448505400605468
1684006684092881600,1.691281982421875,0.017589300945092288,0.503533363298933,0.8105211257085843
1684006684102922400,1.70132275390625,-0.10641004136542552,1.1131305693775944,0.3408355711987694
1684006684112963600,1.711364013671875,-0.19918610145275056,1.2725622652752993,-0.4158239364495789
1684006684123004600,1.721405029296875,-0.850075721591664,1.6826987268116322,-2.463826656426956
1684006684133045600,1.731446044921875,-0.8975270390856772,2.04393482208422,-3.7263684272421784
1684006684143086600,1.74148681640625,-0.5052894355184188,2.146699428650173,-4.167249679646781
1684006684153127600,1.751528076171875,-0.11823543153283787,2.491211414332344,-4.031099796351397
1684006684163168600,1.761569091796875,0.12361415487639212,2.766313791140269,-3.6981382370493088
1684006684173209800,1.771610107421875,0.36750638497607535,2.539197206501261,-1.5959138869607457
1684006684183250600,1.781651123046875,0.48878338927490644,2.582887649386177,-0.4033813476554897
1684006684193291600,1.791692138671875,0.1667025088619298,2.596503019354118,-0.42917060850746025
1684006684203332800,1.801733154296875,0.11383096879966187,2.3471190930042902,-0.49500846856111497
1684006684213373900,1.811774169921875,0.0952387378084406,1.883503437161988,-0.5783801079709243
1684006684223414600,1.821815185546875,0.38697132465184214,1.497077465038897,-0.988196373135173
1684006684233455800,1.831856201171875,0.4218273461205496,0.997885704066446,-1.4924039840615253
1684006684243496900,1.841897216796875,-0.2526911198005744,0.31353044509053757,-2.4003190993691788
1684006684253537600,1.851938232421875,-0.024982929313418067,0.9805979729151161,-3.1260819435582814
1684006684263578800,1.861979248046875,-0.5255571603856535,1.4355866908862371,-2.688104629548021
1684006684273619900,1.872020263671875,-0.8440601825011498,0.9827609061801699,-1.8147888182463172
1684006684283661000,1.882061279296875,-0.3695929945234417,0.18172073375031286,-0.6594209671632525
1684006684293701800,1.892102294921875,0.250759571821929,-0.6973452567889453,1.0336904526104966
1684006684303742900,1.902143310546875,0.28873994949055454,-1.310902118618751,3.446146964977015
1684006684313784000,1.912184326171875,-0.05075281843295733,-1.06159400951034,3.5496463776228473
1684006684323825100,1.9222255859375,-0.6347010136527929,-0.7744350434522763,3.3737568854401196
1684006684333865900,1.932266357421875,-0.35404396061923404,-0.8631496429013579,2.551324844221563
1684006684343907000,1.942307373046875,-0.26999378198664126,-1.0919356346489564,1.806635379759948
1684006684353948100,1.952348388671875,0.08061641464708405,-1.08714532846186,0.861068725633788
1684006684363988900,1.962389404296875,0.22021159542014293,-1.0010013581499548,0.46225690843924644
1684006684374030000,1.972430419921875,-0.2426066400386206,-0.7292227744478995,0.5095176697155616
1684006684384071100,1.982471435546875,-0.1438096762010665,-0.35996866241608966,0.1450638770127019
1684006684394112200,1.9925126953125,0.6120015382799477,0.14517641064617812,-0.4230732918131866
1684006684404153000,2.002553466796875,0.9293047784716864,0.30177116398524395,-0.7938671112445925
1684006684414194100,2.012594482421875,0.593374133045189,-0.5348334310711002,0.33706569674841774
1684006684424235200,2.022635498046875,0.502415239905247,-1.0104317664611433,1.0929622650962774
1684006684434276300,2.0326767578125,0.42082631590129504,-0.7383618354439149,0.2219600675848986
1684006684444317100,2.042717529296875,-0.18688941004465423,-1.1430883408339336,-0.4642477036562284
1684006684454358200,2.052758544921875,-0.7154097557475394,-1.0012617110765158,-0.7030944826011343
1684006684464399300,2.062799560546875,-0.823428630892087,-0.941031932927181,-0.863477230192042
1684006684474440400,2.0728408203125,-0.535223126404588,-0.7059650422460784,-1.0107612610050076
1684006684484481200,2.082881591796875,-0.5146569012706,-0.5513834953096355,-0.6562409401305582
1684006684494522300,2.092922607421875,-0.5393329857033657,-0.38535261150962424,-0.17379856100100263
1684006684504563400,2.1029638671875,-0.43092298510477,0.0959200858962473,0.4186191557785443
1684006684514604500,2.1130048828125,-0.0389087200007043,0.6441593171346773,0.9947314261465974
1684006684524645300,2.123045654296875,0.8743096589753403,1.033017158552709,1.3550620078934026
1684006684534686400,2.133086669921875,1.7544012069823771,1.1975822449595197,1.8247351646964762
1684006684544727600,2.1431279296875,1.9381983280302548,1.15936279297568,2.271108627241772
1684006684554768300,2.153168701171875,1.6687043904790761,0.9974412919008309,2.207021236263568
1684006684564809400,2.163209716796875,1.3578276632923154,1.0175313950110374,2.0069603918901073
1684006684574850600,2.1732509765625,0.9862127303740701,1.272343158814042,1.5550146101576565
1684006684584891600,2.1832919921875,0.3567192554799065,1.520906448372822,0.7239012718345897
1684006684594932400,2.193332763671875,-0.620717287023553,0.962943077141644,0.10253381731589332
1684006684604973600,2.203373779296875,-1.2639713287877028,0.22096586233120258,-0.04310083381792703
1684006684615014600,2.2134150390625,-1.206380963259507,0.24328851699369353,-0.04474306113445901
1684006684625055600,2.2234560546875,-1.1376721860326404,-0.0550727845354276,0.210522651770036
1684006684635096600,2.233496826171875,-0.8032442330973402,-0.7360410688584501,0.8961625100921988
1684006684645137600,2.2435380859375,-0.42513096325527067,-1.0293145179672294,1.8692488670325964
1684006684655178600,2.2535791015625,0.44299548855365134,-1.4204373359506441,3.775796890417952
1684006684665219800,2.2636201171875,0.8489974738057994,-0.4213633536431199,3.0263972284014407
1684006684675260600,2.273660888671875,0.41593801973932454,-0.547756671863368,1.538699626930568
1684006684685301600,2.2837021484375,0.2753734589266313,-0.37744331365104156,-0.06174659727651757
1684006684695342800,2.2937431640625,-0.292591929387514,-1.6734800339925318,-1.2254605293746812
1684006684705383600,2.303783935546875,-0.47170901286190736,-3.0746903420698652,-1.3644080161826766
1684006684715424600,2.3138251953125,0.13932037365354838,-3.485059738135683,-1.0869355201614914
1684006684725465800,2.3238662109375,0.9650608895854295,-1.8354067801188614,-1.4651203155014831
1684006684735506900,2.3339072265625,0.8886904718128225,-1.056104660031351,-1.974494457252402
1684006684745547600,2.343947998046875,0.3356301784633334,-1.1721034051450527,-2.398787498522869
1684006684755588800,2.3539892578125,-0.13425564778048416,-0.9747371672812017,-2.4261298179210704
1684006684765629900,2.3640302734375,-0.48875856401913464,-0.5835700035413433,-2.1862654684800904
1684006684775671000,2.3740712890625,-0.8418508767821972,-0.3406310081302193,-2.207277774754161
1684006684785711800,2.3841123046875,-1.161628007872378,-0.31438589093169733,-1.9299387933036016
1684006684795752900,2.3941533203125,-1.2347999810652095,-0.43808937075448856,-1.4925632477178528
1684006684805794000,2.4041943359375,-1.0491894484608748,-0.5746846199332527,-1.3358945847112096
1684006684815834800,2.414235107421875,-0.6287071703137433,-0.6710991861031996,-1.0006246566995267
1684006684825875900,2.4242763671875,-0.07501077660256102,-0.8064608574724107,-0.4717564581804493
1684006684835917000,2.4343173828125,0.35301291936455137,-0.8814334868596608,-0.020720005018874228
1684006684845958100,2.4443583984375,0.5728679896516771,-0.7949919701350707,0.30328559869608723
1684006684855999200,2.454399658203125,0.5694500208899137,-0.8530211450246371,0.40967369078007865
1684006684866040000,2.4644404296875,0.36041557784337463,-0.715435028059493,0.5727667808161638
1684006684876081100,2.4744814453125,0.025956749868013936,-0.5661730765889202,0.5862269402780762
1684006684886122200,2.4845224609375,-0.3004043102328593,-0.5225229263959728,0.1336889265957526
1684006684896163000,2.4945634765625,-0.4399672746046605,0.5905966758531891,0.15764045716234942
1684006684906204100,2.5046044921875,-0.6165592670320934,0.1872768401653431,0.20531749721615675
1684006684916245200,2.5146455078125,-0.6106510162582947,-0.20394039166718744,0.1456828117326838
1684006684926286300,2.524686767578125,-0.2488551139938561,-0.017231464466083524,0.1748657226750507
1684006684936327100,2.5347275390625,0.3031427860322129,0.33715772620112106,0.03684520709973304
1684006684946368200,2.5447685546875,0.430211901583058,0.44123077390573007,-0.29272556311943687
1684006684956409300,2.5548095703125,0.5906053781783264,0.6888480186323602,0.2062702179481305
1684006684966450400,2.564850830078125,0.6451293230127206,0.8631753920027461,0.26073217402448523
1684006684976491200,2.5748916015625,0.7396726606664135,0.8703522682308958,0.30128192913997626
1684006684986532300,2.5849326171875,0.75444889062186,0.7389087677187294,0.3986754416825087
1684006684996573400,2.594973876953125,0.6059180498477191,0.7743105887824829,0.5794129371744874
1684006685006614400,2.605014892578125,0.5125325919358775,0.8720569610195656,0.5505418778883903
1684006685016655300,2.6150556640625,0.4111166001498667,0.9525003433226716,0.31814002989853246
1684006685026696400,2.6250966796875,0.2237254381509807,0.6817970277354869,0.23744153969313345
1684006685036737500,2.635137939453125,0.06908488281395006,0.39035940160698274,0.11258840572728186
1684006685046778300,2.6451787109375,-0.08752012258563749,-0.015423297927006693,-0.013741970198341264
1684006685056819400,2.6552197265625,-0.1480822563410431,-0.40454483030108596,-0.13195466984118515
1684006685066860500,2.6652607421875,0.013494372380277243,-0.48651742937936615,-0.23058509816158954
1684006685076901600,2.675302001953125,0.15425264845615816,-0.451128482810578,-0.3585987090760972
1684006685086942400,2.6853427734375,0.3978129625597233,-0.6635713577303775,-0.5462875366558002
1684006685096983600,2.6953837890625,0.6227380037393447,-1.146085262298806,-0.6660494803789349
1684006685107024600,2.705425048828125,1.037694931089433,-1.439809322211817,-0.701312541998665
1684006685117065600,2.715466064453125,1.5554165839573995,-0.9722070694092262,-1.0378413200436143
1684006685127106600,2.7255068359375,1.3936728239290619,-0.9275245667147214,-1.3615727425962625
1684006685137147600,2.7355478515625,0.7315330506923384,-0.8424339295310814,-1.6392922402436885
1684006685147188600,2.745589111328125,-0.038559079084289856,-0.686337947846527,-1.9889078140425538
1684006685157229700,2.755630126953125,-1.1352732181289957,-0.7860527039548427,-2.20005846034896
1684006685167270600,2.7656708984375,-2.193669795847659,-0.8963456153505297,-2.2485618590433045
1684006685177311600,2.775712158203125,-2.855361461557219,-0.8184723853333281,-1.8378386498341466
1684006685187352800,2.785753173828125,-2.8591232299988367,-0.486836910295669,-1.1787352560739404
1684006685197393800,2.795794189453125,-2.3841602801718813,-0.16884660725805894,-0.5597848891024689
1684006685207434600,2.8058349609375,-1.5550272464754653,-0.2567701339337454,-0.3128209113491898
1684006685217475800,2.815876220703125,-0.7583835125423996,-0.2313456536914071,-0.12385129931604312
1684006685227516800,2.825917236328125,-0.15611982353291665,0.10192966448779832,0.09713506699346346
1684006685237557600,2.8359580078125,0.141582846552512,-0.19282150271689635,0.7503738402566534
1684006685247598800,2.845999267578125,0.17780184744609248,0.19051933279712352,0.924302101065117
1684006685257639900,2.856040283203125,0.08466398708924852,0.5186600685260515,0.9967617989619286
1684006685267680900,2.866081298828125,-0.14123845087995324,0.6462888717549146,0.8795309068081395
1684006685277721800,2.8761220703125,-0.3349609375217777,0.6644706725427888,0.6818819046835141
1684006685287762900,2.886163330078125,-0.22765517231591167,0.6883969307470658,0.6658730506301429
1684006685297804000,2.896204345703125,0.2555671930634112,0.8527684212494413,0.8856487275536857
1684006685307845000,2.906245361328125,0.7563833594051198,0.7576222420630245,0.7298932074642026
1684006685317885900,2.916286376953125,0.9348832370403066,0.5889606474791369,0.6130342482581107
1684006685327927000,2.926327392578125,0.48764753338774747,0.43119716641165723,0.15633344644479236
1684006685337968000,2.936368408203125,-0.0765855311736658,0.3400363920515548,-0.5948100089636188
1684006685348009100,2.946409423828125,-0.4851838350020779,0.514541149164498,-1.1753802298868832
1684006685358050000,2.956450439453125,-0.9246619940625813,0.44322633744402723,-1.5422439573676594
1684006685368091100,2.966491455078125,-1.1235352755283576,0.6443290711818594,-1.0178403853919302
1684006685378132100,2.976532470703125,-1.0382846593840411,0.6559724807094512,-0.4920935631064077
1684006685388173000,2.986573486328125,-0.8996096849821869,0.6149821280293318,-0.49365520468825463
1684006685398214100,2.996614501953125,-0.9422059060689673,0.2599215508949892,-0.5737600326152578
1684006685408255200,3.006655517578125,-0.7921438216184591,-0.6571822165996667,-0.2929549217206535
1684006685418296200,3.016696533203125,-0.32222259059812,-0.8987307548388002,0.3806257246906973
1684006685428337300,3.02673779296875,0.5060691833243104,-0.7524099349810192,1.0586681365861417
1684006685438378200,3.036778564453125,1.1444108487449114,-0.48773956296525117,0.9275140762550317
1684006685448419200,3.046819580078125,0.8581164479205639,0.1681361198549005,0.1512908936688187
1684006685458460300,3.05686083984375,0.03684377672928096,0.2578516006391262,-0.18556880952701899
1684006685468501200,3.066901611328125,-0.6847784519457546,0.02731847758693504,-0.49841070167334856
1684006685478542300,3.076942626953125,-1.0055558682307009,0.07179260254099754,-0.5389051437955131
1684006685488583300,3.086983642578125,-1.092323899353268,0.025211334145058346,-0.33448219293826503
1684006685498624400,3.09702490234375,-1.0205968618661827,0.009025096925691537,-0.2929048537198323
1684006685508665300,3.107065673828125,-0.7136380672277892,-0.2852544784522141,-0.06070709211023548
1684006685518706400,3.117106689453125,-0.25164008151418615,-0.0092806814726232,0.0764837263455976
1684006685528747400,3.12714794921875,0.3932864666903233,0.6034855843169178,0.05821943289329062
1684006685538788600,3.13718896484375,0.2747434376541535,0.6211438178777677,-0.143947124400595
1684006685548829400,3.147229736328125,-0.08420097834570107,0.5218286514478172,-0.1792659758992857
1684006685558870400,3.157270751953125,-0.05124831198196375,0.6773848534092604,-0.36365032215144427
1684006685568911600,3.16731201171875,0.0057340860197658845,1.271642208174432,-0.6817650795833015
1684006685578952600,3.17735302734375,-0.10851728913530696,0.7340402603157837,-0.5923256874680946
1684006685588993500,3.187393798828125,0.025219559579588515,0.02550935753701469,-0.4040923117338042
1684006685599034600,3.19743505859375,-0.07252454750386807,-0.03463745111965917,-0.07092618930201539
1684006685609075600,3.20747607421875,-0.1706204412995933,-0.10567617421857148,0.10719966893395058
1684006685619116500,3.217516845703125,-0.1895750762288181,0.025455951711237143,-0.028599262264563295
1684006685629157600,3.227557861328125,-0.24355745330673506,0.034427642974720035,-0.3255867959175821
1684006685639198600,3.23759912109375,-0.5869097708652046,-0.5912337302090928,-0.6872153282093955
1684006685649239700,3.24764013671875,-0.9021801948956272,-1.1369476317947549,-0.9859519003832152
1684006685659280800,3.25768115234375,-1.1697809695738917,-1.5412364004541148,-1.135601520468209
1684006685669321600,3.26772216796875,-1.5246012211948414,-0.7230429649580004,-1.336795806900515
1684006685679362700,3.27776318359375,-1.0995777844099102,-0.00800609580656518,-0.6888871193588951
1684006685689403800,3.28780419921875,-0.49734294422091646,0.08220624912484455,-0.12257385259131187
1684006685699444600,3.297844970703125,-0.17745983586406874,0.10416412349002678,-0.008000373937018572
1684006685709485700,3.30788623046875,-0.1954303980108684,0.08068895341702274,0.0514850616769832
1684006685719526800,3.31792724609375,-0.43021762360430826,0.17690563211310034,0.03173017487144134
1684006685729567900,3.32796826171875,0.18659877780787615,0.761104106872672,0.9290528296961338
1684006685739608800,3.338009033203125,0.012700080962664041,0.16513824467126056,0.8841695784956555
1684006685749649800,3.34805029296875,-0.9874521494560373,-0.10839748368104478,0.1314191819348791
1684006685759690900,3.35809130859375,-2.03619980807275,-0.7167763710839078,-0.07643222813959491
1684006685769732000,3.36813232421875,-2.5912423132691322,-1.9987974166255413,0.07966566096115575
1684006685779772800,3.37817333984375,-1.6704432963994362,-1.1836218834608334,-0.12507963192764132
1684006685789813900,3.38821435546875,-0.290705204047782,0.12241554254464784,-0.18835735319261512
1684006685799855000,3.39825537109375,0.25437855720286984,0.46805047992641124,0.10500621791539139
1684006685809896100,3.408296630859375,0.614452361967197,0.7209076882420907,0.32164430618269396
1684006685819936900,3.41833740234375,0.17505705362575508,-0.037765503047704825,0.4323849677958572
1684006685829978000,3.42837841796875,0.4411631822702392,-0.5918216706928804,0.6310391426030272
1684006685840019100,3.43841943359375,0.815150975999797,-0.7313284875206972,0.6340665818073631
1684006685850060000,3.44846044921875,1.0855238438120085,-0.8439579008891887,0.749022006887411
1684006685860101000,3.45850146484375,0.9758024215357844,-0.7441525459393716,0.853519916522688
1684006685870142100,3.46854248046875,0.36736440671527953,-0.0037932394631160584,1.6397981642520782
1684006685880183200,3.47858349609375,-0.1795136928294665,0.030100345673820278,0.655054092518228
1684006685890224300,3.488624755859375,-0.18723905086041417,0.3275008200777208,-0.06513357170844757
1684006685900265100,3.49866552734375,-0.12255454053513765,0.30884027487742644,-0.4252734184425111
1684006685910306200,3.50870654296875,0.04126250746610619,0.27894735347141836,-0.7500834464053906
1684006685920347300,3.518747802734375,0.4732401371460998,0.12727165230533474,-0.9211201668664246
1684006685930388100,3.52878857421875,0.7259461879141247,-0.15407466897868918,-1.1149115562742744
1684006685940429200,3.53882958984375,0.7919158935473566,-0.5422363280652991,-1.0795712471273087
1684006685950470300,3.54887060546875,0.9196670650637006,-0.6357436180781002,-0.7574810981060803
1684006685960511400,3.558911865234375,0.8839458822053873,-0.5787291527472834,-0.5711255073959607
1684006685970552200,3.56895263671875,0.6167482138488749,-0.6508932114725062,-0.7018346786250212
1684006685980593300,3.57899365234375,0.7063834666093314,-0.6720318794080907,-0.3131670951341355
1684006685990634400,3.589034912109375,0.6856411695635596,-0.6767930985124959,0.425197124457656
1684006686000675600,3.599075927734375,0.5662961006252129,-0.49591064439362903,0.6630420684049162
1684006686010716300,3.60911669921875,0.29370403299179354,-0.438104152769483,0.49956274028849573
1684006686020757400,3.61915771484375,0.01461529724836866,-0.14598226536766196,0.17473030089468042
1684006686030798600,3.629198974609375,0.018717885053552322,0.07579231256610713,-0.10351943969733389
1684006686040839600,3.639239990234375,0.2561680675153371,0.05630016325558901,-0.05466270450356182
1684006686050880400,3.64928076171875,0.4222434163048192,-0.020152568885469516,-0.028232574597184434
1684006686060921600,3.659322021484375,0.434867382085089,-0.04327917110361283,0.04508352283556812
1684006686070962600,3.669363037109375,0.3468506932116656,-0.09008598327499409,0.3739686011704188
1684006686081003400,3.67940380859375,0.46903097627772167,-0.1546354292793032,0.6187982560013547
1684006686091044600,3.68944482421875,0.5895261764969699,-0.1409864425182589,0.6912245749888947
1684006686101085600,3.699486083984375,0.6105688810086489,-0.05837917334524907,0.43297958366778205
1684006686111126600,3.709527099609375,0.6010346411961789,0.02719402330304974,-0.033556938139148035
1684006686121167600,3.71956787109375,0.47915035500749,-0.09773731249089108,-0.15401554103594964
1684006686131208600,3.729609130859375,0.4460894465735827,0.09161710740109304,-0.5384941101368489
1684006686141249600,3.739650146484375,0.479407727765015,0.00448799123835117,-1.0149431228220116
1684006686151290800,3.749691162109375,0.6629523040248252,-0.24941015233079672,-1.028439998672097
1684006686161331600,3.75973193359375,0.9874459504073486,-0.35583734511314297,-0.45768213266782637
1684006686171372600,3.769773193359375,1.242761254307227,-0.3407888410992314,-0.26117038733648085
1684006686181413800,3.779814208984375,1.3955965041950347,-0.4751014709173218,-0.5035610198605988
1684006686191454900,3.789855224609375,1.3145036697506471,-0.45905971517092264,-0.4137587548317507
1684006686201495700,3.799896240234375,1.1208653449452177,-0.30434036244604334,-0.4641733170253369
1684006686211536800,3.809937255859375,0.97166228278439,-0.20880651471513617,-0.5917339324335311
1684006686221577900,3.819978271484375,0.9198329449055141,-0.3101105690696948,-0.5928974152722425
1684006686231619000,3.830019287109375,1.059265613592279,-0.3773698807241535,-0.4405779838838553
1684006686241659800,3.840060302734375,1.209000110701814,-0.40235662452964777,-0.37533950799154986
1684006686251700900,3.850101318359375,1.4026041032223615,-0.3961777688534936,-0.5326886176758608
1684006686261742000,3.860142333984375,1.1884207725064106,-0.5576896665732917,-0.11713981627160945
1684006686271783100,3.87018359375,1.0680950879019209,-0.4752364159016876,-0.14638710015829232
1684006686281823900,3.880224365234375,1.0925170183127029,-0.27434015273530543,-0.44569396968585506
1684006686291865000,3.890265380859375,0.9888890385398815,-0.30226135259591447,-0.508930206349253
1684006686301906100,3.900306396484375,1.1238110065391689,0.2148256301714016,-0.5616750716317239
1684006686311946900,3.910347412109375,1.010195493862835,-0.015555381761654757,0.38350963601306853
1684006686321988000,3.920388427734375,0.862065672825833,0.025856971642987444,0.6076564789490996
1684006686332029100,3.930429443359375,0.7876238824003607,0.057287216185323474,0.7530608177290539
1684006686342070200,3.940470703125,0.666314125029863,0.08736085900108476,0.5315804480820999
1684006686352111300,3.95051171875,0.7084373236397511,0.12284517303843775,0.14832639713077514
1684006686362152100,3.960552490234375,0.752271056169461,0.006970405684157345,-0.2067670822055146
1684006686372193200,3.970593505859375,0.8358626365679832,-0.055240630995824914,-0.36944818508733474
1684006686382234300,3.980634765625,0.9788714050819686,-0.10136699676705095,-0.4298934937149809
1684006686392275100,3.990675537109375,0.8887577055131701,-0.15518856054735847,-0.6626467705524608
1684006686402316200,4.000716552734375,0.7679630519116948,-0.38350009929169865,-0.7233343125297977
1684006686412357300,4.0107578125,0.5236245393815422,-0.38016939164298086,-0.9495248794733291
1684006686422398400,4.020798828125,0.2610388398048748,-0.3199853897863383,-0.8558044434489889
1684006686432439200,4.030839599609375,-0.18289840225345602,-0.5761566163633488,-0.4676551817972296
1684006686442480300,4.040880615234375,0.4235065579130508,0.24923086168277503,-0.1510367394252842
1684006686452521400,4.050921875,0.6656567453212985,0.42562103277790675,0.21934032442535645
1684006686462562600,4.060962890625,0.7299826741000034,0.3968849182157782,0.3143329619766931
1684006686472603300,4.071003662109375,0.47332847112557386,0.29667282113511706,0.1683239938645318
1684006686482644400,4.081044921875,0.35769450662501384,0.09708118439052409,0.4036936758681033
1684006686492685600,4.0910859375,0.23678851131113857,-0.14322185502357027,0.21996116649208444
1684006686502726600,4.101126953125,0.2511836289215167,-0.21884155267367467,-0.062074184403834956
1684006686512767400,4.111167724609375,0.3484667539827498,-0.01627206807593097,0.1306447982861742
1684006686522808600,4.121208984375,0.10950073593545748,-0.23090696331932778,0.3458027839197866
1684006686532849600,4.13125,0.12811756129942298,-0.053663253747958356,0.36179113389119505
1684006686542890400,4.141290771484375,-0.07506549345053698,-0.1578989028003175,0.34732818595243214
1684006686552931600,4.151331787109375,-0.13176238551290514,-0.13804245000444818,0.20844364169400323
1684006686562972600,4.161373046875,0.06727412328150223,-0.013041496340243946,0.17517805083174565
1684006686573013600,4.1714140625,0.20997583873530362,-0.13908243193625763,0.11568069470640756
1684006686583054800,4.181455078125,0.1971122325897904,-0.17831277851225077,-0.0863995552079351
1684006686593095600,4.19149609375,0.12304791812042472,-0.017175197539952763,-0.30512952796226384
1684006686603136600,4.201537109375,0.03478384026981559,-0.013705253653369871,-0.3426575661285676
1684006686613177800,4.211578125,0.0125388502553268,-0.1002473831496871,-0.34904718389517614
1684006686623218600,4.221618896484375,0.009770840474549186,0.04644632326827276,-0.4928927422091346
1684006686633259600,4.23166015625,-0.059748470815847395,-0.0548224449402522,-0.45365571969158364
1684006686643300800,4.241701171875,0.0774709284529486,0.1382327080573069,-0.3602328300626874
1684006686653341900,4.2517421875,0.2722587286745568,0.14096784596445844,-0.13059139249503043
1684006686663383000,4.261783447265625,0.29333218929337335,0.144468784336403,0.09393215193754809
1684006686673423800,4.27182421875,0.24495163571054743,0.03567409512729425,0.3180751800106162
1684006686683464900,4.281865234375,-0.09144967799812818,-0.5479617118312968,0.27829408657094884
1684006686693506000,4.29190625,0.3272954224043087,0.1495575904264799,-0.11849737157290174
1684006686703546800,4.301947265625,0.3285866677077174,0.43032836919732886,-0.17155361177269635
1684006686713587900,4.31198828125,0.29422444120909097,0.6275396347027625,-0.504584789277899
1684006686723629000,4.322029296875,0.40603992345008527,1.0301113128459378,-0.7987079621134175
1684006686733670100,4.332070556640625,0.2796037197154646,0.36080503468513464,-0.5532054900395554
1684006686743710900,4.342111328125,0.35764583957659146,0.24752998355159261,-0.4633827208793212
1684006686753752000,4.35215234375,0.707900643407042,0.03862094877463405,0.05177116406104902
1684006686763793100,4.362193359375,0.7514863013056591,0.0337119101683727,0.32754755031517063
1684006686773833900,4.372234375,0.39638918646670235,0.031486511053062514,0.33052158351519884
1684006686783875000,4.382275390625,0.0158392637857846,0.1370272635514819,0.08589363082448423
1684006686793916100,4.39231640625,0.5877114533639611,0.6863040923351987,-0.20216608059677565
1684006686803957200,4.402357666015625,0.009945981107105673,-0.3445768355599385,0.07520103458205153
1684006686813998300,4.412398681640625,0.6259292959007324,0.4622116088360522,-0.6266775131076087
1684006686824039100,4.422439453125,0.675354003782566,0.3438730239557348,-0.4135365485811117
1684006686834080200,4.43248046875,0.10458456731219279,-0.028010368466792914,-0.5921502113817058
1684006686844121300,4.442521728515625,-0.07947389793457518,1.2797241210864487,-0.8588113785732135
1684006686854162400,4.452562744140625,-0.4045236409624403,0.7461595535414826,-0.4174199106143005
1684006686864203200,4.462603515625,-0.13777022065475625,-0.16556167613207648,-0.5578022002798189
1684006686874244300,4.472644775390625,0.5466405153067729,-0.23777103420828502,-0.5023064613157905
1684006686884285400,4.482685791015625,1.0599023103545526,-0.48867797858877665,0.19276857380996146
1684006686894326400,4.492726806640625,1.2689336536638662,-0.5075874329465226,1.023377895358336
1684006686904367300,4.502767578125,1.3975182771535755,-1.2645454406760928,2.4405193328797683
1684006686914408400,4.512808837890625,1.685873389343161,-1.7454385758946893,3.48971748350842
1684006686924449500,4.522849853515625,1.7867292163984976,-1.393218994034646,4.466322422116945
1684006686934490600,4.532890869140625,0.9231862424604121,-0.9003124237041835,4.091838359769634
1684006686944531400,4.542931884765625,-0.19000823799230032,-0.48646450049248424,1.7051339149826306
1684006686954572500,4.552972900390625,-1.117375850652969,-0.18572044376266042,-0.035056114228328356
1684006686964613600,4.563013916015625,-1.4564540385877767,0.28738307951949965,-1.1168692112867693
1684006686974654400,4.5730546875,-0.7954159975844461,0.1347675323823668,-1.6502370836121145
1684006686984695500,4.583095947265625,-0.1193759590493976,-0.5100393293854594,-1.1887426376782808
1684006686994736600,4.593136962890625,0.9693010449953045,-0.5074586868548745,-0.3492794036035195
1684006687004777600,4.603177978515625,0.8031375407766215,-0.48510360718370843,0.6027293204983315
1684006687014818600,4.613218994140625,0.2903301715298464,-0.07248306283048463,1.0451765060334492
1684006687024859600,4.623260009765625,-0.056946456416595924,0.12469577788780774,1.066401958474341
1684006687034900600,4.633301025390625,-0.30244258030769905,0.17910099019573336,0.7684712409361187
1684006687044941700,4.643342041015625,-0.1305819303394877,1.095151901326533,0.4647178649204524
1684006687054982600,4.653383056640625,0.2447846830224962,0.16121482846374258,0.7652430534452053
1684006687065023600,4.663424072265625,0.6379439832354924,-0.7200689315800964,1.1390113830925939
1684006687075064800,4.673465087890625,0.5086462496292694,-0.47658920290293405,1.0362963675707633
1684006687085105800,4.68350634765625,-0.04332771894190918,-0.45962429044797387,0.47420549398758893
1684006687095146600,4.693547119140625,-0.431740522488425,-0.289655685300561,-0.05328464496054836
1684006687105187800,4.703588134765625,-0.526923417942226,-0.34343337998994916,-0.5560865402166947
1684006687115228800,4.713629150390625,-0.3135242462245118,-1.0967235565077142,-1.3477103711079694
1684006687125269900,4.72367041015625,-0.18083834635174365,-0.6893129349652323,-1.506142139288431
1684006687135310800,4.733711181640625,-0.32327526820996194,-0.04214572918474271,-1.0310339926782797
1684006687145351900,4.743752197265625,-0.5432472228567466,0.17540359492520824,-0.6162505149209718
1684006687155392900,4.75379345703125,-0.4710060359595083,0.36196994786942877,-0.3936481475063626
1684006687165434000,4.76383447265625,-0.20434206732886565,0.38868808732355925,-0.19149065013066102
1684006687175474900,4.773875244140625,0.15073660013897153,0.22453498842149122,-0.23296546920833874
1684006687185516000,4.783916259765625,0.32425218832452557,0.21514129642243754,-0.21145677574970065
1684006687195557000,4.79395751953125,0.4675222634513856,0.19636631015102546,-0.05054140107234806
1684006687205597900,4.803998291015625,0.1806831657847659,0.38996601102103906,0.022018909521718946
1684006687215639000,4.814039306640625,0.18741190449202133,0.33414649965585325,-0.23561096194198752
1684006687225680000,4.82408056640625,0.5059991479170598,0.0891809462716958,-0.33329820631381846
1684006687235721100,4.83412158203125,0.9157098531157607,0.3822755813401563,-0.2747645378100562
1684006687245762200,4.84416259765625,0.4830171167822851,0.5507049559639101,0.28342723836360545
1684006687255803100,4.854203369140625,0.13878859572792923,0.6984953880822207,0.7351331710128381
1684006687265844100,4.86424462890625,0.09575542814672251,0.921596527112331,0.8693580627662606
1684006687275885200,4.87428564453125,-0.17418313035545235,-0.15965271006115644,0.6581225395135561
1684006687285926100,4.884326416015625,-0.045983459879228465,-0.08017635340129761,0.19007349029382922
1684006687295967200,4.894367431640625,0.4435931146435154,0.5927977561435871,-0.11566638946268137
1684006687306008200,4.90440869140625,1.4283671377741545,2.65031766874936,-0.5673799516039166
1684006687316049300,4.91444970703125,0.13732755177615336,0.5830268858530049,-1.0681018830648847
1684006687326090200,4.924490478515625,-0.7952134609338429,-0.455263137811772,-1.043359279623256
1684006687336131200,4.93453173828125,-0.6623157859278038,0.08565235135410992,-0.8639450073252539
1684006687346172300,4.94457275390625,-0.5627731085684581,-0.4644355773252629,-1.0933873651652837
1684006687356213400,4.95461376953125,-0.2743489740827662,-0.5399436950185919,-0.8987021444817466
1684006687366254300,4.964654541015625,-0.1425691544497418,0.32082271579033134,-0.7567000389124078
1684006687376295300,4.97469580078125,-0.37690919636053705,-0.5474109650750877,-0.11650800704987137
1684006687386336400,4.98473681640625,-0.28698381769834086,-0.48399257660806655,0.4616241454478272
1684006687396377600,4.99477783203125,-0.12413889181856773,-0.3953514098030584,1.0600399970957084
1684006687406418400,5.00481884765625,0.1766155213436205,-0.18207454691089978,0.9940624236861364
1684006687416459400,5.01485986328125,0.3120765089565388,-0.29369354234795564,0.9015316963561993
1684006687426500600,5.02490087890625,0.3652437628427904,-0.22718620299260905,0.6182036399224722
1684006687436541600,5.03494189453125,0.558416485801489,0.06315708143004638,0.5972619055645925
1684006687446582400,5.04498291015625,0.495425194488298,-0.03443622583143901,0.48727607709503723
1684006687456623600,5.05502392578125,0.4548045695264191,0.027820587098542914,0.3743920325740621
1684006687466664600,5.06506494140625,0.30625987066993093,-0.06879329682441816,0.4628505707658363
1684006687476705600,5.075106201171875,0.18635693209001766,-0.10770225528621342,0.4295988082823177
1684006687486746600,5.08514697265625,0.11271709201278336,-0.26664257053472346,0.6457920073800318
1684006687496787600,5.09518798828125,0.017473995736252225,-0.14085197460328505,0.6450166701673692
1684006687506828600,5.10522900390625,0.05497157579187445,0.2577743529506811,0.5609645842715474
1684006687516869800,5.115270263671875,-0.2428303957167952,0.016633033815855368,-0.051455020941234
1684006687526910600,5.12531103515625,-0.5286340115837347,-0.35148143770819823,0.04005432137025135
1684006687536951600,5.13535205078125,-0.23153591161959877,-0.4050493238824267,0.3207368851696158
1684006687546992800,5.145393310546875,0.025269687141276954,-0.5537519454465325,0.3156385423212056
1684006687557033600,5.15543408203125,0.1551614999676978,-0.41550922390769,0.4097347258983963
1684006687567074700,5.16547509765625,-0.11371034381651499,-0.4615936279570722,0.09578847889725953
1684006687577115800,5.17551611328125,-0.14470452082821741,-0.3092288971695063,-0.29754734039125885
1684006687587156900,5.185557373046875,-0.09756237264444556,-0.07203197477392134,-0.52372360224826
1684006687597198000,5.195598388671875,-0.06609845164567857,-0.30710315708594943,-0.5727286338783378
1684006687607238800,5.20563916015625,-0.031040072323130666,-0.4246816633546026,-0.6986384391552518
1684006687617279900,5.215680419921875,0.21326380959631033,-0.20209598548158333,-0.3392229081031532
1684006687627321000,5.225721435546875,0.21463960409398528,-0.26648998261000617,-0.3138418198354752
1684006687637361800,5.23576220703125,0.07231205700641544,-0.09956645948430635,-0.12283277500000206
1684006687647402900,5.24580322265625,-0.13597482457695073,0.18901061998223995,-0.3000297545420915
1684006687657444000,5.255844482421875,-0.1863225101729331,0.6295285224430671,-0.6624660492304437
1684006687667485100,5.265885498046875,-0.0508943795000449,0.41448402399903506,-0.4554767608466039
1684006687677525900,5.27592626953125,0.011171102594023536,0.22041892991712397,-0.04468822488211877
1684006687687567000,5.285967529296875,-0.13840740920250155,0.15573692324445434,0.10958909997024664
1684006687697608100,5.296008544921875,-0.4556121827333418,-0.017132759001750538,0.3493103982664423
1684006687707649200,5.306049560546875,-0.4756148456897483,-0.30017566681981545,0.9665293694742851
1684006687717690000,5.31609033203125,-0.1680234670360545,-0.07837104786777434,0.6612138748272849
1684006687727731100,5.326131591796875,0.035252869158529376,0.0838804243867021,0.049757957508039984
1684006687737772200,5.336172607421875,0.30731207135701416,0.14356803899382592,0.5998568534225851
1684006687747813300,5.346213623046875,0.21402686839748258,0.045783996643724456,-0.26578950873353097
1684006687757854100,5.356254638671875,0.5419908760629567,0.3251743316815694,0.35513019575077515
1684006687767895200,5.366295654296875,0.7043813466390836,0.3690776824769221,-0.06131553644697876
1684006687777936300,5.376336669921875,0.5384266375385228,0.5275764465470073,0.07490491875805011
1684006687787977400,5.386377685546875,-0.013734340692833557,-0.5507440566228027,-0.18293595308682895
1684006687798018200,5.396418701171875,0.2931243776819019,-1.2360696792290857,0.2588090896800472
1684006687808059300,5.406459716796875,0.5173544885030223,-2.0951013564253818,-0.40909266480652107
1684006687818100400,5.416500732421875,0.5473740696238912,-1.4699888229797842,-0.016493558953527616
1684006687828141600,5.4265419921875,0.1283462047476294,-0.9601478576796795,0.08160614971140341
1684006687838182300,5.436582763671875,-0.7014459371549177,-0.6388044356413363,-0.40308237085885057
1684006687848223400,5.446623779296875,-1.2544723748350606,-0.30291557317700807,-0.7739620207798565
1684006687858264600,5.456664794921875,-1.2880320549116435,-0.2846918105270645,-1.3127942085035333
1684006687868305600,5.4667060546875,-0.889753103151337,-1.0119714736405538,-0.8993818761741225
1684006687878346400,5.476746826171875,-0.415972351963506,0.009860992344802916,-0.704321384488394
1684006687888387600,5.486787841796875,-0.022344231465755822,0.29853153239766256,-0.7797918319880364
1684006687898428600,5.4968291015625,0.24881374832719355,0.15297412876988015,-1.0134289263041762
1684006687908469400,5.506869873046875,0.21106421945508913,0.38315486911667396,-0.7721333503421728
1684006687918510600,5.516910888671875,0.15262460709452483,0.41351699827984006,-0.1009516716568879
1684006687928551600,5.526951904296875,0.09971129899364012,-0.17281913769189028,0.2900524138691441
1684006687938592600,5.5369931640625,0.17732834823332755,-0.4806098938796356,0.9597527980847891
1684006687948633800,5.5470341796875,0.02529740326971068,-0.4857120513982644,1.621830701927896
1684006687958674600,5.557074951171875,-0.276529073618647,-0.8955068587295397,1.6433138847583029
1684006687968715600,5.5671162109375,-0.1905485390894949,-0.6009550093442042,0.9147782326057843
1684006687978756800,5.5771572265625,-0.053209781539679805,-0.44247722624214864,-0.036533117199732866
1684006687988797600,5.587197998046875,0.09467339512882615,-0.4126996994812862,-0.2979452610399343
1684006687998838600,5.597239013671875,0.7690385580897868,-0.29082489023197694,-0.39169430719634507
1684006688008879800,5.6072802734375,1.3612600565837674,-0.31163406376722186,-0.2901353836359736
1684006688018920900,5.6173212890625,1.634326815732139,0.04498386375329432,-0.2173161508132522
1684006688028962000,5.6273623046875,1.6481195686702943,0.3353261946570114,-0.4617440701116631
1684006688039002800,5.6374033203125,1.4951620102994687,0.3940153121251628,-0.49810552584556694
1684006688049043900,5.6474443359375,1.235974907890166,0.44605731960420947,-0.10607886316264051
1684006688059085000,5.6574853515625,0.4515610934576093,0.6770391462530397,-1.2209734916422152
1684006688069125800,5.667526123046875,-0.307664513623942,0.48820590969082506,-1.9005358218712094
1684006688079166900,5.6775673828125,-0.9343987703954734,-0.28482341766594177,-2.2429528235694476
1684006688089208000,5.6876083984375,-1.2794208525944142,-0.12102890026513702,-0.7199463844752249
1684006688099249100,5.6976494140625,-1.1469488143602964,-1.0601530075100678,4.497007369990819
1684006688109289900,5.707690185546875,0.7281637193196963,-1.0944404601417668,4.754024505606871
1684006688119331000,5.7177314453125,1.6395754814775116,-1.2953567506476105,2.612505912809411
1684006688129372100,5.7277724609375,1.9089672564957791,0.33526897444205106,-0.5435872078451663
1684006688139413200,5.7378134765625,0.9034448860889635,1.8142056465354446,-2.6107645034107128
1684006688149454000,5.7478544921875,-0.5376546384311206,2.7776589393358835,-3.0208280086580794
1684006688159495100,5.7578955078125,-1.4054813385312985,2.243754863842065,-2.0287632942540483
1684006688169536200,5.7679365234375,-1.6082780361164664,1.5477418899691202,-0.928771018915483
1684006688179577300,5.777977783203125,-1.4757266045359971,1.5001859664680344,-0.43647909158295917
1684006688189618100,5.7880185546875,-1.2646579741147064,1.704052924981872,-0.3087379932095179
1684006688199659200,5.7980595703125,-1.34065675739549,1.805973052869978,-0.539453983294509
1684006688209700300,5.8081005859375,-1.3929960727436714,1.50236606601958,-0.5455431938825535
1684006688219741400,5.818141845703125,-1.3025438786667578,1.122427940328517,-0.29845094681521017
1684006688229782200,5.8281826171875,-1.3603882790624673,1.4417047501361946,-0.6743471621415894
1684006688239823300,5.8382236328125,-1.3580889702849663,1.4220190050118617,-0.6275019645926802
1684006688249864400,5.8482646484375,-1.2445709705822499,0.9799966813005163,-0.5751695632084987
1684006688259905500,5.858305908203125,-0.9101111888491671,0.8457083701196175,-0.4847583771812467
1684006688269946300,5.8683466796875,-0.5691165923128896,0.5079135894537574,-0.5835480688816851
1684006688279987400,5.8783876953125,-0.30825328816810854,0.19539928438076448,-0.6562287807911759
1684006688290028500,5.888428955078125,-0.5145125387831497,-0.5295562743834704,-1.043522834701557
1684006688300069600,5.898469970703125,-0.28386116024410796,-0.06762790692249117,-1.4484574796010692
1684006688310110400,5.9085107421875,-0.10407996194810946,-0.152026176595235,-1.1081192493886185
1684006688320151600,5.9185517578125,-0.1457128525025211,0.08004760738781526,-1.249478578658427
1684006688330192600,5.928593017578125,0.31497311601023287,0.7214145659193306,-1.0073513985962663
1684006688340233400,5.9386337890625,0.7279691696142654,1.2796449660754987,-1.0143798589254387
1684006688350274600,5.9486748046875,0.6613321305538318,1.6099495887630588,-1.4139108658355035
1684006688360315600,5.958716064453125,0.6300258636706485,2.3067331315149424,-2.053029060346984
1684006688370356600,5.968757080078125,0.18111991888483533,2.8207478524684033,-2.235713481913684
1684006688380397700,5.978798095703125,-0.1901309490609097,1.3078441620168249,-1.8305481673284245
1684006688390438600,5.9888388671875,-0.009364366569535598,0.8118677139846369,-1.970156669532729
1684006688400479600,5.998880126953125,0.12406659140879937,1.1258707045768643,-1.584657907323033
1684006688410520800,6.008921142578125,0.29175853726018636,0.5571632385115092,-1.1380995511197813
1684006688420561600,6.0189619140625,0.840210437629969,-1.3079900742623343,-0.6479403971738903
1684006688430602600,6.029003173828125,0.3771300316749387,-0.8758249281314144,-0.311759948745854
1684006688440643800,6.039044189453125,0.3054835795459762,-1.027658462640467,-0.009939193572712854
1684006688450684800,6.049085205078125,1.0944700240248486,-1.6328964232705818,0.3896242380837013
1684006688460725600,6.0591259765625,1.169510602824059,-2.060612678603245,1.7659125327126433
1684006688470766800,6.069167236328125,0.1983900069050158,-3.7506599426031086,2.3395032882094116
1684006688480807900,6.079208251953125,-0.41357398027486336,-4.910285949750026,2.903354406357463
1684006688490848900,6.089249267578125,0.012330293575389313,-7.030825614955387,3.0388371944115273
1684006688500889800,6.099290283203125,0.5428197382718057,-6.569526672241673,3.2219605445350536
1684006688510930900,6.109331298828125,1.951268792107946,-3.7302312849968478,4.105015754826438
1684006688520972000,6.119372314453125,2.714841365772895,-0.8773927687421795,3.5706126689028848
1684006688531013000,6.129413330078125,2.209551811188227,0.04151630405921933,2.1557590960794903
1684006688541053900,6.139454345703125,1.0084400176677335,-0.49765872948730405,0.2883759141692707
1684006688551095000,6.149495361328125,-0.6869654656770696,-0.9422645569317567,-1.7140913009596148
1684006688561136000,6.159536376953125,-2.3366682529034133,-0.6342267990823225,-3.17171835894398
1684006688571177100,6.16957763671875,-3.290405035049127,0.06218814852912891,-3.7789402008194126
1684006688581218000,6.179618408203125,-3.2458918093611295,0.6665153503851349,-3.327979087734676
1684006688591259100,6.189659423828125,-3.014028549222828,0.732717514022589,-2.5689725875638607
1684006688601300100,6.199700439453125,-2.1137180328590306,0.5989265443268539,-1.7304825781764244
1684006688611341200,6.20974169921875,-1.4499065876845785,0.4113073348872283,-1.1108776330785357
1684006688621382100,6.219782470703125,-0.854477882411778,0.12562084196304166,-0.4687528013092455
1684006688631423200,6.229823486328125,-0.3278493882700952,0.07951641088596127,0.18324851987739021
1684006688641464200,6.23986474609375,0.03113245967806337,0.1795368193333136,0.492772668741922
1684006688651505300,6.24990576171875,0.22596192360102085,0.17687606798647657,0.475452184696616
1684006688661546200,6.259946533203125,0.27487134933739066,0.1290645599604979,0.2851236164024673
1684006688671587200,6.269987548828125,0.19372439385619403,0.1316165924881121,0.026938497984100567
1684006688681628300,6.28002880859375,-0.0001881121605373183,0.02846622467891416,-0.020098924598232242
1684006688691669400,6.29006982421875,-0.10148787484359491,0.0867195127909535,0.08429366345285388
1684006688701710300,6.300110595703125,-0.15741372109749102,0.08840084058423983,0.1749476193272211
1684006688711751300,6.31015185546875,-0.17217350008107205,0.11939144131866038,0.309380292892628
1684006688721792400,6.32019287109375,-0.262218475348595,0.11246299750093473,0.4869472980849885
1684006688731833600,6.33023388671875,-0.2645897866259444,-0.005762100225782789,0.4923257827916728
1684006688741874400,6.340274658203125,-0.24205350875932258,-0.2102632521883175,0.42149060966848984
1684006688751915400,6.35031591796875,-0.2810051441714027,-0.07316780097566919,0.41221940532560775
1684006688761956600,6.36035693359375,-0.5389873981645406,0.021748542839862037,0.3823500275965899
1684006688771997600,6.37039794921875,-0.6963996886153204,-0.059658050482142955,0.26057934748514444
1684006688782038400,6.38043896484375,-0.8714351653654108,-0.16705131539744383,0.2217108606079296
1684006688792079600,6.39047998046875,-0.7590119838739361,-0.3001432419118929,0.22880828392306726
1684006688802120600,6.40052099609375,-0.3473796845122867,-0.12321281430398937,0.40963011980777436
1684006688812161500,6.410561767578125,-0.2546725274086222,-0.24808311479835757,0.29173129793878183
1684006688822202600,6.42060302734375,0.0310535430231547,-0.31475448616269885,0.10518467419297571
1684006688832243600,6.43064404296875,0.3720865249536687,0.030333519146039767,0.09854453811544789
1684006688842284600,6.44068505859375,0.4738168717538919,0.2314538954582541,-0.0949099062817035
1684006688852325800,6.450726318359375,0.6278622151583707,0.49210166930097177,-0.0661690236587405
1684006688862366600,6.46076708984375,0.6400952339348164,0.09830856333425829,0.041027128698765764
1684006688872407700,6.47080810546875,0.4397490024941345,-0.04730319977977609,-0.04413759709335926
1684006688882448800,6.48084912109375,0.24103641516937707,0.21813487989552202,-0.5996751188725795
1684006688892489600,6.49089013671875,0.03572106356736004,-0.31799983978533775,-0.730744659919017
1684006688902530700,6.50093115234375,-0.06727051728650572,-0.3601484300676863,-0.5798447131777087
1684006688912571800,6.51097216796875,-0.09284520154602155,0.15385913838715157,-0.3643890023640971
1684006688922612900,6.521013427734375,-0.20226573956456576,0.09445953379364065,-0.3592273593218494
1684006688932654000,6.531054443359375,-0.015097379808606802,0.02713871002508395,-0.11501455306398715
1684006688942694800,6.54109521484375,-0.1076896191123366,0.041068077088885394,0.08875405796560892
1684006688952735900,6.55113623046875,-0.2016561031180726,-0.02874565134329411,0.26644647114276315
1684006688962777000,6.561177490234375,-0.2886850834310286,-0.36090850832761295,0.3253666161907202
1684006688972818100,6.571218505859375,-0.22522640220065857,-0.34141349781235364,0.23719358451388822
1684006688982858900,6.58125927734375,-0.11458683013661905,-0.3722038269141289,0.17693173890452438
1684006688992900000,6.591300537109375,0.0951340196815448,-0.28561019880476224,0.011969208672347718
1684006689002941100,6.601341552734375,0.2781860829734816,-0.453164100625053,-0.37832367413103385
1684006689012981900,6.61138232421875,0.5311996937500768,-0.5310525895227779,-0.40609145172690414
1684006689023023000,6.62142333984375,0.6674389839758845,-0.39778995514355625,-0.27019292103594744
1684006689033064100,6.631464599609375,0.7666485308284074,-0.36579132096376066,-0.20633387569145714
1684006689043105200,6.641505615234375,0.9186024666014992,-0.42878437045014284,-0.023349523446567714
1684006689053146300,6.651546630859375,0.8504474161869928,-0.5196990966086127,0.013982057473048115
1684006689063187100,6.66158740234375,0.718377590062828,-0.611297607409438,0.012080907712707343
1684006689073228200,6.671628662109375,0.5753836631481561,-0.5997648238150884,0.016382098169177024
1684006689083269300,6.681669677734375,0.3803303241724358,-0.724465370156766,0.004978775918534906
1684006689093310100,6.69171044921875,0.1802406311790927,-0.7604608534719183,0.12242639070548106
1684006689103351200,6.701751708984375,0.4423377514044581,-0.12483406062705057,0.24407613280541074
1684006689113392300,6.711792724609375,0.5542621612361462,0.46330642701423846,0.33175301543908153
1684006689123433400,6.721833740234375,0.4749207496677845,0.7627725600943054,0.4515306354940646
1684006689133474200,6.73187451171875,0.430736064965442,0.7990818023486991,0.7240511775774963
1684006689143515300,6.741915771484375,0.37998318668940256,0.5646963119470496,1.13616609579478
1684006689153556400,6.751956787109375,0.22263407694834633,0.35496807089184307,1.4241969586092322
1684006689163597600,6.761997802734375,0.2096784114208949,0.44212722766144547,1.6435148716103931
1684006689173638300,6.772038818359375,0.04402279855421152,0.5915575028121495,1.7552711965193428
1684006689183679400,6.782079833984375,-0.3318130970893219,0.746459007074505,1.7479137180788866
1684006689193720600,6.792120849609375,-0.6297154426711189,0.8988800047781782,1.4989435671870306
1684006689203761600,6.802161865234375,-0.8367841242299098,0.8360910414782485,1.0992392301421954
1684006689213802400,6.812202880859375,-0.9148190020512015,0.6355419159973796,0.5372226239677123
1684006689223843600,6.822243896484375,-1.0031387805957075,0.26186752320843226,0.041300415995318196
1684006689233884600,6.832284912109375,-0.985273599752853,-0.0765771865594426,-0.3079017102387048
1684006689243925600,6.842326171875,-0.8625054359646643,-0.3048982619883724,-0.5527622104731782
1684006689253966600,6.852366943359375,-0.6216688157238233,-0.3717908859419277,-0.5887246132274895
1684006689264007600,6.862407958984375,-0.36449694645223807,-0.39106273649192713,-0.55065321920846
1684006689274048600,6.872448974609375,-0.13903188685893345,-0.30715179458067854,-0.4238788185728471
1684006689284089800,6.882490234375,0.005675315763882251,-0.20358467100454353,-0.28922933351318253
1684006689294130600,6.892531005859375,0.038844346826586516,-0.14984416961065042,-0.11735361817701498
1684006689304171600,6.902572021484375,0.007201910107526072,-0.08665657028621532,-0.02736479048384039
1684006689314212800,6.91261328125,-0.05699443816731152,-0.08132171625300075,0.049609899565455716
1684006689324253900,6.922654296875,-0.09569478039237705,-0.062194824306788216,0.09044379000770801
1684006689334294600,6.932695068359375,-0.14908814428413666,-0.09385490436374633,0.11274486778413499
1684006689344335800,6.942736083984375,-0.1599214076002837,-0.039944648632174735,0.06949847934877484
1684006689354376900,6.95277734375,-0.1670405864718104,-0.01748275757529012,-0.0006517768329509003
1684006689364418000,6.962818359375,-0.1780078410755529,-0.04538536085384846,-0.033378362669987026
1684006689374458800,6.972859130859375,-0.16702079779791265,-0.03505420692373912,-0.11757475142358219
1684006689384499900,6.982900390625,-0.134355068299923,-0.05815219879852996,-0.17430853840686295
1684006689394541000,6.99294140625,-0.1325013638764149,-0.07878303530121264,-0.24879515176662909
1684006689404582100,7.002982421875,-0.09920763969197541,-0.07307624826949166,-0.26678156848525897
1684006689414622900,7.013023193359375,-0.06576395026750043,-0.036342620878553784,-0.2505853174741619
1684006689424664000,7.023064453125,-0.020650863575686948,-0.028329849319974558,-0.24905437218653328
1684006689434705100,7.03310546875,0.04283070548687189,-0.025016784666092914,-0.22941869503487194
1684006689444746200,7.043146484375,0.06730413433912567,-0.02635097508536196,-0.23913890112407762
1684006689454787000,7.0531875,0.07420659065275854,-0.06802177431623938,-0.26074379677830456
1684006689464828100,7.063228515625,0.09206676481281115,-0.030531883296664685,-0.22789865740178422
1684006689474869200,7.07326953125,0.13672733303250956,0.04532623288867532,-0.15281778572366012
1684006689484910300,7.083310546875,0.19734668739655334,0.10461425781026441,-0.1027916671040357
1684006689494951100,7.0933515625,0.26336646083836335,0.16422176347619308,-0.09577620023476564
1684006689504992200,7.103392578125,0.28920054435356485,0.1333818434173236,-0.08163285260008396
1684006689515033300,7.11343359375,0.26786422729689574,0.08867454533001783,-0.1555247307742794
1684006689525074400,7.123474853515625,0.16684961337762574,-0.08697795853298573,-0.3055090903401227
1684006689535115200,7.133515625,0.007157087398023152,-0.28359222407092644,-0.37530571223419773
1684006689545156300,7.143556640625,-0.09030199033514541,-0.2600765227360517,-0.4321855305328621
1684006689555197400,7.15359765625,-0.17702269553590327,-0.25839710239999614,-0.4440953135042599
1684006689565238400,7.163638916015625,-0.22161507609391867,-0.19003677370612942,-0.5435699821423657
1684006689575279300,7.1736796875,-0.29946994796368015,-0.21758651728075745,-0.6210794447542973
1684006689585320400,7.183720703125,-0.38288855550960127,-0.21665096297546416,-0.7031728625974354
1684006689595361500,7.193761962890625,-0.5174286365666847,-0.25682640089892733,-0.6826902626517892
1684006689605402300,7.203802734375,-0.5343348980205722,-0.15948963172157274,-0.4945535659810986
1684006689615443400,7.21384375,-0.46818971627938333,-0.06858825691473298,-0.3247961997516865
1684006689625484500,7.223884765625,-0.35045552252094236,-0.055451393104593294,-0.28646850588741485
1684006689635525600,7.233926025390625,-0.20113396656871876,-0.06657791147120401,-0.27998805037606006
1684006689645566600,7.243967041015625,-0.060773611108707215,-0.10598659529109716,-0.34325116868597144
1684006689655607500,7.2540078125,0.007695197994777874,-0.14473152158588398,-0.3211146591941067
1684006689665648600,7.264049072265625,0.019046783531725526,-0.10649967193085474,-0.27369797228471593
1684006689675689600,7.274090087890625,0.00284123426757004,-0.14015960683882478,-0.29005658619101227
1684006689685730700,7.284131103515625,-0.051292181163547425,-0.15669536606359205,-0.26898598666658446
1684006689695771600,7.294171875,-0.0744092464907448,-0.19635963434893827,-0.25300431249157795
1684006689705812600,7.304213134765625,-0.12150359156459778,-0.22104072558490645,-0.23522710806270555
1684006689715853700,7.314254150390625,-0.11768651010350563,-0.23556327823860393,-0.20234656344378846
1684006689725894800,7.324295166015625,-0.1330227852716115,-0.2044353484678511,-0.26942908759509065
1684006689735935600,7.334336181640625,-0.17997002609021395,-0.2818336487856217,-0.20879304396895695
1684006689745976800,7.344377197265625,-0.20276164999949178,-0.2097797393729379,-0.2022656202143066
1684006689756017800,7.354418212890625,-0.18968844413608174,-0.179158210665158,-0.20156657696371655
1684006689766058900,7.364459228515625,-0.17171645178913686,-0.20814514154094513,-0.1969262361345577
1684006689776099800,7.374500244140625,-0.12882328030887108,-0.30006122584672934,-0.12665247927283252
1684006689786140800,7.384541259765625,-0.01266145706829998,-0.20351886763513732,-0.060558199727506645
1684006689796181900,7.394582275390625,0.06601071368269065,-0.13084983811743028,-0.12805128092935664
1684006689806222800,7.404623046875,0.032649517012424786,-0.21668434131280034,-0.026193022774404773
1684006689816263900,7.414664306640625,0.14007663729605674,-0.07069110871890989,-0.037808299141953834
1684006689826304900,7.424705322265625,0.22556400306887045,-0.09722042085701507,-0.3142913581019784
1684006689836346000,7.434746337890625,0.19405364977603318,-0.2232131958476427,-0.5655180216845912
1684006689846387100,7.44478759765625,0.1415016651436351,-0.15984725943854095,-0.7203981280884293
1684006689856428000,7.454828369140625,0.08954381946884764,0.0004253388182669176,-0.7489180565781647
1684006689866469000,7.464869384765625,-0.07273554799102101,0.06335926058042785,-0.6716474294552733
1684006689876510100,7.47491064453125,-0.3026986123496461,0.16546154028899518,-0.5468673109367082
1684006689886551200,7.48495166015625,-0.5358724594192577,0.26187705978681597,-0.2823349238195512
1684006689896592000,7.494992431640625,-0.6978123188983566,0.15011405933857053,-0.014775991507285665
1684006689906633100,7.505033447265625,-0.8733472824352774,-0.08663082122271469,-0.11161732670663932
1684006689916674200,7.51507470703125,-1.0062370300250092,-0.418365478605401,-0.3589081765710278
1684006689926715100,7.525115478515625,-1.0717203616310815,-0.6438655854127971,-0.5821097494351237
1684006689936756100,7.535156494140625,-1.0623028278498672,-1.1357402800024168,-0.4619234798855059
1684006689946797200,7.54519775390625,-0.940543413071716,-1.2592220306426354,-0.4879127741069777
1684006689956838300,7.55523876953125,-0.7719118595875276,-1.1634445190211788,-0.6616816521093175
1684006689966879400,7.56527978515625,-0.5720231534224186,-1.1197872162650004,-0.8422051667673005
1684006689976920200,7.575320556640625,-0.3925342560657467,-1.0024805070597487,-1.0238690377162247
1684006689986961300,7.58536181640625,-0.25202107433633864,-0.7800970075720574,-1.0927567480685842
1684006689997002400,7.59540283203125,-0.06627273553688061,-0.46603488916865315,-1.0705929995582573
1684006690007043600,7.60544384765625,0.17776393901937068,-0.10838699329978485,-0.9140551090987746
1684006690017084300,7.615484619140625,0.3475320339911776,0.05260372156217674,-0.729740261917695
1684006690027125400,7.62552587890625,0.5609662534372359,0.13597488395766832,-0.46148979659790357
1684006690037166600,7.63556689453125,0.7528438568557663,0.3058004378588073,-0.15829002872597145
1684006690047207300,7.645607666015625,1.0186808108326735,0.31911849977900325,0.1935109494520079
1684006690057248400,7.65564892578125,1.3693423270851044,0.24649620058661326,0.602296113977046
1684006690067289600,7.66568994140625,1.4931191204403897,0.2872028350912795,0.7422540186986875
1684006690077330600,7.67573095703125,1.312240123803272,0.2663240433501461,0.6751039028717956
1684006690087371600,7.685772216796875,0.8402035236534797,0.20546245573605385,0.8002740144186078
1684006690097412600,7.69581298828125,0.34065628047722296,0.27492332465563324,1.0274829864629338
1684006690107453600,7.70585400390625,-0.1243276596082829,0.17438983917257597,1.1921334266441856
1684006690117494600,7.71589501953125,-0.48391890535639104,0.12753105170332166,1.3648270369006714
1684006690127535800,7.725936279296875,-0.5183200835632902,0.2010574341703888,1.5115680694255236
1684006690137576600,7.73597705078125,-0.26741647723190864,0.3217697143724655,1.536408901309894
1684006690147617600,7.74601806640625,0.09250283234469518,0.42947959897882565,1.516982674696899
1684006690157658800,7.75605908203125,0.36005115508817387,0.4948863983204351,1.4380304814282008
1684006690167699600,7.76610009765625,0.43317675596635014,0.5233888625885688,1.4141554832229661
1684006690177740600,7.77614111328125,0.34203362467363096,0.5026178358987198,1.3638124467047217
1684006690187781800,7.78618212890625,0.17273235326752986,0.4485750199594681,1.2331405878308215
1684006690197822900,7.796223388671875,-0.0009307862101896757,0.36543464668877196,1.058495879052702
1684006690207864000,7.806264404296875,-0.0159115791899881,0.36298847184505867,0.8893398046979403
1684006690217904800,7.81630517578125,0.1150875091701911,0.448488235480849,0.6395535468170964
1684006690227945900,7.82634619140625,0.36394524572856746,0.46245098107297655,0.41924643520993105
1684006690237987000,7.836387451171875,0.6354732512165454,0.4607191084606597,0.2627432942878578
1684006690248027800,7.84642822265625,0.8440618514724738,0.42976093294051904,0.14854246385751274
1684006690258068900,7.85646923828125,0.9026513099102188,0.3724575043245384,0.04970604171796011
1684006690268110000,7.866510498046875,0.8379037379677547,0.2672948835647196,0.02734214066042193
1684006690278151100,7.876551513671875,0.6677379609473162,0.22626781471027518,0.12158232921488292
1684006690288192200,7.886592529296875,0.4040405751204404,0.29154586782909075,0.2088829279454594
1684006690298233000,7.89663330078125,0.1737070082061778,0.40720272061138096,0.3074070216032156
1684006690308274100,7.906674560546875,0.004831075830504815,0.44836521140680763,0.38934624184377825
1684006690318315200,7.916715576171875,-0.13055276880421016,0.3934259416298884,0.44023060799449254
1684006690328356300,7.926756591796875,-0.29415512082096745,0.3236265184057745,0.39521729951378587
1684006690338397100,7.936797607421875,-0.42565965633225916,0.13858985904011983,0.24792039396515528
1684006690348438200,7.946838623046875,-0.5643873216216048,0.0006618498238822243,0.028331637336075688
1684006690358479300,7.956879638671875,-0.6448614597882965,-0.01412487035840474,-0.040695071276801595
1684006690368520100,7.96692041015625,-0.5384178160354882,0.08194828023322927,0.02787721170841643
1684006690378561200,7.976961669921875,-0.2158000467956371,0.200560569826335,0.15378785134302703
1684006690388602300,7.987002685546875,0.16738080967780233,0.25396823886628317,0.29538547998944287
1684006690398643400,7.997043701171875,0.5275053977125954,0.2621879577260311,0.4162703752488792
1684006690408684500,8.0070849609375,0.7480721473898688,0.2666187287722018,0.5019855500626167
1684006690418725300,8.017125732421874,0.8158652782757919,0.3060722351976287,0.538174152359473
1684006690428766400,8.027166748046875,0.7593090534866564,0.31377792352033645,0.5293028354667971
1684006690438807600,8.037207763671875,0.6811661720375873,0.3280143737176996,0.5032471417828679
1684006690448848600,8.0472490234375,0.5604658125694827,0.36047458662699416,0.45479762553830505
1684006690458889400,8.057289794921875,0.4364340303765579,0.3128280639332028,0.39806294452889635
1684006690468930600,8.067330810546874,0.34139418598565097,0.18721294398503574,0.35230851165508364
1684006690478971600,8.0773720703125,0.24520492555407486,0.10050868984311782,0.25092291833771546
1684006690489012600,8.0874130859375,0.12017989164026198,-0.036108970696853045,0.14882338059405914
1684006690499053600,8.097453857421876,0.01437854760613259,-0.09605026249267491,0.13180935392702184
1684006690509094600,8.107494873046875,-0.012513875932550267,-0.06998062145744532,0.0849002599071324
1684006690519135600,8.1175361328125,0.029451370182683803,0.0731391907101963,0.011421084289325126
1684006690529176800,8.1275771484375,0.09777235980010332,0.1637277603997501,-0.013257265047979286
1684006690539217600,8.137617919921874,0.20135545742290825,0.27458190905500646,-0.07141578201771663
1684006690549258600,8.1476591796875,0.25901460647278385,0.3679246901984007,-0.04915761933324546
1684006690559299800,8.1577001953125,0.24277615535194202,0.35471248619544476,-0.09638327360426159
1684006690569340800,8.1677412109375,0.17747521414218506,0.368497848482067,-0.08731192341452783
1684006690579381600,8.177781982421875,0.0338926315962356,0.3450851440141267,-0.08854877951205688
1684006690589422800,8.1878232421875,-0.12406325327075285,0.2752189637100274,-0.09263122082139952
1684006690599463900,8.1978642578125,-0.27076625821011696,0.18488407133288565,-0.04120862489424755
1684006690609504900,8.2079052734375,-0.3513112067934763,0.08108043677224823,0.033289432448011344
1684006690619545800,8.2179462890625,-0.3196201325286695,0.022798538164381203,0.1345175504061366
1684006690629586900,8.2279873046875,-0.18775296211488524,-0.04696464538983986,0.19131612782189186
1684006690639628000,8.2380283203125,-0.021682262576213085,-0.15373229983061965,0.3356086015608258
1684006690649669000,8.2480693359375,0.127751350511448,-0.1930332183764814,0.39400136474637054
1684006690659709900,8.2581103515625,0.20351529108988425,-0.1515312195338151,0.3709456920941447
1684006690669751000,8.2681513671875,0.18993353831233864,-0.11512756348002513,0.37902128694281334
1684006690679792000,8.2781923828125,0.12370753280681639,-0.04138755807999517,0.37957549097492954
1684006690689833100,8.288233642578126,0.0113573074016595,-0.004247665450032849,0.40303695192895733
1684006690699874000,8.2982744140625,-0.09126639363504034,0.03661155696161357,0.40410780915200256
1684006690709915100,8.3083154296875,-0.18130803106239818,0.010281562658670033,0.43008565908781465
1684006690719956100,8.3183564453125,-0.2584979533452291,-0.01636314400256804,0.41443741320681626
1684006690729997200,8.328397705078125,-0.3248319626320094,0.01773166663239045,0.35798871518178327
1684006690740038100,8.3384384765625,-0.3425464631023894,0.06682109821662514,0.35157716266500944
1684006690750079200,8.3484794921875,-0.3030769824754943,0.057739257694540566,0.31473815451601955
1684006690760120200,8.358520751953124,-0.2531161308820471,0.09302806857148263,0.28117227562080904
1684006690770161300,8.368561767578125,-0.2058012485023618,0.10643196115369324,0.2605075834262987
1684006690780202200,8.3786025390625,-0.19915771487692488,0.13140583044093052,0.25016665459827814
1684006690790243200,8.3886435546875,-0.2531991004328528,0.09458923336207115,0.2874014376761913
1684006690800284300,8.398684814453125,-0.2928550243186806,0.0790157318971584,0.30973029137442515
1684006690810325400,8.408725830078126,-0.3386745453018667,0.039280891429330944,0.3547081946401705
1684006690820366300,8.4187666015625,-0.3103923799493113,-0.024259567294328162,0.3583997487567195
1684006690830407300,8.428807861328124,-0.22621655455233897,-0.05690670022886562,0.3332906961405972
1684006690840448400,8.438848876953125,-0.15657782554802593,-0.056386947633061464,0.29206371303038003
1684006690850489600,8.448889892578125,-0.09966945654879092,-0.09360599512386987,0.2116270066875187
1684006690860530600,8.458930908203126,-0.06745576871522345,-0.09719562529721945,0.13248693945297707
1684006690870571400,8.468971923828125,-0.06624770163828611,-0.12436389909328187,0.056669473521947365
1684006690880612600,8.479012939453124,-0.05748295782188137,-0.12070941930852659,-0.04427504547867201
1684006690890653600,8.489053955078125,-0.04624938974610229,-0.09136104573735515,-0.11333256956138674
1684006690900694400,8.4990947265625,-0.030503511293200544,-0.064915657111113,-0.15576869249211373
1684006690910735600,8.509135986328126,0.03159975995883288,-0.005850791901879627,-0.179003596352492
1684006690920776600,8.519177001953125,0.05637121210004247,0.0007228850945622982,-0.17387217300351127
1684006690930817600,8.529218017578126,0.042118787702853044,0.035741806005789245,-0.16882002348708916
1684006690940858600,8.539259033203125,0.008778333703142831,0.02089881899773934,-0.11676472437434642
1684006690950899600,8.549300048828124,-0.03545474992908477,0.05565738686399202,-0.0558583737852581
1684006690960940600,8.559341064453125,-0.07088470447634831,0.07304573048991994,-0.02395200725122744
1684006690970981800,8.56938232421875,-0.024385452152369147,0.07325267788768214,-0.011105179917537395
1684006690981022900,8.57942333984375,0.02222084993485187,0.0849485397420666,-0.031121253944536558
1684006690991063700,8.589464111328125,0.08961248396025956,0.051620483343803585,-0.06926798820774607
1684006691001104800,8.599505126953124,0.11110639585045823,0.014191627577354394,-0.15340209005105424
1684006691011145900,8.60954638671875,0.1226308346320417,0.0033779144406723897,-0.13685882099172356
1684006691021186700,8.619587158203124,0.13626718530208173,0.009239196676674792,-0.14168685664285952
1684006691031227800,8.629628173828126,0.1567587852481563,0.022045135378330406,-0.11346447480890712
1684006691041268900,8.63966943359375,0.1556169987389833,0.029908180300982027,-0.12144792082771397
1684006691051310000,8.64971044921875,0.15668439881564272,0.009378433056032578,-0.0803608297913003
1684006691061350800,8.659751220703125,0.16212940208097298,0.041027069074617305,-0.09696030604005701
1684006691071391900,8.669792236328124,0.15535664553664602,0.079260826038157,-0.10679686054103131
1684006691081433000,8.67983349609375,0.13628959646625513,0.15233898169196808,-0.13335895537238981
1684006691091474100,8.68987451171875,0.13082408916739274,0.1561717986349365,-0.15747749805880673
1684006691101515200,8.69991552734375,0.1455135345089952,0.11318016058235421,-0.13000780343675875
1684006691111556000,8.709956298828125,0.15663170808640206,0.07354545596760721,-0.08695894481110111
1684006691121597100,8.71999755859375,0.19250822070618165,0.07016849525705578,-0.04507684704181677
1684006691131638200,8.73003857421875,0.23863554006765758,0.07180976861498313,0.004893898799424875
1684006691141679000,8.740079345703125,0.2736086845390924,0.08074283589737563,0.08387959011893589
1684006691151720100,8.75012060546875,0.28316164013023193,0.09697818748207356,0.12093329425569993
1684006691161761200,8.76016162109375,0.29344391828304034,0.04986000061085783,0.11705386638643442
1684006691171802300,8.77020263671875,0.24145030959937314,0.04151058190674227,0.15330386152875844
1684006691181843400,8.780243896484375,0.21809434900993063,0.040568351778639794,0.1704686879405691
1684006691191884200,8.79028466796875,0.20188093170841384,0.03271198269956475,0.18287825582413664
1684006691201925300,8.80032568359375,0.19742774960228368,0.05808925628754967,0.20492458348731218
1684006691211966400,8.81036669921875,0.19754719721468225,0.04082202919667934,0.1684917210185439
1684006691222007500,8.820407958984376,0.19491124165353987,0.02642154710076112,0.05575203899456884
1684006691232048300,8.83044873046875,0.16582512862532367,-0.006276130705735326,-0.009599447136748962
1684006691242089400,8.84048974609375,0.1270329952405275,-0.005118369936480957,-0.08017963170411359
1684006691252130600,8.85053076171875,0.09989953054446991,-0.0012998579682514987,-0.10664182906012808
1684006691262171600,8.860572021484375,0.07019758218084787,-0.01139736170466194,-0.06635355953752693
1684006691272212400,8.87061279296875,0.04521727562148602,0.03533744802910643,-0.02438294899609569
1684006691282253600,8.88065380859375,0.03434753419787679,0.14496994004565086,0.05191028112742875
1684006691292294600,8.890695068359374,0.03249049179973012,0.22934246079010742,0.060261964942734184
1684006691302335600,8.900736083984375,0.032247066578717176,0.14301013946346522,0.06559586515853176
1684006691312376600,8.91077685546875,0.03835654250123563,0.06072521207299952,0.05922663219475178
1684006691322417600,8.92081787109375,0.03212976454089377,0.036518096993187185,0.08403348925324797
1684006691332458600,8.930859130859375,-0.0374031066181744,0.017428398125205868,0.11371707910837817
1684006691342499800,8.940900146484376,-0.10973572737021509,0.031434059264015254,0.10357534887821472
1684006691352540600,8.95094091796875,-0.17975473402262768,0.07075119024649874,0.11975324161241688
1684006691362581600,8.960982177734374,-0.19811296467169692,0.14430046087282503,0.06446123122664187
1684006691372622800,8.971023193359375,-0.18686175342129901,0.16672420517786282,0.0068218708486672604
1684006691382663900,8.981064208984375,-0.09258604049906578,0.12248325341285947,-0.03186690816996226
1684006691392704600,8.99110498046875,-0.0113484858224906,0.05287647257668755,-0.05435168743221599
1684006691402745800,9.001146240234375,0.044674396461328904,-0.00381469710777963,-0.0987018943333649
1684006691412786900,9.011187255859374,0.05207276348864153,-0.06180286418001363,-0.14781308183468847
1684006691422828000,9.021228271484375,0.023692608000083097,-0.1023073197052472,-0.15203517663233726
1684006691432869000,9.03126953125,-0.04651165004684831,-0.16813468919704766,-0.14974254360583608
1684006691442909900,9.041310302734376,-0.08447575561628563,-0.18364524832273613,-0.10563445080841823
1684006691452951000,9.051351318359377,-0.12787342074632507,-0.20865249625673485,-0.07167720805374388
1684006691462992000,9.061392333984376,-0.1317024231497462,-0.20296192176215042,-0.04471266269011246
1684006691473032900,9.071433349609377,-0.12936925885991413,-0.200068473803092,0.004017710686169338
1684006691483074000,9.081474365234374,-0.1047508716528947,-0.1716098785026851,0.04575026025258209
1684006691493115100,9.091515380859375,-0.08227944373026076,-0.10610103605594172,0.12030434610170572
1684006691503156100,9.101556640625,-0.050543308334080383,-0.051152229361209264,0.1491079330635188
1684006691513197000,9.111597412109376,-0.01692056643841264,0.021687507639250484,0.1679762602131706
1684006691523238100,9.121638427734377,0.016255617031154145,0.04383468624232432,0.172406315831224
1684006691533279200,9.131679443359374,0.04410815241288534,0.035037040866459035,0.20744597923372227
1684006691543320200,9.141720703125,0.024171113875371186,0.047665595928039754,0.17608225342394834
1684006691553361300,9.15176171875,0.018451452170569708,0.04133319853566637,0.16176295280563135
1684006691563402200,9.161802490234376,0.007900714865412902,0.06111049633385677,0.1950341462621382
1684006691573443200,9.17184375,0.004372119952589984,0.045356750387248596,0.20924127107030063
1684006691583484300,9.181884765625,0.007958650634815429,0.06524562820774643,0.23317825788387989
1684006691593525400,9.19192578125,0.019149541849563592,0.01639461528840767,0.2643343211333623
1684006691603566300,9.201966552734374,0.03104329109819956,0.024658203012753704,0.2369546890301753
1684006691613607300,9.2120078125,0.050552368029006624,0.039658546420764114,0.22234404095438576
1684006691623648400,9.222048828125,0.08400797853407758,0.08500862120376051,0.17538857461296978
1684006691633689600,9.23208984375,0.12788176541876772,0.13693332655842508,0.12214279182405492
1684006691643730400,9.242130859375,0.14160251622638678,0.134191513170423,0.05052113533495006
1684006691653771400,9.252171875,0.12352800361371244,0.05879306789496945,-0.006180047901914629
1684006691663812600,9.262212890625,0.086474656994316,0.010722160415412444,-0.0782344342929918
1684006691673853600,9.27225390625,0.06423830974177598,-0.020038604763790647,-0.08507800088689166
1684006691683894400,9.282294921875,0.01903581617903846,-0.0008840562676610824,-0.10329818741082213
1684006691693935600,9.2923359375,-0.02081155775879274,0.00855731970171297,-0.14722758524767318
1684006691703976600,9.302376953125,-0.04162788383474472,0.0438547133461439,-0.18133711825356666
1684006691714017600,9.312418212890623,-0.04840040196571957,0.06216430658727015,-0.21541601416884593
1684006691724058600,9.322458984375,-0.052899837516449874,0.08722400659059633,-0.20244288445683134
1684006691734099600,9.3325,-0.0598964690579989,0.10715007798077088,-0.19036209577585486
1684006691744140600,9.342541015625,-0.02914834025936589,0.06314659131553108,-0.12708091732619287
1684006691754181800,9.352582275390626,-0.034387111697222146,0.024645805256164385,-0.07422494888360211
1684006691764222900,9.362623291015623,-0.03032112112992139,-0.029602050646746418,0.006200313615950573
1684006691774263600,9.3726640625,-0.045260429406819555,-0.05465602864393696,0.06884086127594763
1684006691784304800,9.382705322265624,-0.05513906473124316,-0.05579280841861489,0.14213442816236585
1684006691794345900,9.392746337890625,-0.05007719979083573,-0.06888484956158153,0.1743391751282408
1684006691804387000,9.402787353515626,-0.053546190152491346,-0.0632295609881755,0.19444811337309312
1684006691814427800,9.412828125,-0.018528223001302694,-0.06259918223607804,0.21217298522059935
1684006691824468900,9.422869384765624,0.02574491507471802,-0.052699089150339475,0.23672854902792145
1684006691834510000,9.432910400390623,0.0927281379250315,-0.04295063010973018,0.25367069252713936
1684006691844550800,9.442951171875,0.12968039511982601,-0.061424255285064636,0.21589338778698935
1684006691854591900,9.452992431640626,0.132108688427455,-0.07225131993040473,0.1619006396874771
1684006691864633000,9.463033447265625,0.12662410736533644,-0.0708847047093676,0.08263707158671078
1684006691874674100,9.473074462890626,0.0970127582959718,-0.024594306883867538,0.04462456694866674
1684006691884715200,9.483115478515623,0.015886306670301054,0.023336410586311467,-0.021113753334114825
1684006691894756000,9.493156494140624,-0.021288633360874665,0.04918861386760125,-0.04821729654394996
1684006691904797100,9.503197509765624,-0.03850793850433997,0.1168012618195819,-0.157377839235521
1684006691914838200,9.513238525390625,-0.02210474017336129,0.12194061290754414,-0.1776907444051861
1684006691924879300,9.52327978515625,-0.03155803693961673,0.10333156582594324,-0.19073843946721697
1684006691934920100,9.533320556640623,-0.01956152917495405,0.028478622390222932,-0.26491534716609844
1684006691944961200,9.543361572265624,-0.014820575655756245,-0.02866840379434221,-0.29091191282982454
1684006691955002300,9.553402587890623,-0.0004198551881215405,-0.0378847123078734,-0.2858605383747722
1684006691965043400,9.56344384765625,-0.0045750140052077505,-0.007058143597649251,-0.2428774832667086
1684006691975084500,9.57348486328125,0.025163650409123783,0.034797668430929386,-0.1600682139734025
1684006691985125300,9.583525634765625,0.04108953471262138,0.049844741825614915,-0.09462893011111312
1684006691995166400,9.59356689453125,0.06436181066373287,0.022132873456008985,-0.053387522814460214
1684006692005207600,9.60360791015625,0.07341885573063818,-0.07108783724245328,0.02758765219863622
1684006692015248600,9.61364892578125,0.05401730538538883,-0.1650819778792021,0.05783963192428908
1684006692025289400,9.623689697265624,0.03487586977177376,-0.18919086456818557,0.05719637876156006
1684006692035330600,9.63373095703125,0.018462419343780304,-0.19167232514775068,0.0664370060976054
1684006692045371600,9.64377197265625,0.011976480595573932,-0.1706304550274121,0.10159504417531098
1684006692055412400,9.653812744140623,-0.003705978354159992,-0.11940383919704342,0.0864922999478474
1684006692065453600,9.66385400390625,-0.007508993177534447,-0.06432533274205979,0.09002697454092642
1684006692075494600,9.67389501953125,0.02370977412457085,-0.026571273833846352,0.08841884135923023
1684006692085535600,9.68393603515625,0.0514273644337487,-0.008104324392779635,0.0794733761100969
1684006692095576800,9.69397705078125,0.09686112407464062,-0.0014877317686667764,0.1060285570148426
1684006692105617600,9.70401806640625,0.10779118536887577,-0.022939682013926776,0.13467013847323808
1684006692115658600,9.71405908203125,0.0871825217540366,0.0033349990578928745,0.10183835026503855
1684006692125699800,9.72410009765625,0.04733181014143826,0.03651618963024824,0.08153760443049016
1684006692135740800,9.734141357421874,-0.025370120886066733,0.026955604628694937,0.05448150648514478
1684006692145781600,9.74418212890625,-0.06668090820720118,0.07187080389714372,0.03985607633055134
1684006692155822800,9.75422314453125,-0.09365105625915261,0.09034633631937966,0.00933456411387168
1684006692165863900,9.76426416015625,-0.09691643712644082,0.08748054500509973,-0.01787161830925327
1684006692175904900,9.774305419921877,-0.09555912026708258,0.07301425933527707,-0.02518808848462037
1684006692185946000,9.784346435546874,-0.06353974342134434,0.054128646786734916,-0.03413426865984999
1684006692195986900,9.79438720703125,-0.027203321523077924,0.05439186092433867,-0.01191389559191199
1684006692206028000,9.804428466796876,0.010884523453976348,0.0570259095493681,0.0054115056728319
1684006692216069000,9.814469482421876,0.022222042098914877,0.1350011824555183,0.008146047724833167
1684006692226110100,9.824510498046877,0.0609161855491805,0.21418666841049658,-0.022789239762525046
1684006692236151000,9.83455126953125,0.09343504905542249,0.27107143412486495,-0.04671943187177522
1684006692246192000,9.844592529296875,0.10577225695866531,0.2283630371629936,-0.08468723292310341
1684006692256233100,9.854633544921874,0.09118700038543213,0.12073993689245684,-0.05361282834876298
1684006692266274200,9.864674560546876,0.06184864041844322,0.05055046069668714,-0.05570673953922407
1684006692276315100,9.874715576171877,-0.007526874556495868,0.021756172238946072,-0.007997035811438964
1684006692286356100,9.884756591796876,-0.07584047311429618,0.009951591451176403,0.031907558482175954
1684006692296397200,9.894797607421877,-0.1519479751003225,0.0217247008276722,0.07120072839474659
1684006692306438300,9.904838623046874,-0.2092795371962087,0.02116394040833579,0.14027476312851983
1684006692316479200,9.914879638671875,-0.23132562639102824,-0.022284507780627183,0.13002479075980108
1684006692326520200,9.924920654296876,-0.25386643409457244,-0.04910087591836823,0.14758241175481202
1684006692336561300,9.934961669921876,-0.19950890539167548,-0.08771324153703022,0.12892127022272692
1684006692346602400,9.9450029296875,-0.12435007097245616,-0.1612339018656722,0.0864894390133223
1684006692356643200,9.955043701171874,-0.043637037142341205,-0.2405290603775881,0.08930718903175043
1684006692366684300,9.965084716796875,0.006782054951693869,-0.19347953796760223,0.09222543228861971
1684006692376725400,9.975125732421876,0.02474975582152413,-0.14453220363203095,0.10209953773689569
1684006692386766600,9.9851669921875,0.003735303779952059,-0.0019235611691505335,0.07393372068935679
1684006692396807300,9.995207763671877,-0.0459287165895794,0.08914566035712605,0.0747076272932114
1684006692406848400,10.005248779296876,-0.11346888553460512,0.20463466633405394,0.13031864152988776
1684006692416889600,10.0152900390625,-0.19065594675263106,0.1837701798448777,0.2540333269413275
1684006692426930600,10.0253310546875,-0.19713640221385847,0.16293907155508636,0.3126606941284372
1684006692436971600,10.0353720703125,-0.15067815796646064,0.0974597931395768,0.3285505771539676
1684006692447012600,10.045412841796876,-0.0903193949904086,0.0683298110923427,0.3334307671103706
1684006692457053600,10.0554541015625,0.011271953527335244,0.053952217147147236,0.41903626934004296
1684006692467094600,10.0654951171875,0.08903694152800042,0.06136226658758691,0.4164772034530899
1684006692477135800,10.0755361328125,0.14061355576771903,0.0856332778812263,0.38380885121276703
1684006692487176600,10.085576904296875,0.16836380949850743,0.11725711829667518,0.3431390524660984
1684006692497217600,10.0956181640625,0.19143724440339382,0.17965984358149648,0.31329107291524294
1684006692507258800,10.1056591796875,0.20548558229809663,0.21569919582693728,0.2891571521466808
1684006692517299900,10.1157001953125,0.19215035430301772,0.22802448267639341,0.2727600336220438
1684006692527341000,10.125741455078124,0.166093826224892,0.2616834641427296,0.22592699530095925
1684006692537381800,10.1357822265625,0.15085864076495628,0.2833557129115034,0.22627758968444409
1684006692547422900,10.1458232421875,0.10872077928987363,0.274312973034669,0.20201039328555234
1684006692557464000,10.155864501953126,0.08994579311581678,0.22083854684089332,0.1584305763327368
1684006692567505100,10.165905517578125,0.09246492386419569,0.16351985926118545,0.14565646640365773
1684006692577545900,10.1759462890625,0.11881232269527497,0.13290786753943953,0.07884800437806616
1684006692587587000,10.1859873046875,0.1872477530636378,0.1357517242060351,0.03249657146773198
1684006692597628100,10.196028564453124,0.30364537234294064,0.08697414408565744,-0.07311153421386793
1684006692607669200,10.206069580078124,0.3768785001133697,0.0465812681492447,-0.13313895455333183
1684006692617710000,10.2161103515625,0.42313218106583017,-0.01115798961051587,-0.2542172671033013
1684006692627751100,10.2261513671875,0.42790865900228214,0.02729320518877264,-0.4092215896415062
1684006692637792200,10.236192626953123,0.35634016980532746,0.11332988742047473,-0.6207317112723106
1684006692647833300,10.246233642578124,0.2522642611280362,0.18953990936895698,-0.8596630095896556
1684006692657874100,10.2562744140625,0.13133716581393484,0.18745899198453045,-1.0339628459113226
1684006692667915200,10.266315673828124,-0.00033307075558026506,0.16452980043302987,-1.1141002177745252
1684006692677956300,10.276356689453126,-0.13256502145718113,0.17979907985808072,-1.1742974519177782
1684006692687997400,10.286397705078125,-0.22067689903156373,0.1808967590848675,-1.1930118798773681
1684006692698038200,10.2964384765625,-0.30531382562168546,0.09965801236699952,-1.023327112123913
1684006692708079300,10.306479736328123,-0.304162740684041,0.12338829041542382,-0.8289030195837581
1684006692718120400,10.316520751953124,-0.21613097172500204,-0.013494491427995251,-0.5148850679206942
1684006692728161500,10.326561767578124,-0.11278319352349873,-0.11549282068377023,-0.2515136004351168
1684006692738202300,10.336602783203125,-0.05961394302721608,-0.17169284806800533,0.0005682705352362931
1684006692748243400,10.346643798828126,-0.02213144309045691,-0.21593856802020342,0.1547542810253116
1684006692758284500,10.356684814453123,-0.016971111268697738,-0.16347599024893117,0.19000458727485117
1684006692768325600,10.366725830078124,-0.02264285070133184,-0.2158946991758716,0.2596124410135126
1684006692778366600,10.37676708984375,-0.044317007226653285,-0.17117881777361535,0.263931036111086
1684006692788407500,10.386807861328125,-0.08888459197322347,-0.14631080628066823,0.24342101798841057
1684006692798448600,10.396848876953126,-0.15331554412240736,-0.06094646449950987,0.17314434051478123
1684006692808489600,10.40689013671875,-0.20846557617024827,-0.05980491652035304,0.07777750486126916
1684006692818530700,10.41693115234375,-0.23061227804642143,-0.042620658867527667,-0.043696403428270525
1684006692828571600,10.426971923828123,-0.27094554901082285,-0.10886001592627238,-0.0010649561432671756
1684006692838612600,10.437012939453124,-0.2510616779156561,-0.10656070701306579,-0.013992548163590982
1684006692848653700,10.44705419921875,-0.19586420049341075,-0.12618446341647108,-0.08557087189220379
1684006692858694800,10.45709521484375,-0.17723417280846473,-0.15542984023143455,-0.12070569382333006
1684006692868735900,10.46713623046875,-0.15296816832691287,-0.21986007696169166,-0.20029538865368313
1684006692878776800,10.47717724609375,-0.18494606015665996,-0.2928647994950182,-0.29794412850696994
1684006692888817800,10.48721826171875,-0.27628636358857384,-0.37010765077670876,-0.3954222797858114
1684006692898858900,10.49725927734375,-0.3904371262280646,-0.39965724945938164,-0.5099797844643423
1684006692908900000,10.507300537109376,-0.5055034159602417,-0.36258411393571316,-0.6005340815686947
1684006692918940800,10.51734130859375,-0.5803117753302344,-0.3761882782926904,-0.6406480074400708
1684006692928981900,10.52738232421875,-0.6333339212780321,-0.35692882541158105,-0.6710989474604839
1684006692939023000,10.53742333984375,-0.6304409504400711,-0.3408823013161991,-0.646772026947653
1684006692949064100,10.547464599609375,-0.5909802913004404,-0.32802104944699895,-0.5845694540631405
1684006692959104900,10.55750537109375,-0.536969423302824,-0.27046298988911355,-0.5129307507278742
1684006692969146000,10.56754638671875,-0.4829595090712474,-0.25185108192819694,-0.48393088594167744
1684006692979187100,10.57758740234375,-0.42882680888555225,-0.22679805762490607,-0.343760102964719
1684006692989228200,10.587628662109376,-0.35361075402643866,-0.13072776800763483,-0.2887749076538573
1684006692999269300,10.597669677734377,-0.28948450081174065,-0.07484912878262022,-0.2591530679490124
1684006693009310100,10.60771044921875,-0.2300713062327015,-0.03902149204311632,-0.24588537222280912
1684006693019351200,10.617751708984375,-0.18488526346332965,-0.2065086365041074,-0.08636371808584418
1684006693029392300,10.627792724609376,-0.2025308607919711,-0.22332954422489995,0.0032183677146349777
1684006693039433400,10.637833740234376,-0.1946811674795344,-0.16972637162887208,0.026506349391331233
1684006693049474200,10.64787451171875,-0.1944124699338475,-0.1411180494756865,0.031894490042673904
1684006693059515300,10.657915771484374,-0.22283625592213488,-0.0688104630312918,-0.012875124748391321
1684006693069556400,10.667956787109375,-0.16479778286920246,-0.02870082853462005,-0.06645055845927048
1684006693079597600,10.677997802734374,-0.133458614354805,0.04123115529677967,-0.14900642632998592
1684006693089638300,10.688038818359376,-0.07066559791584619,0.08193492892505452,-0.20773708812964958
1684006693099679400,10.698079833984377,-0.03897786147532572,0.11295032488842355,-0.339310705646184
1684006693109720600,10.708120849609376,-0.014431714904442621,0.10151576996930936,-0.44993883377029803
1684006693119761600,10.718161865234377,0.015286922439423454,0.01761436465037673,-0.4371322095726949
1684006693129802400,10.728202880859374,0.05334854132388131,-0.07187843333047111,-0.40541830666098894
1684006693139843600,10.738243896484375,0.12815189365328927,-0.07512474077278115,-0.43327534203081186
1684006693149884600,10.748284912109376,0.2363939285817669,-0.08057498925097276,-0.362389057887594
1684006693159925600,10.758326171875,0.3460044861234785,0.08392238606523805,-0.42724025239041824
1684006693169966600,10.768366943359377,0.4345278740155583,0.15927028665377488,-0.4812942743317388
1684006693180007600,10.778407958984374,0.49420690541019574,0.2979183196587614,-0.49937999260317223
1684006693190048600,10.788448974609375,0.5321745871882354,0.37652015680478546,-0.4078185557566792
1684006693200089800,10.798490234375,0.5724812745744364,0.4078340531323226,-0.31058654182946577
1684006693210130900,10.80853125,0.6225414277277271,0.4372825622511647,-0.15646842119561355
1684006693220171600,10.818572021484377,0.6306596994895787,0.48131465912037014,-0.08320575959092075
1684006693230212800,10.82861328125,0.6163041591488467,0.5020246506229633,-0.03495258101544983
1684006693240253900,10.838654296875,0.5513166189169935,0.47867298129045144,0.028867155278509457
1684006693250295000,10.8486953125,0.4683845044208849,0.5323076246875831,0.06662378469756243
1684006693260335800,10.858736083984375,0.2732036113862789,0.5440044402269173,0.08399972324098307
1684006693270376900,10.86877734375,0.010722875486577816,0.41536140440070435,0.11445987226200682
1684006693280418000,10.878818359375,-0.2638783453942285,0.2116880417396215,0.23041796696020111
1684006693290459100,10.888859375,-0.3313932419581322,-0.0004606246460386357,0.44475090503074
1684006693300500100,10.898900634765624,-0.177452325764534,-0.12475490559720288,0.7208436132223563
1684006693310541000,10.90894140625,-0.03839516635229515,-0.15804290759294626,0.8970129489843631
1684006693320582100,10.918982421875,0.01458239551084869,0.06550598134029194,0.7839428187163214
1684006693330623200,10.9290234375,0.1224064826106892,0.2783498764588099,0.5735065341553972
1684006693340664200,10.939064697265623,0.27138686179856414,0.30903530110093763,0.546881198865234
1684006693350705100,10.94910546875,0.45323169231899213,0.3090105057492502,0.5346208215176026
1684006693360746200,10.959146484375,0.5916025638251772,0.34710979470801157,0.47736892086236166
1684006693370787200,10.969187744140624,0.6858989001714697,0.3405284880499604,0.35056647654001877
1684006693380828300,10.979228759765626,0.7092226742719383,0.4080085754950803,0.12529274808680443
1684006693390869200,10.98926953125,0.602049112380353,0.45442199699397684,-0.25263184316764514
1684006693400910300,10.999310546875,0.49090862283411935,0.36707687370454495,-0.49704104667347043
1684006693410951300,11.009351806640623,0.36344885837641816,0.23248481763367332,-0.6889072656265615
1684006693420992400,11.019392822265624,0.20821535592433374,0.05324459088747712,-0.8958263994012913
1684006693431033600,11.029433837890624,-0.0036401748370179024,-0.033640861639368365,-1.0482534169571605
1684006693441074400,11.039474853515625,-0.2272131442753386,-0.15006732937715173,-1.0833642482242665
1684006693451115400,11.049515869140626,-0.4061172008326686,-0.18286037461820942,-1.038281679303629
1684006693461156600,11.059556884765623,-0.5869278907308421,-0.21687889087801482,-1.0308051108942746
1684006693471197600,11.069597900390624,-0.7255741357881315,-0.35964393615265067,-0.8969646691991313
1684006693481238400,11.079638916015623,-0.8107185363661916,-0.37220573440574406,-0.8848225474350625
1684006693491279600,11.089679931640624,-0.8016432522538369,-0.429111480656954,-0.9491479991760103
1684006693501320600,11.099720947265626,-0.6836742164027911,-0.4248247148246455,-1.0437266824826845
1684006693511361600,11.10976220703125,-0.49886846535232204,-0.47360897066065955,-1.181610941922325
1684006693521402800,11.11980322265625,-0.3587288856243451,-0.5485897064311975,-1.1999924181945558
1684006693531443600,11.129843994140623,-0.2164506913705088,-0.6421756743269825,-1.2499790191562588
1684006693541484600,11.139885009765624,-0.16336417197961015,-0.6444835662621571,-1.1689749957029374
1684006693551525800,11.14992626953125,-0.18093079318735758,-0.6013650894667584,-1.0321229697330176
1684006693561566900,11.15996728515625,-0.2636888621467913,-0.4941635130980527,-0.9406527279383073
1684006693571607700,11.170008056640626,-0.3534098863049915,-0.4379425049686854,-0.7835587858825624
1684006693581648800,11.18004931640625,-0.3973746894609767,-0.41123104098653024,-0.60754096497263
1684006693591689900,11.19009033203125,-0.3612503409916994,-0.3423032759543229,-0.5417845248553711
1684006693601731000,11.20013134765625,-0.29090118400206383,-0.36488342268705143,-0.33348789824665465
1684006693611771800,11.210172119140625,-0.1764711139789392,-0.3471746446330995,-0.2028707564766173
1684006693621812900,11.22021337890625,-0.06630492213111049,-0.2627782821863401,-0.09445530163023914
1684006693631854000,11.23025439453125,0.0564810039462762,-0.22156429291364718,0.04201811548290566
1684006693641895100,11.24029541015625,0.10736805192344205,-0.1827859877642786,0.1797887982244123
1684006693651936200,11.250336669921875,0.12768229839104958,-0.1584434510558049,0.2832900882660227
1684006693661977000,11.26037744140625,0.1327762305822374,-0.1581344605555135,0.3456858695257306
1684006693672018100,11.27041845703125,0.13057366018513133,-0.15797710417725377,0.417358398405309
1684006693682059200,11.28045947265625,0.12380293004490521,-0.16994380942925927,0.42300310728329316
1684006693692100300,11.290500732421876,0.1070285140335991,-0.1342878341112862,0.3923226594986925
1684006693702141100,11.30054150390625,-0.011902123858667266,-0.16332912446750525,0.3186240195175415
1684006693712182200,11.31058251953125,-0.13957899799771287,-0.29029464720107423,0.21718439452244728
1684006693722223300,11.320623779296875,-0.3691033722441706,-0.9233007430597463,0.2953635156053682
1684006693732264400,11.330664794921876,-0.5924614667902799,-1.4282999038011712,0.15749856825232597
1684006693742305500,11.340705810546876,-0.8816174864714793,-2.056541442762704,0.11552167680670322
1684006693752346300,11.35074658203125,-1.089537143688727,-2.0365104675000993,-0.10989042372389002
1684006693762387400,11.360787841796874,-1.3158086539349918,-1.5393695831091625,-0.46152135730146804
1684006693772428500,11.370828857421875,-1.5020991564551527,-0.7906131742537218,-0.7526145577737509
1684006693782469600,11.380869873046874,-1.516574382804421,-0.12498569488212646,-0.9729282259209296
1684006693792510400,11.390910888671876,-1.3257160186592158,0.1211557388315729,-1.0603396893099684
1684006693802551500,11.400951904296877,-0.8091399670449857,0.2139911650385712,-1.0779352189117697
1684006693812592600,11.410992919921876,-0.2048257588567656,0.28043556223060306,-1.0289095639172052
1684006693822633600,11.421033935546877,0.3502276242282169,0.43748092647641845,-0.9064339995025682
1684006693832674600,11.431074951171874,0.7146471739828334,0.5988616941830337,-0.7753726841682215
1684006693842715600,11.441115966796875,0.9622195362435706,0.6546859742254688,-0.5956174134891619
1684006693852756600,11.451156982421876,1.0902979375319457,0.5956697463784209,-0.32394635672304406
1684006693862797700,11.4611982421875,1.1005654333421042,0.4006090164251912,0.0035206005763440255
1684006693872838800,11.4712392578125,1.0056878327486682,0.16296195978838743,0.28593063352245596
1684006693882879600,11.481280029296874,0.8336136340723044,0.06428241734908331,0.533388674246101
1684006693892920800,11.491321044921875,0.5967733859361255,-0.07012653353322286,0.7652440667169405
1684006693902961800,11.5013623046875,0.3942514659582065,-0.13030815128404324,1.0385982991229274
1684006693913002900,11.5114033203125,0.2149636596402339,-0.20478153232985857,1.366985917138031
1684006693923043800,11.521444091796877,0.07836484912693752,-0.22183799745167715,1.6467872858295738
1684006693933084800,11.5314853515625,-0.06434600071523727,-0.38929843915330686,2.0075366496730007
1684006693943125900,11.5415263671875,-0.10814495398082394,-0.3818588257176151,2.2052867414389308
1684006693953167000,11.5515673828125,-0.06343168022692439,-0.2500343324189006,2.248088359717652
1684006693963208100,11.5616083984375,0.05210846649723821,-0.0801324845176609,2.269290685696638
1684006693973248900,11.5716494140625,0.21867510668728293,0.12768077861444038,2.2956323624840898
1684006693983290000,11.5816904296875,0.3546588717924096,0.30877304071947365,2.295999527024368
1684006693993331100,11.5917314453125,0.45830291523591077,0.40586853023999936,2.3224754333206636
1684006694003372200,11.601772705078124,0.5522799491866249,0.42870903008989936,2.3173415661100627
1684006694013413000,11.6118134765625,0.5925171373710161,0.3965435029784048,2.319428920708173
1684006694023454100,11.6218544921875,0.6450920702920593,0.2831926346697382,2.296064615251598
1684006694033495200,11.6318955078125,0.6501293182112308,0.20346832276202523,2.2399804591895114
1684006694043536300,11.641936767578123,0.68496668331682,0.09042739881741094,2.1940062046479265
1684006694053577400,11.651977783203124,0.6522442102287198,0.013402938822266458,2.1149606704851966
1684006694063618200,11.6620185546875,0.5977248549031647,-0.05637073512918164,1.9766896964113372
1684006694073659300,11.672059814453124,0.5049028396706158,-0.11415195457056172,1.7881727219482162
1684006694083700400,11.682100830078124,0.3914187849242068,-0.13130760177695908,1.4511263369987517
1684006694093741600,11.692141845703125,0.2782652676117723,-0.12940311442787275,1.0554969310414297
1684006694103782600,11.702182861328126,0.2045455873266669,-0.07504081722045709,0.6941385268745073
1684006694113823400,11.712223876953123,0.11350452904436088,-0.19996643064325142,0.3538019956072621
1684006694123864600,11.722264892578124,0.07975044859763604,-0.3245763778839064,0.10609127589731683
1684006694133905600,11.732305908203124,0.029398143294344987,-0.43450736987383587,-0.07315751914463638
1684006694143946600,11.74234716796875,0.014363825323668273,-0.3936862944869812,-0.2573854027853861
1684006694153987600,11.752387939453126,0.005350530304363985,-0.3075809479685314,-0.3336639107079816
1684006694164028600,11.762428955078123,-0.007043421320670533,-0.2192649840266208,-0.3214713633160902
1684006694174069600,11.772469970703124,-0.007893145077129437,-0.16690826408688614,-0.2526232301759179
1684006694184110800,11.78251123046875,0.0007967353254742846,-0.11934089659670298,-0.14894577858952715
1684006694194151900,11.79255224609375,0.0234184264349545,-0.09805488591950569,0.029566340091601657
1684006694204192600,11.802593017578126,0.06131166210858957,-0.06483459486354408,0.21256373804132664
1684006694214233800,11.81263427734375,0.087396085196546,-0.05557441712313108,0.3470644652758323
1684006694224274900,11.82267529296875,0.11567652212052015,-0.05352211005712462,0.48751819135275765
1684006694234316000,11.83271630859375,0.10077673186740123,-0.06344413772475717,0.5427497625332687
1684006694244356800,11.842757080078124,0.12136834852237259,-0.061447143628772585,0.5609610676465745
1684006694254397900,11.85279833984375,0.08199959974451028,-0.10008430474201249,0.45714971412297195
1684006694264439000,11.86283935546875,0.09315085415090124,-0.08607959729015927,0.4424379766612644
1684006694274480000,11.87288037109375,0.10509526726035652,-0.09117889391446443,0.4014387130060718
1684006694284521100,11.882921630859377,0.13019680981474807,-0.13201713561388856,0.2699168622965868
1684006694294562000,11.89296240234375,0.13033521179148067,-0.18699836737310324,0.21328340463693646
1684006694304603100,11.90300341796875,0.15327501300230126,-0.29190635674589355,0.15022799368432097
1684006694314644100,11.91304443359375,0.21526777739506806,-0.23170852650779622,0.1333391368478349
1684006694324685200,11.923085693359376,0.2684963345975062,-0.185933113183012,0.12620078031064952
1684006694334726100,11.93312646484375,0.3070974349680877,-0.21418952945825376,0.20319026694535713
1684006694344767200,11.94316748046875,0.329000175020639,-0.1300163269457763,0.12719215440985082
1684006694354808200,11.953208740234375,0.43072801833990726,-0.12005901346034085,0.013923182962495152
1684006694364849300,11.963249755859374,0.5385435819486976,-0.22963142403215214,-0.10281901047345939
1684006694374890200,11.97329052734375,0.6464341878300689,-0.38448810589102744,-0.1990847289958385
1684006694384931200,11.98333154296875,0.7072659730468013,-0.3123731613503326,-0.384093344121334
1684006694394972300,11.993372802734376,0.6680613754450356,-0.028230667104452906,-0.43567135929366824
1684006694405013400,12.003413818359377,0.5470512508778554,0.1403427123055286,-0.5654217600971775
1684006694415054600,12.013454833984374,0.38912689680187756,0.19141674034369077,-0.6707358956745804
1684006694425095300,12.023495849609375,0.2057373523373184,0.08723831169943687,-0.6528252364188334
1684006694435136400,12.033536865234376,0.032385110712448206,-0.02835655209513977,-0.5308004021038433
1684006694445177600,12.043577880859376,-0.06504923107295246,-0.14809417724013224,-0.37772941581486014
1684006694455218600,12.053618896484377,-0.03887647391256265,-0.16212654098334991,-0.2712345122451359
1684006694465259400,12.063659912109374,0.07694858304488016,-0.2213621139013715,-0.2424133272016571
1684006694475300600,12.073700927734375,0.22583901885452887,-0.34041213982526164,-0.30145302411607827
1684006694485341600,12.083741943359374,0.23926442861215977,-0.4117565154836692,-0.16596826907345388
1684006694495382600,12.093783203125,0.22508650998793345,0.001736640820203432,0.23606994750745214
1684006694505423800,12.10382421875,0.22078031294601846,0.6171655654278493,0.5883892774492226
1684006694515464600,12.113864990234376,0.2630183695494413,0.7462673186361402,1.0632616281310274
1684006694525505600,12.123906005859377,0.21839940545800465,0.638404846207027,1.7299100160897787
1684006694535546800,12.133947265625,0.03753322369206804,0.42537784563787595,2.323528528261539
1684006694545587900,12.14398828125,-0.24694550032789456,0.38704967510627614,2.4488501550557915
1684006694555629000,12.154029296875,-0.5657871961252808,-0.10947608947738986,2.370697498262173
1684006694565669800,12.1640703125,-0.7912599444865708,-0.6566791533901851,2.021740436504793
1684006694575710900,12.174111328125,-0.8589290976191849,-0.9749927521012004,1.711682677274162
1684006694585752000,12.18415234375,-0.7748557925059572,-0.9889211653900264,1.3385967015128215
1684006694595793100,12.194193359375,-0.5984380842347291,-0.6518306731066797,0.8193176387881005
1684006694605833900,12.204234375,-0.44437763110310013,-0.39915561680596057,0.30005910990434626
1684006694615875000,12.214275390625,-0.309254914468916,-0.3402605058103992,-0.07493978746878867
1684006694625916100,12.22431640625,-0.11323642723940307,-0.22865581509568797,-0.3324207962084342
1684006694635957200,12.234357666015624,0.09975087645501665,-0.1291704179168972,-0.5168803333970275
1684006694645998300,12.244398681640623,0.3322645427005655,-0.01814460760542756,-0.6510315538487111
1684006694656039100,12.254439453125,0.4952639341052221,-0.04617214198042179,-0.6577274799158865
1684006694666080200,12.26448046875,0.6057746411211079,-0.143546104388044,-0.5961816906313901
1684006694676121300,12.274521728515625,0.7161183953323537,-0.18813228610611224,-0.4713236987550461
1684006694686162400,12.284562744140626,0.8274818658665037,-0.16330814349150868,-0.29390621187703064
1684006694696203200,12.294603515625,0.966840267163913,-0.06465435038180527,-0.12076887491018783
1684006694706244300,12.304644775390624,1.0382993221543462,0.02624511714823162,0.03021156782277201
1684006694716285400,12.314685791015624,1.0003180504188538,0.11412715899318596,0.1350345612165177
1684006694726326400,12.324726806640625,0.8569171429706425,0.1393842697943735,0.2250692844800644
1684006694736367600,12.334767822265626,0.6652763486172384,0.19784164444254523,0.2961544990586713
1684006694746408400,12.344808837890625,0.4934449790762341,0.1891851425462529,0.4035106898627808
1684006694756449500,12.354849853515624,0.3036680818892143,0.10878849023387419,0.4508341551324184
1684006694766490600,12.364890869140623,0.14198994632110304,0.071470260532237,0.46898335229829413
1684006694776531600,12.37493212890625,0.004586994658796389,0.007930755647435233,0.4461284279861198
1684006694786572500,12.384972900390624,-0.11144411549736614,-0.02910995491678616,0.35606431945949696
1684006694796613600,12.395013916015625,-0.1737866103758184,-0.0013694763319310175,0.1614973544321159
1684006694806654600,12.405054931640626,-0.19764041897245024,-0.13828754425416315,0.07077455524468662
1684006694816695600,12.41509619140625,-0.175547271957878,-0.11957454671629554,0.02857685086999915
