time,seconds_elapsed,z,y,x
1683999296359713200,0.038113525390625,1.559391892773736e-11,-4.1334876089089353e-11,-8.667288881750477e-11
1683999296369755300,0.04815576171875,0.08028793318395386,-0.20695543290681365,0.04102683078574116
1683999296379797400,0.05819775390625,0.3490457535156657,-0.45233917221759323,0.09612679471035605
1683999296389839600,0.068239990234375,0.36161232005294414,-0.4556016921964768,0.05733156208776262
1683999296399881600,0.078281982421875,0.29782772075783553,-0.5996251104536041,-0.01584696784339442
1683999296409924000,0.088324462890625,0.5403137207303937,-0.8972158433496148,-0.3289229868440246
1683999296419966100,0.098366455078125,1.6450595855471657,-0.4130587578228642,-0.3774354458602527
1683999296430008200,0.10840869140625,1.3222894666970868,-0.28109645855192816,0.6259660719816232
1683999296440050400,0.11845068359375,0.5638446806328569,-1.0000519753352732,1.5819149017104142
1683999296450092500,0.128492919921875,-0.32287311551705167,-0.7496371268296506,1.5690417290121594
1683999296460134600,0.138534912109375,-1.4841804504729126,-0.7094883920283037,1.3894238471523817
1683999296470176600,0.1485771484375,-1.8916802406945121,-0.5126218796731056,1.9605479240141206
1683999296480218800,0.158619140625,-2.1920781135484146,0.03905344015828473,1.6431918145358873
1683999296490260900,0.168661376953125,-2.0442676545431815,0.8831477164019985,1.6256318091180375
1683999296500303300,0.17870361328125,-1.9940538406279746,1.0643601418256514,1.5331883431122464
1683999296510345400,0.188745849609375,-1.199612140629547,0.9545731544552827,1.1811661720020168
1683999296520387600,0.198787841796875,0.1251006126337556,1.0834603310201252,0.44070529918514983
1683999296530429600,0.208830078125,0.7204413414033922,2.047383069851303,-0.9107241632087487
1683999296540471600,0.2188720703125,1.351108551078706,0.908134937269726,-1.8180708885079848
1683999296550513800,0.228914306640625,2.5446410178569554,0.12750220288300365,-2.153864383760595
1683999296560556000,0.238956298828125,-0.21494960789076795,-1.5516822338380174,-1.4155788422597781
1683999296570598100,0.24899853515625,-4.305498123041856,-2.5767672061404836,-2.337584495523
1683999296580640200,0.25904052734375,-0.5626535414811056,-0.7326781748036019,-3.03389692319314
1683999296590682600,0.2690830078125,0.8909792899197069,0.37224268916496156,-1.1822805404568189
1683999296600724600,0.279125,0.0013976095517761633,0.21078848844131243,0.2494659423439508
1683999296610766800,0.289167236328125,-0.21605253221082119,0.9525668620906446,0.4540214538065742
1683999296620808900,0.299209228515625,-1.085234165038511,2.0448460577416525,0.8842525482865043
1683999296630851000,0.30925146484375,-1.5597767828898639,1.9236584902651923,0.7389698028152372
1683999296640893100,0.31929345703125,-1.1100187301258608,1.173804521573935,0.21035385136920862
1683999296650935200,0.329335693359375,-0.5606024266007524,0.6317746639676786,-0.08721542358749354
1683999296660977300,0.339377685546875,-0.3089647293068089,0.5522732734762136,0.1050939559732341
1683999296671019600,0.349420166015625,0.19040465353615516,0.5678429605307113,0.5231533050377286
1683999296681061800,0.359462158203125,1.164712190675889,0.68767642983154,0.4860630034849808
1683999296691103900,0.36950439453125,2.3219070435493525,0.7417550087049121,0.474449157717737
1683999296701146000,0.37954638671875,2.8072578906583185,0.5715310573088309,0.30185794825545054
1683999296711188100,0.389588623046875,3.8143870828999455,1.5986145734581105,-0.7120580673293794
1683999296721230300,0.399630615234375,8.467257499688765,1.675626397044039,-2.3322196005913933
1683999296731272400,0.4096728515625,4.27533626554415,1.1872225999871544,0.08967113506907506
1683999296741314600,0.41971484375,-1.3705523014362306,-2.675666809011634,0.44859790796754745
1683999296751356600,0.429757080078125,-2.8091845510546385,-1.5916662216493416,-1.2484827040696906
1683999296761399000,0.43979931640625,-2.4710571766013434,1.2630863188492434,-2.551514625500022
1683999296771441100,0.449841552734375,-2.719656467494604,1.411533117274141,-1.3627729416363754
1683999296781483200,0.459883544921875,-4.137226581505983,1.0986204145932854,1.0953702927498492
1683999296791525300,0.46992578125,-6.2123260498251485,2.0010397434926728,1.8939619064769253
1683999296801567400,0.4799677734375,-6.021832943047686,2.3421313762463805,2.0305347442739787
1683999296811609600,0.490010009765625,-4.071945667179662,2.193257331803441,1.1068439484376176
1683999296821651600,0.500052001953125,-2.345830440510645,1.8485090732363019,-0.055452346849988995
1683999296831693700,0.51009423828125,-0.6953120231517425,0.9773031472688428,-1.0539436341316781
1683999296841735900,0.52013623046875,0.6802477836330337,0.12812042230140222,-0.7724905013780426
1683999296851778200,0.5301787109375,1.6625612973151942,-0.5343391895310262,-0.1553878785887185
1683999296861820300,0.540220703125,2.118407726285776,-0.5608761310962508,-0.10917663568934517
1683999296871862400,0.550262939453125,1.6000757216461967,-1.191275596612682,-0.8237342835804621
1683999296881904600,0.560304931640625,0.5970838666772451,-1.560189485649927,-1.9735136031697642
1683999296891946600,0.57034716796875,-1.2756071091144812,-1.9573266507788718,-2.5774240495238137
1683999296901988800,0.58038916015625,-2.1925311088333443,-1.9441211222477441,-2.5759410857388976
1683999296912030900,0.590431396484375,-1.6036928892290516,-1.860054492994437,-2.371219158262868
1683999296922073000,0.600473388671875,-1.1104341746116912,-1.616936683715625,-2.1578359604333706
1683999296932115400,0.610515869140625,-1.293201088980275,-1.5880818366501406,1.4337310790866358
1683999296942157600,0.620557861328125,-0.9029169083140584,-2.587611913652483,0.46409988409832137
1683999296952199600,0.63060009765625,-2.1745157243597326,-3.479968071089616,1.715645790065723
1683999296962241600,0.64064208984375,-1.1536574362812158,-1.6403040885206457,0.6001882553832378
1683999296972283800,0.650684326171875,-0.014155149463976302,0.27563488468522107,0.5454072951334976
1683999296982325900,0.660726318359375,0.27960896484395525,0.3645727634326536,1.944671630946581
1683999296992368000,0.6707685546875,0.06223988538806863,-0.9880666732061578,2.1170301438137167
1683999297002410200,0.680810546875,0.19304776183205447,-1.8981685639010577,1.9484844207175664
1683999297012452600,0.69085302734375,1.006023764661773,-1.6316602229717487,1.1796350477846365
1683999297022494600,0.70089501953125,1.527929902029649,-0.9540290831167625,1.263796806289799
1683999297032536800,0.710937255859375,1.9436970948577537,-0.8763062952745219,0.9856929780159405
1683999297042578900,0.720979248046875,1.8807153701834316,-1.152442455409195,-0.35741710665182785
1683999297052621000,0.731021484375,1.3650239706444525,-1.0276358127707952,-0.9643135071746665
1683999297062663100,0.7410634765625,0.43764615070051494,-0.5588960647079902,-0.7581386566352606
1683999297072705200,0.751105712890625,-0.22995018967161676,-0.4057731627638529,-1.035844802744569
1683999297082747300,0.761147705078125,0.09839200961906519,-0.04138660413421208,-0.7815589906420545
1683999297092789600,0.771190185546875,1.197446584670319,0.8982177973158816,-0.36228561398495657
1683999297102831800,0.781232177734375,1.6014478206026446,1.735701084075564,-0.709179878234182
1683999297112873900,0.7912744140625,1.2256398201443164,2.1403481961386364,-1.0353183746868933
1683999297122916000,0.80131640625,0.46313643450051734,2.724671125508423,-1.3986482620284781
1683999297132958100,0.811358642578125,-0.18060386172616885,3.271623134506865,-1.4933528900291204
1683999297143000200,0.821400634765625,-0.031696081303558714,3.6612546443356178,-1.0364398956697336
1683999297153042400,0.83144287109375,0.6704354286040434,3.518139839013337,0.22552967075766556
1683999297163084500,0.84148486328125,1.867856502447363,3.1520893574230273,1.021650314199422
1683999297173126800,0.85152734375,2.4747700692968757,2.7856254579326625,1.35960865016753
1683999297183168900,0.8615693359375,2.7659764289610833,2.0452356337483195,1.3139410019587197
1683999297193211100,0.871611572265625,2.930872917083021,1.3334044218451158,1.0515632629053244
1683999297203253200,0.881653564453125,3.047641753998975,0.6777683498212914,1.0951633453293896
1683999297213295300,0.89169580078125,2.68894505503287,0.8677903414801965,-0.007253646770337056
1683999297223337400,0.90173779296875,1.8964223860691727,0.4667084216411019,-0.5356941223460648
1683999297233379600,0.91177978515625,0.30042970160614213,0.437607526820934,-1.328276634312715
1683999297243421600,0.921822021484375,-1.0483983756039421,0.8937497138823782,-2.769645690850035
1683999297253463700,0.931864013671875,-0.11705005172822523,0.20818829542462775,-3.817706584837252
1683999297263506100,0.941906494140625,1.577236056307143,0.5744876861810844,-4.467984199452558
1683999297273548200,0.951948486328125,0.7411414385103089,0.2823894022641428,-3.0364022255303915
1683999297283590300,0.96199072265625,-0.931338608301004,-0.5760023594629702,-0.08540821089672036
1683999297293632400,0.97203271484375,-2.5254192351244638,-0.7363047599363437,1.9817895889262247
1683999297303674600,0.982074951171875,-4.0836553574954,-0.26651072500818046,2.8546743393041196
1683999297313716600,0.992116943359375,-3.362409114737767,0.768073797168303,1.7403993605584371
1683999297323758800,1.0021591796875,-2.025998830744686,0.8935227393182444,-0.6683721542443565
1683999297333800900,1.012201171875,-1.5171939136044454,-0.8501870631653133,-0.7790260315556122
1683999297343843000,1.022243408203125,2.1441459654521355,0.7416396141771507,-4.699384689202124
1683999297353885400,1.03228564453125,0.35172364116509125,0.20493364348967694,-1.1058235167992656
1683999297363927600,1.042327880859375,2.3309571743021085,3.3326015473138475,-3.92804193511847
1683999297373969600,1.052369873046875,2.0108244418623262,4.5523262024204305,-3.8926024437620885
1683999297384011600,1.062412109375,-1.0034985542058807,0.6335678100422902,0.7257547377430034
1683999297394053800,1.0724541015625,-1.5572990178745634,-0.6924858092283055,1.8430109024183234
1683999297404095900,1.082496337890625,-0.030244231222539587,-0.6395533084665047,2.620583534170624
1683999297414138000,1.092538330078125,0.6890317797123808,-0.5993609429490468,2.72840499892491
1683999297424180100,1.10258056640625,1.0030319690596425,-0.6756615638832988,2.1534872054750105
1683999297434222600,1.112622802734375,0.58935070044099,-0.5650167465118707,1.199566841148948
1683999297444264600,1.1226650390625,-1.6301494835734718,-2.037003517195495,1.9688320159496322
1683999297454306700,1.13270703125,-2.126824617296851,-1.4459977151043082,2.5198640822912934
1683999297464348800,1.142749267578125,-0.6400526761412112,2.521572589911671,-3.583116054484973
1683999297474391000,1.152791259765625,-1.0356948375785466,2.979802608415846,-4.8545455932075425
1683999297484433100,1.16283349609375,-0.8956820965617838,-0.17537116998099198,-0.8607053756962478
1683999297494475200,1.17287548828125,1.0032706260959943,-1.2756457327589488,-0.9961299897203292
1683999297504517600,1.18291796875,1.484173059523708,-2.236667156203729,1.864486694266059
1683999297514559600,1.1929599609375,2.7369589806033874,-1.2076067924531417,2.779250145003679
1683999297524601800,1.203002197265625,3.8430204391197784,-0.19867324830605196,3.5989093780386687
1683999297534643900,1.213044189453125,3.293721199007607,0.3536252976023116,2.684169769350264
1683999297544686000,1.22308642578125,1.8513299226740778,0.14610958101500415,1.6622085570869825
1683999297554728100,1.23312841796875,0.5301745533768742,-0.05972290023448436,1.9426913260445557
1683999297564770200,1.243170654296875,-0.5021367668859005,0.3342709541327607,2.152768611891102
1683999297574812300,1.253212646484375,-0.8467380998700331,0.4887089730581239,2.4923143385844284
1683999297584854400,1.2632548828125,-0.8112213610314853,1.1793217658981838,2.3905148507635707
1683999297594896800,1.273297119140625,-0.9406949280500558,1.5754828452524636,1.7710218430929996
1683999297604938900,1.28333935546875,-0.9237873553128156,1.6518235206404073,1.8330259321839355
1683999297614981000,1.29338134765625,-0.7629971504714118,1.7509326935703273,2.296341895997161
1683999297625023200,1.303423583984375,-1.0020771025870856,2.176660537658048,1.871881484850213
1683999297635065300,1.313465576171875,-1.6467436552890444,1.7314887047767349,0.971544742448518
1683999297645107400,1.3235078125,-2.228980302813298,0.18555068977108077,0.7262954711989288
1683999297655149600,1.3335498046875,-0.9988783001168119,-0.4555654526917023,0.9581642149974587
1683999297665191600,1.343592041015625,0.5799261331957977,-0.4975390434041629,1.4139018059283444
1683999297675234000,1.35363427734375,1.4890341759179677,-0.7653260230186459,1.224991321569261
1683999297685276100,1.363676513671875,1.208063840831702,-0.3779392241830233,0.16236543641044923
1683999297695318200,1.373718505859375,1.124549269757559,-0.11043453214177433,0.04778528215871782
1683999297705360300,1.3837607421875,0.8963497280576493,0.30247974389132176,0.3646683691521111
1683999297715402400,1.393802734375,1.1081247329952943,0.7647314072462934,0.6870799063360954
1683999297725444600,1.403844970703125,1.3460466862037286,1.1466612815351651,1.1190304756454348
1683999297735486600,1.413886962890625,0.9093732238815713,1.2101302146748234,1.4815673829075173
1683999297745529000,1.423929443359375,0.893357753789869,0.880123138434378,1.5007586479808424
1683999297755571100,1.433971435546875,1.4887552262167705,0.64815855025188,1.532749176067198
1683999297765613200,1.444013671875,2.0163736342999385,0.2418375015779793,1.7741374968104733
1683999297775655300,1.4540556640625,2.269405365019109,0.2724461556424979,2.624314784994649
1683999297785697500,1.464097900390625,2.152470350274286,0.2965631486483212,2.922671318143802
1683999297795739600,1.474139892578125,2.0733809471731925,-0.029857635331046236,2.2359776496414616
1683999297805781600,1.48418212890625,1.8917267322281406,-0.4467425346460869,1.0528039932247764
1683999297815823800,1.49422412109375,1.0883593559214768,-0.9550328255935685,-0.26530075072840537
1683999297825866200,1.5042666015625,0.7682989240705319,-1.38731861109093,-1.1017303466892996
1683999297835908300,1.51430859375,0.7869876026569685,-1.8111157415805241,-0.9826316833324791
1683999297845950400,1.524350830078125,0.7119492888569473,-1.6364436149365067,-0.8396444320988955
1683999297855992600,1.534392822265625,0.7844836116104217,-1.1393046379016893,-1.0247750282543757
1683999297866034600,1.54443505859375,-0.32138115162530156,-1.788947105433529,-0.9232997892561247
1683999297876076600,1.55447705078125,-0.7181304097417792,-1.798083305326576,-1.3111896515779902
1683999297886118800,1.564519287109375,-0.8868578671534222,-1.6864871977485136,-1.3465852738696895
1683999297896160900,1.574561279296875,-1.1261125802635314,-1.2215223311769332,-1.3550391195882503
1683999297906203100,1.584603515625,-1.5893797874128424,-0.9150843618728485,-1.446959972348222
1683999297916245400,1.594645751953125,-1.5800039766749103,-0.5527896881769571,-1.9408550261998587
1683999297926287600,1.60468798828125,-0.7163985371895393,-0.3624787329632716,-1.1469907760205214
1683999297936329600,1.61472998046875,-1.6913518904674272,-0.6309347154097236,-0.10880661009604356
1683999297946371800,1.624772216796875,-1.7425934076397414,-0.27137565597919794,-1.7520852087349934
1683999297956413900,1.634814208984375,-1.519300103139931,0.24772500984143137,-2.690503597234812
1683999297966456000,1.6448564453125,-1.7909544705479614,0.17488288875622243,-1.874516487224285
1683999297976498100,1.6548984375,-1.682549238087872,0.15518331511394587,-1.506950855128973
1683999297986540500,1.66494091796875,-0.9910029173244401,0.24701929098397143,-1.5044684410939042
1683999297996582600,1.67498291015625,-0.13191115842482526,0.1601681709356622,-1.048192024169444
1683999298006624600,1.685025146484375,-0.27018213278015624,-0.35211658479367464,-0.270817756586125
1683999298016666800,1.695067138671875,0.21094405645193465,-0.409171581177089,-0.028809547549264472
1683999298026708900,1.705109375,0.4972091316216854,-0.27216148382915933,0.39142131805649505
1683999298036751000,1.7151513671875,-0.12613701818669618,-0.3132052420481753,0.7708539961864704
1683999298046793100,1.725193603515625,-0.43193531040645194,-0.272782802618914,0.7462501526048088
1683999298056835200,1.735235595703125,-0.54278111462625,-0.33082818989850143,0.4689369201950108
1683999298066877600,1.745278076171875,-0.8505418300356358,-0.6514840125463339,0.21665382375005626
1683999298076919600,1.755320068359375,-1.1043858526984067,-0.2891440391982862,0.1648826600826479
1683999298086961800,1.7653623046875,-1.2176885603490128,-0.4744162559194999,-0.32327795032658785
1683999298097004000,1.775404296875,-0.7205671073464864,-0.4366812706642751,-0.6992702483798146
1683999298107046100,1.785446533203125,-0.34468460084600866,-0.7885141373065332,-0.637380600055009
1683999298117088200,1.795488525390625,0.028834462191842537,-0.7623033522330179,-0.5601663589169675
1683999298127130300,1.80553076171875,0.7674488425125529,-1.1071939469255203,-1.2951741219578805
1683999298137172400,1.81557275390625,0.45444953450751346,-1.2873172760859635,-1.637984752678387
1683999298147214800,1.825615234375,0.5175518989499249,-0.3877654075283459,-1.658697128342674
1683999298157256900,1.8356572265625,0.8837497830366907,0.9244141580115673,-1.733158588491599
1683999298167299000,1.845699462890625,0.5909308195926023,2.017330169578031,-0.7590603826840517
1683999298177341100,1.855741455078125,-2.3738026619175754,2.0105118751631474,-0.6070480345877513
1683999298187383200,1.86578369140625,-4.115185260792555,1.1208524705250575,-1.7883081436895112
1683999298197425300,1.87582568359375,-5.334121704163271,-0.26865673072024815,-2.299416542065895
1683999298207467400,1.885867919921875,-3.904696702910692,-1.1336231230739136,-0.8343577384746698
1683999298217509600,1.895909912109375,-0.13570690151198378,-1.5246629715222884,1.0145139693719722
1683999298227551900,1.905952392578125,1.703542113258662,-0.6200885774611761,0.8637962341877752
1683999298237594000,1.915994384765625,1.7345478535912477,0.06975984562629964,1.2306261063364632
1683999298247636100,1.92603662109375,2.3297290801895603,0.898192882509249,0.22880125043569774
1683999298257678300,1.93607861328125,2.622028589283681,0.6144919395772955,0.7267456055036703
1683999298267720400,1.946120849609375,2.8013019562267534,0.6598820686121057,0.6485190392417711
1683999298277762600,1.956162841796875,1.900905847500208,0.7444825172598172,-0.14751815797174717
1683999298287804600,1.966205078125,0.760875225123439,0.42037296282361564,-1.230365753307294
1683999298297846600,1.9762470703125,0.22737550719048918,0.02887535095029929,-1.8634877205257863
1683999298307889100,1.98628955078125,0.6286530495287471,-0.1864476203004662,-1.949366092726452
1683999298317931200,1.99633154296875,1.2165929078590536,0.31386327752335186,-1.1408529280697894
1683999298327973300,2.006373779296875,2.0079772473219917,0.5104117392509183,-0.5655503272268692
1683999298338015400,2.016415771484375,2.663015603931892,0.4021077156018145,-0.38223552700801056
1683999298348057600,2.0264580078125,2.87189221376381,0.14519166953116905,-0.17510938652292363
1683999298358099600,2.0365,2.839522838655682,-0.2019300460204827,-0.14693546311241307
1683999298368141700,2.046542236328125,2.3425588607610046,-0.24619436262547634,-0.7068781851863148
1683999298378184100,2.05658447265625,2.0500283240577373,0.24493837354938344,-2.0348978042458197
1683999298388226200,2.066626708984375,1.5920026303247525,0.6889667511676548,-2.6924862863073944
1683999298398268300,2.076668701171875,0.30346608151562743,0.5747199057440373,-2.6551883220282875
1683999298408310400,2.0867109375,-1.2399250267248512,0.25259685507343177,-2.9551641940042273
1683999298418352600,2.0967529296875,-6.28514146800175,0.21410274498075216,-1.3185381889642194
1683999298428394600,2.106795166015625,-9.2382774354269,1.3118329047662884,1.2023777960954427
1683999298438436800,2.116837158203125,-7.898286819558559,0.2178678512526225,0.8333873749255268
1683999298448478900,2.12687939453125,-4.0058979986725545,-0.831695556762365,0.11822223662184435
1683999298458521300,2.136921630859375,-1.9862785340552704,-0.8132753372115693,0.180197715718551
1683999298468563400,2.1469638671875,-1.341554641824221,-0.8111824988247963,0.4428696631887499
1683999298478605600,2.157005859375,-0.6290677784947124,-0.729206562052814,0.42187070827614404
1683999298488647600,2.167048095703125,-0.05243086800593918,-1.2122712136252576,-0.19784545899671713
1683999298498689600,2.177090087890625,1.858923077546533,-1.807296752970012,-1.173226356541813
1683999298508731800,2.18713232421875,3.0750734806339812,0.018665790692789896,-1.4049243927767792
1683999298518773900,2.19717431640625,2.115291833972051,1.758388996158049,-0.6795310973386168
1683999298528816300,2.207216796875,0.5581720472393975,2.4804589748463663,0.3945512771621586
1683999298538858400,2.2172587890625,-0.208112120470504,2.5122847556547807,1.0932955740529624
1683999298548900600,2.227301025390625,-0.8035186528821651,0.20242404935835182,1.2782149315650941
1683999298558942600,2.237343017578125,-1.1868025064473775,-0.5116891861374828,0.31679248810500077
1683999298568984800,2.24738525390625,-1.394453525435996,0.8853139876066881,0.6312608720532105
1683999298579026900,2.25742724609375,-1.3333199025980964,1.0295453071382683,0.4000644683413912
1683999298589069000,2.267469482421875,-1.4523936510451514,0.5797004700876158,-0.20273637784451737
1683999298599111100,2.277511474609375,-1.3777077198442473,0.59224367145969,-0.09022235870898879
1683999298609153200,2.2875537109375,-1.0240483283508617,0.7885494232904744,0.06072568897501063
1683999298619195600,2.297595947265625,-0.8572667836393881,0.6234831811229524,-0.6917266845488956
1683999298629237600,2.30763818359375,-1.232313036993352,0.6127395629424752,-1.2959747314364816
1683999298639279800,2.31768017578125,-1.3759557008474297,0.8856005669185435,-1.5035443307538723
1683999298649321900,2.327722412109375,-1.631198048475768,1.3423485756669875,-2.019273757941914
1683999298659364000,2.337764404296875,-2.0181655883517093,2.1478400230745587,-2.6384947299857178
1683999298669406100,2.347806640625,-2.4374318124363596,1.8761253356055791,-2.288863420451642
1683999298679448600,2.357848876953125,-2.754169940893866,1.4541530609811226,-1.8697137831645585
1683999298689490600,2.36789111328125,-3.208207845667322,1.7043828963662988,-1.1655025482535877
1683999298699532600,2.37793310546875,-2.898058891216498,1.5640401838909905,-0.5424513817022703
1683999298709574800,2.387975341796875,-2.4823491572449456,0.3349738121173036,0.11486768719405208
1683999298719616900,2.398017333984375,-1.2404401300992047,-1.0913467407349866,-0.1535072324800939
1683999298729659100,2.4080595703125,0.10356330863153426,-2.3980360029943313,0.3230800627968321
1683999298739701200,2.4181015625,0.8768061399583597,-1.8851079942105287,1.4223527907499223
1683999298749743300,2.428143798828125,2.2267296313483484,-0.3619308472590126,2.301190853153816
1683999298759785600,2.43818603515625,2.6643006800672278,-0.7794494627442848,2.553081512459198
1683999298769827800,2.448228271484375,2.0597712995203823,-1.3767051697748007,1.584861755339018
1683999298779869900,2.458270263671875,1.4259266852955048,-1.890343666151651,0.6581263543432179
1683999298789912000,2.4683125,0.575853943805227,-1.9411420822337118,0.9330329894146796
1683999298799954100,2.4783544921875,-0.09684848776303553,-2.210848808208338,1.1123981475063773
1683999298809996200,2.488396728515625,-0.8015093803144102,-2.7051496506659523,1.6203384398828105
1683999298820038300,2.498438720703125,-1.5658168794226675,-3.6059837340899987,2.6515574454943205
1683999298830080600,2.508481201171875,-1.607397794859615,-4.600703239487956,4.06200933450475
1683999298840122800,2.518523193359375,-0.7246785162857424,-5.637780189669632,4.671377181999458
1683999298850164900,2.5285654296875,0.48218536380451194,-3.5631856918584175,2.5428338050852815
1683999298860207000,2.538607421875,1.3834748266401384,-0.7166213989952157,1.1566867827627954
1683999298870249100,2.5486494140625,1.5134594440006413,-0.03615856178166619,0.6571073533383908
1683999298880291200,2.558691650390625,1.4455919265632553,0.5225620268118351,-0.7306895254277564
1683999298890333400,2.568733642578125,1.5176472663377027,1.7508640289697337,-2.651272535290065
1683999298900375600,2.57877587890625,1.1346113680188619,1.3854184149757611,-4.158682823160566
1683999298910417800,2.588818359375,2.7156519891123883,1.1354784964433136,-5.898393154264201
1683999298920460000,2.5988603515625,0.9557325839549615,2.096557140316771,-5.5404167175816355
1683999298930502100,2.60890234375,0.6705652475185201,1.4433026314599884,-4.454229831722089
1683999298940544200,2.618944580078125,-0.0066136121829055115,0.2241163252516856,-2.7400739193608814
1683999298950586300,2.628986572265625,-0.4875298737119237,-0.3809967041422623,-0.7869758605906358
1683999298960628400,2.63902880859375,0.028200387940482394,0.958230495321937,-0.16200351709812824
1683999298970670600,2.64907080078125,0.7161552906237955,1.3784613610585363,0.3616027833081615
1683999298980712900,2.65911328125,1.3146011830078228,1.249807357860212,0.6809015275474537
1683999298990755000,2.6691552734375,1.69112348541747,1.0409078598545247,0.6314387322123846
1683999299000797100,2.679197509765625,1.8385987281052434,0.4005260467506868,0.6134619711100487
1683999299010839200,2.689239501953125,2.248634338389736,1.050929546366371,-0.16833686809689002
1683999299020881300,2.69928173828125,1.937943220063013,-0.016224861025273353,-0.13501310341798084
1683999299030923400,2.70932373046875,0.9219976662921151,-2.1907329559467668,-0.8372492791070294
1683999299040965600,2.719365966796875,0.7262455820408986,-2.463131904608604,-1.7560164928991155
1683999299051007900,2.729408203125,1.2521039248519878,-1.7180118561059885,-1.535799264888232
1683999299061050000,2.739450439453125,1.7711637019654347,-1.0016841887177648,-1.1745738983519813
1683999299071092100,2.749492431640625,1.7308938504495226,-0.6204872132711671,-0.5678186415869532
1683999299081134300,2.75953466796875,1.5189534424073803,-0.3060827253812359,-0.3713436125959537
1683999299091176400,2.76957666015625,1.3112213611346863,-0.6033945084017746,-0.2569613456052784
1683999299101218600,2.779618896484375,1.303294658630967,-0.9379606245950621,-0.2478952409338854
1683999299111260600,2.789660888671875,1.325485110415607,-0.7917938232568428,-1.085130214714234
1683999299121302600,2.799703125,1.183445572758533,-0.3377666473075615,-1.6629529000175318
1683999299131344800,2.8097451171875,0.7617625595396682,-0.03574180600975603,-1.6973652839633782
1683999299141387200,2.81978759765625,0.26181608440802917,0.1450967788691991,-1.9710578918177326
1683999299151429300,2.82982958984375,0.005582868993297087,0.05897235857329939,-1.640897989250939
1683999299161471400,2.839871826171875,-0.087755560933956,-0.17000770571929147,-1.1952476501798048
1683999299171513600,2.849913818359375,-0.5717382430184912,-0.06703281410562509,-0.48932981493143246
1683999299181555600,2.8599560546875,-1.033461093859021,0.0010623931215902192,0.12038660040927224
1683999299191597700,2.869998046875,-1.055121660163683,-1.1225757598799335,-1.6142015458274281
1683999299201640100,2.88004052734375,0.06398418528720458,1.060026645472396,-0.9443292617200193
1683999299211682200,2.89008251953125,0.29037278893425256,1.4118070603124653,0.7239136694776649
1683999299221724300,2.900124755859375,0.4663563967937996,0.5771355629542438,1.0661487580468152
1683999299231766400,2.910166748046875,0.5141848922438995,0.10981655118200415,1.131186008407417
1683999299241808600,2.920208984375,0.5741959213632287,0.4177131652896097,1.0962829589541667
1683999299251850600,2.9302509765625,0.5343658924624995,0.2907896041599049,0.7796125410912591
1683999299261892800,2.940293212890625,0.4758188724514296,0.18844509139335197,0.7187914847751764
1683999299271934900,2.950335205078125,0.6186237334950371,0.11168003080370259,0.45897531521310936
1683999299281977300,2.960377685546875,0.6837850809346007,0.298631668115413,0.22564268097507187
1683999299292019400,2.970419677734375,0.5052504538757595,0.19120407094510308,0.029995918322550073
1683999299302061600,2.9804619140625,0.4567057491496489,0.020146369976361888,0.061815738870091196
1683999299312103600,2.99050390625,0.892515659386359,-0.30239200594101096,0.15107774732877946
1683999299322145600,3.000546142578125,0.4169737697862666,-1.0844984055461528,0.7618007659867567
1683999299332187800,3.010588134765625,-0.083303451596127,-0.6267395020982931,1.2712640761730758
1683999299342229900,3.02063037109375,-0.01870396736617939,-0.2281360627076052,1.3213419913084852
1683999299352272300,3.030672607421875,-0.16746541876488708,-0.08815860744324194,1.217952251350929
1683999299362314400,3.04071484375,1.206449866438131,2.1302137373461094,0.667195796927751
1683999299372356600,3.0507568359375,-0.3676197826163229,-0.588337898244501,0.14394521729488044
1683999299382398600,3.060799072265625,0.33281332257599394,0.8864650725756174,-0.3588891030075375
1683999299392440800,3.070841064453125,-0.4038657546063007,-0.43555355071463364,-0.409924030405032
1683999299402482900,3.08088330078125,-0.07807448502185796,-0.41832923889090207,0.06355428705938779
1683999299412525000,3.09092529296875,0.12442082167530905,0.09355640420752268,0.6949911116768063
1683999299422567300,3.1009677734375,1.643122196304081,1.931723117808327,0.8342223166722149
1683999299432609500,3.111009765625,0.9351593257033314,-0.3923463822743168,-0.10063028339046687
1683999299442651600,3.121052001953125,0.2185623346790413,-1.1589765547831823,-0.2685804366014909
1683999299452693600,3.131093994140625,0.40991580484156,0.2833490372819876,0.1328816412756272
1683999299462735800,3.14113623046875,0.4971817730962331,0.5090913772463144,0.21144294741224326
1683999299472777900,3.15117822265625,-0.045090258128674884,0.12038326254469585,0.7261605264467862
1683999299482820000,3.161220458984375,-0.6181029079919959,-0.13263511669067982,1.2133722304643544
1683999299492862400,3.1712626953125,-0.13790994877272258,0.4882812500208103,1.3153376578467493
1683999299502904600,3.181304931640625,1.4195679426041312,0.704653739937719,1.0530652998363652
1683999299512946600,3.191346923828125,3.1622476578419585,0.7975840568609864,0.10708045955128578
1683999299522988600,3.20138916015625,3.933645963801336,0.8426995276224785,-0.5541148186674342
1683999299533030800,3.21143115234375,3.78332328793316,0.40682888045929083,-0.864321231795883
1683999299543072900,3.221473388671875,2.7398703097549593,0.047938346984552294,-0.9727540017199087
1683999299553115100,3.231515380859375,1.3071568013036494,-0.11621570579268037,-0.38604068762475346
1683999299563157200,3.2415576171875,0.18100038169074983,1.03860425948926,1.1150226593457746
1683999299573199600,3.251599853515625,-1.0745899677410715,0.3089704513891344,2.2660636901026177
1683999299583241600,3.26164208984375,-1.8188128472741985,-0.3179740904553475,2.8406071662645465
1683999299593283800,3.27168408203125,-2.3847558499447183,-0.40090179439894413,2.4978013040218117
1683999299603325900,3.281726318359375,-1.6084289549585449,0.3885869980243629,2.389014244063165
1683999299613368000,3.291768310546875,0.597374081542899,3.04212236410084,2.3301358222018482
1683999299623410100,3.301810546875,-0.260849297070849,1.5117406845935708,2.1519517898414855
1683999299633452200,3.3118525390625,-0.16383874427350822,2.728358268724041,2.5895442961181394
1683999299643494600,3.32189501953125,-0.9859855771367786,1.8047561645062307,1.2227497100965492
1683999299653536600,3.33193701171875,-0.5047806502116504,0.7637271882011762,0.40086364740462915
1683999299663578800,3.341979248046875,-0.16409224274154913,-1.0706014631809395,0.23828649510187136
1683999299673620900,3.352021240234375,0.4112350345711776,-4.142075538747867,0.15362024315259706
1683999299683663000,3.3620634765625,1.1098489760971502,-5.654648780720909,1.3808794022259012
1683999299693705100,3.37210546875,2.2976963521138,-3.302477836577217,2.194973468729888
1683999299703747600,3.38214794921875,1.235774516965203,-1.2575778960462025,2.387194156765346
1683999299713789600,3.39218994140625,-0.6069405674419157,-0.07917499544020011,2.0618062017939254
1683999299723831600,3.402232177734375,-1.2987926006396098,0.942835807880607,1.4756107329917598
1683999299733873800,3.412274169921875,-0.9869674444075359,1.5076651573112385,0.9450931548529862
1683999299743916000,3.42231640625,-0.8616549372290183,1.315063953476272,0.8481159211253734
1683999299753958100,3.4323583984375,-0.7268936635009184,1.229020118651168,0.8862991333151581
1683999299764000200,3.442400634765625,-0.8483837246419533,0.7203836440778408,0.6038789748767445
1683999299774042600,3.45244287109375,-0.7541734574995135,0.8279209137161342,0.46080255511218465
1683999299784084600,3.462485107421875,-0.6317527891028686,1.0767259597055234,0.5269327164374606
1683999299794126800,3.472527099609375,-0.5843309163017176,1.3705592156263318,0.6238741874807164
1683999299804168900,3.4825693359375,-0.7850109338012319,1.1880226134708542,0.40141630159830155
1683999299814211000,3.492611328125,-0.8664824365565065,1.1234130858202214,0.15386152253014818
1683999299824253100,3.502653564453125,-0.8264429568866379,0.9329347609699182,-0.15883231158877753
1683999299834295200,3.512695556640625,-0.568617582359088,1.1577644348397016,-1.0740056038643562
1683999299844337300,3.52273779296875,-0.014280080670146402,2.112402916074396,-1.3176538943101892
1683999299854379600,3.532780029296875,-0.009189069127248296,1.8820662497133034,-1.4228885174246768
1683999299864421800,3.542822265625,-0.29260540002526253,2.2880234717416776,-1.0213000774232686
1683999299874463900,3.5528642578125,-0.8819622994709082,2.023628234915374,-0.6645543574189807
1683999299884506000,3.562906494140625,-1.2768485547308224,1.430350303708317,-0.5801444052512998
1683999299894548100,3.572948486328125,-1.2713824512058476,0.5909214019704969,-0.643548011795246
1683999299904590300,3.58299072265625,-1.0411943197033326,-1.1750411988297724,-0.9297704695791814
1683999299914632400,3.59303271484375,-0.6449923516569828,-3.1451587676351203,-1.199357986482584
1683999299924674700,3.6030751953125,0.06584191318799233,-4.6498508453762275,-1.5242846010952575
1683999299934716800,3.6131171875,0.85742342466817,-4.961669921763683,-1.9498155118260825
1683999299944759000,3.623159423828125,1.4109607934672712,-4.120951652596615,-2.275098323761619
1683999299954801100,3.633201416015625,1.0845340490362676,-2.163334846519077,-1.8456771372607608
1683999299964843200,3.64324365234375,-0.02031326308282016,-1.080905914288245,-0.822593450572108
1683999299974885300,3.65328564453125,-0.8984310626599248,-1.4159231186811594,-0.13026618956564345
1683999299984927600,3.663328125,-1.0480465889511439,-1.9180984497071847,0.33220624917770797
1683999299994969800,3.6733701171875,-0.7356410025622072,-1.3818111419806713,1.0124487876087294
1683999300005011900,3.683412353515625,-0.053498983406264904,-0.6648921967246954,1.2038397788720316
1683999300015054000,3.693454345703125,0.6695157290725193,-0.6371822357550957,0.6744489669590437
1683999300025096100,3.70349658203125,1.1663526296400852,-0.37837982186371616,0.09627199169627423
1683999300035138200,3.71353857421875,1.057758927395923,-0.4522056580133033,-0.22532129292226022
1683999300045180300,3.723580810546875,0.8393365144449477,-0.32449436206021615,-0.418884515705509
1683999300055222600,3.733623046875,0.973988771341562,0.3944921495090179,-0.8318567275656291
1683999300065264800,3.743665283203125,1.3027541637476225,0.7276463509293621,-0.8383686541872867
1683999300075306900,3.753707275390625,1.2400926352296162,0.004447937145320723,-0.5859258174108846
1683999300085349000,3.76374951171875,1.181407213226892,-0.5277757643955324,-0.4277639390303079
1683999300095391200,3.77379150390625,1.2130681275967525,0.053775787420840805,-0.5199389457461357
1683999300105433300,3.783833740234375,1.2128393649627593,0.6435317994161419,-0.7951200008757126
1683999300115475600,3.7938759765625,0.8216960429769803,0.797633171092028,-1.1613562107816153
1683999300125517700,3.803918212890625,0.384678363783541,0.8593831061206596,-1.365266323004853
1683999300135559900,3.813960205078125,0.029576063107672166,0.5499181747895107,-1.6637690067643915
1683999300145602000,3.82400244140625,-0.05904459936539524,0.28902149200017446,-1.8162143229151355
1683999300155644100,3.83404443359375,-0.16411662102206215,0.4423303603521354,-1.910910606575103
1683999300165686200,3.844086669921875,-0.13687825213477067,0.5630426407067712,-1.8694963454333646
1683999300175728300,3.854128662109375,-0.19296503067267404,0.09983825693571236,-2.0032501221104533
1683999300185770600,3.864171142578125,-0.20430660261115832,0.20437335962158268,-1.9642076493509435
1683999300195812800,3.874213134765625,-0.03871440896534123,0.245055198568472,-1.5364069939596308
1683999300205854900,3.88425537109375,0.14774131774958293,-0.6389837266409494,-0.9902150630174387
1683999300215897000,3.89429736328125,0.38893079764850963,-0.6724510192817841,-0.35601472858255884
1683999300225939100,3.904339599609375,0.4675729276105344,-0.2582569123220441,0.008452177069190811
1683999300235981200,3.914381591796875,0.31242394456627604,-0.24168205274946022,0.09360909458268954
1683999300246023300,3.924423828125,-0.058759212413786906,0.36976051335485827,-0.09935832008174823
1683999300256065600,3.934466064453125,-0.2845432758610505,-0.5926923751605808,-0.2545144557979069
1683999300266107800,3.94450830078125,-0.06710147860729669,-0.377930641154129,-0.05460190773465047
1683999300276149900,3.95455029296875,-0.025156974728476982,-0.1336793899367707,-0.10592126859152752
1683999300286192000,3.964592529296875,0.015199661296929835,-0.06837654125595724,-0.1667242049834816
1683999300296234200,3.974634521484375,0.09300374997010331,0.1817207336641694,-0.3024737836008924
1683999300306276300,3.9846767578125,0.11762785923261088,0.3712596891800375,-0.46499633798628476
1683999300316318400,3.99471875,0.14841794979327125,0.5471854209032089,-0.7111539841248193
1683999300326360800,4.00476123046875,0.17466878899078728,0.6791687012293633,-0.8132770061076532
1683999300336402900,4.01480322265625,0.2388417720705888,0.8008384705078792,-0.9558324812648562
1683999300346445000,4.024845458984375,0.3362963200362186,0.8288164139172746,-1.085530757966328
1683999300356487100,4.034887451171875,0.4051206112706167,0.7657556532160202,-1.099351406170921
1683999300366529200,4.0449296875,0.47177076345065777,0.7306900025139479,-0.9796605110192609
1683999300376571300,4.0549716796875,0.5183591841738954,0.6799559592841868,-0.8870925903533021
1683999300386613400,4.065013916015625,0.5396685601151304,0.5632743836520967,-0.7510929108483384
1683999300396655800,4.07505615234375,0.43666696546161177,0.42631816863862687,-0.6201558113684436
1683999300406697900,4.085098388671875,0.2241702079869466,0.30002117154784724,-0.5083634854256976
1683999300416740000,4.095140380859375,-0.06870412834737218,0.12381267552115384,-0.31477093698785197
1683999300426782100,4.1051826171875,-0.45919346822423474,0.014181137024983715,-0.1014358996327482
1683999300436824200,4.115224609375,-0.8165874482101003,-0.07749748213750322,0.04322552674001941
1683999300446866400,4.125266845703125,-1.020533323133811,-0.1924390792675895,0.12122488028099719
1683999300456908500,4.135308837890625,-1.0494079590008223,-0.19204235059556612,0.1762316227595678
1683999300466950800,4.145351318359375,-0.9480738640458161,-0.1142301559142914,0.12930035605595963
1683999300476992900,4.155393310546875,-0.7944338321076806,-0.14729881275591192,0.08332729334232879
1683999300487035100,4.165435546875,-0.6163077355024377,-0.17064285271379698,-0.1426045894087888
1683999300497077200,4.1754775390625,-0.37318778024574895,-0.1849775314512819,-0.49562215811859217
1683999300507119300,4.185519775390625,-0.34487318982901305,-0.18914699552129333,-0.4824426174742965
1683999300517161400,4.195561767578125,-0.4380509853093952,-0.22862529757385,-0.2737863062638604
1683999300527203800,4.205604248046875,-0.5959846971435886,-0.2373952864699719,-0.08605694771786504
1683999300537245900,4.215646240234375,-0.8253576753734921,-0.23272037510963325,-0.03459572801783186
1683999300547288000,4.2256884765625,-1.2112653256723207,-0.10253238680387611,0.019754648251079466
1683999300557330100,4.23573046875,-1.5744345187666653,0.06817436220640863,-0.01731610306161357
1683999300567372200,4.245772705078125,-1.7886054515765728,0.24038314821301277,-0.040857076550060274
1683999300577414300,4.255814697265625,-1.7740726470944679,0.3469495773051984,0.032724857196677025
1683999300587456400,4.26585693359375,-1.5005009174866974,0.1732044220167986,0.1944909096071298
1683999300597498800,4.275899169921875,-1.0280883311737483,-0.09845924379510074,0.3143002987002941
1683999300607540900,4.28594140625,-0.6435284614354705,-0.1664724350694631,0.22885704037317475
1683999300617583000,4.2959833984375,-0.37870740899668254,-0.10431289662276558,-0.31649327281010026
1683999300627625100,4.306025634765625,-0.1569659710631851,-0.340054512150148,-0.6104693413273156
1683999300637667200,4.316067626953125,0.09370458119598728,-0.17556667329353495,-0.8955428600618278
1683999300647709400,4.32610986328125,-0.31162929526845723,-0.4097747802077076,-0.8915715217397577
1683999300657751700,4.336152099609375,-1.0437309741809533,-0.4995641708128009,-0.6737511157958462
1683999300667793800,4.3461943359375,-1.787980318187291,-1.492771148826279,-0.04008793838578756
1683999300677836000,4.356236328125,-1.8889412880212886,-1.1196212768860654,0.6504676341987293
1683999300687878100,4.366278564453125,-1.059892654323247,-1.4472303390284624,1.1016211509272935
1683999300697920200,4.376320556640625,0.34092569346382784,-1.6274547576758127,1.1970736980942556
1683999300707962300,4.38636279296875,1.3602447508615647,-0.2891378403153892,0.93896842004635
1683999300718004600,4.396405029296875,1.2779076098210427,-1.24995326989862,0.10469365118721455
1683999300728046800,4.406447265625,1.30534362792479,-1.0565872192182235,-0.41089582458159496
1683999300738088900,4.4164892578125,1.1321086883938842,-0.28498935687828975,-0.3577599526540425
1683999300748131000,4.426531494140625,0.6638763546232922,0.35138320917164156,-0.14139223101200166
1683999300758173100,4.436573486328125,0.08695197092199103,0.8426666260839688,0.08865427965627422
1683999300768215200,4.44661572265625,-0.29269087323793963,1.2731857298651714,-0.1029434204224311
1683999300778257300,4.45665771484375,-0.3844833373677413,1.3407859803119992,-0.3872435092147708
1683999300788299600,4.4667001953125,-0.3246512411197861,1.1590242385256886,-0.4459890127702495
1683999300798341800,4.4767421875,-0.14455151545775724,0.9097404479567002,-0.37017214307786783
1683999300808383900,4.486784423828125,0.21483504755481375,0.752580642735048,-0.25680768484494304
1683999300818426000,4.496826416015625,0.6185283064743922,0.5918922424449895,-0.38665401935257115
1683999300828468100,4.50686865234375,1.0274389982670822,0.31425476057980833,-0.5359739065532346
1683999300838510600,4.516910888671875,1.5730197429414263,0.24153804785101698,-0.6766386032244688
1683999300848552600,4.526953125,1.674890399127099,-0.042839050308204896,-0.4707113505461324
1683999300858594700,4.5369951171875,1.3966836929347684,-0.08256721511565704,-0.05570244780945848
1683999300868636800,4.547037353515625,1.1613306999198425,-0.0021686555126014502,0.2178149223285576
1683999300878679000,4.557079345703125,0.6799416541274573,1.7105860709385288,0.7225255966354114
1683999300888721100,4.56712158203125,0.9317930937034465,1.0205621718290196,0.6832435129939547
1683999300898763400,4.577163818359375,1.382609367364706,3.0127878188658923,1.0809940100622988
1683999300908805600,4.5872060546875,1.1598262786708555,3.64465856561858,1.2469948529207966
1683999300918847600,4.597248046875,0.9557695388020677,3.432823180995232,1.0441398620871543
1683999300928889800,4.607290283203125,0.8618357776660092,2.682709693772799,0.7467153071762885
1683999300938931900,4.617332275390625,0.8768175244741672,0.9601459503700219,0.43007278449251307
1683999300948974000,4.62737451171875,1.1067965029574136,-0.9019222259432046,0.0175843238556402
1683999300959016400,4.637416748046875,1.274570703563795,-3.8336935044672096,-0.6199190615609829
1683999300969058600,4.647458984375,1.559846639599221,-6.327402115045416,-1.2609750032762583
1683999300979100600,4.6575009765625,2.0399909018472853,-7.7130117415757224,-2.170200109460878
1683999300989142600,4.667543212890625,3.2909755706347648,-5.756256103464684,-3.6228556634567197
1683999300999184800,4.677585205078125,4.748882293770305,-1.0228796004776777,-4.380794525073743
1683999301009226900,4.68762744140625,4.6015930175491135,1.0768165588078145,-3.968987941768269
1683999301019269000,4.69766943359375,3.2344729899854223,0.5141458511341184,-2.8923485278399244
1683999301029311400,4.7077119140625,1.9250023364442053,-0.10447692881819644,-2.2280824184312262
1683999301039353600,4.71775390625,1.1664581298677934,-0.10078620906906015,-1.8298230172163625
1683999301049395600,4.727796142578125,0.6655436156799214,0.02915668489499593,-1.3416529894339877
1683999301059437700,4.737838134765625,0.23929458848697782,-0.011343955973618704,-0.8214764595187924
1683999301069479900,4.74788037109375,-0.19582706688727516,-0.14572620397352398,-0.45697617538768137
1683999301079522000,4.75792236328125,-0.5373798014040394,-0.15681457533045012,-0.09361195565999356
1683999301089564300,4.76796484375,-0.7474414110528709,-0.12152957901161904,0.16304707536368102
1683999301099606400,4.7780068359375,-0.8219270705647524,-0.14017677297018435,0.30898499488019665
1683999301109648600,4.788049072265625,-0.7700213193250929,-0.135879516659454,0.44090199477856634
1683999301119690600,4.798091064453125,-0.6783761978146009,-0.07256889332376164,0.5395531654675838
1683999301129732800,4.80813330078125,-0.5894455907908248,-0.1726016998178437,0.5503287314834858
1683999301139774900,4.81817529296875,-0.5615449546120669,-0.2736043930228147,0.46383666980260857
1683999301149817000,4.828217529296875,-0.5537907482032535,-0.5071983338223514,0.339163780320949
1683999301159859400,4.838259765625,-0.5762985943303148,-0.6102647782054854,0.24147081380810362
1683999301169901600,4.848302001953125,-0.5463353395763074,-0.7738304138702506,0.03618788723437104
1683999301179943600,4.858343994140625,-0.39218157531539705,-0.707853317453335,-0.2030615806789812
1683999301189985600,4.86838623046875,-0.182704150646643,-0.5842237472900458,-0.23496937760251407
1683999301200027800,4.87842822265625,0.030551284595877866,-0.5890693665285122,-0.3030889032888901
1683999301210070200,4.888470703125,0.3225376903334061,-0.6620073319983799,-0.2802129983448535
1683999301220112300,4.8985126953125,0.5497363806121655,-0.4419231415965026,-0.26584112645437513
1683999301230154400,4.908554931640625,0.6483069657687541,-0.192236900342655,-0.15413212788220831
1683999301240196600,4.918596923828125,0.4615092873296442,-0.01157474509789321,0.036344885952923976
1683999301250238600,4.92863916015625,0.1911024152058961,0.17318344103038658,0.2293409107662161
1683999301260280800,4.93868115234375,0.27768242359875794,1.0822639464731738,0.5609245300607348
1683999301270323100,4.9487236328125,0.03960594553102708,1.1372804642286563,0.5198160409587282
1683999301280365200,4.958765625,-0.09329316018075169,0.7993631363266461,0.2761740682979671
1683999301290407300,4.968807861328125,-0.07457339758218065,0.3806591033894103,-0.044335126936631726
1683999301300449500,4.978849853515625,0.10538438715979717,0.2375631331408842,-0.32992613315924363
1683999301310491600,4.98889208984375,0.29014468197353477,0.11163902287396398,-0.6110048293489788
1683999301320533600,4.99893408203125,0.5420302151944885,0.28453445430970226,-0.6712479592043781
1683999301330576000,5.0089765625,0.692365050362196,0.4666299820574735,-0.6690987347726597
1683999301340618200,5.0190185546875,0.6893584729014507,0.5554323196742402,-0.6160111427281609
1683999301350660300,5.029060791015625,0.6564440727187726,0.5727558134859397,-0.49971151349246423
1683999301360702400,5.039102783203125,0.5682622788749019,0.5594015121152852,-0.37472903713265665
1683999301370744600,5.049144775390625,0.5103349684346697,0.5034351349404885,-0.19783651814809242
1683999301380786600,5.05918701171875,0.4704829454761234,0.4049339294305468,-0.11429762855509014
1683999301390828600,5.06922900390625,0.3924308420138877,0.15884208673822434,-0.047256588932079596
1683999301400871100,5.079271484375,0.29926472893306755,-0.043569564786030766,-0.06401622293181318
1683999301410913200,5.089313720703125,0.24536433813779207,-0.2765197754637504,-0.0955898762111997
1683999301420955300,5.099355712890625,0.1250344365759421,-0.5376462936099539,-0.16205811492519345
1683999301430997400,5.109397705078125,0.09775304037591924,-0.550084113951389,-0.059924364122029464
1683999301441039600,5.11943994140625,0.21743738659479359,-0.46287632003495055,0.13110792635172408
1683999301451081900,5.129482421875,0.34942194814445793,-0.3004837036606269,0.379489064193223
1683999301461124000,5.1395244140625,0.34569457166948586,-0.11101436610409816,0.6836752890724177
1683999301471166100,5.14956640625,0.22324305761576588,0.017469405957390948,0.6975092888591018
1683999301481208200,5.159608642578125,0.05891576411769841,0.07631015785746019,0.5683379172436086
1683999301491250400,5.169650634765625,-0.06716558331167885,0.08998680117998772,0.5722496510606394
1683999301501292600,5.179693115234375,-0.1512025893511634,0.15187263492644346,0.6098849773500106
1683999301511334800,5.1897353515625,-0.18252398075110896,0.1518487930847775,0.7233204841663318
1683999301521376900,5.19977734375,-0.25024685265409474,0.10891914382244161,0.7790802717184201
1683999301531419100,5.2098193359375,-0.37328174709333306,0.02550888062165835,0.785920500871602
1683999301541461200,5.219861572265625,-0.4350875019097734,-0.00037670144656245093,0.7576797009799462
1683999301551503300,5.229903564453125,-0.43039023869361875,-0.023780822575114807,0.7349028586964428
1683999301561545400,5.23994580078125,-0.4376237392554672,0.01742362966361976,0.7318999766138727
1683999301571587800,5.24998828125,-0.4089223443956252,0.0036935807491109487,0.7008188962435984
1683999301581629900,5.2600302734375,-0.39330011622775984,0.0020561219245840887,0.7234034538228139
1683999301591672000,5.270072265625,-0.3873684109143525,0.002887725776310033,0.7829380629895923
1683999301601714100,5.280114501953125,-0.3614076674575409,-0.02731132503149409,0.841021239806029
1683999301611756200,5.290156494140625,-0.34008562567154954,0.021314620872264083,0.9020802975388873
1683999301621798300,5.30019873046875,-0.26336744419519875,0.007584571805946193,1.0152386427247173
1683999301631840600,5.310240966796875,-0.19774466759327344,0.04858779915795972,1.1743007899158127
1683999301641882800,5.320283203125,-0.13619771584721263,0.1161413192565833,1.2920410633093293
1683999301651924900,5.3303251953125,-0.0645477174539974,0.1916837692013366,1.3801903725039324
1683999301661967000,5.340367431640625,0.04073885075554244,0.3104505538117681,1.439546346616989
1683999301672009100,5.350409423828125,0.1390907764063542,0.49533939354360884,1.4831200837992204
1683999301682051600,5.360451904296875,0.16792726512722736,0.6253471374968895,1.533848524139014
1683999301692093600,5.370493896484375,0.2053727209269005,0.5979557037956804,1.5889688730175766
1683999301702135600,5.3805361328125,0.1769020259425395,0.500438690132268,1.6997332571472892
1683999301712177800,5.390578125,0.16245850931521905,0.45156097408092993,1.7113814352813037
1683999301722220000,5.400620361328125,0.1379519401536527,0.35632038103983676,1.7196061609662852
1683999301732262100,5.410662353515625,0.1647925974791375,0.23667430877358617,1.7079288959600314
1683999301742304400,5.420704833984375,0.15293225640476082,-0.01998043056787433,1.7423753738614418
1683999301752346600,5.430746826171875,0.1159597634733862,-0.36414051065447994,1.743155717759567
1683999301762388600,5.4407890625,0.12341970204611866,-0.6836776733123416,1.7554204462566179
1683999301772430800,5.4508310546875,0.1649148762526353,-0.8637771606474273,1.7518405913505137
1683999301782472900,5.460873291015625,0.1874901055564723,-0.9869594574243563,1.700739026104152
1683999301792515000,5.470915283203125,0.22214841826689688,-1.007354736333901,1.5729715823843238
1683999301802557100,5.48095751953125,0.25852900752365254,-0.9898443222105798,1.4708399773051877
1683999301812599500,5.490999755859375,0.28121927386313667,-0.9416666031812366,1.327992439218916
1683999301822641600,5.5010419921875,0.29893237352858054,-0.8270530701783029,1.2406196594196424
1683999301832683600,5.511083984375,0.3136515616920171,-0.6724433898974606,1.1251351832316543
1683999301842725800,5.521126220703125,0.3232765197783213,-0.4827260972078547,1.041101932412103
1683999301852768200,5.53116845703125,0.2899414302298303,-0.305721282837964,0.8215429783156619
1683999301862810300,5.541210693359375,0.21078333269948937,-0.06614112841881335,0.4369595050719748
1683999301872852400,5.551252685546875,0.07975995539919532,0.14393997190347926,0.1010024548132354
1683999301882894600,5.561294921875,-0.07825773965897213,0.3445301056731928,-0.26437520977671874
1683999301892936600,5.5713369140625,-0.27702820301639447,0.5173339842759274,-0.5823266505119585
1683999301902978700,5.581379150390625,-0.47482466705830917,0.7008543012791065,-0.7857827543639888
1683999301913021100,5.59142138671875,-0.7203464507752706,0.8424835204447332,-0.8741959332056277
1683999301923063200,5.601463623046875,-1.1635062695142506,0.9346857071751596,-0.764477789276919
1683999301933105300,5.611505615234375,-2.0960197448661986,0.7903909681652337,-0.4172180592552737
1683999301943147400,5.6215478515625,-2.4758617877777507,0.6553153991543583,0.21618771562101033
1683999301953189600,5.63158984375,-2.2183451652161947,0.6221332550666407,0.7927723526249144
1683999301963231600,5.641632080078125,-1.7514288425114035,0.5660438536411672,1.1025795937064398
1683999301973274000,5.65167431640625,-1.4213185309578238,0.4580163954565815,1.1020137071690057
1683999301983316100,5.661716552734375,-1.4457218648743875,0.41476535797100156,0.8254104256664675
1683999301993358300,5.671758544921875,-1.832259893502458,0.4791631698540936,0.2552140354557493
1683999302003400400,5.68180078125,-2.4061996936807297,0.4054727553499472,-0.2871614693757876
1683999302013442600,5.6918427734375,-2.749447345801598,0.11305427562933745,-0.5111875534837211
1683999302023484800,5.70188525390625,-2.5498142242067425,-0.2140254975160597,-0.6125408409770475
1683999302033527000,5.71192724609375,-1.8652877807206072,-0.4567909240749365,-0.622388839879616
1683999302043569100,5.721969482421875,-0.9423570036860696,-0.48413276670901956,-0.7959804534418571
1683999302053611200,5.732011474609375,-0.02947360272125017,-0.49675846112849303,-0.7933528422644521
1683999302063653300,5.7420537109375,0.5274648664947484,-0.6420698167094461,-0.8429083227772461
1683999302073695400,5.752095703125,0.8418110608925732,-0.988224029521729,-0.9106209276453734
1683999302083737600,5.762137939453125,1.006394505447743,-1.283307075518034,-0.9854301810266118
1683999302093779900,5.77218017578125,1.1765769719379198,-1.600800514286036,-1.0611386298934444
1683999302103822000,5.782222412109375,1.3716174363948326,-1.92089843750488,-1.105499863569265
1683999302113864100,5.792264404296875,1.5683457853125884,-2.1857767104689594,-1.1344488859544026
1683999302123906200,5.802306640625,1.6776511669983933,-2.4358778001228862,-1.154580593016786
1683999302133948300,5.8123486328125,1.6490185259839656,-2.3777751922154957,-0.9486382603882411
1683999302143990600,5.82239111328125,1.4785902498703076,-2.0776510237239543,-0.6364896298951191
1683999302154032800,5.83243310546875,1.1982071399291276,-1.4752750395127745,-0.35990488521428876
1683999302164074900,5.842475341796875,0.8025920987125075,-0.47663497924038745,-0.3452912568506101
1683999302174117000,5.852517333984375,0.4636552332430567,0.3275575638460379,-0.5713477134369267
1683999302184159200,5.8625595703125,0.26753711699285604,0.7283115386451309,-0.7802828550193833
1683999302194201600,5.872601806640625,0.31679248809452193,0.7249937057956221,-0.9184579848439537
1683999302204243600,5.88264404296875,0.431483149573829,0.5938396453510827,-0.9313715697510864
1683999302214285700,5.89268603515625,0.4759234189620643,0.5695333479881247,-0.9631150961692213
1683999302224327900,5.902728271484375,0.5506005288271423,0.635331153966406,-1.0220273733050176
1683999302234370000,5.912770263671875,0.5680971144490663,0.7646303175669599,-1.0240844486960898
1683999302244412100,5.9228125,0.6548823119187923,0.8900899887057219,-1.1385915279194097
1683999302254454200,5.9328544921875,0.7800809144439013,1.0661725997718008,-1.1334195137918117
1683999302264496600,5.94289697265625,0.9314504265963615,1.1894369125273876,-1.0409976243490995
1683999302274538600,5.95293896484375,0.9488438965031059,1.1711359023290648,-0.9288245439035201
1683999302284580800,5.962981201171875,0.8498353362930428,1.1761255263543227,-0.8934670686549187
1683999302294622900,5.973023193359375,0.7258803844382938,1.1208267210409817,-0.8623365761151177
1683999302304665000,5.9830654296875,0.5958915948273604,0.9839401245954156,-0.7852387429821736
1683999302314707400,5.993107666015625,0.5493310688882714,0.6320428849042409,-0.6557514667329538
1683999302324749600,6.00314990234375,0.515046835062372,0.3310451507675318,-0.615003228119976
1683999302334791600,6.01319189453125,0.4725615977147951,-0.11482620227793593,-0.603481173441137
1683999302344833600,6.023234130859375,0.3519111872319321,-0.3685369493224574,-0.588702321044064
1683999302354875800,6.033276123046875,0.2417238950486277,-0.5139188765513036,-0.7270386218995168
1683999302364918200,6.043318603515625,0.18342816839118997,-0.46263504025092245,-0.7820037602439798
1683999302374960300,6.053360595703125,0.08024072644220125,-0.12461280813668855,-0.7583081723427282
1683999302385002400,6.06340283203125,-0.03297770024761397,0.25750160233412495,-0.6298804281778542
1683999302395044600,6.07344482421875,-0.10788273817475766,0.5567913056693976,-0.7462083101218542
1683999302405086600,6.083487060546875,-0.11407041547035811,0.7524709702097124,-0.9088137149400464
1683999302415128800,6.093529052734375,-0.0453178882384341,0.8500194549474983,-0.9776111839852578
1683999302425171100,6.103571533203125,0.01903796188873788,0.9238662720161699,-0.9620093107542317
1683999302435213200,6.113613525390625,0.047897100536667674,0.9239034652724879,-0.8910167218463073
1683999302445255300,6.12365576171875,0.020072579220526077,0.8458423614224442,-0.9351586103052704
1683999302455297500,6.13369775390625,0.11596238616554955,0.5517797470456812,-0.9981695413596932
1683999302465339600,6.143739990234375,0.36293196677667217,0.28148269660892056,-1.043568253591357
1683999302475381900,6.1537822265625,0.4202190638066207,0.28341484062862676,-1.0148681401979551
1683999302485424000,6.163824462890625,0.4251714946113368,0.31762599947585124,-0.8301122187550901
1683999302495466200,6.173866455078125,0.6047111750005774,0.35213375084448506,-0.6512320042754838
1683999302505508300,6.18390869140625,0.6197420358972571,0.4131307601618825,-0.6282495260747853
1683999302515550400,6.19395068359375,0.5568300485986627,0.3842773436584833,-0.6445875167945996
1683999302525592600,6.203992919921875,0.5054464339439485,0.275938034071839,-0.5051506758349987
1683999302535634600,6.214034912109375,0.5033074616708179,0.10251998883058581,-0.29233562957675224
1683999302545677000,6.224077392578125,0.487146854372057,-0.08652400964385414,-0.0687714814304329
1683999302555719100,6.234119384765625,0.44845461848280455,-0.17948818201589986,0.06098473070044268
1683999302565761200,6.24416162109375,0.4587495326267619,-0.24851512903615464,0.10763955116845436
1683999302575803300,6.25420361328125,0.5349467992885357,-0.1311798097060212,0.16297316549941454
1683999302585845600,6.26424609375,0.6089278459760437,-0.09268379211351492,0.1608626842957223
1683999302595887800,6.2742880859375,0.6530942918095731,-0.04919910432570862,0.16737413392793793
1683999302605929900,6.284330322265625,0.537687182361069,-0.11321640020183464,0.12795138361636968
1683999302615972000,6.294372314453125,0.47339630119549336,-0.15821647639705075,0.13677060603083993
1683999302626014100,6.30441455078125,0.47237443927067485,-0.11540412889894884,0.25628221033171444
1683999302636056200,6.31445654296875,0.5933606623958738,0.05288219467096382,0.31396639352047034
1683999302646098600,6.3244990234375,0.8097829223425387,0.1649780271961348,0.2582479715088226
1683999302656140600,6.334541015625,0.9068436623490513,0.11921405795142118,0.11625528322576233
1683999302666182800,6.344583251953125,0.7208266854810551,-0.020747184654389482,-0.14926910383157965
1683999302676224900,6.354625244140625,0.1627458333923781,-0.17096805575783303,-0.8550366758049635
1683999302686267100,6.36466748046875,-0.5471563338900846,-0.41847515093691007,-1.6594332456360936
1683999302696309200,6.37470947265625,-1.3363535404330913,-0.7920618057766259,-2.46266603465043
1683999302706351600,6.384751953125,-1.9048391581255895,-1.400978088307313,-3.0141410827823107
1683999302716393600,6.3947939453125,-2.218813896189176,-2.170517921310315,-3.2042860986011794
1683999302726435800,6.404836181640625,-2.434468030909987,-2.821346282941354,-3.077874183585704
1683999302736477900,6.414878173828125,-2.059235095918886,-3.054065704237665,-2.40558719629042
1683999302746520000,6.42492041015625,-1.0848478078707238,-2.4408864976289952,-1.542771458591558
1683999302756562400,6.434962646484375,-0.09374904634126494,-1.4897489548010507,-1.1546337603941157
1683999302766604500,6.4450048828125,0.6306946278949971,-0.5844240187917341,-1.0884439945482332
1683999302776646600,6.455046875,1.023915290991405,0.19569969180478355,-1.2424606085846266
1683999302786688600,6.465089111328125,1.1743416785550753,0.7061214448836561,-1.344417572005615
1683999302796730800,6.475131103515625,1.3439617157623869,0.8610191345850747,-1.048371792020454
1683999302806772900,6.48517333984375,1.547007322181425,0.5883579253565376,-0.5719352364725023
1683999302816815300,6.495215576171875,1.7007074357168102,0.3133678437385958,-0.24616563311334158
1683999302826857400,6.5052578125,1.8240802288117521,0.16730403895983886,-0.11031663398594199
1683999302836899600,6.5152998046875,1.9155461788536345,0.12159728995651968,-0.1296125649349049
1683999302846941600,6.525342041015625,1.9253003598532643,0.1527318953851585,-0.20352625847174663
1683999302856983700,6.535384033203125,1.935964107567682,0.17012882224087453,-0.2514865994019762
1683999302867026100,6.545426513671875,1.8909639119839574,0.14756202704077676,-0.3106236456668346
1683999302877068200,6.555468505859375,1.8497257231218318,0.04428100589129623,-0.3111752270332451
1683999302887110300,6.5655107421875,1.825654506648408,0.09427928913739335,-0.28444755066336114
1683999302897152400,6.575552734375,1.781184673132781,0.3137350081859538,-0.34553748363028935
1683999302907194600,6.585594970703125,1.7070242166427254,0.4537544249711808,-0.2942339776319512
1683999302917236600,6.595636962890625,1.6219638585820058,0.6719999313846238,-0.27836775781090267
1683999302927279000,6.605679443359375,1.554486036271273,0.6266336440421322,-0.18029552701419937
1683999302937321100,6.615721435546875,1.5119016171672148,0.5046167372589137,-0.21003025764871422
1683999302947363200,6.625763671875,1.504354953654261,0.29662704464127143,-0.2778374552983111
1683999302957405400,6.6358056640625,1.4968550204405002,-0.00911140441591628,-0.31152123206288157
1683999302967447600,6.645847900390625,1.5426048040104003,-0.20220947268137102,-0.34412026408690827
1683999302977489800,6.65589013671875,1.62529683107588,-0.1181201933519072,-0.3698037862858471
1683999302987532000,6.665932373046875,1.7165889739919364,-0.020172119238235694,-0.3446509838549262
1683999302997574100,6.675974365234375,1.788543224292035,-0.02301025378974178,-0.2844945786804727
1683999303007616200,6.6860166015625,1.8795967102137443,-0.07145500185243724,-0.18700307593583354
1683999303017658300,6.69605859375,1.9527494907397343,-0.15097427370145014,-0.09542328120488372
1683999303027700400,6.706100830078125,2.01818013188527,-0.18251228338438413,-0.06911742687882966
1683999303037742800,6.71614306640625,2.0478281973755554,-0.23054695138606315,-0.05538469555119643
1683999303047784900,6.726185302734375,2.1151125430899027,-0.1541643142200997,0.045389175503318335
1683999303057827000,6.736227294921875,2.1558439730564993,-0.05413532258086864,0.16937392947643368
1683999303067869100,6.74626953125,2.171039342770849,0.0741100312099183,0.23421096794965604
1683999303077911600,6.756311767578125,2.2165300845593827,0.22804641722131724,0.258947551265361
1683999303087953600,6.76635400390625,2.258891582411292,0.40283966077416045,0.21991974119106306
1683999303097995600,6.77639599609375,2.3242218494181324,0.5267925261275748,0.22196906806608227
1683999303108037800,6.786438232421875,2.3471164704744982,0.5283775328684212,0.23746898773539846
1683999303118079900,6.796480224609375,2.3648474216437947,0.5130281449252563,0.11831051117056408
1683999303128122000,6.8065224609375,2.342612028061591,0.5119428635598074,-0.06663176415323074
1683999303138164100,6.816564453125,2.215452909436478,0.3937149047338213,-0.14032876484290047
1683999303148206600,6.82660693359375,1.9034016131935578,0.2588062285789451,-0.20667253440040903
1683999303158248600,6.83664892578125,1.4086458683989052,0.009234428347374767,-0.34980514641863636
1683999303168290700,6.846691162109375,0.7357956171078366,-0.352422714171892,-0.5395937561409612
1683999303178332800,6.856733154296875,-0.11444304870803472,-0.7590637207550543,-0.6165231466969806
1683999303188375200,6.866775634765625,-0.9291625619445555,-0.8904418944625876,-0.7306563853988868
1683999303198417300,6.876817626953125,-1.526320695827471,-0.8927078248960484,-0.6824508905058726
1683999303208459400,6.88685986328125,-1.81124508389742,-0.8663444518304857,-0.4972894192850022
1683999303218501600,6.89690185546875,-1.6877300739999572,-0.7540769576924958,-0.3215797246831077
1683999303228543600,6.906944091796875,-1.1219699383969266,-0.46780300136514763,-0.20367377983703996
1683999303238585800,6.916986083984375,-0.31342083214606953,-0.08439540856191026,-0.05767157673792962
1683999303248628100,6.927028564453125,0.39358282086241086,0.22877407088964194,0.09754383565018354
1683999303258670300,6.937070556640625,0.8685228824940157,0.27134418475286265,0.30256724368077925
1683999303268712400,6.94711279296875,1.1963738203093361,0.1109037400905661,0.44986680146761554
1683999303278754600,6.95715478515625,1.4034959076956752,-0.11828327186033807,0.5634368658136917
1683999303288796600,6.967197021484375,1.539928197851003,-0.32530879979046795,0.6615356205960661
1683999303298839000,6.9772392578125,1.5693162679542254,-0.2762060164921846,0.7166584132423217
1683999303308881100,6.987281494140625,1.5473992824333749,-0.20329475419217302,0.7661775351747505
1683999303318923200,6.997323486328125,1.4876562356128036,-0.1401100158776492,0.8096452355691963
1683999303328965300,7.00736572265625,1.377943158189888,-0.09144115437596251,0.8447548151119352
1683999303339007400,7.01740771484375,1.2513467073337137,-0.06683540347770174,0.8454381227017685
1683999303349049800,7.0274501953125,1.1739727258689967,-0.030432701090241602,0.8545311689767591
1683999303359091900,7.0374921875,1.178004741719284,-0.006154060332636975,0.8955292105683272
1683999303369134000,7.047534423828125,1.225579261742373,0.01797485354434202,0.9561843871521889
1683999303379176100,7.057576416015625,1.2820616960000388,-0.0010061264032705374,0.9572643040639358
1683999303389218200,7.06761865234375,1.2907357215261317,-0.015192985524008966,0.7801907061949857
1683999303399260300,7.07766064453125,1.238238930700945,-0.02218246472487196,0.595930278251152
1683999303409302600,7.087703125,1.1103640794771994,-0.0291500091381349,0.4027267100119621
1683999303419344800,7.0977451171875,0.9919428824411184,0.0020980834806072755,0.23234897848959354
1683999303429386900,7.107787353515625,0.8609104751443589,0.026082992482292004,0.12605890618486468
1683999303439429000,7.117829345703125,0.7810329199379407,0.014149665757537788,0.06251037111417347
1683999303449471200,7.12787158203125,0.7724280356079205,0.06667041781166035,0.08244926474212017
1683999303459513600,7.137913818359375,0.8326781987461012,0.12138080590188917,0.15440113837615363
1683999303469555600,7.1479560546875,0.9518780708466376,0.16393089276695164,0.2134778498924857
1683999303479597700,7.157998046875,1.0929610729584285,0.13702392574999853,0.3049698472037043
1683999303489639900,7.168040283203125,1.24511241927921,0.06709766378283698,0.4168868960564962
1683999303499682000,7.178082275390625,1.3835380076710164,0.0044002534094604705,0.48482224326416173
1683999303509724300,7.188124755859375,1.5125975609895095,0.0014448166158406576,0.604397952608417
1683999303519766400,7.198166748046875,1.6606603860024063,0.010313987784926284,0.7034569978109386
1683999303529808600,7.208208984375,1.7890365124275043,0.08352375024572159,0.8292564154267671
1683999303539850600,7.2182509765625,1.9352101088573292,0.23288059251247603,0.9237837195553007
1683999303549892800,7.228293212890625,2.0843987465924596,0.3101530075674161,1.031975507652343
1683999303559935200,7.23833544921875,2.1883897781102735,0.34898757941356506,1.1009056568750892
1683999303569977300,7.248377685546875,2.2807319163888686,0.3471059799206545,1.1257705688288049
1683999303580019400,7.258419677734375,2.311850786084572,0.2950534819612245,1.1307445764686517
1683999303590061600,7.2684619140625,2.3155634402580008,0.24310779558578774,1.1325788499269243
1683999303600103600,7.27850390625,2.270487546998383,0.17217063897600893,1.0668263434277003
1683999303610145600,7.288546142578125,2.210073471034471,0.16588211062974706,1.084100127255174
1683999303620188100,7.29858837890625,2.0889081955277895,0.2049798966450681,0.976481616453112
1683999303630230200,7.308630615234375,1.8839297294507567,0.251112937960946,0.9118894339925522
1683999303640272300,7.318672607421875,1.600908279355998,0.2516880036003943,0.833345532490646
1683999303650314400,7.32871484375,1.291540980243767,0.22349929820101783,0.764811158113777
1683999303660356600,7.3387568359375,1.0051388739931586,0.14507484450963049,0.7279185055524503
1683999303670398900,7.34879931640625,0.7450636625113257,0.11205577834868499,0.7507647276039398
1683999303680441000,7.35884130859375,0.54022562492451,-0.0022277832084309397,0.7894565461624093
1683999303690483100,7.368883544921875,0.3621877433287661,-0.12113761901985354,0.8263736962226435
1683999303700525200,7.378925537109375,0.24001833788020502,-0.19210624691172581,0.8964306712532484
1683999303710567300,7.3889677734375,0.18329073494714856,-0.20571422594488667,0.977591931744915
1683999303720609500,7.399009765625,0.18432289373900118,-0.24572086329597215,0.9528647662255317
1683999303730651800,7.40905224609375,0.1856372804124242,-0.28108119962724915,1.0234012604295248
1683999303740693900,7.41909423828125,0.21327000858369016,-0.32139205946618277,1.1672127247243222
1683999303750736000,7.429136474609375,0.26183810816254915,-0.4048833846737838,1.2000659706031787
1683999303760778200,7.439178466796875,0.28520533442938173,-0.37867736818496056,1.2138276101814758
1683999303770820600,7.449220947265625,0.31403985620257735,-0.3482284545283639,1.1881265640622574
1683999303780862600,7.459262939453125,0.3144568503806301,-0.29446220389948785,1.2137036323395256
1683999303790904800,7.46930517578125,0.2694904208032546,-0.2054481506486824,1.1984788178222403
1683999303800946900,7.47934716796875,0.21973592042841625,-0.11705875391619397,1.136407971378984
1683999303810989000,7.489389404296875,0.04108428939020944,0.004137039106988952,1.0552942754560637
1683999303821031100,7.499431396484375,-0.23465645299275428,0.04814720161364437,0.9635986686635661
1683999303831073500,7.509473876953125,-0.4989476204940606,-0.05424594875176774,0.8606764077258118
1683999303841115600,7.519515869140625,-0.6765836477815598,-0.42714309699054537,0.7680585385113979
1683999303851157600,7.52955810546875,-0.751725435264271,-0.9103727340112453,0.503797590674951
1683999303861199800,7.53960009765625,-0.7804336546713208,-1.3609266280498846,0.3289527892482488
1683999303871241900,7.549642333984375,-0.7200157642172621,-1.62401103972531,0.05736717585028252
1683999303881284300,7.5596845703125,-0.694383502112304,-1.7861070633120593,-0.2554365098122604
1683999303891326400,7.569726806640625,-0.6965361834402257,-1.8735446931030157,-0.5423043966221578
1683999303901368600,7.579768798828125,-0.638543844173486,-1.9004240034887137,-0.7421404121867907
1683999303911410600,7.58981103515625,-0.625818491063344,-1.8210315704175857,-0.8970024585702202
1683999303921452600,7.59985302734375,-0.5975861549628879,-1.5803251265483311,-1.1117000579463396
1683999303931495100,7.6098955078125,-0.47657990443740156,-1.22838401794217,-1.145801782610331
1683999303941537200,7.6199375,-0.05559754373044657,-0.9126672745909798,-0.931573331512894
1683999303951579300,7.629979736328125,0.4473235607334984,-0.6440544129760197,-0.5941696165776962
1683999303961621400,7.640021728515625,0.7649157047696175,-0.5581970213608899,-0.28181797250769375
1683999303971663600,7.65006396484375,0.9975279569087327,-0.5210380554233098,-0.014526903463129943
1683999303981705600,7.66010595703125,1.4402772188227935,-0.3749418260359845,0.16135512288837642
1683999303991748000,7.6701484375,2.208348750975817,-0.019514083813624246,0.29388526070264964
1683999304001790100,7.6801904296875,3.2690997124030594,0.3497209547995329,0.25878778097058924
1683999304011832200,7.690232666015625,4.350108623425707,0.3726387022512034,-0.15169858923568733
1683999304021874400,7.700274658203125,4.930781364446777,0.2237653732601944,-0.7838090658486964
1683999304031916600,7.710317138671875,5.041895866502905,0.43753719319629497,-1.2910324334963723
1683999304041958800,7.720359130859375,5.4988212586538605,1.0208625793490453,-1.1461943388291904
1683999304052000900,7.7304013671875,5.471029281608351,1.6466073989722922,-0.7180320025436909
1683999304062043100,7.740443359375,4.748645305675905,2.082058906527524,-0.5151807665880046
1683999304072085200,7.750485595703125,4.063457489076136,2.379106521715298,-0.7389402388951759
1683999304082127600,7.76052783203125,3.4913120269910425,2.470645427715287,-0.8812535403936972
1683999304092169600,7.770570068359375,2.201130151680061,2.307799339317681,-0.8798150420321142
1683999304102211800,7.780612060546875,0.26160025603287973,1.6733903884753187,-0.34488624351180514
1683999304112253900,7.790654296875,-0.98339056969844,0.46632480620343425,0.2614150642506531
1683999304122296000,7.8006962890625,-1.9547741412393163,-0.4017105103129205,0.43932369350118494
1683999304132338100,7.810738525390625,-2.9328520298063316,-0.5315589904752694,-0.11310812827393717
1683999304142380500,7.82078076171875,-3.3300995826099604,-0.47490978238472237,-0.8558473585566853
1683999304152422600,7.830822998046875,-3.1124305726155486,-0.37435817711107044,-1.4850354195873325
1683999304162464600,7.840864990234375,-2.2714710234811015,-0.30814361577851995,-1.9641704558755129
1683999304172506800,7.8509072265625,-1.167103529132691,-0.3265295027815284,-2.1367940904174008
1683999304182549200,7.860949462890625,-0.3514072894534001,-0.40796184545645026,-1.974684953521912
1683999304192591300,7.87099169921875,0.0935165881572041,-0.5055379867824906,-1.7749096154992796
1683999304202633400,7.88103369140625,0.32368528837036126,-0.46114063253170323,-1.493687987142012
1683999304212675600,7.891075927734375,0.4684278965132078,-0.401735305676841,-1.114884853375275
1683999304222717600,7.901117919921875,0.5136505364863585,-0.42109298715347787,-0.7508913875719531
1683999304232759600,7.91116015625,0.5347659585949514,-0.3360004425180929,-0.21770504107140157
1683999304242802100,7.921202392578125,0.6021437644964464,-0.1804504395153126,0.23449406022282074
1683999304252844200,7.93124462890625,0.7487863302343463,-0.13312435149908428,0.5304991603479347
1683999304262886300,7.94128662109375,0.8434106111536099,-0.19263935072353827,0.5742152930122588
1683999304272928400,7.951328857421875,0.8037145139217446,-0.250300407380786,0.594859659709842
1683999304282970600,7.961370849609375,0.6702271700831901,-0.24385166174632458,0.55899083626668
1683999304293012900,7.971413330078125,0.48613846316125825,-0.2384805680315863,0.48922675830648077
1683999304303055000,7.981455322265625,0.31741380709128125,-0.17778301244656064,0.3116943836171529
1683999304313097100,7.99149755859375,0.21514749520364343,-0.1296005248300059,0.15759724376831558
1683999304323139200,8.00153955078125,0.18158435822617308,-0.07300376899855214,-0.03798198699166411
1683999304333181400,8.011581787109375,0.15359020233340592,-0.029886245635946662,-0.1415065378802753
1683999304343223600,8.0216240234375,0.19984555239868976,-0.04068946832985339,-0.1917680501661651
1683999304353265800,8.031666259765625,0.2865595816915154,0.036256790234402606,-0.18628652391798792
1683999304363308000,8.041708251953125,0.275414943748471,0.12723445906811826,-0.060584545102750464
1683999304373350100,8.05175048828125,0.18581008898650508,0.05785369862347969,-0.013428986211246023
1683999304383392200,8.06179248046875,0.14371418951797243,-0.030986785843585343,-0.03740760688035892
1683999304393434600,8.0718349609375,0.15658068654939397,-0.15128517145818327,-0.07014983884301262
1683999304403476600,8.081876953125,0.302435398165549,-0.15952587133599708,-0.11657658209288033
1683999304413518800,8.091919189453124,0.4366745949614202,-0.12497138972033686,-0.14280769233773916
1683999304423560900,8.101961181640625,0.567971467955655,-0.07611560837440091,-0.18189311044053164
1683999304433603000,8.11200341796875,0.7315001487431928,-0.05101013177592021,-0.14769771687429017
1683999304443645400,8.122045654296874,0.8551983833565767,0.014964103595901765,-0.18168956033109718
1683999304453687500,8.132087890625,0.9436917304801529,0.15038394934710783,-0.17473730435679843
1683999304463729600,8.1421298828125,1.0471584795368218,0.22844982148789378,-0.18065029368360339
1683999304473771600,8.152172119140625,1.1673556565965506,0.3401765824126495,-0.23343449820625256
1683999304483813800,8.162214111328124,1.3055506945399573,0.3902530668707413,-0.3162690401535945
1683999304493856200,8.172256591796875,1.329419732056854,0.4316911696617945,-0.4807440637584765
1683999304503898300,8.182298583984375,1.241476654966081,0.5124130249610691,-0.6895931362767376
1683999304513940400,8.1923408203125,0.9974814654261757,0.5724744796502603,-0.8532617092735438
1683999304523982600,8.2023828125,0.6996878384969906,0.6115636824811941,-0.9400671125261589
1683999304534024600,8.212425048828125,0.4117271899475544,0.6270160675592511,-0.9687294960397383
1683999304544067000,8.22246728515625,0.1866059303077384,0.64987087247583,-0.9577704666753197
1683999304554109100,8.232509521484374,0.15084242831073758,0.6777372359019574,-0.892517805067297
1683999304564151200,8.242551513671875,0.26741719230782657,0.6702327728694335,-0.8348250388068846
1683999304574193300,8.25259375,0.401304006563471,0.6395921708437066,-0.7111066579588934
1683999304584235400,8.2626357421875,0.4608373641623206,0.6098966599352381,-0.5894366501910077
1683999304594277800,8.27267822265625,0.4506800174398206,0.6241588593649711,-0.5013197661592758
1683999304604319900,8.28272021484375,0.44564318646687606,0.6152048110987184,-0.45879930254621576
1683999304614362000,8.292762451171875,0.4751210211979594,0.6330270766367173,-0.449833095049287
1683999304624404100,8.302804443359374,0.43456625952776684,0.6152553557980979,-0.4508583843665012
1683999304634446300,8.3128466796875,0.35540723784841316,0.600106239344343,-0.46923002612233045
1683999304644488600,8.322888916015625,0.19469141963269218,0.47295951854007034,-0.5452958343773978
1683999304654530700,8.33293115234375,-0.028248310107298797,0.2842206954375724,-0.607328176491244
1683999304664572800,8.34297314453125,-0.24425005896733645,0.13678264617707178,-0.657679140537968
1683999304674615000,8.353015380859375,-0.25126171128667474,0.10002136239289958,-0.6411991118960491
1683999304684657100,8.363057373046875,0.0013418197753433708,0.2313261033219804,-0.44526419050252464
1683999304694699400,8.373099853515624,0.3188383579863707,0.38164043428619526,-0.2505609392168575
1683999304704741600,8.383141845703125,0.5095220803208416,0.46435928339645405,-0.08258891103921599
1683999304714783600,8.39318408203125,0.53602564336927,0.46860408774462714,0.011153995949101632
1683999304724825800,8.40322607421875,0.44841384894293584,0.3719806670041233,0.056601554162189816
1683999304734867900,8.413268310546876,0.2787089347952639,0.21856880184979607,-0.01026117798682291
1683999304744910300,8.423310546875,0.02771902085887387,0.023530006367525343,-0.1312087923615834
1683999304754952400,8.433352783203125,-0.2472958564533547,-0.12524318691298117,-0.34498456129505284
1683999304764994600,8.443394775390624,-0.49888062483557677,-0.18145561219257703,-0.4817195534041273
1683999304775036600,8.45343701171875,-0.758889675085668,-0.26942062380641335,-0.5767334105522038
1683999304785079000,8.463479248046875,-0.782301902913053,-0.584527969270102,-0.6317583919229758
1683999304795121100,8.473521484375,-0.39520370961535256,-1.3022165299293713,-0.6273927688953326
1683999304805163200,8.4835634765625,-0.20367693894458333,-1.9729261399162874,-0.5746075509980534
1683999304815205300,8.493605712890625,-0.5410943031399403,-2.219762802279827,-0.4704803227299362
1683999304825247400,8.503647705078125,-1.1203573942775975,-2.108592033555442,-0.3897247909547239
1683999304835289600,8.51368994140625,-1.7296767234071715,-2.2569532395670073,-0.40314763794831915
1683999304845331900,8.523732177734376,-2.790374040612794,-2.944434165934973,-0.1840916575481674
1683999304855374000,8.5337744140625,-4.724930763309123,-3.4520273209422396,0.42285066835644197
1683999304865416100,8.54381640625,-5.313196659080623,-3.051871299740198,1.5735843182975429
1683999304875458200,8.553858642578126,-3.2103753089970186,-1.5677223205510031,2.309152126135956
1683999304885500300,8.563900634765625,-0.48588669293956493,-0.12806987755669214,2.505573749484368
1683999304895542600,8.573943115234375,1.7166070938643954,0.7423515320493932,2.476539611876964
1683999304905584800,8.583985107421874,2.850872516581133,1.0690708160723017,1.7727189064968119
1683999304915626900,8.59402734375,3.111936092301608,0.8559799194934863,1.0710372924880958
1683999304925669000,8.6040693359375,2.967142104934492,0.9239025116522761,0.5768771171123812
1683999304935711400,8.61411181640625,2.4609818459606694,1.1557941436151686,0.4432641269446416
1683999304945753600,8.62415380859375,1.6165010927929668,1.3227119444920203,0.5242893099697654
1683999304955795600,8.634196044921875,0.6306235790381942,1.1811714172498267,0.3564803301852134
1683999304965837700,8.644238037109375,-0.07258510601062132,0.7208938597407398,0.01585644481291165
1683999304975879900,8.6542802734375,-0.33966350545273327,0.15573024754713538,-0.3284929097584064
1683999304985922000,8.664322265625,-0.31929087641253046,-0.22626495371830835,-0.4371936320147129
1683999304995964300,8.67436474609375,-0.04148125637747828,-0.277696609515786,-0.45988124617605886
1683999305006006400,8.68440673828125,0.4054409862102243,-0.20412349713746739,-0.3176958561321451
1683999305016048600,8.694448974609376,0.954050779396936,-0.1313552855331213,-0.16355833402357745
1683999305026090600,8.704490966796875,1.388827442979215,-0.0825462341239951,-0.04476091274210144
1683999305036132800,8.714533203125,1.6158635616615662,-0.07177352902400075,0.10524225239231752
1683999305046175200,8.724575439453124,1.7342305183126514,-0.015337944068077805,0.24672082057090786
1683999305056217300,8.73461767578125,1.7474763392945658,0.06511592867086592,0.2893400192507986
1683999305066259400,8.74465966796875,1.6993768214899363,0.14070987713310482,0.1328721046589719
1683999305076301600,8.754701904296875,1.630487084247199,0.12547397613512296,0.11514982583743212
1683999305086343900,8.764744140625,1.5906494855801885,0.07945919031222376,0.07398378850688166
1683999305096386000,8.774786376953125,1.5720728636974448,0.11034202564066477,-0.01103615752773242
1683999305106428100,8.784828369140625,1.5569641589710552,0.1918458939311234,-0.08626115317222273
1683999305116470200,8.79487060546875,1.5159175396315452,0.307283401616144,-0.1796190140910305
1683999305126512300,8.80491259765625,1.3865373134224594,0.3324756623518032,-0.24962490787099817
1683999305136554600,8.814955078125,1.2432057857864014,0.37014865862535123,-0.4590917825401976
1683999305146596800,8.8249970703125,1.0958672761959087,0.3817043303634291,-0.7147513626114061
1683999305156638900,8.835039306640626,0.9093808533480023,0.4123115541051019,-0.8204525112673298
1683999305166681000,8.845081298828125,0.753350913487568,0.3830118179229509,-0.8477961421689212
1683999305176723100,8.85512353515625,0.5802335739504562,0.30344104779787767,-0.9357919693659833
1683999305186765600,8.865165771484374,0.40812757613753514,0.1353063583562647,-0.9996982215236623
1683999305196807600,8.8752080078125,0.1904200911448044,0.026518821817794247,-1.0134849548334448
1683999305206849600,8.88525,-0.041886031731401985,-0.016214370612074813,-0.8542333246958831
1683999305216891800,8.895292236328125,-0.16946053517331183,0.01404094695720718,-0.5406956673692063
1683999305226933900,8.905334228515626,-0.19187459353799308,0.05514812460006365,-0.12123286724908017
1683999305236976300,8.915376708984375,-0.05175182226607814,0.02369880679196009,0.18020781870957128
1683999305247018400,8.925418701171875,0.2094793020729542,-0.03213119515054758,0.4207620023914315
1683999305257060600,8.9354609375,0.5252265334226958,-0.0714416503941409,0.5692856908462062
1683999305267102600,8.9455029296875,0.8222032784463228,-0.09167385093067214,0.7211258411215381
1683999305277145000,8.95554541015625,1.0783609151914333,-0.07840156556552724,0.7807989716294783
1683999305287187100,8.96558740234375,1.2795385121361769,-0.11517333990686177,0.8082892894975625
1683999305297229200,8.975629638671874,1.4054172039801431,-0.23522472383605733,0.8108031749890535
1683999305307271300,8.985671630859375,1.5025873183811085,-0.33556461336530397,0.7880958318336575
1683999305317313500,8.9957138671875,1.584274649573035,-0.30864906316710466,0.8299188614508316
1683999305327355800,9.005756103515624,1.599822878920921,-0.2908163069085741,0.8488894702949232
1683999305337397900,9.01579833984375,1.5523103474318258,-0.2510461807340317,0.7757514120293901
1683999305347440000,9.02584033203125,1.4619634153326213,-0.23723983758540976,0.7206525801409961
1683999305357482200,9.035882568359376,1.3379029034654686,-0.1731061936204086,0.6488939523105368
1683999305367524300,9.045924560546876,1.200814485552649,-0.06844615922290158,0.5324635506026684
1683999305377566600,9.055967041015624,1.1014906167296987,-0.035576820341898165,0.44455853105016
1683999305387608800,9.066009033203123,1.0138618946815576,0.035464286754404196,0.2425569295677366
1683999305397650900,9.07605126953125,0.9161366820885177,0.12058258058307775,0.05503189571774615
1683999305407693000,9.08609326171875,0.8056027292805334,0.1743240355937509,-0.10305923228688793
1683999305417735100,9.096135498046875,0.6748076081789863,0.1800260543945666,-0.24331414694517026
1683999305427777500,9.106177734375,0.5282459258650013,0.1401424408910195,-0.4009034038480166
1683999305437819600,9.116219970703124,0.30413722995438075,0.08815479281648456,-0.5080733896348729
1683999305447861600,9.126261962890624,0.08513604113618567,0.10285186770864653,-0.5715579986323488
1683999305457903800,9.13630419921875,-0.12150835977757009,0.11717700963282945,-0.5624777078706443
1683999305467946200,9.1463466796875,-0.2717867195403826,0.11920452122626979,-0.48076862102339674
1683999305477988300,9.156388671875,-0.3227701187141952,0.09470939646312893,-0.30779451126244056
1683999305488030400,9.1664306640625,-0.2154418379173085,0.05102729796844342,-0.08775663384268675
1683999305498072600,9.176472900390625,-0.0023590810861388043,0.024086952161701407,0.13795432458732393
1683999305508114600,9.186514892578124,0.18963676691100298,0.04968929272957113,0.3546231091253027
1683999305518157000,9.196557373046875,0.38492748142605426,0.05370616918048242,0.5377201438708905
1683999305528199100,9.206599609375,0.543908178837465,0.033829689057739885,0.6796767712995277
1683999305538241200,9.2166416015625,0.6157028077314554,0.01399803165947996,0.7733654976787551
1683999305548283300,9.22668359375,0.6765132545718957,-0.032052993899316824,0.8593787550566433
1683999305558325400,9.236725830078123,0.7045708297149953,-0.05647659291828007,0.9063824416056873
1683999305568367800,9.246768310546877,0.7238097192127818,-0.11186695109166142,0.9001395702235369
1683999305578409900,9.256810302734374,0.7246060371631986,-0.09546375270760259,0.926755368657782
1683999305588452000,9.266852294921875,0.7380892633146657,-0.07668495184718942,0.9262085557433858
1683999305598494100,9.27689453125,0.7095764874418681,-0.11046314254408061,0.9271219968502531
1683999305608536200,9.2869365234375,0.6608794928150404,-0.16320419313031279,0.8598436117068792
1683999305618578600,9.29697900390625,0.5970226525690837,-0.1727705001425762,0.7937736512824988
1683999305628620600,9.307021240234375,0.5183539390939471,-0.18466758726487695,0.667207539105397
1683999305638662800,9.317063232421877,0.4302958249639869,-0.06757831586371148,0.5764413475862521
1683999305648704900,9.327105224609374,0.3312572538395949,0.03487586977703121,0.5217449664159786
1683999305658747100,9.3371474609375,0.23820778721169303,0.12273502363319207,0.476870328191425
1683999305668789400,9.34718994140625,0.11557871104117055,0.14587783811153188,0.3943104445557167
1683999305678831600,9.35723193359375,0.038074120973850135,0.13550186163186603,0.3557383715173764
1683999305688873600,9.367274169921876,-0.01300323007473877,0.08692836778065152,0.2775305809261325
1683999305698915800,9.377316162109375,-0.013705745309432246,0.07426261889177795,0.2867944837837407
1683999305708958100,9.387358642578125,0.020806103943993667,0.039508819577072016,0.29562905428842595
1683999305719000200,9.397400634765624,0.07947009793249699,0.02173519146761845,0.30347156540334924
1683999305729042400,9.40744287109375,0.12605655208254687,-0.012320518618034073,0.3503653109768589
1683999305739084500,9.41748486328125,0.1934522986519049,-0.008234977600488845,0.39788174632103246
1683999305749126800,9.42752734375,0.24102747434890429,-0.025509834276812898,0.42716518044457563
1683999305759168900,9.4375693359375,0.3138704596950958,-0.004934310743631061,0.5067774653716998
1683999305769211100,9.447611572265624,0.39272272600845004,0.041122436543217795,0.5812539459555104
1683999305779253200,9.457653564453125,0.4750359655682532,0.025177001957711612,0.6500314473446266
1683999305789295300,9.46769580078125,0.5416220426475636,-0.009351730326737088,0.6753169892891772
1683999305799337600,9.477738037109376,0.5876189469229948,-0.008034706080904865,0.6579938531670831
1683999305809379800,9.4877802734375,0.6105221510357316,0.02146244055902312,0.6527776122463402
1683999305819421900,9.497822265625,0.6127579211327139,-0.03197383861908449,0.6497949956831501
1683999305829464000,9.507864501953126,0.582897663123896,-0.053955078152789916,0.6041893959384212
1683999305839506100,9.517906494140624,0.5168241858177971,-0.049736976584150765,0.5474867820507436
1683999305849548500,9.527948974609377,0.417748600341214,-0.0315189359904329,0.4775062503121828
1683999305859590600,9.537990966796874,0.31976675986117026,0.05696964266191107,0.39933666582255906
1683999305869632600,9.548033203125,0.24984580281605398,0.07097530358808252,0.3063123822716439
1683999305879674800,9.5580751953125,0.1587737800055228,0.04703807833518345,0.21333867299804907
1683999305889716900,9.568117431640625,0.1179740131246991,-0.05661392209300556,0.17749518174429252
1683999305899759300,9.57815966796875,0.1029514075065253,-0.07860851291495079,0.181734323408558
1683999305909801400,9.588201904296875,0.0988514424909291,-0.10743808750957606,0.19718658938929792
1683999305919843600,9.598243896484377,0.10558265452667175,-0.08649063100476831,0.2824995517205036
1683999305929885600,9.6082861328125,0.0995389224463714,-0.06366539001478602,0.4104294778376047
1683999305939928000,9.618328369140626,0.13954150660430706,-0.01073074326762822,0.5234937668274907
1683999305949970100,9.62837060546875,0.18199396132376672,0.03649330122601599,0.6711225510878109
1683999305960012200,9.63841259765625,0.23133867989483964,0.028684616147488858,0.7982758879769656
1683999305970054300,9.648454833984376,0.2521215379435376,-0.01440429673078529,0.9311828017742299
1683999305980096400,9.658496826171875,0.2965909541145615,-0.009792327911250216,1.0698018074180442
1683999305990138800,9.668539306640625,0.3288960457832684,0.004052162173895872,1.166943907897957
1683999306000180900,9.678581298828124,0.3373671471910991,0.010522842497684634,1.265390276940492
1683999306010223000,9.68862353515625,0.35740238434813126,0.023868560817644376,1.3508689404321765
1683999306020265100,9.69866552734375,0.36281302570475527,0.003989219784910881,1.4185156822768166
1683999306030307600,9.7087080078125,0.37978634249033527,0.029197692996652515,1.4821333885506203
1683999306040349600,9.71875,0.37749180212142963,-0.03307342525080677,1.5063416957397813
1683999306050391700,9.728792236328124,0.37511709329820725,-0.035382270858603314,1.5598831178209092
1683999306060433800,9.738834228515625,0.3748892843771725,-0.063465118436767,1.5220794678371155
1683999306070476000,9.74887646484375,0.38626956942321167,-0.04858016967033992,1.4741846323167564
1683999306080518300,9.758918701171876,0.3881275057044391,-0.047896385213412926,1.416049003782464
1683999306090560400,9.7689609375,0.394618242841066,-0.04002094263804998,1.3527790308366385
1683999306100602600,9.7790029296875,0.38685253264537367,0.005499839817428624,1.3012670278218543
1683999306110644600,9.789045166015624,0.3931874930287432,0.047993659926082975,1.273250222175736
1683999306120686800,9.799087158203124,0.35905820138084127,0.10164928442121858,1.2399245501764322
1683999306130729100,9.809129638671877,0.33004587888953907,0.12162017829717378,1.269026994658929
1683999306140771200,9.819171630859374,0.3274757266129811,0.15334701546004642,1.2782576083797192
1683999306150813400,9.8292138671875,0.31579375263902526,0.09317684174867855,1.2409385443539387
1683999306160855600,9.839255859375,0.27227842817075065,-0.10207080834450254,1.101445198010054
1683999306170897600,9.849298095703125,0.2691163122025893,-0.41838932036982196,0.9515602589999896
1683999306180940000,9.85934033203125,0.33996701249998285,-0.6913318634156086,0.829766154268458
1683999306190982100,9.869382568359375,0.4681923687495108,-0.9781360626314232,0.806789338592521
1683999306201024200,9.879424560546877,0.6085305214018669,-1.3021411896272708,0.7706554531383727
1683999306211066300,9.889466796875,0.7153639793383912,-1.6816644667198872,0.7338509559636365
1683999306221108600,9.899509033203126,0.8551532626271463,-1.9488220215134697,0.6664701700680423
1683999306231150800,9.90955126953125,0.9813451765596843,-1.9950056077221632,0.5337097643435206
1683999306241192900,9.91959326171875,1.0564646720635236,-1.862071990875517,0.4542460144005873
1683999306251235000,9.929635498046874,0.9018235205187591,-1.2684698103532395,0.3891075849839505
1683999306261277100,9.939677490234375,0.5465534925336424,-0.43522357934490413,-0.015718400480135477
1683999306271319600,9.949719970703123,0.07605612270151423,0.24986457829348657,-0.48271781207075953
1683999306281361600,9.959761962890624,-0.5707348586145734,0.612908363472272,-0.8295121193390979
1683999306291403600,9.96980419921875,-1.262217759970978,0.7625160217131474,-1.1845687626847086
1683999306301445800,9.97984619140625,-1.9592480658505984,0.8332586288191293,-1.6177456378183328
1683999306311488200,9.989888671875,-2.461817741420672,0.8016862870422188,-1.9135649203743923
1683999306321530300,9.9999306640625,-2.702409505881749,0.7947044371793612,-2.155172824913753
1683999306331572400,10.009972900390624,-2.606262207009253,0.8001527786000646,-2.0891113279851683
1683999306341614600,10.020014892578123,-2.1800842284492865,0.7769842148159433,-1.8098449707466564
1683999306351656600,10.03005712890625,-1.4293162823173742,0.7676649093027401,-1.3662537336982865
1683999306361699000,10.040099365234376,-0.5720919966614277,0.7907304764269552,-0.8985008599110557
1683999306371741100,10.0501416015625,0.15668001769874126,0.8841629027264176,-0.5299980638848861
1683999306381783200,10.06018359375,0.6611306070347016,0.9167537689035239,-0.13070440301275643
1683999306391825300,10.070225830078124,0.9576771259310153,0.8030796051991165,0.037907004360262266
1683999306401867600,10.08026806640625,0.9996882678587389,0.5653314589626596,0.009718060362846068
1683999306411909800,10.090310302734377,0.8472732902493663,0.31888103497743003,-0.009109914376115035
1683999306421951900,10.100352294921874,0.5540255308991231,0.06870269785354217,-0.1273232698244271
1683999306431994000,10.11039453125,0.12875163553214586,-0.16868686677580805,-0.2868672014500369
1683999306442036100,10.1204365234375,-0.27615028622371696,-0.372086524957344,-0.5096001624695059
1683999306452078600,10.13047900390625,-0.6299191712641188,-0.5131444930349397,-0.7059403656093058
1683999306462120600,10.14052099609375,-0.9373875261084292,-0.6161632536935209,-1.0271050929816163
1683999306472162700,10.150563232421876,-1.1261594295230704,-0.6314506531026104,-1.3928927183653275
1683999306482204800,10.160605224609377,-1.1666014193596246,-0.6287899016323302,-1.6509165763221632
1683999306492247000,10.1706474609375,-1.0855348109916407,-0.6608467102101551,-1.7768207788842323
1683999306502289300,10.180689697265626,-0.9393559694059109,-0.6462135314016235,-1.8136548996197053
1683999306512331400,10.19073193359375,-0.7031338215556109,-0.5560674667885996,-1.6519410610736847
1683999306522373600,10.20077392578125,-0.3776086568653581,-0.4046249389998333,-1.3825047014836949
1683999306532415600,10.210816162109374,-0.0036245585716904553,-0.32542228706564047,-1.067164063281375
1683999306542458000,10.2208583984375,0.3643739819459079,-0.24151992785931656,-0.7555810211694743
1683999306552500100,10.230900634765623,0.7110666036114506,-0.05241203326991763,-0.70543241483591
1683999306562542300,10.240942626953125,1.0886682271038353,0.001070976397684834,-0.6233028174647057
1683999306572584400,10.25098486328125,1.6216716767096866,-0.0033864974356836667,-0.5621592998838231
1683999306582626600,10.26102685546875,1.5238158702232028,0.006269454932527736,-0.45162683728448816
1683999306592668800,10.2710693359375,1.046283125874953,0.03390693664066305,-0.6299281119564004
1683999306602711000,10.281111328125,0.9185495972471968,0.15981578823979015,-0.9645944237284324
1683999306612753100,10.291153564453126,0.8057546617007929,0.35222244259251184,-1.2199817895698644
1683999306622795200,10.301195556640623,0.6846957207246339,0.4771242141726118,-1.3842644692637995
1683999306632837600,10.311238037109376,0.6209608912669717,0.6447849272594595,-1.39753556262769
1683999306642879600,10.321280029296876,0.700427293753738,0.738471984933509,-1.3399913309595122
1683999306652921800,10.331322265625,0.6298710107317381,0.8421764373351097,-1.303861975556448
1683999306662963900,10.3413642578125,0.39719736583704307,0.8293190002530741,-1.1979271172199872
1683999306673006300,10.35140673828125,0.13193953029072764,0.8051519394172503,-1.228469967812653
1683999306683048400,10.36144873046875,-0.13615500931303412,0.7241134643345878,-1.303829073939257
1683999306693090600,10.371490966796877,-0.45771718038367426,0.6744327545585889,-1.3981297016351293
1683999306703132600,10.381532958984376,-0.7720868587524038,0.6556224822848167,-1.4692909717906775
1683999306713174600,10.3915751953125,-1.1115506887287714,0.7005996704404827,-1.4620735645653742
1683999306723217100,10.401617431640624,-1.2283257245957493,0.6012477875196829,-1.3292596341772875
1683999306733259200,10.41165966796875,-1.1922678948008498,0.5034599304851636,-1.1196372507982304
1683999306743301300,10.42170166015625,-1.2519563434659688,0.3020181654158801,-0.7625023126421813
1683999306753343400,10.431743896484376,-1.2664988040011285,0.18810081481095797,-0.4914118647878964
1683999306763385800,10.4417861328125,-1.0325199363841135,0.11610412605999382,-0.19392424814546713
1683999306773427900,10.451828369140625,-0.8816225528754097,0.016651153614766274,0.14638751742014738
1683999306783470000,10.461870361328126,-0.8881685734105609,-0.021795272777947704,0.2724862098509061
1683999306793512100,10.47191259765625,-0.8061746358912483,-0.046702384926758954,0.14689862728228717
1683999306803554200,10.48195458984375,-0.49605870235393335,-0.0047407150576890085,-0.23902338751374938
1683999306813596600,10.4919970703125,-0.23357403271575347,0.07836627956993113,-0.7361980082326375
1683999306823638600,10.5020390625,-0.1230163575486103,0.19091224668924656,-1.135237097571032
1683999306833680800,10.512081298828123,-0.09754443175052951,0.27539730078557434,-1.289661049821728
1683999306843722900,10.522123291015625,-0.10952508434235035,0.3698368071959104,-1.4032235144077037
1683999306853765300,10.532165771484374,-0.08854234204908018,0.47649860374169156,-1.4877269267757083
1683999306863807400,10.542207763671875,0.0007911921131896357,0.5978422165201948,-1.4691271782631408
1683999306873849600,10.55225,0.07960641378995535,0.6239881514876794,-1.4097653628065487
1683999306883891600,10.5622919921875,0.14152455331536543,0.6291084288419165,-1.357495307994006
1683999306893933700,10.572334228515626,0.17785501464056808,0.6537742615003374,-1.2378939389252352
1683999306903976100,10.58237646484375,0.31024408342264914,0.7457017899113016,-1.1779298782054006
1683999306914018200,10.592418701171876,0.44603371623015214,0.830907821780117,-1.0871944426677702
1683999306924060300,10.602460693359374,0.5885308981848835,0.8881311416282114,-1.0471436978287028
1683999306934102400,10.6125029296875,0.6888435481537167,1.0274162291538638,-0.9625703692045972
1683999306944144600,10.622544921875,0.7800652385341194,1.095723152094866,-0.8771337269570609
1683999306954186900,10.63258740234375,0.750178158335533,1.1169290542658208,-0.7992277144325157
1683999306964229000,10.64262939453125,0.6861964464120434,1.093310356085637,-0.6270293593503228
1683999306974271200,10.652671630859375,0.5793657303119738,1.0127897263092875,-0.46943348653935923
1683999306984313300,10.662713623046876,0.4562493562899135,0.9565420151461933,-0.20112287998732198
1683999306994355600,10.672756103515624,0.29524159424007346,0.8933982849399466,0.02380001555356187
1683999307004397700,10.682798095703124,0.06297099585779561,0.8901824952813765,0.2548286914243421
1683999307014439900,10.69284033203125,-0.20656144625770062,0.6075067519900609,0.41244512806614625
1683999307024482000,10.70288232421875,-0.47444582003460045,0.4208965302190374,0.5443335773393972
1683999307034524300,10.7129248046875,-0.6566272974397729,0.19871425636099982,0.6460180879379099
1683999307044566400,10.722966796875,-0.8263891937184384,0.02215290069714936,0.6274411679608016
1683999307054608600,10.733009033203125,-1.0300238132701445,-0.16162586205675827,0.5848328470674662
1683999307064650600,10.743051025390624,-1.2204385995028937,-0.07585430141983646,0.5274620651658651
1683999307074692800,10.75309326171875,-1.415139555965813,-0.38535690304125275,0.30226767047930825
1683999307084735200,10.763135498046877,-1.4833191632515443,-0.5802984238363774,0.10412460562513776
1683999307094777300,10.773177734375,-1.2563925979870045,-0.5313301086037447,-0.026413798457912654
1683999307104819400,10.7832197265625,-0.8141112328623547,-0.33363246917487366,-0.06340497731483508
1683999307114861600,10.793261962890623,-0.48981893050534836,-0.0012884139799169173,-0.12736189367101644
1683999307124903900,10.80330419921875,-0.3894824982597635,0.15941715239162987,-0.05412966010857503
1683999307134946000,10.813346435546874,-0.3961390256905062,0.17925548556985174,-0.01917153601167316
1683999307144988100,10.823388427734375,-0.3756588698861536,0.2755603791541758,-0.06741505861690972
1683999307155030200,10.8334306640625,-0.33504414558476847,0.3837547301313273,-0.13276284925363865
1683999307165072600,10.843472900390625,-0.33541333676652213,0.4468050003903722,-0.1516558528691353
1683999307175114600,10.85351513671875,-0.38078701492391903,0.48654270177941566,-0.1071822046632815
1683999307185156800,10.86355712890625,-0.48865282540648103,0.5245494842082944,0.028768956604710818
1683999307195198900,10.873599365234377,-0.5753132104652496,0.5058650969215096,0.15361845502071023
1683999307205241300,10.8836416015625,-0.529600858656075,0.2823610306197695,0.24899309879884177
1683999307215283400,10.893683837890626,-0.3568781613712365,-0.3105907440577032,0.27196270221776064
1683999307225325600,10.903725830078123,-0.1682373284133466,-1.0289106369007461,0.2131014465934874
1683999307235367600,10.91376806640625,-0.20912992959648685,-1.5956239700595831,0.17612034088586304
1683999307245409600,10.92381005859375,-0.2999182939842984,-1.8034868240656676,0.10553413615587118
1683999307255452100,10.9338525390625,-0.1648663281640681,-1.9732522964812242,0.007272124316033002
1683999307265494200,10.94389453125,-0.05772876730068585,-2.3745832443034587,-0.10994246593400271
1683999307275536300,10.953936767578124,-0.3901457787584524,-2.8133192060945267,-0.30839174985784534
1683999307285578400,10.963978759765626,-1.5352488756352103,-2.9529457091851774,-0.35177540789903616
1683999307295620800,10.974021240234377,-2.8322403430000835,-2.441217422560621,0.1306530534210629
1683999307305662900,10.984063232421876,-2.4898171425681372,-1.3128290176796946,0.6963680981507744
1683999307315705000,10.99410546875,-1.0064152478007067,-0.14160060881041156,0.8247767687237078
1683999307325747100,11.0041474609375,0.32615917912415454,0.5615177155687763,0.4875506757255476
1683999307335789600,11.01418994140625,1.058764338518647,0.5679664610662295,-0.030283152955960787
1683999307345831600,11.02423193359375,1.1360273361090685,0.33280849440703036,-0.7256965636938901
1683999307355873600,11.034274169921876,0.7891122697122313,0.338920593219174,-1.3182691335884196
1683999307365915800,11.044316162109377,0.2891842125928438,0.6717996595376452,-1.8874926565891506
1683999307375957900,11.0543583984375,-0.18116676800782036,1.0323228836781864,-2.4825253488143573
1683999307386000300,11.064400634765626,-0.5820243955786338,1.2844114303721248,-2.7403008937801014
1683999307396042400,11.07444287109375,-0.7681761979561846,1.2229728697914908,-2.6995239258203667
1683999307406084600,11.08448486328125,-0.7083840370023687,0.941952705402827,-2.4148075580782256
1683999307416126600,11.094527099609374,-0.533097743979558,0.8502321242501597,-2.3996610641533396
1683999307426169000,11.1045693359375,-0.2495532630934912,0.8373413084659308,-2.34377861035133
1683999307436211100,11.114611572265623,0.22140342000130359,0.773981094408154,-1.793853640581423
1683999307446253200,11.124653564453125,0.7192910910224761,0.5980930328196985,-1.1070774793393192
1683999307456295300,11.13469580078125,1.1605932711791447,0.39829635616743886,-0.6051934956063949
1683999307466337500,11.14473779296875,1.5360176563040187,0.25826358791895254,-0.18706269569859862
1683999307476379800,11.1547802734375,1.849416613719164,0.14216899875330238,0.06036406738448299
1683999307486421900,11.164822265625,2.026950359432292,0.11228847503612187,0.23241682365918606
1683999307496464000,11.174864501953126,2.1633524894242675,0.154408454889014,0.3409312068845713
1683999307506506200,11.184906494140623,2.1890578269880705,0.19217872619048726,0.3188551962324179
1683999307516548600,11.194948974609376,2.1888704301192936,0.26397228242033877,0.3347830177089235
1683999307526590600,11.204990966796874,2.1034088134256885,0.36492633818497316,0.3230873643973401
1683999307536632800,11.215033203125,1.955878734648483,0.5091657639207533,0.2332481741647332
1683999307546674900,11.2250751953125,1.7532113790235904,0.5960655212120122,0.12603124986404107
1683999307556717200,11.23511767578125,1.5237598419640006,0.49899101262026274,-0.04044923202108364
1683999307566759300,11.24515966796875,1.2739089727307322,0.31852531450347726,-0.21690639852356322
1683999307576801500,11.255201904296875,1.0380876064607611,0.03567123418021393,-0.41918778423298425
1683999307586843600,11.265243896484376,0.8195954561045653,-0.08435535444420858,-0.5954623222951062
1683999307596885900,11.275286376953124,0.6170925499321975,-0.09712028515180776,-0.8539972305155975
1683999307606928000,11.285328369140624,0.4386495351514405,-0.15824604036249568,-1.0178885461206126
1683999307616970200,11.29537060546875,0.2982990145618533,-0.12178802480892648,-1.0661607980754542
1683999307627012300,11.30541259765625,0.1872508375865289,-0.011665344183339458,-1.1453537939829928
1683999307637054400,11.315454833984376,0.059196647140787,0.03366661071123338,-1.3115501403637781
1683999307647096800,11.3254970703125,-0.11657699937401084,0.045674323986482225,-1.4475200177073964
1683999307657138900,11.335539306640625,-0.3794915081067054,0.08652877809126422,-1.6475100517944141
1683999307667181000,11.345581298828124,-0.5606950521157988,0.25845623016445773,-1.987785697021321
1683999307677223100,11.35562353515625,-0.653357028867264,0.31738662709693344,-2.035547018122314
1683999307687265500,11.365665771484377,-0.622229993310316,0.29727268225741343,-1.80723452580549
1683999307697307600,11.3757080078125,-0.4463032185563463,0.19373989115974655,-1.6898071764253866
1683999307707349600,11.38575,-0.20712898665736343,0.06426715861712984,-1.6028947829808686
1683999307717391800,11.395792236328123,0.041835770145522776,0.10226440429115788,-1.4617025852822092
1683999307727433900,11.405834228515625,0.24983155735361884,0.21650600427890068,-1.2566320896290266
1683999307737476300,11.415876708984374,0.41548001761519376,0.31604862225522207,-1.0693413019938753
1683999307747518400,11.425918701171875,0.5191049574214841,0.33647537237450265,-0.8503993153513955
1683999307757560600,11.4359609375,0.6363453864757878,0.31147193907091525,-0.7013772726553287
1683999307767602600,11.4460029296875,0.7178839444270241,0.2649917602281025,-0.638650477087547
1683999307777645000,11.45604541015625,0.7766168118579034,0.2590999603632863,-0.6040759683095751
1683999307787687100,11.46608740234375,0.7951471806836428,0.25065708160754435,-0.5517594814825779
1683999307797729200,11.476129638671877,0.7954498529866232,0.2515993118688901,-0.5271509884978955
1683999307807771300,11.486171630859374,0.7596967221060226,0.24996280676604996,-0.4894233345096449
1683999307817813600,11.496214111328126,0.7108909487848798,0.22904586797155027,-0.4192945957231204
1683999307827855800,11.506256103515623,0.6503963469488877,0.22234916692314055,-0.33812272544696725
1683999307837897900,11.51629833984375,0.6003010272863104,0.22266197212658229,-0.24320125586548472
1683999307847940000,11.52634033203125,0.5630295277919328,0.20129108412542107,-0.14383882272343204
1683999307857982100,11.536382568359375,0.5263686179339372,0.14634609222101394,0.005127549172223001
1683999307868024600,11.5464248046875,0.4801554977897046,0.11048221593676734,0.11916249992444948
1683999307878066600,11.556467041015624,0.46176093809090935,0.1079635620666555,0.2719754577083281
1683999307888108600,11.566509033203126,0.3886628447494592,0.07658958439937524,0.40325433000897093
1683999307898150800,11.57655126953125,0.3411757349232951,0.05461788161060665,0.47671881321579485
1683999307908193200,11.586593505859376,0.2587283850933117,-0.036840438919226184,0.5544977187300212
1683999307918235300,11.5966357421875,0.16014343516583107,-0.14510726927178194,0.5933761596635428
1683999307928277400,11.606677734375,0.027017176086433763,-0.23672676088181688,0.5888264178779825
1683999307938319600,11.616719970703125,-0.13641136877784432,-0.32604599004535845,0.5415524244179937
1683999307948361900,11.62676220703125,-0.2630649507429117,-0.3293762206634705,0.4949950575522027
1683999307958404000,11.636804443359376,-0.3484128415755958,-0.34944248202143124,0.4823506476143881
1683999307968446100,11.646846435546877,-0.3747991024821225,-0.3788661956924023,0.4550821184725118
1683999307978488200,11.656888671875,-0.3927830756916773,-0.33393192279498085,0.4170263110819233
1683999307988530600,11.666930908203126,-0.39867204417562646,-0.31753158565344713,0.31298655277154364
1683999307998572600,11.67697314453125,-0.43860721582448536,-0.21503639215595677,0.21278011799475546
1683999308008614800,11.68701513671875,-0.460138678718007,-0.1389589309436634,0.08834666008840251
1683999308018656900,11.697057373046874,-0.5081949235435395,0.12081432337233874,0.0034814477175038154
1683999308028699300,11.707099609375,-0.546174109076181,0.18654537204735794,0.04193460942276682
1683999308038741400,11.717141845703123,-0.5445828437373469,0.33583545688289823,0.05281198010696261
1683999308048783600,11.727183837890625,-0.5363119244670852,0.3034963608306459,0.040652275121326874
1683999308058825600,11.73722607421875,-0.44944179060504846,0.1760044097152282,0.02203798283300605
1683999308068867800,11.74726806640625,-0.35141438257522506,0.15175628673042327,-0.02904677388989144
1683999308078910100,11.757310546875,-0.23848211754894122,0.1682596205474728,-0.06432485577387664
1683999308088952200,11.7673525390625,-0.1253904105536616,0.12275028221109043,-0.0916390418428282
1683999308098994400,11.777394775390626,-0.06914323568831311,0.2253847122065647,-0.10716474045140419
1683999308109036500,11.787436767578123,0.06218034028230635,0.14144706718526562,-0.0916466713280664
1683999308119078800,11.797479248046876,0.2523887753634116,-0.1624746322786798,-0.6120276451596005
1683999308129120900,11.807521240234376,0.505960047281282,-0.055877685679582276,-0.13134956351063234
1683999308139163100,11.8175634765625,0.5001316666706539,0.4087352751929414,0.396709799701126
1683999308149205200,11.82760546875,0.45715451257646655,0.29449176795579995,0.07590162754859477
1683999308159247600,11.83764794921875,0.6282073258183485,-0.14246368414049473,0.05622720722189157
1683999308169289600,11.84768994140625,0.664046287699205,0.2841548918838788,0.3856404423219427
1683999308179331800,11.857732177734375,0.6662858724751322,0.31847572339899494,0.10381877420035823
1683999308189373900,11.867774169921876,0.6185696722060376,0.09066772452952804,-0.000984907134438079
1683999308199416200,11.877816650390624,0.6643677949107971,0.12681674947434898,0.23763799672452363
1683999308209458400,11.887858642578124,0.6584562063781394,0.11660480488263711,0.5150391459263928
1683999308219500500,11.89790087890625,0.5367516277477512,-0.11266613016179104,0.8192088605205005
1683999308229542600,11.90794287109375,0.3287023901863895,-0.1757926940832781,0.8811860085643284
1683999308239584900,11.9179853515625,0.1382996439839225,-0.174861907994811,0.8685382008397009
1683999308249627100,11.92802734375,-0.025811731888625948,-0.24277687070311454,1.0222442148557929
1683999308259669200,11.938069580078125,-0.21552109712553555,-0.3804368973630311,1.2071675061337899
1683999308269711300,11.948111572265624,-0.4370874167651668,-0.4524154663229374,1.3142992257528416
1683999308279753600,11.958154052734375,-0.6845829487391342,-0.7020730973988277,1.3441250324284522
1683999308289795800,11.968196044921877,-0.8257602452351256,-1.0832853316161326,1.4312723873977693
1683999308299837900,11.97823828125,-0.8609241249025636,-1.444822311406855,1.5656083822317433
1683999308309880000,11.9882802734375,-0.7773053646320222,-1.614335060198218,1.7079592944081556
1683999308319922100,11.998322509765623,-0.6549094914797632,-1.6219644546796956,1.8162198066861286
1683999308329964500,12.00836474609375,-0.5077774525436144,-1.5162162781570547,1.9380660056056784
1683999308340006600,12.018406982421874,-0.41224160794050985,-1.4454088210221299,2.112924814080558
1683999308350048600,12.028448974609375,-0.3818398117733057,-1.4399852751116036,2.273541927251231
1683999308360090800,12.0384912109375,-0.4438913463360022,-1.637038230788154,2.373400211394069
1683999308370133200,12.048533447265624,-0.45847326516219655,-1.8792695999361568,2.0588939191537694
1683999308380175300,12.05857568359375,-0.38848724962878584,-1.956390380850662,1.8346921206832496
1683999308390217400,12.06861767578125,-0.5743913053824944,-1.9093580246226538,1.705516099770338
1683999308400259600,12.078659912109377,-1.0681664943886453,-1.5300693511142422,1.2089409829263411
1683999308410301900,12.088702392578124,-1.677385330294222,-0.9790678023857838,0.6633360981970734
1683999308420344000,12.098744384765626,-2.0998289583609124,-0.22575378419843964,0.1787830591235747
1683999308430386100,12.108786376953123,-2.176433086370413,0.5190105436793663,-0.08240282535073981
1683999308440428200,12.11882861328125,-2.0894708633567243,1.054254531817231,-0.37355852126249595
1683999308450470600,12.12887109375,-1.9576531647199715,1.487280845785584,-0.7863138912722667
1683999308460512600,12.1389130859375,-1.703767299659297,1.7676877975897576,-1.1398059129674085
1683999308470554800,12.148955078125,-1.1956133841893928,1.8025035856426534,-1.3135207891818796
1683999308480596900,12.158997314453124,-0.6173605918398691,1.8501400949118574,-1.4343576431602085
1683999308490639300,12.169039794921876,-0.08247083424777675,1.9080772399777757,-1.5342831610886947
1683999308500681400,12.179081787109377,0.3070858418870512,1.8378238678808407,-1.5212265252490798
1683999308510723600,12.1891240234375,0.651225209336124,1.7544116973363415,-1.5326051712008089
1683999308520765600,12.199166015625,0.8663336038481089,1.4907608033395168,-1.738568425133267
1683999308530807600,12.2092080078125,1.072084545977973,1.0164451599569357,-1.7509858607272344
1683999308540850100,12.21925048828125,1.2207541467100187,0.420495033278198,-1.927536964411899
1683999308550892200,12.229292724609374,1.369738340289396,-0.1724100113402477,-2.035598278096661
1683999308560934300,12.239334716796876,1.554607152898919,-0.8049802778574001,-2.0278365613429155
1683999308570976400,12.249376953125,1.7082517146880234,-1.3717603683584607,-2.0890495777224456
1683999308581018800,12.259419189453125,1.7683022022596124,-1.8749685288309454,-2.1248161794211535
1683999308591060900,12.26946142578125,1.72914695723812,-2.249793052542246,-2.0972108841450567
1683999308601103000,12.27950341796875,1.5662578343834914,-2.1262483596222306,-2.1791441441993697
1683999308611145100,12.289545654296877,1.3064975738143125,-1.6777429581040801,-2.188482284574193
1683999308621187600,12.299587890625,1.0224272012556566,-1.06510639192635,-1.9449951649163446
1683999308631229600,12.309630126953126,0.6507674456695927,-0.41511154175914133,-1.510625839065822
1683999308641271600,12.319672119140623,0.24060845370266395,0.19109725942823935,-1.0693057775561383
1683999308651313800,12.32971435546875,-0.08040857325667082,0.6986446381036489,-0.7154799699130927
1683999308661356200,12.339756591796874,-0.28093063826511316,1.0336036681367649,-0.45494133234926126
1683999308671398300,12.349798828125,-0.3336775303581165,1.2677373884604322,-0.33522957570317125
1683999308681440400,12.3598408203125,-0.29890060420562925,1.3794212342852117,-0.2971220017560008
1683999308691482600,12.369883056640624,-0.1771410705198103,1.4164152145913378,-0.3305584490005418
1683999308701524600,12.379925048828126,-0.0012036562472140947,1.4098424909879266,-0.4377681315019803
1683999308711567000,12.389967529296875,0.15964818010902046,1.4314670562973895,-0.5569615364802377
1683999308721609100,12.400009521484376,0.3362126351046925,1.3857412338955597,-0.7046854496846072
1683999308731651200,12.4100517578125,0.4608680009065805,1.2992315291564485,-0.8858366012901902
1683999308741693400,12.42009375,0.5284901857952539,1.1649742126950533,-1.0650124550748117
1683999308751735600,12.43013623046875,0.5172940493046821,1.0237798690376987,-1.2475959061509696
1683999308761777800,12.44017822265625,0.38937306414084505,0.8279170989967947,-1.31035697472638
1683999308771820000,12.450220458984376,0.18383812913761197,0.641926765485352,-1.42214357840518
1683999308781862100,12.460262451171875,-0.022284150219379108,0.43229484554946496,-1.4668473004761842
1683999308791904400,12.470304931640625,-0.21725332746294357,0.2158060072980745,-1.4829207658935417
1683999308801946600,12.480346923828124,-0.39925396445280287,0.1047716140007496,-1.5313779115581647
1683999308811988600,12.49038916015625,-0.45484197139956306,0.10625457768780266,-1.519662737715394
1683999308822030800,12.50043115234375,-0.4092637299621418,0.19626808154613326,-1.4374324084508774
1683999308832073100,12.5104736328125,-0.26997792733488823,0.29819202408129736,-1.3534057140452578
1683999308842115200,12.520515625,-0.12534523010725354,0.36182022091504634,-1.2646220920951488
1683999308852157400,12.530557861328123,0.07444381715292167,0.3419599532323769,-1.1694175005633578
1683999308862199500,12.540599853515625,0.2617533208271132,0.23657417311708737,-1.0165865420920057
1683999308872241800,12.550642333984374,0.29594790927984627,0.13659381867748474,-0.718422353289868
1683999308882284000,12.560684326171875,0.20001244538301136,0.06807231909789783,-0.4492686389705813
