time,seconds_elapsed,z,y,x
1683999979473683100,0.03408349609375,-1.0736853128359779e-10,-1.1391835234630336e-10,5.956436800928253e-11
1683999979483724600,0.044125,-0.06293869020583763,0.05824470514288574,-0.06842470167550328
1683999979493766300,0.054166748046875,-0.12629222884867025,0.1168574095339483,-0.09184503541385058
1683999979503807900,0.064208251953125,-0.21776199325843332,0.05542242528151743,-0.01694107051906577
1683999979513849600,0.07425,-0.16635990144553955,-0.3723970650530107,-0.22012710576465921
1683999979523891100,0.08429150390625,0.12338829049066868,-0.39604562532295656,-0.05473899858702267
1683999979533932600,0.0943330078125,0.4640970230896112,-0.29854756598609755,0.16258478164860068
1683999979543974300,0.104374755859375,0.5746393203506688,-0.09243839984872662,0.5481953620980999
1683999979554015900,0.114416259765625,0.23371887207899503,0.0951964855723451,0.7914986610676875
1683999979564057600,0.1244580078125,-0.17397212968243525,0.12680697444604752,0.8326115607764796
1683999979574099100,0.13449951171875,-0.7709226608876915,0.4445496798647595,-0.098081588626938
1683999979584140600,0.144541015625,-1.186553001403358,0.6438714267090884,-0.48240709309510765
1683999979594182300,0.154582763671875,-1.2408781052159106,0.455162286710821,-0.4582414626394659
1683999979604223900,0.164624267578125,-0.20625257495681554,-0.4018650056146641,0.8317532539193178
1683999979614265600,0.174666015625,0.06982421880290211,0.23836576932338907,0.049818515929529045
1683999979624307100,0.18470751953125,0.42529773714833624,0.800037741694533,-0.6467132568616799
1683999979634348600,0.1947490234375,0.6236953736635698,0.8685362339518276,-1.0341382026465504
1683999979644390300,0.204790771484375,0.9099874497102175,0.7994499206885461,-0.9907054901648593
1683999979654431900,0.214832275390625,-0.13250684732021004,0.46715724485036586,-1.5331952572639
1683999979664473600,0.2248740234375,-1.2141242027322554,0.39549541481810463,-2.296326160416095
1683999979674515100,0.23491552734375,-1.826263427895576,0.328570366039618,-2.5861670970413804
1683999979684556600,0.24495703125,-1.7029180528273442,0.1831336021535622,-2.1931366919507633
1683999979694598300,0.254998779296875,-1.2381758689385869,0.15695762637575714,-1.3922681809323525
1683999979704639900,0.265040283203125,-0.718511581312754,0.25087904940167965,-1.1429412365527654
1683999979714681600,0.27508203125,-0.4046854972571456,0.3452271818863317,-1.2804324627920205
1683999979724723100,0.28512353515625,-0.19798135761350832,0.436328828440273,-1.2354159355306866
1683999979734764600,0.2951650390625,-0.2953157423425456,0.5115971566510428,-1.1328177452107577
1683999979744806300,0.305206787109375,-0.6261715888709208,0.5017015933247492,-1.2927453518156276
1683999979754847900,0.315248291015625,-1.0420722963112503,0.37879079575089525,-1.4563148021200198
1683999979764889800,0.325290283203125,-1.465482711619872,0.24652254589843586,-1.7948400973713325
1683999979774931100,0.33533154296875,-1.6724424360551966,0.13112163550488065,-2.185891389889855
1683999979784972600,0.345373046875,-1.721643447878257,0.022425591967070262,-2.608461618356118
1683999979795014300,0.355414794921875,-1.6874923707208929,-0.12324321275785373,-2.778617143752793
1683999979805056200,0.36545654296875,-1.6329512597043394,-0.4440719484571538,-2.925283670513781
1683999979815097800,0.375498291015625,-1.4935760498318398,-0.5918633341797245,-2.6848943233755214
1683999979825139100,0.38553955078125,-1.38262319558804,-0.47588983191160783,-2.110959529905603
1683999979835181000,0.395581298828125,-1.64379119862842,-0.6051698326515375,-1.8467652796853247
1683999979845222600,0.405623046875,-1.7260098456400503,-0.9975676538096478,-2.1209883690374234
1683999979855264200,0.41566455078125,-1.442656040179754,-1.2931318283847468,-2.52764368062034
1683999979865305800,0.4257060546875,-1.132661819455876,-1.5457365514478263,-2.8835167885248314
1683999979875347400,0.435747802734375,-0.33656835562297344,-1.35601043691704,-2.362231731374394
1683999979885389000,0.445789306640625,-0.25700855264116634,-1.3271725177688285,-0.881700038803033
1683999979895430600,0.4558310546875,0.12610673911427236,-1.3699080943468656,-0.4934620855945682
1683999979905472200,0.46587255859375,1.2868471146458234,-0.44932341560685723,-0.787326812836812
1683999979915513800,0.4759140625,1.367530822637909,-0.5994304417647238,0.37986850752042095
1683999979925555400,0.485955810546875,2.1707601548132796,-0.8124306202021484,0.37996625906012665
1683999979935597000,0.495997314453125,2.9676682950358955,-1.0199232100059734,0.5593633653137948
1683999979945638600,0.5060390625,3.9842395781426014,-0.9983992576733217,0.8383302688255694
1683999979955680200,0.51608056640625,5.303976058961528,-0.8487288950962787,1.5907597541692176
1683999979965721800,0.5261220703125,5.6285381316976615,-0.8090803622658577,3.8686876296588966
1683999979975763400,0.536163818359375,6.14718866360501,-0.4992370605885138,4.741071701168859
1683999979985805000,0.546205322265625,6.472612380969109,-0.04278707512930593,5.4940786361759475
1683999979995846600,0.5562470703125,6.481595516149638,0.35355901711532306,6.021629810395743
1683999980005888200,0.56628857421875,5.505845069833018,0.5708706378761658,6.015824794627013
1683999980015929800,0.576330078125,4.246436595876255,0.8772912026558488,6.306944847135247
1683999980025971400,0.586371826171875,2.6553814410855305,1.4532878397298041,6.4855346678282055
1683999980036013000,0.596413330078125,1.0859189033542769,2.0682764053151543,6.429523468013645
1683999980046054600,0.606455078125,0.5261592865269343,2.4640297890183107,6.840540885996379
1683999980056096200,0.61649658203125,1.1435613632618014,3.1633911132485903,6.921216964733974
1683999980066137800,0.6265380859375,1.6820654867225726,2.575063467023994,6.929124832079692
1683999980076179400,0.636579833984375,2.7766757010473686,2.3830356597674047,6.823956489573271
1683999980086221000,0.646621337890625,3.243160724801449,2.7970902918995817,5.5759782790281305
1683999980096262600,0.6566630859375,2.8196830749073825,2.840574502800481,5.001630783010009
1683999980106304200,0.66670458984375,1.6216375827477711,2.9613394737419045,4.036361694299015
1683999980116345800,0.67674609375,0.25515806671148383,2.853981018003047,2.922969818153602
1683999980126387400,0.686787841796875,-0.3504714966922237,2.3976931570906177,2.5091743470156778
1683999980136429000,0.696829345703125,-0.9252261518222209,2.129165649438449,1.998188018813983
1683999980146470600,0.70687109375,-1.6483906506747366,2.0398988723800673,1.5011835098545667
1683999980156512200,0.71691259765625,-2.9019346237685806,2.1876368521614995,1.498989105277426
1683999980166553800,0.7269541015625,-3.487674713138351,2.3236937523820274,1.8321819305725058
1683999980176595400,0.736995849609375,-3.9119343756000817,3.0179834367188296,1.7891178129740437
1683999980186637000,0.747037353515625,-4.420571327110749,3.7535948754759247,1.7710886000030128
1683999980196678600,0.757078857421875,-5.660808086262572,3.5110352039075345,1.938302040099201
1683999980206720200,0.76712060546875,-4.885360717774242,2.5529711246498183,1.5637226104025408
1683999980216761800,0.777162109375,-3.744201183358629,1.7423357964107726,1.536005020205108
1683999980226803400,0.787203857421875,-2.9595561026683157,1.152931809520921,1.4739007949394807
1683999980236845000,0.797245361328125,-2.273790359445733,0.8656630516793967,1.3362007142108308
1683999980246886600,0.807286865234375,-2.2218751907821663,0.5580086707866491,1.1630249024382713
1683999980256928200,0.81732861328125,-2.273417472933916,0.30436062824887644,1.0383920669989413
1683999980266969800,0.8273701171875,-2.0853433609068395,-0.030936002819948755,0.5567922590312755
1683999980277011400,0.837411865234375,-1.447299242206687,-0.33158659929742623,0.4408855438082543
1683999980287053000,0.847453369140625,-1.0287270546277907,-0.5393705367383193,0.40921974181812204
1683999980297094600,0.857494873046875,-0.6445367337920038,-1.2016046045437798,0.4264974594327696
1683999980307136200,0.86753662109375,-0.6380844115654757,-0.4385694264608275,1.0233030319217367
1683999980317177800,0.877578125,0.39248871814062425,-0.5277192591229296,-0.58358478546141
1683999980327219400,0.887619873046875,2.0254719256323153,-1.4948071241630074,0.03163814541601336
1683999980337261000,0.897661376953125,2.8604850769113837,-1.7493557930616765,-1.1984281540144015
1683999980347302600,0.907702880859375,2.5428888796781526,-2.072348594744407,-2.042518615659291
1683999980357344200,0.91774462890625,2.6325621605017773,-1.7847477198486552,-2.4222354888462716
1683999980367385800,0.9277861328125,2.3389863967807245,-1.2706286907579476,-2.564193725482833
1683999980377427400,0.937827880859375,2.4165654181736675,-0.8915272950785003,-2.1800813675531763
1683999980387469000,0.947869384765625,2.806828975619152,-0.7983653546080609,-1.7934579848924053
1683999980397510600,0.957910888671875,3.119125127734672,-0.7238972188339452,-1.9112553597000048
1683999980407552200,0.96795263671875,3.1207513808501055,-0.9057625532767096,-1.805255889899668
1683999980417593800,0.977994140625,3.3644185064903915,-0.595097303379398,-1.6377854345666465
1683999980427635400,0.988035888671875,3.2495219706675162,-1.0966026784623273,-1.1504735946410136
1683999980437677000,0.998077392578125,3.108261108402741,-1.299568772279193,-0.6446933746476285
1683999980447718600,1.008118896484375,3.040572881693102,-1.055495023592143,-0.19439029701197502
1683999980457760200,1.01816064453125,3.662704229393841,-0.6282645464689877,-0.5290536882159973
1683999980467801800,1.0282021484375,3.817151308102267,-1.0750083924186253,-2.413940906661512
1683999980477843400,1.038243896484375,3.7596530914187394,-2.310718774896164,-1.3896193502932213
1683999980487885000,1.048285400390625,1.1277973651526059,-2.608673333948229,-0.8881120682235062
1683999980497926600,1.058326904296875,-0.37274384504488495,-2.1131172180150246,-0.9271821976998814
1683999980507968200,1.06836865234375,-1.1619030237359032,-1.7917697429922357,-0.5610990525460564
1683999980518009800,1.07841015625,-1.9356302022707683,-1.703747272423152,0.16750526439743732
1683999980528051400,1.08845166015625,-2.8758296966590864,-1.9981369973726013,1.2476606367410963
1683999980538093000,1.098493408203125,-3.614152908313908,-1.830637216544187,1.5707283019425662
1683999980548134600,1.108534912109375,-3.6215906144259873,-1.3771784307400123,1.553535461347779
1683999980558176200,1.11857666015625,-3.000646114316202,-1.1308851241603755,1.0990762710228161
1683999980568217800,1.1286181640625,-2.0605182647928473,-1.325031995616351,0.044146537866034806
1683999980578259400,1.13865966796875,-1.0484782456631456,-1.6273460388064287,-0.7946634292523572
1683999980588301000,1.148701416015625,-0.0940339565728742,-1.7660872936579588,-0.8632898330694515
1683999980598342600,1.158742919921875,0.7402988076991026,-1.7144358157303254,-0.15720558171874663
1683999980608384200,1.16878466796875,0.947678089090712,-1.5628080367671144,0.7720537185606728
1683999980618425800,1.178826171875,0.9136210083288927,-1.4249377251892763,1.2833957672856702
1683999980628467400,1.18886767578125,0.6099839805925656,-1.079264640841437,1.1440725324709573
1683999980638509000,1.198909423828125,0.3464679717417937,-0.8770070076348274,1.1807889940036422
1683999980648550600,1.208950927734375,0.8492274284231215,-0.1334800719296188,0.44727230058975104
1683999980658592200,1.21899267578125,1.2464010714900093,-0.38551425935614536,0.15553569780426424
1683999980668633800,1.2290341796875,0.5873216390489665,-1.1038703919499433,0.1827173233471522
1683999980678675400,1.23907568359375,0.11489737033897436,-1.7488570214634371,0.7730340957503602
1683999980688717000,1.249117431640625,0.7365043163762077,-1.9182677269324024,0.9926586150519888
1683999980698758600,1.259158935546875,0.7608518004317913,-0.8028922082343785,1.142309188687023
1683999980708800200,1.26920068359375,0.42193514118270264,-0.22317409516931783,1.379919052175163
1683999980718841800,1.2792421875,0.20096057651490773,0.07607316975399916,1.3733386993548347
1683999980728883400,1.28928369140625,0.12209093577559735,0.0599327088470271,1.2900943754904528
1683999980738925000,1.299325439453125,0.07615828503232314,0.06286573413621348,1.2457370757277377
1683999980748966600,1.309366943359375,-0.10780447735127152,0.09260702137949783,0.7137241362989363
1683999980759008200,1.31940869140625,0.3206495642994643,-0.3785791397065828,0.35821533199471145
1683999980769049800,1.3294501953125,0.7914608119759219,-0.14592885971905356,-0.16438293464095868
1683999980779091400,1.33949169921875,0.7744330167531608,0.07661533367109505,0.0897531510216632
1683999980789133000,1.349533447265625,0.8589416742697019,0.1633973121531437,-0.5077085494174138
1683999980799174600,1.359574951171875,0.8265954255527814,-0.6450734137956611,-1.2933597565224182
1683999980809216200,1.369616455078125,0.20360541334598709,-0.7885165214717271,-0.45314025873101915
1683999980819257800,1.379658203125,-0.3474191426353074,0.4183111191694501,0.6784811020286535
1683999980829299400,1.38969970703125,-0.45319914813907464,0.7370924950678814,-0.17442798608722648
1683999980839341000,1.399741455078125,-0.08825325956439586,0.641630649570524,-0.38161373121993697
1683999980849382600,1.409782958984375,0.34816789619440175,0.14243459690242652,-0.16519737242853177
1683999980859424200,1.419824462890625,0.7187659739622089,0.0773878096051477,-0.03108310697616632
1683999980869465800,1.4298662109375,0.46131694317287003,0.48484754562642884,-0.10176181774704242
1683999980879507400,1.43990771484375,0.30818700777457025,1.2261147498099412,-0.26631450666932144
1683999980889549000,1.449949462890625,0.359617590843607,1.6494750977044412,-0.22781467435380628
1683999980899590600,1.459990966796875,0.7622711659006455,1.7689695358202924,-0.3959860800850526
1683999980909632200,1.470032470703125,0.7583450078219841,1.3627800941747938,-0.24834728241489545
1683999980919673800,1.48007421875,0.5401239395559091,0.9287247657182458,-0.1682300567340494
1683999980929715400,1.49011572265625,0.15141332145351127,0.23348760591527254,0.05232429494648329
1683999980939757000,1.500157470703125,-0.17772626869937877,0.02343559256471019,0.6400423049632691
1683999980949798600,1.510198974609375,-0.16851997358528092,-0.39079809184003933,1.2369232179368204
1683999980959840200,1.520240478515625,0.6026175022137673,0.2980375289624004,1.4553565977367082
1683999980969881800,1.5302822265625,-0.5644800663459547,-1.9361863137027215,1.2810316085709026
1683999980979923400,1.54032373046875,-0.730373859363249,-3.274618625597364,0.790087699741075
1683999980989965000,1.550365478515625,-0.49869275093446075,-2.5926465988540106,0.18487024304603944
1683999981000006600,1.560406982421875,0.4749866722977569,-0.1597695351973614,-0.5961761475348974
1683999981010048200,1.570448486328125,1.3798679113107681,0.5703783035545845,-0.4881048202989414
1683999981020089800,1.580490234375,1.4768636225426461,0.26382207866057783,-0.10480499283002317
1683999981030131400,1.59053173828125,1.3891775608362773,-0.008543491398975615,0.1364407540548603
1683999981040173000,1.600573486328125,1.412889242182418,0.20826244358678697,0.2946696282277432
1683999981050214600,1.610614990234375,1.295379161878592,0.48978281020448583,0.2413053513301917
1683999981060256200,1.620656494140625,1.0309296847714753,0.011617183654840912,0.5842118264340063
1683999981070297800,1.6306982421875,1.1248203515519695,0.038425445542569665,0.7676272392348136
1683999981080339400,1.64073974609375,1.2716082333962928,0.3983201978886481,0.7705168723602103
1683999981090381000,1.650781494140625,1.0541930197902165,0.5038318634429213,1.1746368406939167
1683999981100422600,1.660822998046875,0.4571216105456892,0.6825876235237651,1.7168102264472762
1683999981110464200,1.670864501953125,-0.5634969472563885,0.005097389369289279,1.0667319298438873
1683999981120505800,1.68090625,0.08442342294026534,0.7771248817777595,0.737378120346816
1683999981130547400,1.69094775390625,0.2796206474455587,0.6229500770430771,0.624769687811761
1683999981140589000,1.7009892578125,1.25262451162969,0.1696910858322755,1.4404644965530002
1683999981150630600,1.711031005859375,1.439235210469357,1.2612528800510725,0.6207637785937581
1683999981160672200,1.721072509765625,0.5792196989004752,1.9071669578414197,0.11164045334130236
1683999981170713800,1.7311142578125,0.1113053561670836,1.4485993384654863,0.32967996594079574
1683999981180755400,1.74115576171875,-0.2503333687718858,1.1925525665578243,0.3987259864688842
1683999981190797000,1.751197265625,-0.24213021984028796,1.0020732880170127,0.16869497307092116
1683999981200838600,1.761239013671875,-0.15557658671377358,2.159947395206349,-0.7775225639033135
1683999981210880200,1.771280517578125,0.060166776114986796,0.9564390183128522,-0.17360973355041573
1683999981220921800,1.781322265625,-0.17281353469473182,0.2973742485174922,-0.108818054236823
1683999981230963400,1.79136376953125,-0.7504189014215665,-0.19558715821429962,-0.06120967862913449
1683999981241005000,1.8014052734375,-0.9243718385025658,-0.3683400154400049,0.0999784470328737
1683999981251046600,1.811447021484375,-0.42272007462626116,-0.31923770902692294,0.5202565193772729
1683999981261088200,1.821488525390625,0.04724121834586831,0.03411483774401173,0.4676299096661256
1683999981271129800,1.8315302734375,0.3225669860815949,0.5463271140626128,0.2913336753927339
1683999981281171400,1.84157177734375,0.444736927810304,1.4018597602268068,1.094089985011047
1683999981291213000,1.85161328125,0.05676806731405376,0.7546582223438217,0.6784391402211861
1683999981301254600,1.861655029296875,-0.1067920849424848,1.9257860182766295,0.5837159156042683
1683999981311296200,1.871696533203125,-0.8524677753508472,0.2631406784339629,0.8422479629940959
1683999981321337800,1.88173828125,-1.026190757743949,-0.6661529540687543,0.5792646407786352
1683999981331379400,1.89177978515625,-0.5561838747246423,-0.6498060226450836,0.3516459465501815
1683999981341421000,1.9018212890625,0.08263576039418724,0.20207881934115468,0.0507941245893793
1683999981351462600,1.911863037109375,0.15634828814987636,0.4800200462050746,0.5554084777277163
1683999981361504200,1.921904541015625,0.06870311500453688,0.7587213517078051,0.8738851547972449
1683999981371545800,1.9319462890625,0.005116164678091239,1.0329651833836822,0.9121723175387879
1683999981381587400,1.94198779296875,-0.06830108174545826,0.8075442315071962,1.2057347298759133
1683999981391629000,1.952029296875,0.051918983433178856,0.9044480323182262,1.1913571357509045
1683999981401670600,1.962071044921875,0.32462114083186505,1.3521709442836316,0.7763128279915119
1683999981411712200,1.972112548828125,0.5440736411455976,0.9543266296385097,0.5282340050109705
1683999981421753800,1.982154296875,1.2686638832237178,-0.5125885009093392,0.07074403747862011
1683999981431795400,1.99219580078125,0.3928144573687166,-0.3268818857273653,0.4522619246976861
1683999981441837000,2.0022373046875,0.43265217537526424,-0.5443243981271695,0.32354497910813934
1683999981451878600,2.012279052734375,0.4442699253794109,-0.1430716513301933,0.13189315791519518
1683999981461920200,2.022320556640625,0.7235324381433974,0.5027866363746537,0.5889983177421444
1683999981471961800,2.032362060546875,0.4679449499334339,0.6522388458429299,0.6852078438165154
1683999981482003400,2.04240380859375,0.16288739438205815,0.6667232513378705,0.7167739867692653
1683999981492045000,2.0524453125,-0.0002632141291251244,1.0546627043163677,0.5091333390053872
1683999981502086600,2.062487060546875,-0.10420262822728138,1.1491484641414982,-0.3002448082326467
1683999981512128200,2.072528564453125,-0.1255981923265291,1.0861678124298288,0.40545034411384107
1683999981522169800,2.082570068359375,0.36328625667943143,1.4398503304395862,1.4417662620163108
1683999981532211400,2.09261181640625,0.6613650918442074,1.4045295715634782,2.4243345260189715
1683999981542253000,2.1026533203125,0.8427007794754683,0.7843942642658815,3.3213782311128375
1683999981552294600,2.112695068359375,0.9523785114885005,0.0006809233432770169,3.7191104887394477
1683999981562336200,2.122736572265625,1.0029956101579618,-0.3176407814401421,3.552935600297365
1683999981572377800,2.132778076171875,0.6294445395841738,-0.2710452080651939,2.604168415057229
1683999981582419400,2.14281982421875,0.043712973480760815,-0.5184025764240369,1.6146879196347512
1683999981592461000,2.152861328125,0.48701477054422293,1.821648597754411,0.6751337050713364
1683999981602502600,2.162903076171875,-1.342137098312726,-1.1489205361000319,1.1030755041936118
1683999981612544200,2.172944580078125,-1.3088440894758187,-1.8303794861679132,0.10292911533402496
1683999981622585800,2.182986083984375,-0.9997698067082458,-0.3493304251786304,-0.42381715774289735
1683999981632627400,2.19302783203125,-0.5375280380150063,0.2400445939133234,-0.29731273645586226
1683999981642669000,2.2030693359375,0.30673098560903184,1.4027700423114438,-0.17256784432746558
1683999981652710600,2.213111083984375,0.43874168396393054,0.6117434500554739,-0.25349092479483576
1683999981662752200,2.223152587890625,0.9837091564325303,1.3410577774239256,-0.4180583954032919
1683999981672793800,2.233194091796875,0.03371167191716068,0.9900002479527306,-0.5061097144584158
1683999981682835400,2.24323583984375,-0.664147615484735,0.660489559230012,-0.84530115129028
1683999981692877000,2.25327734375,-1.4112789631839464,0.302685737626878,-1.2611632346111914
1683999981702918600,2.263319091796875,-1.4019813535938797,-0.037898063538602325,-1.362343788174857
1683999981712960200,2.273360595703125,-0.9292339085400044,-0.5320072173282966,-1.1986479759334265
1683999981723001800,2.283402099609375,-0.48893284792325903,-1.050004482236059,-1.1375432014828801
1683999981733043400,2.29344384765625,-0.35049152362316605,-0.9844083785763856,-0.9012675285893436
1683999981743085000,2.3034853515625,-0.5837055446436014,-1.1723065376409607,-0.6352682113673099
1683999981753126600,2.31352685546875,-1.2871586084127125,-1.163969039761804,-0.16782140743091126
1683999981763168200,2.323568603515625,-1.8310555218545879,-1.6898503303186467,0.1629915236028776
1683999981773209800,2.333610107421875,-1.4200900792976225,-1.702817917006298,0.39696073546973
1683999981783251400,2.34365185546875,-0.3534700870294992,-1.1079435348379285,0.6285471916142037
1683999981793293000,2.353693359375,0.2735304833018893,-0.5662589071961941,0.3491292001146927
1683999981803334600,2.36373486328125,0.3964118956932464,-0.9873700142055271,0.42263984677368016
1683999981813376200,2.373776611328125,0.20125794410849687,-0.8826951980295573,0.6657691002577081
1683999981823417800,2.383818115234375,0.3985807897233481,-1.4534072875668147,0.7426061629584476
1683999981833459400,2.39385986328125,0.60913991927589,-1.9866347312385395,1.2087993622277897
1683999981843501000,2.4039013671875,0.5524785518624427,-1.6472311019725698,1.160640716620896
1683999981853542600,2.41394287109375,0.44073748581657696,-1.1531019210661388,0.6307721137095001
1683999981863584200,2.423984619140625,0.2716909645794736,-0.6980714797979621,-0.2360329627087046
1683999981873625800,2.434026123046875,-0.10684573658260085,-0.8654603959586535,-1.141233921188067
1683999981883667400,2.44406787109375,-0.5450761316910927,0.19323062899531446,-1.6176996230790763
1683999981893709000,2.454109375,-0.5391049385724832,-0.9395394326257788,-2.299458980453418
1683999981903750600,2.46415087890625,-0.9198535680818793,-0.6118202208919444,-2.6992006302295084
1683999981913792200,2.474192626953125,-0.7055042982818894,-0.08126258841823712,-2.9189090728285474
1683999981923833800,2.484234130859375,-0.8942418097809123,-0.1118168832030171,-2.855261802554522
1683999981933875400,2.49427587890625,-0.9858551024601355,-0.357935428566064,-2.3942394257394035
1683999981943917000,2.5043173828125,-0.9855459929610559,0.2539091110333844,-2.131052017092996
1683999981953958600,2.51435888671875,-0.9182246923434078,0.3695359229797852,-1.5716938971567274
1683999981964000200,2.524400634765625,-0.6292710303516587,0.06357669829224641,-1.2371072768936247
1683999981974041800,2.534442138671875,-0.3281021117165258,0.3875384331618957,-1.2307791711198446
1683999981984083400,2.54448388671875,-0.0013874769574612027,0.6090316771964619,-0.7160496711723895
1683999981994125000,2.554525390625,0.6184068919078648,1.1969928740696036,-0.27555847170540837
1683999982004166600,2.56456689453125,0.8717093469176259,1.1826248167414246,-0.3878774642833522
1683999982014208200,2.574608642578125,1.0011063815512535,1.4103937148373724,-0.9978399277032347
1683999982024249800,2.584650146484375,0.6472927331789623,1.2572660445771031,-0.9855208398006148
1683999982034291400,2.59469189453125,0.17268061645719102,0.9625682830554165,-0.8700747491156009
1683999982044333000,2.6047333984375,0.017183542368627805,0.553817748980551,-0.730831146121829
1683999982054374300,2.614774658203125,-0.03007745731199249,0.33971738809453794,-0.7056159973800755
1683999982064416200,2.624816650390625,-0.006039023460625341,1.286329746323308,-0.5826964379066948
1683999982074457800,2.634858154296875,-0.28959393506368225,0.739830494023996,-0.6466226578423984
1683999982084499100,2.6448994140625,-0.43884909162194174,0.14822435382528157,-0.4057521821309723
1683999982094540600,2.654941162109375,-0.021312236692598154,-0.12002515785537102,0.07156324385033956
1683999982104582600,2.66498291015625,0.2683439255352459,-0.07213449489229004,-0.012110233291203459
1683999982114623900,2.6750244140625,0.3140695095015045,0.06373739239569381,-0.3050808905289929
1683999982124665600,2.68506591796875,0.18309915071858762,0.40123128887251164,-0.5187115667365677
1683999982134707400,2.695107666015625,-0.0892391205767413,0.6504936218173922,-0.8332543372764162
1683999982144748600,2.705149169921875,-0.30355894573897974,1.2990274428503925,-1.1998972892375523
1683999982154790300,2.715190673828125,-0.9454468489026634,2.0000562666933517,-1.3981943131441885
1683999982164831900,2.725232421875,-0.43331634996609264,0.3123221396200018,-1.247079372477105
1683999982174873800,2.735274169921875,-0.9357812403872328,1.6371355056085595,-0.7644715308946384
1683999982184915100,2.7453154296875,-0.9257369042518386,0.920896530128836,-0.6573858259980403
1683999982194956600,2.755357177734375,-0.7949850558993315,0.8181924820071679,0.02104949944300165
1683999982204998600,2.76539892578125,-0.7188725471389068,0.5881023407140348,0.48484182359325895
1683999982215039900,2.7754404296875,-0.5705822706471187,3.9520740508713623,-0.36863946926794605
1683999982225081600,2.78548193359375,0.19293069846031996,1.5991282462518344,0.992122173163821
1683999982235123100,2.7955234375,-0.005690574738340735,1.4539866447586725,1.4047565460955496
1683999982245164600,2.805565185546875,-0.14427483077248943,0.6964688300972105,1.4646134375860762
1683999982255206300,2.815606689453125,-0.4484754801233696,0.3067874906665482,1.2457523345594226
1683999982265247900,2.8256484375,-0.4852675198282319,-0.6775832175538332,1.501183509856626
1683999982275289600,2.83568994140625,-1.5100710392173649,-0.9240603447809115,2.573980808386491
1683999982285331100,2.8457314453125,-1.8752441405170275,1.3178157806988036,1.8853492737071142
1683999982295372600,2.855773193359375,-1.1773200036056417,0.8635110855567171,1.668404579113423
1683999982305414300,2.865814697265625,-1.5071505307947304,0.7480344772164927,1.445049762825165
1683999982315455900,2.875856201171875,-1.8615393640123457,0.2504882812376774,1.2041540147606349
1683999982325497600,2.88589794921875,-1.7919768094530684,-0.6149072646861236,1.0361084937586196
1683999982335539100,2.895939453125,-1.4293322562039696,-0.4891080857146678,0.5834565161698151
1683999982345580600,2.905981201171875,-0.9188724757442818,-0.4007511139136258,-0.07752943025287926
1683999982355622300,2.916022705078125,-0.5274810790583547,-0.36966896047353154,-0.8310723305799058
1683999982365663900,2.926064208984375,-0.38956487186416366,-1.3402228355364856,-0.9832401275755459
1683999982375705600,2.93610595703125,-0.5956747532930649,-1.146048545906491,-1.661777973199314
1683999982385747100,2.9461474609375,-0.6885362864679976,-0.8421249389555896,-2.4053573609833387
1683999982395788600,2.956189208984375,-0.5462306736488083,-0.6947979926957332,-2.3151466846505406
1683999982405830300,2.966230712890625,-1.1474179030300224,-0.7823848723980863,-1.696044206619415
1683999982415871900,2.976272216796875,-2.354526519836676,-0.5870666504180758,0.22806644433142134
1683999982425913600,2.98631396484375,-2.281135797475926,-0.6569223402968325,1.5914702414940274
1683999982435955100,2.99635546875,-0.26416921613321453,-1.0691013336437822,2.0817055701029696
1683999982445996600,3.006397216796875,1.8390514851113415,-1.9204921724035313,2.070561409149
1683999982456038300,3.016438720703125,2.9525561333812504,-3.18241310119174,1.8409013749435865
1683999982466079900,3.026480224609375,3.3412258623736384,-4.322798728758358,1.5818147659877595
1683999982476121600,3.03652197265625,3.272041320706018,-3.7007970809834863,2.0205717087585278
1683999982486163100,3.0465634765625,2.4854474066888876,-1.6863012314229044,2.637002944870524
1683999982496204600,3.056605224609375,0.958643615184032,-0.4804334640688369,2.289209365778285
1683999982506246300,3.066646728515625,-0.33533942708617415,0.5751438141081486,-0.9548277855406603
1683999982516287900,3.076688232421875,-1.9441558123829568,0.9331660270613741,-2.758345604056666
1683999982526329600,3.08672998046875,-3.0408480167603593,1.145193576623943,-3.648495435771939
1683999982536371100,3.096771484375,-3.38853740689989,1.095476150550938,-3.784572601377897
1683999982546412600,3.106813232421875,-2.4863986968147773,0.9016437530162649,-3.282122135218254
1683999982556454300,3.116854736328125,-0.6505427361344057,0.6574020385244457,-2.5715675353556544
1683999982566495900,3.126896240234375,1.3164085150647833,0.5192737579602249,-2.0125102996878743
1683999982576537600,3.13693798828125,2.693818569219233,0.393874168329475,-1.6779103278114371
1683999982586579100,3.1469794921875,3.441515207292608,0.19620227821172562,-1.4189066888240172
1683999982596620600,3.157021240234375,3.8202815057026527,2.418465137546711,-1.101261615716769
1683999982606662300,3.167062744140625,3.053511619681391,1.1880521774239614,-1.5757832526848894
1683999982616703900,3.177104248046875,2.2730896473366573,0.16423797618384336,-1.834437847160671
1683999982626745600,3.18714599609375,1.8932728768137288,0.17682933805232068,-1.8967556954827318
1683999982636787100,3.1971875,1.6294243335147243,0.02526378642027625,-1.7341134546857273
1683999982646828600,3.20722900390625,1.3816981315826833,-0.06608772279161906,-1.4756052495306993
1683999982656870300,3.217270751953125,1.1824436186969474,-0.15739822393079353,-1.1986002920572358
1683999982666911900,3.227312255859375,0.9916613103002124,-0.5653972626340259,-0.9230270385359137
1683999982676953600,3.23735400390625,1.0109403133137935,-0.8240652084142674,-0.6726140977499712
1683999982686995100,3.2473955078125,1.1909656525540042,-0.9532890318242183,-0.22057604796329391
1683999982697036600,3.25743701171875,1.4270846843139735,-2.049050331119574,-0.3088009357553936
1683999982707078300,3.267478759765625,1.6216404438551963,-1.6583719253107188,-0.020600795650001138
1683999982717119900,3.277520263671875,1.3455239533364147,0.5508384704842918,0.5712027549366482
1683999982727161600,3.28756201171875,0.241764843471611,-1.6190853118660122,0.024360179854451207
1683999982737203100,3.297603515625,-0.3714550734367817,-0.29954338058840113,0.0012168883846003084
1683999982747244600,3.30764501953125,-0.46554809804159336,0.8143644333090979,-0.15071392059220912
1683999982757286300,3.317686767578125,-0.5837276577613412,0.5464277267802417,-0.4668705462642515
1683999982767327900,3.327728271484375,-0.32540708788566247,-0.3210840225430834,-1.0034773348856394
1683999982777369600,3.33777001953125,0.27404782175745745,-0.3596515655987235,-1.2737264633339467
1683999982787411100,3.3478115234375,0.8433909416928675,-0.7496080398257301,-1.388895511665454
1683999982797452600,3.35785302734375,1.2189013958922512,-1.8353433607786807,-1.5876026153178793
1683999982807494300,3.367894775390625,1.7443661689611147,-1.4284372329514543,-1.2625963687932782
1683999982817535900,3.377936279296875,1.7110430001881392,-0.6237955094560607,-0.40041398999823236
1683999982827577600,3.38797802734375,1.1687295435936913,-0.6801214219326556,0.251599788724742
1683999982837619100,3.39801953125,0.6274371147725734,-0.5464105606382669,0.913793802177747
1683999982847660600,3.40806103515625,0.18655134731496303,-0.007574081403470845,1.268126964502235
1683999982857702300,3.418102783203125,-0.20442138609966873,0.5130653381208083,1.1745865343968107
1683999982867743900,3.428144287109375,-0.522592484798861,0.8675298690965526,0.6522607802231193
1683999982877785600,3.43818603515625,-0.7415744661459733,0.9329452514868616,0.13008618341229472
1683999982887827100,3.4482275390625,-0.7608004808445057,0.8802814484606685,-0.27289342884009726
1683999982897868600,3.45826904296875,-0.36799871914833227,0.3612051010843446,-0.3479940892603671
1683999982907910300,3.468310791015625,-0.13602602469750924,1.1662664412099066,0.40742206562623395
1683999982917951900,3.478352294921875,-0.24586960671051736,3.0510163307860285,1.2533495427056331
1683999982927993600,3.488393798828125,-0.47889488942325115,2.0356698036000154,0.6415331362825454
1683999982938035100,3.498435546875,-0.29083222155747906,0.3867645263081481,0.20344853400116078
1683999982948076600,3.50847705078125,-0.0478313266018037,-0.5664215087842567,-0.11546468746810529
1683999982958118300,3.518518798828125,0.20604103811946137,-1.8231172562739983,-0.287354946211694
1683999982968159900,3.528560302734375,0.49735248087039063,-1.7581100462324946,0.4329009056767938
1683999982978201600,3.538601806640625,0.5125798582572689,-0.7000846862126402,1.6587872505218018
1683999982988243100,3.5486435546875,0.17400407798099246,-0.3727540969164136,2.266890049068458
1683999982998284600,3.55868505859375,-0.2525491417102155,-0.7539339065909157,2.5484142303482935
1683999983008326300,3.568726806640625,-0.475830048282754,-0.5330047608907155,2.6152131558890317
1683999983018367900,3.578768310546875,-0.4979457258872479,-0.18574428559598286,2.423433780741747
1683999983028409600,3.588809814453125,-0.3218065201327931,-0.014111518863005008,1.811351299230509
1683999983038451100,3.5988515625,-0.1093229651280199,0.20360565184361515,1.0738601684177775
1683999983048492600,3.60889306640625,0.005493998605942097,0.30597972874210616,0.5024342536521671
1683999983058534300,3.618934814453125,0.052201747958633346,0.388911247108288,0.20414733878187843
1683999983068575900,3.628976318359375,0.07753688092308587,3.4927234647931185,0.9299111366935476
1683999983078617600,3.639017822265625,-0.10232609503761549,2.344039917055224,-0.06546092028143272
1683999983088659100,3.6490595703125,-0.06592816112199738,0.9886760712108444,-0.8234921694126399
1683999983098700500,3.659100830078125,0.1621779204882955,0.2648429870687292,-0.8796333074350661
1683999983108742300,3.669142822265625,0.41084820031585684,-0.6841402054353304,-0.6848406791451375
1683999983118783900,3.679184326171875,0.6576652525485867,-0.8823242187958648,0.1591961383417355
1683999983128825600,3.689225830078125,0.7291204333941121,-0.5495023727782448,1.122664690029613
1683999983138867100,3.699267578125,0.7227621076770766,-0.3386297227230721,1.7831269501641434
1683999983148908600,3.70930908203125,0.4726486207575015,1.869296550759689,2.7860145570616552
1683999983158950300,3.719350830078125,0.00020921238716377886,-0.8593606947759751,1.7901172638064657
1683999983168991600,3.72939208984375,-0.2811386585500682,-1.3312005996643088,1.572285294629147
1683999983179033600,3.739433837890625,-0.5238394142042836,-1.8746089935923347,1.5448256731080214
1683999983189075100,3.7494755859375,-0.596662640577808,-1.656773567306034,2.1648840905423983
1683999983199116500,3.759516845703125,-0.8936873674643242,-1.2048273087710915,2.4900288582086705
1683999983209158100,3.769558349609375,-1.2553666830254333,-0.9173793792998673,2.3075563907259946
1683999983219199900,3.779600341796875,-1.557433962702923,-0.7661962508780187,2.013428687939819
1683999983229241300,3.7896416015625,-1.53241753588339,-0.9271812438436182,1.9551373719110843
1683999983239282900,3.799683349609375,-1.1294077634199848,-1.0469961167016995,2.1687598227824174
1683999983249324600,3.80972509765625,-0.6867663263820691,-1.0837802888700692,2.3477313519068987
1683999983259366300,3.8197666015625,-0.4770526290375751,-0.9933853151186761,2.428002118935816
1683999983269407600,3.82980810546875,-0.4124506710845367,-0.7865228652434704,2.308182239381022
1683999983279449300,3.839849609375,-0.3182217478348433,-0.7234296799962513,1.94773912440998
1683999983289490900,3.849891357421875,-0.14122152335127588,-0.7627773285121042,1.6922615768409286
1683999983299532500,3.859932861328125,0.1552687882913367,-0.8517379760196795,1.51391899570245
1683999983309574100,3.869974365234375,0.28077965974482416,-0.8922138215563445,1.393008351202596
1683999983319615600,3.88001611328125,0.08305090661519486,-0.18893241882341458,2.415882110464315
1683999983329657300,3.8900576171875,-0.14853653306733247,-1.0160102843856424,1.6004242896163903
1683999983339698900,3.900099365234375,-0.7130503654334545,-1.0813121795978784,1.210101127525219
1683999983349740500,3.910140869140625,-1.5499154329569134,-0.8874979020126229,1.2573716641143227
1683999983359782100,3.920182373046875,-2.221685409523634,-0.26703929893768824,1.281614780264651
1683999983369823600,3.93022412109375,-2.8429181577499585,0.49450492857032347,0.8058726786474009
1683999983379865300,3.940265625,-3.3155150413483563,2.5580806733401515,0.7490177155106901
1683999983389906900,3.950307373046875,-3.087738275535642,0.8865985871938513,-0.8645943403327249
1683999983399948500,3.960348876953125,-1.6470284460846485,1.0205621719693885,-2.434339523396439
1683999983409990100,3.970390380859375,-0.10713195806115032,1.0179386137832465,-1.878571510349823
1683999983420031600,3.98043212890625,1.0736482143596922,0.7772531509079759,-2.359511137098892
1683999983430073300,3.9904736328125,1.4410024880969188,0.19093990316932882,-2.394573450155589
1683999983440114900,4.000515380859375,1.340521335520065,-0.5353193282325815,-1.9735364914796893
1683999983450156500,4.010556884765625,1.0482301710887902,-0.7591476440320546,-1.6361488103555857
1683999983460198100,4.020598388671875,0.9680799245203076,-0.7553644179429683,-1.290072441193059
1683999983470239600,4.03064013671875,1.0326824187919967,-0.9069318770329604,-1.0142759085785347
1683999983480281300,4.040681640625,0.9809112547006376,-1.0849018097444962,-0.9012610912219345
1683999983490322900,4.05072314453125,0.7735655306943195,-1.262019157398988,-0.8273530007398395
1683999983500364500,4.060764892578125,0.44712948810004927,-1.6326751709736922,-0.8779141902919947
1683999983510406100,4.070806396484375,0.44380676742246145,-1.619589805576472,-0.750578165073306
1683999983520447600,4.08084814453125,0.5886503457712033,-1.4518814087260183,-0.6911621095457458
1683999983530489300,4.0908896484375,0.8039640188801052,-1.517321586613348,-0.6433858871582135
1683999983540530900,4.10093115234375,0.9826934337103674,-1.6784114837009483,-0.6158528327205617
1683999983550572500,4.110972900390625,1.000267505685537,-1.5078201294613127,-0.6509473323272587
1683999983560614100,4.121014404296875,0.9909110069774775,-1.2531280517981984,-0.804990768456824
1683999983570655600,4.13105615234375,0.9413061143625582,-1.1181297301162052,-1.0168392657269383
1683999983580697300,4.14109765625,0.9287675620298943,-0.7726840973479898,-1.1819508075065661
1683999983590738900,4.15113916015625,0.9434272050250153,-0.04969406141915828,-1.2153615951689307
1683999983600780500,4.161180908203125,0.948754429919072,0.8929328918718786,-0.9479272364477923
1683999983610822100,4.171222412109375,0.7360782623260373,0.9363965987768635,-1.2502031325963963
1683999983620863600,4.18126416015625,0.6087151765095391,1.4550147057756386,-1.2441117764617284
1683999983630905300,4.1913056640625,0.49264395226982044,1.2843303680463978,-1.6099138259641619
1683999983640946900,4.20134716796875,0.4860055446347593,1.3005785942477845,-1.738861799223747
1683999983650988500,4.211388916015625,0.45922040942452247,1.4109892844378895,-1.7540494204124601
1683999983661030100,4.221430419921875,0.3701024056166237,1.3743467331545058,-1.829165577879661
1683999983671071600,4.23147216796875,0.23294568055818096,1.2079992294131012,-1.7869195938511127
1683999983681113300,4.241513671875,0.08395361898340503,1.1514015198156522,-1.6832246781054598
1683999983691154900,4.25155517578125,-0.1245293617999087,1.0586910247737775,-1.505242347738129
1683999983701196500,4.261596923828125,-0.16105103483194508,0.6886911393572774,-1.3697273730103205
1683999983711238100,4.271638427734375,-0.2491421698384894,0.5953655242132168,-1.2010438443085838
1683999983721279600,4.28168017578125,-0.33194756503693335,0.41219329838025476,-0.9418189525471529
1683999983731321300,4.2917216796875,-0.4127111434729243,0.256134986929431,-0.6516320705348102
1683999983741362900,4.30176318359375,-0.40028667434934506,0.09076404579985901,-0.4652698041513591
1683999983751404500,4.311804931640625,-0.3944745064556609,-0.01604652418039761,-0.21090197568718785
1683999983761446100,4.321846435546875,-0.4017109869905926,0.0021028519064364305,-0.16836929333389744
1683999983771487600,4.33188818359375,-0.2683246135433203,-0.0732622146499835,-0.42295217524150724
1683999983781529300,4.3419296875,-0.14748167982114108,0.08946704854504181,-0.692734241598966
1683999983791570900,4.35197119140625,-0.044395923613600195,0.2824821471804374,-0.772284507880873
1683999983801612500,4.362012939453125,0.03961515427180556,0.36394309999953195,-0.7207531928548481
1683999983811654100,4.372054443359375,0.19815731060685027,0.4220752717013049,-0.7364442347926804
1683999983821695600,4.382095947265625,0.26908016200644486,0.4244623183180675,-0.7083628177759178
1683999983831737300,4.3921376953125,0.17388224596765592,0.49641990671094993,-0.5411274434721337
1683999983841778900,4.40217919921875,0.01484799384995809,0.5087661744712367,-0.32492375371119797
1683999983851820500,4.412220947265625,-0.22123551374485792,0.43457317365637377,-0.09925723073682208
1683999983861862100,4.422262451171875,-0.5244598389229164,0.3782958984832786,0.10304474826409675
1683999983871903600,4.432303955078125,-0.7582724094314135,0.4610528946746435,0.3142323493902595
1683999983881945300,4.442345703125,-0.9050154685978571,0.5242605209982306,0.5416049956692341
1683999983891986900,4.45238720703125,-0.8531534670932165,0.5097637175884865,0.933999061611642
1683999983902028500,4.462428955078125,-0.5455832481095556,0.47007465361869843,1.2956042290665024
1683999983912070100,4.472470458984375,-0.17567515370442155,0.3456420899286047,1.5124647616246871
1683999983922111600,4.482511962890625,0.11124396334504925,0.301186561699442,1.4571533201857736
1683999983932153300,4.4925537109375,0.33870518213482853,0.3535041810236512,1.3351421355112736
1683999983942194900,4.50259521484375,0.44510161865867326,0.3947277069751529,1.1856191159195233
1683999983952236500,4.512636962890625,0.30783534049064215,0.45407295224693023,1.0952312946563985
1683999983962278100,4.522678466796875,-0.16032671925063358,0.3817529676689939,1.0696513652301338
1683999983972319600,4.532719970703125,-0.8233113287778062,0.3702220917216618,0.9321243762089717
1683999983982361300,4.54276171875,-1.4557414055326132,0.3094205857043834,0.7068822383194957
1683999983992402900,4.55280322265625,-1.8109781741060047,0.2979555128895985,0.4756965637551516
1683999984002444500,4.562844970703125,-1.9279367923738604,0.4318876266428975,0.38196849832114715
1683999984012486100,4.572886474609375,-1.7406136990824546,0.51162147516008,0.2718160153023196
1683999984022527600,4.582927978515625,-1.3216295243106173,0.6057157516059166,0.31707286834495196
1683999984032569300,4.5929697265625,-0.9250617026513688,0.7406511306518597,0.08558511733822159
1683999984042610900,4.60301123046875,-0.5546314716285625,0.47306919102048084,-0.37584590894822345
1683999984052652500,4.613052978515625,-0.23652362839678914,-0.24103260048103028,-0.6905043125323579
1683999984062694100,4.623094482421875,0.0556762219719363,-0.8487682343938463,-0.8642780780039333
1683999984072735600,4.633135986328125,0.1742970942470853,-1.1100797653929848,-0.901376485842745
1683999984082777300,4.643177734375,0.055062651644976264,-1.309030532765888,-0.8431184292637216
1683999984092818900,4.65321923828125,-0.10773813717667241,-1.6684589386952775,-0.6832222938349237
1683999984102860500,4.6632607421875,-0.4089438915708074,-1.9009265900225627,-0.5691921710990916
1683999984112902100,4.673302490234375,-1.2719620464982844,-2.2512350081119514,-0.16419410688437336
1683999984122943600,4.683343994140625,-3.078787326731088,-2.7506761550442143,0.5253505707089468
1683999984132985300,4.6933857421875,-4.476920604698735,-2.6284790038719232,1.7515847684757986
1683999984143026900,4.70342724609375,-3.053161859688347,-1.7481498718290274,3.029022455210669
1683999984153068500,4.71346875,-0.864937662947827,-1.080615043573671,3.4898707865976424
1683999984163110100,4.723510498046875,1.111840486542484,-0.7090263366696823,3.2389588355732806
1683999984173151600,4.733552001953125,2.3349416254477715,-0.4978427886761333,2.0656809807921213
1683999984183193300,4.74359375,2.878333091762394,-0.3167467116391272,0.4375426769746517
1683999984193234900,4.75363525390625,2.831370830680476,-0.10600185377014042,-0.9150917529197377
1683999984203276500,4.7636767578125,2.5106823443893456,0.11666393292253761,-1.7090986966643644
1683999984213318100,4.773718505859375,2.0573430061949756,0.416539192319304,-2.1863465310152006
1683999984223359600,4.783760009765625,1.4384595154462783,0.6141386031554915,-2.5268423557772364
1683999984233401300,4.7938017578125,0.864170491748243,0.8929529191511233,-2.652162790384955
1683999984243442900,4.80384326171875,0.44384312628426015,1.3334884643555018,-2.4501311779456967
1683999984253484500,4.813884765625,-0.05173552034525172,1.2800579071024476,-2.1758193969931723
1683999984263526100,4.823926513671875,-0.6085863112220543,1.0508346558142483,-1.7602845429433074
1683999984273567600,4.833968017578125,-1.1015237570304997,0.8363742829567089,-1.1040232182636174
1683999984283609300,4.844009765625,-1.2553974389922136,0.6447725295942942,-0.26255321503142426
1683999984293650900,4.85405126953125,-0.8937380313103427,0.493148803739008,0.4760513306078348
1683999984303692500,4.8640927734375,-0.11876308912285277,0.40639877318641704,0.8053400516597563
1683999984313734100,4.874134521484375,0.6843473910576436,0.4255352020153191,0.6847388744722926
1683999984323775600,4.884176025390625,1.2862426044012996,0.34940338150044253,0.47136425967909784
1683999984333817300,4.8942177734375,1.6487722398293005,0.2154369352361196,0.43915176379074095
1683999984343858900,4.90425927734375,1.926152825325671,0.09796333319136337,0.49697041510459666
1683999984353900500,4.91430078125,2.04322671896329,-0.036413192637452324,0.4831593037721432
1683999984363942100,4.924342529296875,2.028666973253462,-0.18282699596365157,0.3453533649217553
1683999984373983600,4.934384033203125,1.9601409434516939,-0.2265987397243958,0.0748519897888761
1683999984384025300,4.94442578125,1.8534846305167845,-0.2609338759920719,-0.2669143677756004
1683999984394066900,4.95446728515625,1.7271634339605475,-0.29061794270976915,-0.5618946552412404
1683999984404108500,4.9645087890625,1.6203646660025306,-0.33707427988941513,-0.814212560618299
1683999984414150100,4.974550537109375,1.551810860536172,-0.3954114912294691,-0.9759954214802248
1683999984424191600,4.984592041015625,1.5835607052319627,-0.5487480164804867,-1.0433752535581389
1683999984434233300,4.994633544921875,1.658686757042552,-0.5839834213765843,-0.8144640922540322
1683999984444274900,5.00467529296875,1.7026636600249516,-0.4540901183169833,-0.556724548302099
1683999984454316500,5.014716796875,1.5933046340854269,-0.43696975717743397,-0.4009413718473115
1683999984464358100,5.024758544921875,1.4957721232266714,-0.44879817968049346,-0.4042134285932883
1683999984474399600,5.034800048828125,1.390116095529056,-0.4823188781520457,-0.40375280373163225
1683999984484441300,5.044841552734375,1.286756753996181,-0.45402812970014755,-0.4599614143121475
1683999984494482900,5.05488330078125,1.1967785358890404,-0.3855133057064463,-0.5986335276741669
1683999984504524600,5.064925048828125,1.0586712359586616,-0.2504673005305946,-0.6919305324305944
1683999984514566100,5.074966552734375,0.8579698204649397,-0.10410690302151591,-0.7205421923335571
1683999984524607600,5.085008056640625,0.6550050377317908,0.0367851259141626,-0.7652647494733743
1683999984534649300,5.095049560546875,0.4281097053817285,0.1054563522445089,-0.8206183911225499
1683999984544691100,5.105091552734375,0.18161372845299897,0.13330936431552043,-0.8715523482504082
1683999984554732500,5.1151328125,-0.10936057567232449,0.049078941261953855,-0.9220144747039815
1683999984564774100,5.125174560546875,-0.3459779619356336,0.04178905470832703,-0.8812305927067166
1683999984574815900,5.13521630859375,-0.5386745929425145,0.056271552998065445,-0.7665865421344364
1683999984584857600,5.1452578125,-0.6242460607951106,0.03979587558052532,-0.7128338812934645
1683999984594898900,5.15529931640625,-0.5071981549711367,0.0330495833902341,-0.5051581860385299
1683999984604940500,5.1653408203125,-0.2508953213070223,0.05751037597472072,-0.27314162260475006
1683999984614982300,5.1753828125,0.0034516603735100606,0.0939140321166832,-0.050762415039822616
1683999984625023900,5.18542431640625,0.25628828989684693,0.07527923583444128,0.11142706866157304
1683999984635065300,5.195465576171875,0.44107070546346067,-0.01729392997318202,0.23290181156950285
1683999984645107100,5.205507568359375,0.605552196448267,-0.06437015530861119,0.31789660454688623
1683999984655148600,5.215549072265625,0.699585735726318,-0.095023155046044,0.4154908657901474
1683999984665190300,5.2255908203125,0.7172865271942875,-0.09508895857969313,0.46070885665132444
1683999984675231600,5.235632080078125,0.6638118623503361,-0.011917114328584838,0.46404027957960664
1683999984685273600,5.245673828125,0.5622482300791006,0.09503078476235166,0.37007188797626145
1683999984695315100,5.255715576171875,0.4265771508320484,0.10392665849061403,0.3702156542942981
1683999984705356600,5.265757080078125,0.3199094533524987,0.10303878770147464,0.36022448526712525
1683999984715398100,5.275798583984375,0.23983168607126065,0.09455490103979187,0.32251477232019043
1683999984725439900,5.28584033203125,0.20799957202518304,-0.0003700255235419994,0.2019886971701593
1683999984735481600,5.2958818359375,0.1787445694162338,-0.05002403274938168,-0.024455547268974778
1683999984745523100,5.305923583984375,0.1945476979039261,-0.08532047267747024,-0.1310703752880871
1683999984755564600,5.315965087890625,0.2055086493963298,-0.11800765992045015,-0.23430037511382334
1683999984765606300,5.3260068359375,0.23288182906889865,-0.09324169151044628,-0.37501788125428515
1683999984775647900,5.33604833984375,0.2354657350573366,-0.28085613255868697,-0.4425431488958842
1683999984785689600,5.34608984375,0.2805321216482652,-0.1877727508370499,-0.4155880212723501
1683999984795731100,5.356131591796875,0.20247215030564816,-0.07997989663809214,-0.1852095128422803
1683999984805772600,5.366173095703125,0.16451561448343002,0.05169200887649691,0.029383421011554486
1683999984815814300,5.376214599609375,0.09939301006193575,0.06301212309262062,0.10488414780763078
1683999984825855900,5.38625634765625,-0.040491849221095624,-0.1493282316983487,0.15872812272079542
1683999984835897600,5.3962978515625,-0.02724102139891939,-0.17692565919375125,0.26778173463986643
1683999984845939100,5.406339599609375,0.020727038424074775,-0.1900691985315205,0.2778432368214961
1683999984855980600,5.416381103515625,-0.021222233903508574,-0.19821739192757268,0.27876400952543656
1683999984866022300,5.426422607421875,0.016081243703262273,0.0036087034552399542,0.3799033164826783
1683999984876063900,5.43646435546875,-0.07909625786639958,0.014074325567194117,0.37927246103681533
1683999984886105600,5.446505859375,-0.1768604219469641,-0.08145141610356169,0.2209968567856237
1683999984896147100,5.456547607421875,-0.11901828638717826,-0.13063144670249333,0.13317823426551137
1683999984906188600,5.466589111328125,0.049947291734568966,0.08936309806158726,-0.1488425732480455
1683999984916230300,5.476630615234375,0.2609871030068557,0.21850776674194836,-0.4611300229836906
1683999984926271900,5.48667236328125,0.4048731922045076,0.12432670595199073,-0.829857826175444
1683999984936313600,5.4967138671875,0.6350098847917438,0.010827064382266749,-0.8855921030193468
1683999984946355100,5.506755615234375,0.6816521286401724,-0.30262470232646027,-0.6199382544881589
1683999984956396600,5.516797119140625,0.756241679044812,-0.14806365956696435,-0.28187084196833967
1683999984966438300,5.526838623046875,0.6285419464887217,0.08784389505864884,0.24154567717446188
1683999984976479900,5.53688037109375,0.3164646029895214,0.26653575885611125,0.7373148201857762
1683999984986521600,5.546921875,-0.09770852327163784,0.08440971381034836,1.095412612097177
1683999984996563100,5.556963623046875,-0.4027218818766395,-0.06721305830846062,1.277792692311054
1683999985006604600,5.567005126953125,-0.47094157330969943,0.03252029414220284,1.3121107815384034
1683999985016646300,5.577046630859375,-0.36688280109363486,0.28627300269291833,1.2260766028760826
1683999985026687900,5.58708837890625,-0.24049371487755544,0.6134042739671485,1.2245956658941777
1683999985036729600,5.5971298828125,-0.18917435399976332,0.6822557448651756,1.3070479631000687
1683999985046771100,5.607171630859375,-0.11901283273265828,0.5913496016918482,1.4056932926396293
1683999985056812600,5.617213134765625,-0.08472639324952841,0.491224288972658,1.5184384584147477
1683999985066854300,5.627254638671875,-0.0016865730183742603,0.37925148023397665,1.5845994950623117
1683999985076895900,5.63729638671875,0.08089357612461122,0.24247074128747415,1.4794558286072768
1683999985086937600,5.647337890625,0.15308380125301274,0.19981384280095454,1.4209344386619027
1683999985096979100,5.657379638671875,0.14770388620513814,0.14599895477357666,1.267061591153011
1683999985107020600,5.667421142578125,0.1919866204737198,0.09750461574624952,1.1353850364735496
1683999985117062300,5.677462646484375,0.20656454563692053,0.17438793184137089,1.0511164664407309
1683999985127103900,5.68750439453125,0.10532569881667887,0.10623645783813272,0.9970371723871464
1683999985137145600,5.6975458984375,0.047283411078036,0.08842277537407796,0.9536067248622486
1683999985147187100,5.70758740234375,-0.028519749575770362,0.12466144569717812,0.8050936459957149
1683999985157228600,5.717629150390625,-0.11990708109752053,0.10554790486506596,0.7216634750373114
1683999985167270300,5.727670654296875,-0.1837200521957067,0.12389183055676004,0.6411563157211314
1683999985177311900,5.73771240234375,-0.3056979776835254,0.01706409437512134,0.5699728727452433
1683999985187353600,5.74775390625,-0.3745153546795266,-0.118161201377526,0.5926845073589035
1683999985197395100,5.75779541015625,-0.39132064574111947,-0.3467197417920511,0.7266073226905598
1683999985207436600,5.767837158203125,-0.3458042144826957,-0.6148910521242617,0.8894858359086857
1683999985217478300,5.777878662109375,-0.17132019997083545,-0.6334190369789409,0.9437277318763502
1683999985227519900,5.78792041015625,0.17905628677861876,-0.6789140701222373,0.7649042607816087
1683999985237561600,5.7979619140625,0.6005359290955403,-0.9087190627740583,0.40082037433323386
1683999985247603100,5.80800341796875,0.9463183284071991,-0.8576183317570449,-0.058012723976694
1683999985257644600,5.818045166015625,0.964697062952465,-0.9158830643675409,-0.2770130632611157
1683999985267686300,5.828086669921875,0.8356468081088325,-1.0688228606912045,-0.11140120010131964
1683999985277727900,5.83812841796875,0.6975436210107734,-1.101387024058125,0.15240895741123892
1683999985287769600,5.848169921875,0.6779531239767538,-0.8921747205934086,0.5253738166629742
1683999985297811100,5.85821142578125,0.5941126346796821,-0.5421466826194555,0.8872551918792189
1683999985307852600,5.868253173828125,0.5427630543156235,-0.13549518590439252,1.264804840118038
1683999985317894300,5.878294677734375,0.4540199039685412,0.023525238089449202,1.6999090909441639
1683999985327935900,5.88833642578125,0.35888391720597534,0.24990081784064586,1.8757832050149512
1683999985337977600,5.8983779296875,0.22394412757618137,0.6244297027653538,1.7364246845506106
1683999985348019100,5.90841943359375,0.043970376214197034,0.9511861800983364,1.3250008820382042
1683999985358060600,5.918461181640625,-0.19851130240368192,1.1614484787440653,0.8573484421210664
1683999985368102300,5.928502685546875,-0.4469991326890596,1.1817064284819483,0.5522714853286776
1683999985378143900,5.93854443359375,-0.674218297099423,1.2725763321964365,0.17388498782103756
1683999985388185600,5.9485859375,-0.8602803946885311,1.2737483977399782,-0.31919276701130395
1683999985398227100,5.95862744140625,-0.9342809319227373,1.1426696778407843,-0.7484933734313848
1683999985408268600,5.968669189453125,-1.021314501848555,0.9661064149649523,-1.020132780118558
1683999985418310300,5.978710693359375,-1.0492103099604966,0.75924873354474,-1.1911993026229015
1683999985428351900,5.98875244140625,-1.3187302349650902,0.34849166875468596,-1.1428741216087246
1683999985438393600,5.9987939453125,-1.2059671880455565,0.27913951871464276,-0.730487287077896
1683999985448435100,6.00883544921875,-1.1648819446298773,0.1943025588639009,-0.22875165929271907
1683999985458476600,6.018877197265625,-1.125371098369886,0.0935754776857004,0.3372887372518294
1683999985468518300,6.028918701171875,-1.0313168762463263,-0.08318901059662817,0.7828328609068325
1683999985478559900,6.038960205078125,-0.903897225847587,-0.24553966528287588,1.1082252264276204
1683999985488601600,6.049001953125,-0.7568651439449643,-0.43963813786290246,1.2031352519474126
1683999985498643100,6.05904345703125,-0.5903015732784468,-0.4702377319317786,1.1378442049814417
1683999985508684600,6.069085205078125,-0.472609818075099,-0.3069324494758885,0.8512977362138257
1683999985518726300,6.079126708984375,-0.43892568344207905,-0.16289424888599527,0.5765012503090963
1683999985528767900,6.089168212890625,-0.306152582044387,-0.09097671508215453,0.39867210393083363
1683999985538809600,6.0992099609375,-0.09440764785198372,0.21043109895481046,0.13279938715674428
1683999985548851100,6.10925146484375,-0.28555685278255577,0.1798524857552191,-0.10910844797496391
1683999985558892600,6.119293212890625,-0.9004817606385107,-0.09450817104207014,-0.36253654958703385
1683999985568934300,6.129334716796875,-0.8065462113123156,0.1492948531282069,-0.5168185233919198
1683999985578975900,6.139376220703125,-0.8944420218526975,0.06258487704930635,-0.7375994921582396
1683999985589017600,6.14941796875,-0.6428613662883252,0.10067081455174114,-0.7746706008527425
1683999985599059100,6.15945947265625,-0.6147054434148448,0.027215003934464896,-0.8296051025370491
1683999985609100600,6.169501220703125,-0.43047404280847096,-0.23894310002452254,-0.7616204024055153
1683999985619142300,6.179542724609375,-0.25173938269890794,-0.4586944578953937,-0.8152219058412253
1683999985629183900,6.189584228515625,-0.1314115523881568,-0.7302579879279647,-0.8894778488805382
1683999985639225600,6.1996259765625,-0.039625763848351286,-0.8720359802731358,-1.0767322779930213
1683999985649267100,6.20966748046875,0.11362564563869608,-0.9482336044756012,-1.2193750142599065
1683999985659308600,6.219709228515625,0.3490208388263071,-0.8973064421649017,-1.3978999853635274
1683999985669350300,6.229750732421875,0.5932046175111977,-0.7170372009150205,-1.4320536851120422
1683999985679391900,6.239792236328125,0.7425826787747514,-0.6735115050997101,-1.274523138990938
1683999985689433600,6.249833984375,0.6915040016746243,-0.5512475968290629,-1.0418752431218985
1683999985699475100,6.25987548828125,0.5576388835002171,-0.6019029616979664,-0.8746529818074898
1683999985709516600,6.269917236328125,0.3971005678674871,-0.4391937255875082,-0.8112059832519446
1683999985719558300,6.279958740234375,0.23365581035088984,-0.2895936967016859,-0.6704797745589746
1683999985729599900,6.290000244140625,0.12451708305822466,-0.16852283472144552,-0.6446881292860859
1683999985739641600,6.3000419921875,0.20741331565589818,0.03891849521430689,-0.7630069255363319
1683999985749683100,6.31008349609375,0.4377241134570253,0.2973794937858515,-0.777789354431534
1683999985759724600,6.320125,0.6237117051550476,0.4946689605369735,-0.7885491847312079
1683999985769766300,6.330166748046875,0.8130898475761766,0.6543922424498501,-0.7196004391798748
1683999985779807900,6.340208251953125,0.9369040728180956,0.8144178390585245,-0.6575295924808858
1683999985789849600,6.35025,0.8766564130076537,0.8960533143002405,-0.6508231164515556
1683999985799891100,6.36029150390625,0.7387135028429567,0.9764118193590934,-0.6821277139894024
1683999985809932600,6.3703330078125,0.5631158352270095,0.9625005721321294,-0.5675194264441704
1683999985819974300,6.380374755859375,0.2909193038960947,0.8373231888659295,-0.37538456920488994
1683999985830015900,6.390416259765625,0.08196377754503763,0.6193542481231236,-0.1718461513826474
1683999985840057600,6.4004580078125,-0.09982943521747842,0.4585914611831756,-0.03870582581088423
1683999985850099100,6.41049951171875,-0.3119369743676017,0.3662919997805522,0.06467866901781409
1683999985860141000,6.420541259765625,-0.4404240845927635,0.29885292058818286,0.09986400607478137
1683999985870182600,6.4305830078125,-0.5616710186026799,0.20122432719853003,0.13156008727037627
1683999985880223900,6.440624267578125,-0.5922137500221453,0.13580608372811703,0.07212781908575315
1683999985890265600,6.450666015625,-0.5293818711308781,-0.019044876171356674,0.13775753984567754
1683999985900307400,6.460707763671875,-0.35360980045078627,-0.17205810539624014,0.026129007501394887
1683999985910349000,6.470749267578125,-0.20479607590110044,-0.2967538833917456,0.06855821611295974
1683999985920390300,6.480790771484375,-0.06353211416766004,-0.3620328903482556,0.05257511151818364
1683999985930431900,6.490832275390625,0.0393892526552378,-0.31076049810615336,0.1669995784869913
1683999985940473800,6.500874267578125,0.10632658007625409,-0.15806388856836545,0.29545855524052855
1683999985950515400,6.510915771484375,0.13712453847189418,-0.23548793785816044,0.31652951246722966
1683999985960556600,6.52095703125,0.15145587923174206,-0.21609973906029004,0.35412120805822317
1683999985970598600,6.5309990234375,0.024968862460862187,-0.03237533569907392,-0.008885145114714969
1683999985980640200,6.54104052734375,-0.16546213636217597,0.1813774108485926,-0.6656246184602588
1683999985990681800,6.551082275390625,-0.26839601980154476,0.35069274907009174,-0.9866085052352978
1683999986000723400,6.561123779296875,-0.28072071079997796,0.5351772308464012,-1.0420308113275532
1683999986010765000,6.571165283203125,-0.19366323955097814,0.5938034057506981,-0.9979062080803517
1683999986020806600,6.58120703125,-0.11136591424071088,0.5080413818008789,-0.9189786911258466
1683999986030848200,6.59124853515625,0.00893056392159074,0.3648185730616456,-0.885169744386722
1683999986040889800,6.601290283203125,0.128383040580905,0.30329990389121697,-0.8667161464299346
1683999986050931400,6.611331787109375,0.2531932592314559,0.475805282639143,-0.7645983695129596
1683999986060973000,6.621373291015625,0.3333934545533484,0.7208824158089382,-0.6479768753064478
1683999986071014600,6.6314150390625,0.3632494210856598,0.9232883452285644,-0.5506708621909644
1683999986081056200,6.64145654296875,0.3369634153407364,0.9613151549379786,-0.436123132537038
1683999986091097800,6.651498291015625,0.2763493059382412,0.8877592086346057,-0.25206470476226617
1683999986101139400,6.661539794921875,0.2320003509626636,0.8078546523591895,-0.05265450483434469
1683999986111181000,6.671581298828125,0.2235434055754312,0.7453575134536757,0.1797370911065058
1683999986121222600,6.681623046875,0.22109174730976464,0.6302623748397487,0.3684146403897721
1683999986131264200,6.69166455078125,0.17465186133915572,0.474111556977934,0.3482728004784154
1683999986141305800,6.7017060546875,0.0916301012266497,0.2528648376099357,0.33648014070163984
1683999986151347400,6.711747802734375,-0.03152894958919131,0.04024124153023757,0.1293983459598412
1683999986161389000,6.721789306640625,-0.14843940721897644,-0.07042407990777542,-0.1065452099632002
1683999986171430600,6.7318310546875,-0.22779858113198198,-0.12595081323047533,-0.2565915583781629
1683999986181472200,6.74187255859375,-0.14532673363013288,-0.18018054978113757,-0.3161661623465332
1683999986191513800,6.7519140625,-0.05986869334565863,-0.09324741365606146,-0.17586231237530195
1683999986201555400,6.761955810546875,-0.01999032497236325,0.056782722412283354,0.04456901544559599
1683999986211597000,6.771997314453125,-0.13113331792190758,0.08368778221919604,0.3693165779372962
1683999986221638600,6.7820390625,-0.42444097998212055,0.10854911798676026,0.5899734496599933
1683999986231680200,6.79208056640625,-0.8722063301140066,0.06242465977219377,0.7744786739087205
1683999986241721800,6.8021220703125,-1.2175920009898964,0.08429336533049266,0.8277859687095341
1683999986251763400,6.812163818359375,-1.48605918866331,0.14365196223518029,0.6417257787419391
1683999986261805000,6.822205322265625,-1.2395350933153233,0.5852451325406971,0.5377528666723137
1683999986271846600,6.8322470703125,-1.1556378602632238,0.666934013302313,0.37305569644155695
1683999986281888200,6.84228857421875,-1.146769523808379,0.5764169692715303,0.24318289768668974
1683999986291929800,6.852330078125,-1.0341066121045284,0.5479946135766336,0.07564330111389056
1683999986301971400,6.862371826171875,-0.6924518346737286,0.5856657027864429,-0.03889083870120328
1683999986312013000,6.872413330078125,-0.33318114283646866,0.6065912246377472,-0.1842169761681609
1683999986322054600,6.882455078125,-0.015096545127319767,0.5916471482327919,-0.24184656144879793
1683999986332096200,6.89249658203125,0.17957091338697456,0.5583267210586693,-0.14590740201957578
1683999986342137800,6.9025380859375,0.3987498283411125,0.3507661820117884,-0.027800798457142867
1683999986352179400,6.912579833984375,0.6176259518308846,0.10462665544313902,0.09263730061446193
1683999986362221000,6.922621337890625,0.7242022754030996,-0.10159206373946979,0.17001295077208195
1683999986372262600,6.9326630859375,0.7044171096659558,-0.2944841385075325,0.2287116049141331
1683999986382304200,6.94270458984375,0.4928511381580529,-0.5841732024779838,0.22694659223376928
1683999986392345800,6.95274609375,0.117898583405076,-0.9252462387122314,0.28118586534047546
1683999986402387400,6.962787841796875,-0.41257297996087805,-1.4848585129969254,0.4991128444232374
1683999986412429000,6.972829345703125,-1.156976580512998,-2.394290923988146,0.8320846557767857
1683999986422470600,6.98287109375,-1.5467461347415914,-2.4142284391607043,1.2005341052543725
1683999986432512200,6.99291259765625,-1.740372777003736,-2.257821083165487,2.0013694762567877
1683999986442553800,7.0029541015625,-1.2492510079811592,-1.4641752242150317,2.0087902545725944
1683999986452595400,7.012995849609375,-0.45956647397299727,-0.9220333098925956,1.535465240535787
1683999986462637000,7.023037353515625,0.18088114255056592,-0.6604938508542995,0.8710978031022338
1683999986472678600,7.033078857421875,0.528514504479738,-0.5893020629910938,0.34123444574635153
1683999986482720200,7.04312060546875,0.6469061969443946,-0.42977523804674356,0.0009605884096546981
1683999986492761800,7.053162109375,0.5741161106892139,-0.31721210478913714,-0.3553724289334335
1683999986502803400,7.063203857421875,0.35779392708296903,-0.06454658502335049,-0.829409360828484
1683999986512845000,7.073245361328125,0.04773414123739528,0.08886814119552043,-1.285778999227756
1683999986522886600,7.083286865234375,-0.33916604518956134,0.4029903411299036,-1.7409893273546055
1683999986532928200,7.09332861328125,-0.7141188382321307,0.7216739654858093,-2.198021650294286
1683999986542969800,7.1033701171875,-0.8481348752317381,0.8463888170108391,-2.406280279212182
1683999986553011400,7.113411865234375,-0.6275446413643102,0.8607311248699657,-2.232218265570655
1683999986563053000,7.123453369140625,-0.18250310414172227,0.8643360137664579,-1.757961749925463
1683999986573094600,7.133494873046875,0.28288823352414183,0.8969306945531327,-1.3339805602394808
1683999986583136200,7.14353662109375,0.6343056558781445,0.8627347945533753,-0.9860202074795545
1683999986593177800,7.153578125,0.9308995604593414,0.7195672988720988,-0.8610186576817452
1683999986603219400,7.163619873046875,1.1148544549240271,0.5760116578499712,-0.8396453857710716
1683999986613261000,7.173661376953125,1.3164740799003716,0.4564304351822452,-0.8095782995418351
1683999986623302600,7.183702880859375,1.4721496104684872,0.1843519210281601,-0.6836802960295918
1683999986633344200,7.19374462890625,1.6613376139899032,-0.017425537024498606,-0.6118297575535734
1683999986643385800,7.2037861328125,1.7679117916975227,-0.15588951109834756,-0.5498235227007084
1683999986653427400,7.213827880859375,1.7564549447597964,-0.3358726501035343,-0.48088657846143607
1683999986663469000,7.223869384765625,1.6868742704225619,-0.4587335585499773,-0.40729475028095696
1683999986673510600,7.233910888671875,1.5607761144132555,-0.5338411331092495,-0.3622958660386808
1683999986683552200,7.24395263671875,1.371557116499259,-0.5449628830207918,-0.33790612222319116
1683999986693593800,7.253994140625,1.1320608852860732,-0.4001121520657451,-0.35001730929723507
1683999986703635400,7.264035888671875,0.914907336212978,-0.2485008238326975,-0.42086100572280744
1683999986713677000,7.274077392578125,0.6632070541873599,-0.20268440254036288,-0.5043374300495211
1683999986723718600,7.284118896484375,0.5267415046248671,-0.1310949325382114,-0.625987291448267
1683999986733760200,7.29416064453125,0.4645705818483497,0.047293663046509164,-0.8195968867267275
1683999986743801800,7.3042021484375,0.4586108326798184,0.2197847366591793,-0.959687829066141
1683999986753843400,7.314243896484375,0.4443507195257455,0.3383026121893172,-1.2147691249170092
1683999986763885000,7.324285400390625,0.3416978717816316,0.16657447812098655,-1.4406723976813567
1683999986773926600,7.334326904296875,0.33187216523658425,-0.06903553015764138,-1.718976616831187
1683999986783968200,7.34436865234375,0.2502079606387982,-0.2435712815112758,-1.805728196941298
1683999986794010000,7.354410400390625,0.25466290131189434,-0.462495803859078,-1.719012141226901
1683999986804051400,7.36445166015625,0.24286484709710618,-0.5158624649020416,-1.639465332169897
1683999986814093000,7.374493408203125,0.16745811699270735,-0.580971717715704,-1.3879425526547196
1683999986824134600,7.384534912109375,0.0869122147607129,-0.3042211533713097,-1.1882168054099906
1683999986834176400,7.394576904296875,-0.050771295973637075,-0.17145538343218417,-0.8759341239709457
1683999986844217800,7.4046181640625,-0.10305944079164771,-0.16355991353643273,-0.6296795606529627
1683999986854259400,7.41465966796875,-0.05970975759322033,-0.3090763092609688,-0.4651266336271169
1683999986864301200,7.42470166015625,0.08328777546414347,-0.3832979203819494,-0.3525323867003118
1683999986874342800,7.4347431640625,0.24901366238250988,-0.38896179200092273,-0.2477934360714106
1683999986884384400,7.444784912109375,0.5101269484810562,-0.33835220352065803,-0.1806316374815623
1683999986894425800,7.454826171875,0.7097241878521963,-0.3653974533598116,-0.2160024641471534
1683999986904467600,7.464867919921875,0.9183298945007083,-0.448428154070245,-0.2919144630134866
1683999986914509200,7.47490966796875,1.0792974234400705,-0.4127759932608337,-0.46265745161012795
1683999986924550800,7.484951171875,1.2583775520681317,-0.2845544815774741,-0.6880357265763041
1683999986934592400,7.494992919921875,1.4090189934922013,-0.16607952106794527,-0.9153500795178003
1683999986944634000,7.505034423828125,1.459426760787514,-0.0735368729473038,-1.123308777725952
1683999986954675600,7.515075927734375,1.44903278363347,-0.05204105369507103,-1.2392359970981202
1683999986964717200,7.52511767578125,1.3794200421067515,-0.032257080013035844,-1.3136315344542149
1683999986974758800,7.5351591796875,1.247217536114255,-0.00238895407618679,-1.2872920036737159
1683999986984800400,7.545200927734375,1.093747496585794,0.01832580565292124,-1.1560589075648093
1683999986994842000,7.555242431640625,0.9553426504993,-0.025098800497924595,-1.0088230372045144
1683999987004883600,7.565283935546875,0.7981144188996003,0.032361030472864726,-0.8763586283046226
1683999987014925200,7.57532568359375,0.6932941077903844,0.03276824965904466,-0.6514736413076834
1683999987024966800,7.5853671875,0.6354448198563004,0.06695652003995867,-0.4492619038456348
1683999987035008400,7.595408935546875,0.5549594163618553,0.06079769127056859,-0.2529532910030725
1683999987045050000,7.605450439453125,0.514075279237534,0.11707305915668473,-0.05532956125804914
1683999987055091600,7.615491943359375,0.4771789015703584,0.11843299875417855,0.17635369284674457
1683999987065133200,7.62553369140625,0.4448488355637956,0.17706203472512133,0.41018319132845554
1683999987075174800,7.6355751953125,0.4156811832517477,0.17331981663418145,0.5764927864585543
1683999987085216400,7.645616943359375,0.35231643918008176,0.20993804933335175,0.7274434566303591
1683999987095258000,7.655658447265625,0.3006331623130758,0.19603061672223585,0.8150658607953664
1683999987105299600,7.665699951171875,0.23617647596417618,0.16753101347466892,0.8560831547162947
1683999987115341200,7.67574169921875,0.17956902073254655,0.14824962609972459,0.8835158348947776
1683999987125382800,7.685783203125,0.10642983032250618,0.10932254784655755,0.9108490943104154
1683999987135424400,7.695824951171875,-0.020702674902343565,0.07685470577144438,0.8749234676622566
1683999987145466000,7.705866455078125,-0.1519920825971943,0.019917488099019668,0.7524461746397986
1683999987155507600,7.715907958984375,-0.2925769388911902,-0.006015777571533352,0.6005778312611283
1683999987165549200,7.72594970703125,-0.4025099573855292,-0.09883403778944207,0.5485670566529238
1683999987175590800,7.7359912109375,-0.48329553007174036,-0.11518001554745769,0.39258766178671745
1683999987185632400,7.74603271484375,-0.5042004585441469,-0.11725044251210023,0.2407836913362336
1683999987195674000,7.756074462890625,-0.4474118351258972,-0.05960559853168368,0.08183217045215163
1683999987205715600,7.766115966796875,-0.3808239699735817,-0.11671829222607098,0.06878972061741775
1683999987215757200,7.77615771484375,-0.2502348719410287,-0.11382865887967039,0.013454675629724982
1683999987225798800,7.78619921875,-0.12824504071927464,-0.14663600928578915,0.05450725550492568
1683999987235840400,7.79624072265625,-0.0038487650646102955,-0.19359111777085364,0.07229185096121737
1683999987245882000,7.806282470703125,0.0914487911805931,-0.2212162018960594,0.0264375209600471
1683999987255923600,7.816323974609375,0.22357743978608594,-0.19127845766898782,-0.08488345149316746
1683999987265965200,7.82636572265625,0.35673311357972975,-0.10619544997498309,-0.2155642508479083
1683999987276006800,7.8364072265625,0.48222726575390706,-0.030580520727554912,-0.22235345834520295
1683999987286048400,7.84644873046875,0.5404145717837839,-0.0002384185585459818,-0.23225760460583597
1683999987296090000,7.856490478515625,0.5918872952443873,0.06165695188413144,-0.2534425257899126
1683999987306131600,7.866531982421875,0.660977125028694,0.061966895989858016,-0.17804348466127812
1683999987316173200,7.87657373046875,0.6927356719537306,0.050484657397768286,-0.07559478277020537
1683999987326214800,7.886615234375,0.7188274860035686,0.0724258422944567,0.019519567457410503
1683999987336256400,7.89665673828125,0.7473218440814153,0.10858917230613713,0.1431455612508802
1683999987346298000,7.906698486328125,0.7720555066662191,0.19718456269174847,0.2572884559136565
1683999987356339600,7.916739990234375,0.7966029047570243,0.22104930870617498,0.3620861768843591
1683999987366381200,7.92678173828125,0.8606986998791339,0.25677490218815846,0.46952700606378284
1683999987376422800,7.9368232421875,0.8900318740854113,0.30431079862844346,0.5863384008260195
1683999987386464400,7.94686474609375,0.8208667039736759,0.296842574994505,0.6337771417223605
1683999987396506000,7.956906494140625,0.7323466538413617,0.22980117790875088,0.6935086250229244
1683999987406547600,7.966947998046875,0.5583043097739184,0.19408607487666144,0.7273478509730471
1683999987416589200,7.97698974609375,0.4410924016537223,0.16572666159713584,0.7546178101444176
1683999987426630800,7.98703125,0.3128984272961151,0.16385459898952262,0.8475224969974874
1683999987436672400,7.99707275390625,0.22509093588290388,0.2003059386234557,0.8818361758975922
1683999987446714000,8.007114501953126,0.15899890661177288,0.20761299129725383,0.9521967172472094
1683999987456755600,8.017156005859375,0.12749233842134014,0.15843963634993657,1.0443521737213366
1683999987466797200,8.02719775390625,0.12817078820167424,0.11956596373947387,1.0918675661740902
1683999987476838800,8.0372392578125,0.17007172119331698,0.10013294208712786,1.1822311878075356
1683999987486880400,8.04728076171875,0.24777001144852717,0.1209077834436995,1.229601740905996
1683999987496922000,8.057322509765624,0.3368824720473765,0.10111522679880264,1.3144843579580063
1683999987506963900,8.0673642578125,0.44836974158256804,0.07662296303597882,1.3484221696508043
1683999987517005600,8.077406005859375,0.559708237717807,-0.009097099415649597,1.338487625152367
1683999987527046800,8.087447265625,0.6393519044207386,-0.07721137988234122,1.236366391176166
1683999987537088400,8.09748876953125,0.6772481799966641,-0.29510879516608707,1.1658953427802343
1683999987547130300,8.10753076171875,0.6891798972310528,-0.5001001358853476,1.0276625156457564
1683999987557171900,8.117572265625,0.6978412271776543,-0.6616687774915012,0.9994566440642455
1683999987567213600,8.12761376953125,0.6899860501269407,-0.8109550476069737,0.8819262983108573
1683999987577255100,8.137655517578125,0.6368113756116979,-0.9175624847089963,0.7772188185820297
1683999987587296600,8.147697021484374,0.5699121952578724,-0.8904476165999081,0.5811157225438511
1683999987597338300,8.15773876953125,0.4300315678336754,-0.7881116867193947,0.3584322928131204
1683999987607379900,8.1677802734375,0.2668365239112124,-0.7714481352289854,0.08594238767125445
1683999987617421600,8.17782177734375,0.12016648053196262,-0.6759567261405248,-0.1795400379225114
1683999987627463100,8.187863525390625,0.025219261602448945,-0.6173524856602526,-0.26786875733142357
1683999987637504600,8.197905029296875,-0.04556286331097887,-0.5765438080568247,-0.19905066478905598
1683999987647546300,8.20794677734375,-0.015464901960109306,-0.5082769394444149,-0.07649672023126786
1683999987657587900,8.21798828125,-0.004945099255402472,-0.40073299400312684,0.026666641321141105
1683999987667629600,8.22802978515625,-0.027507841540082872,-0.18252849589734213,0.07182598110689849
1683999987677671100,8.238071533203126,-0.11325114963901502,0.1889686584493799,-0.14681023371337001
1683999987687712600,8.248113037109375,-0.13176155089744512,0.636669158985961,-0.3880388736771209
1683999987697754300,8.25815478515625,-0.12412339453655585,1.0163564681080004,-0.51786452544474
1683999987707795900,8.2681962890625,-0.15992760661323557,1.372566223218755,-0.628320515055485
1683999987717837600,8.27823779296875,-0.19180536274124807,1.608675003187598,-0.7311097383577565
1683999987727879100,8.288279541015624,-0.25705337522181865,1.6616487503734474,-0.6742687225056757
1683999987737920600,8.298321044921876,-0.2944290041531461,1.4211826324092514,-0.40267693985520636
1683999987747962300,8.30836279296875,-0.2376985549692069,1.1124687195529168,-0.16541484000006434
1683999987758003900,8.318404296875,-0.1360302568148295,0.8752593993997788,0.022266596677927786
1683999987768045600,8.32844580078125,0.003955721750424712,0.7327022553984391,0.03126153344932055
1683999987778087100,8.338487548828125,0.11809605370050658,0.5719203949692967,-0.15455526126017496
1683999987788128600,8.348529052734374,0.16969609250482165,0.31560516351687534,-0.38143134133321
1683999987798170300,8.35857080078125,0.05424445863575396,-0.03774547576755973,-0.6483608484610645
1683999987808211900,8.3686123046875,-0.1516422628858123,-0.34002017980424637,-1.0142033099283045
1683999987818253600,8.37865380859375,-0.5678446291460768,-0.6448593141153256,-1.6238682269618807
1683999987828295100,8.388695556640625,-1.4254217148089507,-0.8197631836424306,-2.3889818192438805
1683999987838336600,8.398737060546875,-2.499159574620393,-0.8758001326929065,-3.036909103376006
1683999987848378300,8.40877880859375,-2.976113796184331,-0.5135936737506357,-3.580039978005771
1683999987858419900,8.4188203125,-2.7222044468396085,-0.10973072045603817,-3.528854608562824
1683999987868461600,8.42886181640625,-2.0243239403129007,0.20192623150447456,-2.9897303581208456
1683999987878503100,8.438903564453126,-1.3536064624535928,0.25963020327701763,-2.269482612687028
1683999987888544600,8.448945068359375,-0.7924543618769185,0.2531852721375665,-1.5457701683190428
1683999987898586300,8.458986572265625,-0.34617137911512136,0.2573966979728914,-0.9263015983848827
1683999987908627900,8.4690283203125,-0.06547439089607504,0.6474609376612942,-0.11958873278733921
1683999987918669600,8.47906982421875,0.2346263527131015,1.1153268815062083,0.8116718529623403
1683999987928711100,8.489111572265625,0.19074034688662855,0.8232326507718106,0.9766405820149676
1683999987938752600,8.499153076171876,0.1467279196618363,0.8141002655571086,0.989453375349601
1683999987948794300,8.509194580078125,0.09816372387254084,0.6092996597595866,0.9123894572064366
1683999987958835900,8.519236328125,-0.03186714653254028,0.35233116145551807,0.6336287260173454
1683999987968877600,8.52927783203125,-0.1968928575071563,0.15795707698272965,0.38916659351027744
1683999987978919100,8.539319580078125,-0.3261091709694025,0.1909904479402728,0.05259048940819274
1683999987988960600,8.549361083984374,-0.3305796384244129,-0.09078025819691382,-0.22787880906011984
1683999987999002300,8.559402587890625,-0.2205618620850759,-0.13205242154867922,-0.5514279603996721
1683999988009043900,8.5694443359375,-0.0740226508436491,-0.24143791211693738,-0.8612188100845297
1683999988019085600,8.57948583984375,0.14006888858609642,-0.3476972578330466,-1.229320287689645
1683999988029127100,8.589527587890625,0.2671167850048867,-0.5591077803793469,-1.362055897825488
1683999988039168900,8.5995693359375,0.40664315235043064,-0.4673852921678285,-1.2736489774015647
1683999988049210600,8.60961083984375,0.4631214143108722,-0.18995380403058967,-0.7094924449261114
1683999988059252100,8.619652587890625,0.43172800549721485,0.46206665044479794,-0.03360545621764993
1683999988069293600,8.62969384765625,0.37660765661280066,0.8386936189397284,0.4190923572666401
1683999988079335300,8.63973583984375,0.27116560941557855,1.012340545618811,0.6661974786687772
1683999988089376900,8.64977734375,0.12585508824786587,1.155208587752492,0.8548004031116684
1683999988099418600,8.65981884765625,-0.08089995378532941,1.121226310901979,0.8324083089961789
1683999988109460100,8.669860595703126,-0.2691268921244309,1.0839052200443566,0.5029281377376867
1683999988119501700,8.679902099609375,-0.365397453322002,1.1096143722398009,0.11587071415761688
1683999988129543300,8.68994384765625,-0.29406309119271684,1.2059202192938743,-0.22234070308178594
1683999988139584900,8.6999853515625,-0.15254759807027327,1.2324600219920656,-0.5936397313780302
1683999988149626600,8.71002685546875,-0.0006191731429051429,1.2809934616239698,-0.8403230906752737
1683999988159668100,8.720068603515625,0.188638448833874,1.4248590470456073,-0.7031000854162005
1683999988169709700,8.730110107421876,0.30442976952218354,1.4471979140197428,-0.7507338524584084
1683999988179751300,8.74015185546875,0.3435487748223573,1.2018718720734705,-0.9015264511499171
1683999988189792900,8.750193359375,0.35002183911686335,0.9152784346862738,-0.9617983102762557
1683999988199834600,8.76023486328125,0.35875868804636657,0.7062644958459042,-0.8739569186896321
1683999988209876100,8.770276611328125,0.3979122638142664,0.3569641113258693,-0.6411718131555163
1683999988219917700,8.780318115234374,0.4583952426495528,0.07558631892961015,-0.43962287895846436
1683999988229959300,8.79035986328125,0.4700860978340113,-0.163984298597277,-0.3104770182588079
1683999988240000900,8.8004013671875,0.36819696424843606,-0.31164741523536726,-0.26000607011070326
1683999988250042600,8.81044287109375,0.1513578890319749,-0.2269878387036611,-0.12011659153459613
1683999988260084100,8.820484619140625,0.0406358242748149,-0.02788257600672408,0.04942190648065942
1683999988270125700,8.830526123046875,0.11227035515548196,0.06812095648989638,0.1405369639102287
1683999988280167300,8.840567626953124,0.231360673771544,0.16670703901615896,0.1401569844015425
1683999988290208900,8.850609375,0.330310344844873,0.3039255141212349,0.04552412034085866
1683999988300250600,8.86065087890625,0.36595749850707515,0.3819065094480927,-0.08654856689860835
1683999988310292100,8.870692626953126,0.21267747883013954,0.44124507903432003,-0.14901554586375826
1683999988320333700,8.880734130859375,-0.08712816253815041,0.4840383530518093,-0.16127526761781039
1683999988330375300,8.890775634765625,-0.4880297184514805,0.46190071095989144,-0.18922925001760557
1683999988340416900,8.9008173828125,-0.8383295535765748,0.44153404239533517,-0.11751329910501426
1683999988350458600,8.91085888671875,-0.9501335621450236,0.4710874557703414,-0.05342996128401551
1683999988360500100,8.920900634765625,-0.9045188425994292,0.5651693343969172,-0.18297171596372327
1683999988370541700,8.930942138671876,-0.7021670341457951,0.6371755601286822,-0.3838082550777956
1683999988380583300,8.940983642578125,-0.6248643396828167,0.5408496855663381,-0.5627309084242795
1683999988390624900,8.951025390625,-0.5148968696311134,0.429945945765224,-0.4659978150916297
1683999988400666600,8.96106689453125,-0.4493460655183604,0.28365802764475495,-0.4283759593972899
1683999988410708100,8.971108642578125,-0.48150014888339704,0.18409156789009,-0.4142813683041306
1683999988420749700,8.981150146484374,-0.525426149356783,0.08413696279209087,-0.5774651766791387
1683999988430791600,8.99119189453125,-0.6301693916829358,-0.0064554215149654854,-0.8760401009048924
1683999988440833200,9.001233642578125,-0.7044620514091833,0.2568607328759668,-1.2654484511580948
1683999988450874600,9.01127490234375,-0.7037904263510812,0.4419479368974481,-1.316658735167814
1683999988460916100,9.021316650390624,-0.6177797316486832,0.5517416000215278,-1.054295182170658
1683999988470958000,9.0313583984375,-0.4653568268034161,0.5726966858347925,-0.8811901806905614
1683999988480999600,9.04139990234375,-0.3098268507256938,0.5123481749012104,-0.8558104038316316
1683999988491041200,9.051441650390624,-0.1445620058888352,0.4664716719639175,-0.8505262136521835
1683999988501082800,9.061483154296877,0.03543567649248079,0.3776493073144505,-0.9011195898099208
1683999988511124400,9.07152490234375,0.17578029648200375,0.3270502090722247,-0.9311418531447959
1683999988521166000,9.08156640625,0.29876196383334697,0.21657657627933558,-0.9462392329728273
1683999988531207600,9.09160791015625,0.3994722366677484,0.2613906860824186,-0.9229805468316885
1683999988541249200,9.101649658203126,0.4891489743485125,0.3274898530275458,-0.8825780153609442
1683999988551290800,9.111691162109375,0.5715900660531801,0.5130424498287283,-0.6730377674485383
1683999988561332400,9.12173291015625,0.5505838394415974,0.7583532333956535,-0.51824843889831
1683999988571374000,9.1317744140625,0.5093597175406217,0.820007324312028,-0.3767418862032228
1683999988581415600,9.14181591796875,0.3407964707551138,0.8011484145555321,-0.27305197707776185
1683999988591457200,9.151857666015625,0.12463188165252471,0.6898288726859637,-0.16367924211943927
1683999988601498800,9.161899169921876,-0.10207700727861789,0.36907482139021264,0.05584788328364524
1683999988611540400,9.17194091796875,-0.34668254854503894,0.08265781409553566,0.38663852227918755
1683999988621582000,9.181982421875,-0.5346727371815807,-0.16517162307133385,0.6888174413664128
1683999988631623600,9.19202392578125,-0.6156940460616082,-0.3797292709902197,0.9164254069742739
1683999988641665200,9.202065673828123,-0.5056779384191361,-0.43220996869961525,1.007199406553432
1683999988651706800,9.212107177734374,-0.27116513253875013,-0.477762222306944,1.0941641329270149
1683999988661748400,9.222148681640626,-0.06992018226568514,-0.4108705520728613,1.03634977344555
1683999988671790000,9.2321904296875,0.021947145311387445,-0.3176498414551931,0.9151807428519353
1683999988681831600,9.24223193359375,0.015265226375135088,-0.26751518258714013,0.7910517454984537
1683999988691873200,9.252273681640624,-0.13134813300621656,-0.1386146545152423,0.7066907882365285
1683999988701914800,9.262315185546877,-0.31277203558478156,-0.1770753860223116,0.6550443170623381
1683999988711956400,9.272356689453124,-0.5813652276346211,-0.10789203649122889,0.43570804588259554
1683999988721998000,9.2823984375,-0.8457320928587473,-0.0007610320608549022,0.2409602402987574
1683999988732039600,9.29243994140625,-1.1209217310659052,0.19171428678207406,-0.003751158663429762
1683999988742081200,9.302481689453124,-1.2756205796709754,0.4402542114839071,-0.184008717602941
1683999988752122800,9.312523193359375,-1.26771545413503,0.5581521987099654,-0.3601400850980944
1683999988762164400,9.322564697265625,-1.149708986321732,0.5814809800060311,-0.5345556736652902
1683999988772206000,9.3326064453125,-0.9489647149149297,0.46047115320840754,-0.7071205376912184
1683999988782247600,9.34264794921875,-0.7486368417534344,0.32707309720480304,-0.8721213339925874
1683999988792289500,9.35268994140625,-0.6311995983635729,0.1814613342062597,-1.0023077724721445
1683999988802331100,9.3627314453125,-0.5235576628674432,0.05721855161569903,-1.0776529311231058
1683999988812372400,9.372772705078123,-0.4832797051058358,-0.009991645756833721,-0.9870408772607296
1683999988822414300,9.382814697265625,-0.5292333365030829,-0.07534217839643466,-0.8305463789828214
1683999988832455900,9.392856201171876,-0.5852239132808995,0.0355548858316867,-0.5916415453364972
1683999988842497500,9.40289794921875,-0.5662249325976573,-0.03328227992878012,-0.35288345829930645
1683999988852539100,9.412939453125,-0.4308481217249423,0.06740760811785738,-0.23519623276635054
1683999988862580600,9.42298095703125,-0.23068094262636604,0.060420989947366194,-0.06211292745393816
1683999988872622300,9.433022705078123,-0.03713273993126796,0.07275009143799387,0.1543529033321096
1683999988882663900,9.443064208984374,0.022901177392277934,0.1495380401477472,0.3594589232839866
1683999988892705500,9.45310595703125,-0.04343092444111983,0.27136898047281105,0.5010250211197796
1683999988902747100,9.4631474609375,-0.14372527583166306,0.3760747907856094,0.615352034731863
1683999988912788600,9.47318896484375,-0.16568458072464642,0.45924282066092215,0.6647736429886183
1683999988922830300,9.483230712890624,-0.045920610508339836,0.6381559371957939,0.5517044067770394
1683999988932871900,9.493272216796877,0.0966854095403641,0.6667385101842304,0.40928888324533147
1683999988942913500,9.50331396484375,0.16996955860760057,0.6911449432806713,0.2723256350378598
1683999988952955100,9.51335546875,0.23750567453352592,0.6516590118528991,0.09705305102824512
1683999988962996600,9.52339697265625,0.30632579322467196,0.5434446335911768,-0.0026663541470451505
1683999988973038300,9.533438720703124,0.3144673108631689,0.3879718780773231,-0.07865428924503476
1683999988983079900,9.543480224609375,0.3216949700951623,0.4027433396167524,-0.09323060522081691
1683999988993121500,9.55352197265625,0.2731848954705149,0.3558797835574281,-0.02414882192669985
1683999989003163100,9.5635634765625,0.2561045886028611,0.31441307065425844,0.0458110569389489
1683999989013204600,9.57360498046875,0.18297803393273523,0.24239730828832673,0.14246642596025147
1683999989023246300,9.583646728515625,0.09076118465388301,0.18273258226097894,0.21790051459881407
1683999989033287900,9.593688232421876,-0.024473905534274632,0.06595993040060316,0.3416296243234142
1683999989043329500,9.603729736328123,-0.17144846909962516,0.0687904357670311,0.4922088385879396
1683999989053371100,9.613771484375,-0.3206410407226506,0.17882919323294,0.6482669116196428
1683999989063412600,9.62381298828125,-0.4717621801816738,0.31457424162439473,0.8313355447374273
1683999989073454300,9.633854736328123,-0.6108111142263493,0.4498777389589796,1.0312341451361955
1683999989083495900,9.643896240234374,-0.7382324933943885,0.5825786589529193,1.1803224086022042
1683999989093537500,9.653937744140626,-0.8310698271044122,0.6485300065094365,1.2946267126620614
1683999989103579100,9.6639794921875,-0.9072179794533277,0.6577482225357237,1.3331067562335532
1683999989113620900,9.674021240234374,-0.9247480631628375,0.7012796401560797,1.238760709891623
1683999989123662600,9.68406298828125,-0.9466899633541404,0.7289056779443349,1.2202982901550268
1683999989133704100,9.6941044921875,-0.9129981992831003,0.7358541487859233,1.1292594671125913
1683999989143745600,9.70414599609375,-0.8325451612709233,0.7102146148392661,1.0582666396184044
1683999989153787300,9.714187744140624,-0.862236022888335,0.6234178543916917,0.9203959107822792
1683999989163828900,9.724229248046877,-0.8654384612951833,0.5567388534745307,0.8520095346776391
1683999989173870600,9.73427099609375,-0.850036859605022,0.5268802642854161,0.7743314506139417
1683999989183912100,9.7443125,-0.7481385470160798,0.5458097458004063,0.7736470699255543
1683999989193953600,9.75435400390625,-0.5405049324184112,0.627901077400628,0.7094247939101321
1683999989203995300,9.764395751953124,-0.3247730732124773,0.8351840974526625,0.6517550945789337
1683999989214036900,9.774437255859375,-0.16341710083860228,0.8905277252969129,0.70659023537374
1683999989224078600,9.78447900390625,-0.1460772753647661,0.1846055984729378,0.807526648061744
1683999989234120100,9.7945205078125,-0.27114045624429023,0.2845401763459853,0.7040927409018171
1683999989244161600,9.80456201171875,-0.39652395257516165,0.37625312816613377,0.757565379045748
1683999989254203300,9.814603759765625,-0.3478491306018738,0.4584512710567318,0.6609827280274828
1683999989264244900,9.824645263671876,-0.35314643395599604,0.4074516296881113,0.49162149419846723
1683999989274286600,9.83468701171875,-0.4600685834668237,0.45156192795082006,0.22774112218764367
1683999989284328100,9.844728515625,-0.6432718039190132,0.4384679795712337,0.05001819143513998
1683999989294369600,9.85477001953125,-0.9287550449486361,0.34548664106294075,-0.07393193245013059
1683999989304411300,9.864811767578123,-1.2967770099366152,0.4797916413511306,-0.13776934141393712
1683999989314452900,9.874853271484374,-1.5495492221100537,0.40910625459228245,-0.21364676956654707
1683999989324494600,9.88489501953125,-1.6109086274977973,-0.21162223806725658,-0.2022458314267896
1683999989334536100,9.8949365234375,-1.7538915872724221,-1.1615676878797183,-0.21929752837380379
1683999989344577600,9.90497802734375,-1.8560022114897936,-2.3679733277439485,-0.24239158619453838
1683999989354619300,9.915019775390626,-1.6624159811785504,-3.099723816003942,-0.4578227996077292
1683999989364660900,9.925061279296877,-1.4293336868048718,-3.3436479569370423,-0.6117305756112594
1683999989374702600,9.93510302734375,-1.1086333991848738,-3.2154150009412903,-0.6556421518339763
1683999989384744100,9.94514453125,-0.8659952282677487,-2.6751327513202723,-0.7622405290525928
1683999989394786000,9.955186279296877,-0.8552474378799315,-1.4896173478935126,-0.8678841590580716
1683999989404827600,9.96522802734375,-1.0205242633762612,-0.36722278603201675,-1.0487354994145146
1683999989414869200,9.97526953125,-1.0981030465877517,0.46305179594812806,-1.1784820556960123
1683999989424910800,9.985311279296877,-0.929363310424316,1.0592603683126705,-1.308618426317458
1683999989434952400,9.995352783203124,-0.4979285001445946,1.579478263845095,-1.3600102663439557
1683999989444994000,10.005394287109375,0.27110633260089984,1.7230281829629983,-1.3191592693189897
1683999989455035600,10.01543603515625,0.9832785129921119,1.9017190932556716,-1.2443356513598594
1683999989465077200,10.0254775390625,1.444115638843904,1.790884971592671,-1.0111925601938767
1683999989475118800,10.035519287109375,1.5323600769744166,1.267267227035552,-0.6803647876141681
1683999989485160400,10.045560791015625,1.3495495320789528,0.637763977090273,-0.3676518797806441
1683999989495202000,10.055602294921876,1.017781615295226,0.17024803151313972,-0.09253889313177589
1683999989505243600,10.06564404296875,0.5610525607043354,-0.19536972045964848,0.17380315054171258
1683999989515285200,10.075685546875,0.02451920511840018,-0.40453338620918783,0.48827692881166573
1683999989525326800,10.08572705078125,-0.38378736379081396,-0.4268140792906597,0.7962514162817326
1683999989535368400,10.095768798828123,-0.6309190393497845,-0.2892055511553353,0.8186471462486208
1683999989545410000,10.105810302734374,-0.597639918355552,-0.09508800497004147,0.516244471040708
1683999989555451600,10.11585205078125,-0.3524348735481475,0.10743904113848571,0.10262668128979295
1683999989565493200,10.1258935546875,0.004746720148820232,0.3541975021162155,-0.17662167547842966
1683999989575534800,10.13593505859375,0.3330591916678494,0.5665674208439035,-0.2321906089716168
1683999989585576400,10.145976806640626,0.6080856324075271,0.4273662567129616,-0.2505661249361137
1683999989595618000,10.156018310546877,0.6682379842631956,0.16436576848785947,-0.18313980093839585
1683999989605659600,10.16606005859375,0.6811857223033561,-0.15299129482051932,-0.037983357847205385
1683999989615701200,10.1761015625,0.7239240408369602,-0.37652492531889065,0.16290235519651353
1683999989625742800,10.18614306640625,0.9144361615258823,-0.3034086228554442,0.16227072467961826
1683999989635784400,10.196184814453124,1.2580955029008971,-0.09430599211924462,0.02629584073094942
1683999989645826200,10.2062265625,1.6487977506180826,0.09999942772198915,-0.11093169460465757
1683999989655867800,10.216268310546877,1.9919219016362026,0.1410198211809229,-0.18678402905530275
1683999989665909400,10.226309814453124,2.2391910554164878,0.17004394542557738,-0.07185536629989815
1683999989675951000,10.236351318359375,2.4100832939671655,0.10596656791505676,0.14975416665290014
1683999989685992600,10.24639306640625,2.4918596744610815,0.08524036389942113,0.41488933554758334
1683999989696034200,10.2564345703125,2.4618020056367955,0.12207317339837304,0.6013714073896815
1683999989706075800,10.266476318359375,2.3141920565210623,0.16603279123742304,0.7315103411091868
1683999989716117400,10.276517822265625,2.0885660648096533,0.1405191420678301,0.8109565973082826
1683999989726159000,10.286559326171876,1.8344913721422558,0.31542682654665577,0.7978318333694222
1683999989736200600,10.29660107421875,1.5581531525002348,0.21745681771092354,0.7634293436106843
1683999989746242200,10.306642578125,1.3791339397432394,0.1840953826439871,0.7144870162489209
1683999989756283800,10.316684326171876,1.206926703448074,0.23670673354659527,0.620263218870254
1683999989766325400,10.326725830078123,1.116642951931359,0.19593906411593492,0.5459292530776977
1683999989776367000,10.336767333984374,1.0750776528843946,0.18139934543135927,0.4773556591009232
1683999989786408600,10.34680908203125,1.0163033009418891,0.06159782412351667,0.43209087856812634
1683999989796450200,10.3568505859375,0.9513841867811945,-0.043866157591631545,0.37971162782289536
1683999989806491800,10.366892333984374,0.8276588916129628,-0.21384525306287241,0.40374791605599275
1683999989816533400,10.376933837890626,0.6880620718244655,-0.23326969147681487,0.4276924729951069
1683999989826575000,10.386975341796877,0.5253665447822393,-0.1789569855175878,0.45872485636809024
1683999989836616600,10.39701708984375,0.3525575993826437,-0.12268447879914496,0.5441573261785472
1683999989846658200,10.40705859375,0.1614256203221769,-0.088244438273309,0.6760686041219781
1683999989856700100,10.4171005859375,-0.010410189615087273,-0.09215831756873324,0.808230161674027
1683999989866741600,10.42714208984375,-0.13588544711671166,-0.04349422448745611,0.8901501893644389
1683999989876783300,10.43718359375,-0.21231302628946494,0.03379535684346759,0.91228365887421
1683999989886824900,10.447225341796877,-0.22021201251388706,0.10625457766939002,0.9727714062882731
1683999989896866600,10.457266845703124,-0.19261199245541596,0.011622428911261026,0.9989959597578812
1683999989906908100,10.46730859375,-0.14112538097650912,0.015455245960129921,0.9909114839309365
1683999989916949600,10.47735009765625,-0.06390213954486722,-0.0329761505610742,1.0206063984787006
1683999989926991300,10.4873916015625,0.009102582960255595,-0.08584785449123652,1.0378742216846104
1683999989937032900,10.497433349609375,0.045458614938574005,-0.14801406853796045,1.0547637939759993
1683999989947074600,10.507474853515625,0.06818693878084202,-0.14787006363993946,1.1048260927525293
1683999989957116100,10.5175166015625,0.05325526006593089,-0.14291191098926145,1.1404469013207055
1683999989967157600,10.52755810546875,0.0629140138922658,-0.14748764023403876,1.1426770687719472
1683999989977199300,10.537599609375,0.07573229092594386,-0.07318210597614527,1.163834571902073
1683999989987240900,10.547641357421876,0.08227831129041019,0.0010337830700069847,1.1485295294996676
1683999989997282600,10.557682861328123,0.10637170068335336,0.10619449620212537,1.0802385807213124
1683999990007324100,10.567724365234374,0.13098591566154133,0.09175014487714844,1.0021111963591522
1683999990017365600,10.57776611328125,0.14631456140344362,0.08455944058531979,0.9260361195120127
1683999990027407300,10.5878076171875,0.17827010143301228,0.0797996520391546,0.8735431432128204
1683999990037448900,10.597849365234374,0.20026248691005466,0.07029628752535276,0.8348094224963124
1683999990047490600,10.607890869140626,0.24810975791594111,0.05605983728399938,0.7238109708305103
1683999990057532100,10.617932373046877,0.25979286438849225,0.058581352077809096,0.6413553954215119
1683999990067573900,10.627974365234374,0.24532854557980732,0.06349658952001286,0.5184302330253598
1683999990077615600,10.638015869140624,0.2598220110001765,0.11137676252907203,0.3818748295301546
1683999990087657100,10.6480576171875,0.25763589130363534,0.08745479599021419,0.30609661339884653
1683999990097698700,10.65809912109375,0.2697463035279023,0.08501434323666056,0.22456005229194467
1683999990107740300,10.668140625,0.2675186991242511,0.11114311224781909,0.11857950672104824
1683999990117781900,10.678182373046877,0.2898250222571252,0.10610771172559734,0.09334066499978831
1683999990127823600,10.688223876953124,0.32527405029930284,0.08673477179459287,0.05320197336898541
1683999990137865100,10.698265625,0.38321661943666757,0.02198505407768944,0.05817043784858642
1683999990147906700,10.70830712890625,0.4457893968210113,0.01694488527205524,0.0776515005750616
1683999990157948300,10.7183486328125,0.48348385092905294,-0.009663581775663796,0.1806778906973098
1683999990167989900,10.728390380859375,0.5052043199344841,-0.07844257365650949,0.21626141672863247
1683999990178031600,10.738431884765625,0.5043163896271504,-0.021567344693377805,0.2189397813030527
1683999990188073100,10.7484736328125,0.47938251487134825,0.0035228728420574344,0.3279614745796686
1683999990198114700,10.75851513671875,0.46657687414958976,0.09155178071650381,0.3978600501394487
1683999990208156300,10.768556640625,0.4470558762173094,0.2132234572976072,0.4575282037996361
1683999990218197900,10.778598388671876,0.45135009285747,0.27618980409313026,0.5487073660264056
1683999990228239600,10.788639892578123,0.46037310369275647,0.30970668782380484,0.5975575447611204
1683999990238281100,10.798681640625,0.5162662864342445,0.3566360472661009,0.6751922369767233
1683999990248323000,10.808723388671876,0.5490484833523714,0.34848880768459894,0.7565695642283872
1683999990258364600,10.818764892578123,0.6268855929298833,0.36388015740008894,0.883439838985717
1683999990268406200,10.828806640625,0.6401293873835342,0.2399797440317686,0.995641768003388
1683999990278447800,10.83884814453125,0.5963242053671585,0.200354575990635,1.032246828208111
1683999990288489400,10.848889892578123,0.5102751851503631,0.11171245564282258,1.0773007870619027
1683999990298531000,10.858931396484374,0.39244705451846185,-0.05103588104511167,1.1592093706152904
1683999990308572600,10.868972900390624,0.23242300762610152,-0.17363739019383292,1.1507880688875443
1683999990318614200,10.8790146484375,0.0650523305743569,-0.2967519758926699,1.1578497887195047
1683999990328655800,10.88905615234375,-0.06628531204603061,-0.35912036894464333,1.0745397805925956
1683999990338697400,10.899097900390624,-0.2062419652195884,-0.3569517136456466,0.9889732599974441
1683999990348739000,10.909139404296877,-0.30424976337894477,-0.34774112689037223,0.7929010390348781
1683999990358780600,10.919180908203124,-0.40327593681985463,-0.3622732163099122,0.6442154645544163
1683999990368822200,10.92922265625,-0.45449525131172197,-0.3414297104346539,0.526294112124649
1683999990378863800,10.93926416015625,-0.506261170025267,-0.2105283735849236,0.5186226366675413
1683999990388905400,10.949305908203126,-0.5728609561584541,-0.10086536411298361,0.5881403684770695
1683999990398947000,10.959347412109375,-0.6142264604644365,0.042082786499021335,0.7730661629583951
1683999990408988600,10.969388916015625,-0.6452975273428426,0.15662765506757456,1.0350955725544608
1683999990419030400,10.979430908203126,-0.6826847791284683,0.156296729937557,1.2727847100607725
1683999990429072000,10.989472412109375,-0.7377718687952091,0.07141304001648269,1.5091104506672899
1683999990439113600,10.99951416015625,-0.7867844105474974,0.042354583727880306,1.6659911871243567
1683999990449155200,11.0095556640625,-0.8539097905279649,0.03053951261377056,1.7844476699425318
1683999990459196800,11.01959716796875,-0.922121584371717,-0.01598262805005062,1.8313660621685868
1683999990469238400,11.029638916015625,-0.9731594323687195,-0.25858211518193924,1.8420120476888917
1683999990479280000,11.039680419921876,-0.9266530276834941,-0.6064672470830781,1.840537309499339
1683999990489321600,11.04972216796875,-0.7522424459484183,-0.8459978103755789,1.9875650404375316
1683999990499363200,11.059763671875,-0.5167407989719858,-0.8874626160097185,2.112980365763341
1683999990509404800,11.06980517578125,-0.27275291072024954,-0.6925897598083433,2.2699346542312395
1683999990519446400,11.079846923828123,-0.1339581309706216,-0.4691944123662904,2.3755097388774247
1683999990529488000,11.089888427734374,-0.12227895845214161,-0.246018409699258,2.410518646243332
1683999990539529600,11.099929931640624,-0.16757518061195903,0.027227401659378758,2.2274632452436034
1683999990549571200,11.1099716796875,-0.26392632710990227,0.3050279617969731,1.783339738951236
1683999990559612800,11.12001318359375,-0.27261811504805994,0.46065902705198425,1.267395973116942
1683999990569654400,11.130054931640624,-0.11432501680256352,0.2673206328742895,0.9398633836218266
1683999990579696000,11.140096435546877,0.09639316804430453,-0.2121953964444509,0.7645348906331905
1683999990589737600,11.150137939453124,0.3107144832985085,-0.7552461624035769,0.573584675865899
1683999990599779600,11.160179931640624,0.4983056784007231,-1.1015462876329074,0.32434934373716046
1683999990609821100,11.170221435546877,0.6528964041490576,-1.1012525557281843,-0.01113843919560383
1683999990619862600,11.18026318359375,0.743659436627894,-0.9152402877443904,-0.3964587448407742
1683999990629904300,11.1903046875,0.7420951128003878,-0.505741119480405,-0.8401913047648717
1683999990639945900,11.20034619140625,0.758136689645291,-0.06901931764092273,-1.1034615039447362
1683999990649987600,11.210387939453126,0.7819870711526882,0.42110919968943206,-1.5198476312858709
1683999990660029100,11.220429443359375,0.8605272771011421,0.9120645523082247,-1.755231380396382
1683999990670070600,11.23047119140625,1.018332958219878,1.3799657822092122,-1.8791365623195992
1683999990680112300,11.2405126953125,1.211594581448376,1.660128593535233,-2.007082462383927
1683999990690153900,11.25055419921875,1.4078061580297416,1.8988041877664814,-2.0092875957635568
1683999990700195600,11.260595947265625,1.5344926119739217,1.947906970919714,-2.216820955467206
1683999990710237100,11.270637451171876,1.6178694963797928,1.6190814973245293,-2.3027732371132594
1683999990720278600,11.28067919921875,1.5870198011829655,1.204564094582743,-2.2814285754705206
1683999990730320300,11.290720703125,1.51707077016384,0.7715845107932195,-2.049826622069769
1683999990740361900,11.30076220703125,1.3658206463279665,0.2605772016674848,-1.7695720196371232
1683999990750403600,11.310803955078123,1.1793158055551287,-0.3448600770215094,-1.5447595119864765
1683999990760445100,11.320845458984374,1.0345995426128403,-0.7026948927806286,-1.3613082171065438
1683999990770487000,11.330887451171876,0.8438053131376567,-0.977968215899338,-1.255596280115198
1683999990780528600,11.340928955078123,0.6797482967356056,-0.87261199963549,-1.4133075475638763
1683999990790570200,11.350970458984374,0.49594983462669334,-0.6388378142117062,-1.556422233641373
1683999990800611800,11.36101220703125,0.26949456334858246,-0.44185161573483883,-1.5571781396974114
1683999990810653400,11.3710537109375,-0.018488139002244736,-0.2862663268282345,-1.4667700530260757
1683999990820695000,11.381095458984374,-0.3076815308439812,-0.16479110718931908,-1.4073112010872852
1683999990830736600,11.391136962890624,-0.5727673173699851,-0.2301874160890061,-1.254073619971534
1683999990840778200,11.401178466796877,-0.783400058891541,-0.3289794920388825,-0.9198309182348485
1683999990850819800,11.41122021484375,-0.9509035349004259,-0.41777133940883504,-0.5053968430072784
1683999990860861400,11.42126171875,-1.034722924308571,-0.45325469962090564,-0.09957706922536749
1683999990870903000,11.431303466796876,-1.0375688075425085,-0.37333488463986314,0.148512721084007
1683999990880944600,11.441344970703126,-0.9818124771607725,-0.26668453228450134,0.2774060964373052
1683999990890986200,11.451386474609375,-0.8735564946282097,-0.1406841278974618,0.33340311038860554
1683999990901027800,11.46142822265625,-0.7163007855898873,0.04510688788996934,0.3074923752271757
1683999990911069600,11.471469970703126,-0.5325625537614204,0.19499587999709103,0.23547995089019502
1683999990921111200,11.48151171875,-0.30634462838393695,0.27325057997391317,0.1291748283395189
1683999990931152600,11.491552978515625,-0.1048485040054138,0.31339550013819933,-0.03476965426938576
1683999990941194400,11.5015947265625,0.09865507498538016,0.28677177433923745,-0.12906932820031405
1683999990951236000,11.511636474609375,0.22297808534136415,0.1839447020626928,-0.1657083034475673
1683999990961277600,11.521677978515624,0.3230603336081761,0.13643550873267635,-0.1903508901412622
1683999990971319200,11.5317197265625,0.3555110396551739,0.1010742186347924,-0.16470968725776694
1683999990981360800,11.54176123046875,0.29597941029760527,0.10652351366374466,-0.09654700740421057
1683999990991402400,11.551802734375,0.20165520908380516,0.10973644262212587,-0.03656411180460257
1683999991001444000,11.561844482421876,0.03707656273550036,0.14413261424734186,0.08681094648214392
1683999991011485600,11.571885986328123,-0.1227367370285912,0.1618337631490828,0.13713729393613616
1683999991021527200,11.581927734375,-0.3055684267704006,0.1675882340780206,0.16466522216272794
1683999991031568800,11.59196923828125,-0.4555212258244076,0.10166740431940385,0.1904969215997834
1683999991041610400,11.6020107421875,-0.5103756189937219,0.021556854277182947,0.23766028874232023
1683999991051652000,11.612052490234374,-0.5181490778801681,-0.15403270726432974,0.2941741943889461
1683999991061693600,11.622093994140624,-0.4393102525763841,-0.25548171988982493,0.2365738153738619
1683999991071735200,11.632135498046877,-0.3018196225091979,-0.31667518626382646,0.14371895796302317
1683999991081776800,11.64217724609375,-0.17458456744543016,-0.3855676651796634,0.09610056888816002
1683999991091818600,11.652218994140624,-0.05948495855001958,-0.3570137023473709,0.04693156466880093
1683999991101860300,11.6622607421875,0.02271693941132724,-0.3242416382844977,0.001539707274092803
1683999991111901900,11.67230224609375,0.044990479939027404,-0.32044506065187656,0.014153063424223919
1683999991121943600,11.68234375,0.03887557982493565,-0.3191490172721359,-0.018806636369735633
1683999991131985100,11.692385498046876,0.014857768850141874,-0.274986267276557,-0.027968227847823924
1683999991142026600,11.702427001953126,0.01938986786989259,-0.20965766913170736,-0.07259976867150145
1683999991152068300,11.71246875,0.06525790694631556,-0.13525485981087804,-0.13068300481725498
1683999991162109900,11.72251025390625,0.16977953910351132,0.019762992775927597,-0.10146653665771163
1683999991172151500,11.7325517578125,0.31837874634057867,0.1215248107458878,-0.07388013592179322
1683999991182193100,11.742593505859375,0.4937222005147246,0.20611667636789227,0.013631463090547587
1683999991192234600,11.752635009765624,0.6777176260744104,0.2546987533440216,-0.006502866800829058
1683999991202276300,11.7626767578125,0.8568806052557186,0.32011890398570897,-0.042687773637496484
1683999991212317900,11.77271826171875,1.020454287546151,0.31179714220441823,-0.02998596424001591
1683999991222359600,11.782759765625,1.0196449757135628,0.325647354129165,0.02393639083581986
1683999991232401300,11.7928017578125,1.0052695275030579,0.3497600555347846,0.03497406856570246
1683999991242442900,11.80284326171875,0.8847278953870079,0.3100843428282509,0.07642701261857422
1683999991252484600,11.812885009765624,0.7693687081719148,0.20905494682212644,0.14940172425459874
1683999991262526100,11.822926513671876,0.6412616372292838,0.16128063198738177,0.320416450592381
1683999991272567600,11.832968017578125,0.5204729437446208,0.10910892491854472,0.43268954747804594
1683999991282609300,11.843009765625,0.39790165420048246,0.1384410857380197,0.6274009942731693
1683999991292650900,11.85305126953125,0.283301711083124,0.1439704893707513,0.8463634849204549
1683999991302692600,11.863093017578125,0.21038782592916475,0.18299388873680544,0.8773844242842812
1683999991312734100,11.873134521484374,0.10352575791385879,0.11676025393659878,0.9696833492552351
1683999991322775700,11.883176025390624,-0.11132633689465665,0.04309940329980963,1.0072152613815932
1683999991332817300,11.8932177734375,-0.2705265282347364,-0.01939392093509208,0.9416098595167046
1683999991342858900,11.90325927734375,-0.28375029571199506,0.026782989420743395,0.6812691092384704
1683999991352900600,11.913301025390624,-0.16326332105927896,0.07623291002148676,0.412469208326689
1683999991362942100,11.923342529296876,0.005608320174645039,0.08616256728692288,0.14615124457921647
1683999991372984000,11.93338427734375,0.13707411289274585,0.0617733001557857,-0.031387299451848844
1683999991383025600,11.943426025390623,0.27186930165972945,0.025029182512570122,-0.16572374104880278
1683999991393067200,11.953467529296876,0.44081687921561213,0.04566478731317024,-0.2883047164679763
1683999991403108800,11.96350927734375,0.5608632564108504,0.045070648197442977,-0.36339491617035763
1683999991413150400,11.97355078125,0.6244118212869101,0.009098052935552174,-0.4106636642748027
1683999991423192000,11.98359228515625,0.6391464472078154,-0.00010108964310931601,-0.46371203668390937
1683999991433233600,11.993634033203126,0.6082880498502915,0.03883647922680311,-0.47164797788398144
1683999991443275200,12.003675537109377,0.5183452367806751,0.08989429475450467,-0.38154843454573445
1683999991453316800,12.01371728515625,0.43886148930472685,0.22474575049282017,-0.3237121105643501
1683999991463358400,12.0237587890625,0.3030202389313459,0.33101558697478833,-0.15850296618260837
1683999991473400000,12.03380029296875,0.16245365144856366,0.3775205612798777,-0.017621517078878945
1683999991483441600,12.043842041015624,0.11423707019157629,0.3665409088619812,0.12272283440167142
1683999991493483200,12.053883544921876,0.1798946856518421,0.3220148084957602,0.2447094619970647
1683999991503525000,12.063925537109377,0.44660985470387754,0.3372631071651914,0.4138620198139812
1683999991513566600,12.073967041015624,0.72199082364885,0.4050645829472712,0.45207172641035187
1683999991523608200,12.084008544921875,0.8484873176549624,0.5491075515907224,0.406495690197604
1683999991533649800,12.09405029296875,0.829750776356988,0.7069196699752083,0.29362052669772026
1683999991543691400,12.104091796875,0.7740068435815289,0.7159442901253813,0.28701615346801884
1683999991553733000,12.114133544921875,0.7097713947527634,0.650584220773355,0.27360141272211563
1683999991563774600,12.124175048828125,0.6735671757644255,0.48750209799677624,0.23496037716801418
1683999991573816200,12.134216552734374,0.6754413842013398,0.27995586390424726,0.14452219015624126
1683999991583857800,12.14425830078125,0.6018359660027669,-0.00022792810748520207,0.10711973918127182
1683999991593899400,12.1542998046875,0.5030418635109232,-0.26676177978721843,0.08844602118176471
1683999991603941000,12.164341552734374,0.39732730396018906,-0.4411296843365588,0.05059266084025718
1683999991613982900,12.17438330078125,0.2116029261723485,-0.5146951674491015,0.009644210397121204
1683999991624024600,12.1844248046875,0.04545998570788691,-0.4646978377972156,-0.031246602568718806
1683999991634066100,12.194466552734376,-0.041342139164935995,-0.35654640200061133,-0.11211496595322064
1683999991644107600,12.204508056640623,0.03272819521367472,-0.1237716674984175,-0.14142811285951037
1683999991654149300,12.2145498046875,0.08209478853499573,0.06629562388481945,-0.20152598610920544
1683999991664190900,12.22459130859375,0.15696477883422238,0.21652698523665084,-0.2097202838780637
1683999991674232600,12.2346328125,0.26311886303799725,0.3133916854482804,-0.24558904779132834
1683999991684274100,12.244674560546876,0.2944494485197657,0.3290815353188691,-0.3400718569150276
1683999991694315600,12.254716064453126,0.2925270796086758,0.32178306577141536,-0.45248788595259676
1683999991704357300,12.2647578125,0.3082364797299578,0.22385025024931415,-0.601181149537488
1683999991714398900,12.27479931640625,0.29158258431372747,0.06282043459543886,-0.7237095237345583
1683999991724440600,12.2848408203125,0.26263189323197794,-0.09442806245310334,-0.8269392847036494
1683999991734482100,12.294882568359377,0.20036351681160264,-0.1541957855280792,-0.9237921238180745
1683999991744523600,12.304924072265624,0.17158186430598377,-0.18919849384650908,-0.9889997243325308
1683999991754565600,12.314966064453126,0.24540913110148355,-0.17646789536887442,-1.018445491680454
1683999991764607200,12.325007568359377,0.3880158664527832,-0.17341327665125292,-1.0186662673660163
1683999991774648800,12.335049072265624,0.5175368785301192,-0.1232490539027605,-1.0069751739288237
1683999991784690400,12.3450908203125,0.7216114998227234,-0.06169223801106997,-0.986964762258697
1683999991794732000,12.35513232421875,0.9217212200071451,-0.056831359997146336,-0.9854683876440031
1683999991804773600,12.365174072265624,0.995826006113922,-0.07199287411596231,-0.9672567843426743
1683999991814815200,12.375215576171875,0.9347792863345001,-0.10412406933811474,-0.9302978516488756
1683999991824856800,12.385257080078125,0.7584275007064798,-0.14094352717268133,-0.7968837021824786
1683999991834898400,12.395298828125,0.4829962254125075,-0.12362575546082949,-0.6179821490908506
1683999991844940000,12.40534033203125,0.14254963392940745,-0.037057876426745864,-0.3426060080052954
1683999991854981800,12.41538232421875,-0.16939008229146238,0.1239852904293741,-0.06470373283538278
1683999991865023400,12.425423828125,-0.4057739973692226,0.27525711045538587,0.17971312990933153
1683999991875065000,12.43546533203125,-0.612221121920283,0.32691287983504336,0.28231760866048083
1683999991885106600,12.445507080078125,-0.7937562466743417,0.28485107413880034,0.2855222226402117
1683999991895148200,12.455548583984376,-0.8624364138874285,0.2241210938231438,0.2650644779293403
1683999991905189800,12.465590087890623,-0.6187568902748803,0.33412742622439134,0.27104398617104203
1683999991915231400,12.4756318359375,-0.16200768960700546,0.603110313496689,0.33475598692684977
1683999991925273000,12.48567333984375,0.29306030267494226,0.8953580855896889,0.35636472716224477
1683999991935314600,12.495715087890623,0.5260167122253069,1.029898643380944,0.49111288789329677
1683999991945356200,12.505756591796874,0.6124042272735315,1.0957183837463418,0.6254831553169216
1683999991955397800,12.515798095703126,0.5930044651372955,0.9807291032557268,0.7534313796712228
1683999991965439400,12.52583984375,0.4729884860975023,0.7139759064258436,0.7522069214494543
1683999991975481000,12.53588134765625,0.23873710629514214,0.19063472750469274,0.6905353667052533
