time,seconds_elapsed,z,y,x
1684002379177757900,0.045158203125,-2.6606057414804547e-11,-1.7853623911699647e-10,4.723971820563648e-11
1684002379187800000,0.055200439453125,-1.6455557346358338,-0.9854171275207932,-0.28094482426098155
1684002379197842100,0.065242431640625,-0.292372942014691,-0.8420689106756298,-0.5727024079513494
1684002379207884200,0.07528466796875,2.1643316744862195,0.5577056409152079,-0.12352752684317003
1684002379217926300,0.08532666015625,2.614718437264489,-0.1888451575511507,0.6400194169662425
1684002379227968400,0.095368896484375,2.613706588748186,0.4058630467687816,-1.0942192077378738
1684002379238010600,0.105410888671875,2.623893260945311,0.44738817214023596,-3.2214779854198996
1684002379248052600,0.115453125,1.9685554504740728,-0.6912417411295734,-3.180237293350592
1684002379258094800,0.1254951171875,1.3129004240079867,-0.6837759018619827,-2.4359703064782523
1684002379268136900,0.135537353515625,0.7249630688723774,0.305912733230762,-1.3658728599870387
1684002379278179000,0.145579345703125,0.7980622649251752,1.0824719667187301,-0.559107780545722
1684002379288221100,0.15562158203125,0.8655277490655883,0.19544506074773607,0.8426456450938771
1684002379298263200,0.16566357421875,1.1680300236949122,0.1603140831522488,1.6000242233372985
1684002379308305300,0.175705810546875,1.9063336848844192,0.5108747483557505,1.2912530899836239
1684002379318347400,0.185747802734375,2.351705074362725,0.20799088473941257,0.988561630279768
1684002379328389600,0.1957900390625,2.283559322286848,-0.20514845834253523,0.38259792335825393
1684002379338431600,0.20583203125,2.4229426384127386,-0.6121950150297165,0.28300571445900397
1684002379348473800,0.215874267578125,3.1269464493497625,-0.8616762161449272,0.4531898498995994
1684002379358515900,0.225916259765625,3.4022428989222155,-1.7354147435448004,0.7223682404191997
1684002379368558000,0.23595849609375,3.385547161136068,-1.6520111560404143,0.36334800722054683
1684002379378600100,0.24600048828125,2.8354871273215774,-1.4428677560709156,0.07709217081303388
1684002379388642200,0.256042724609375,2.122835874671074,-1.1466841696708623,-0.344120025506693
1684002379398684300,0.266084716796875,1.6910455228098829,-1.3492629528562226,-0.6723585129587354
1684002379408726400,0.276126953125,1.5283446311617443,-1.2108488081153541,-1.2635617255689293
1684002379418768600,0.2861689453125,1.2534364462279928,-2.019337654009868,-1.9065566063520807
1684002379428810600,0.296211181640625,0.7603463531487095,-1.8417651652567295,-1.771566867787756
1684002379438852800,0.306253173828125,0.4050023555837225,-1.4601836203148557,-1.2313928603235014
1684002379448894900,0.31629541015625,1.1449017523192946,-1.2347898485064426,-0.6310324668582733
1684002379458937000,0.32633740234375,1.511168241576504,-1.4494214057985635,0.10641336445760956
1684002379468979100,0.336379638671875,0.6785122154867365,-2.3190917968471183,2.5151934624304912
1684002379479021200,0.346421630859375,0.1743377745168005,-1.2870025635599112,3.0705089569300013
1684002379489063300,0.356463623046875,0.1788687706813148,0.010637760185983258,2.2980060578519774
1684002379499105500,0.366505859375,0.22616715736464277,1.1695656775399736,0.32766532900738216
1684002379509147600,0.3765478515625,0.09581178415070334,0.1573085785313564,-1.172969341390113
1684002379519189600,0.386590087890625,-0.1792660059245589,-1.5865883828119272,-0.8746190071973343
1684002379529231800,0.396632080078125,-0.329657316113469,-1.9072289468630694,-0.23364210127078833
1684002379539273900,0.40667431640625,-0.24928903568730368,-2.3473186491827986,0.49687910079898256
1684002379549316000,0.41671630859375,0.2534524798720197,-1.9828662872521656,0.686211109261225
1684002379559358100,0.426758544921875,1.4084029199175312,-1.4596085547205897,0.9732995032945497
1684002379569400200,0.436800537109375,2.3651432990503483,-1.4877023697518552,2.5983324051116794
1684002379579442100,0.446842529296875,2.841446161288502,-1.2506132126171774,4.3093519210394176
1684002379589484200,0.456884521484375,2.425263404844676,-0.3596587182687913,6.149772644194127
1684002379599526300,0.4669267578125,1.985852360664009,0.23783969878775035,6.859913349226803
1684002379609568400,0.47696875,0.8000252246209368,0.43396091474294146,6.258726596824232
1684002379619610600,0.487010986328125,-0.641739070439177,-0.4613480566908903,4.252453804023413
1684002379629652600,0.497052978515625,0.5735447407550077,-1.4564576149343422,1.8106389044904496
1684002379639694800,0.50709521484375,-0.204768151051434,-0.2577142714946216,-0.7027516363877712
1684002379649736900,0.51713720703125,-0.3275000155522342,-0.9484972952664288,-0.727168560004567
1684002379659779000,0.527179443359375,-1.1073739528612754,-0.9218192098570612,-1.1725258826066127
1684002379669821100,0.537221435546875,-0.16504602116854766,-1.3288269042981609,-1.0144853590954814
1684002379679863200,0.547263671875,-0.05493257950706499,-0.5220093726753023,-0.7539682388176948
1684002379689905300,0.5573056640625,0.19426175947532817,-0.2823710440110259,-0.04426288604579333
1684002379699947400,0.567347900390625,0.6381525397134002,0.1758346557869389,0.5007405282759255
1684002379709989600,0.577389892578125,0.04146017144193107,-1.2543182373401687,0.9456834794192877
1684002379720031600,0.58743212890625,0.00019115209410435212,-1.5232696533031982,3.621994972272472
1684002379730073800,0.59747412109375,-0.10175786180619303,0.006038665700573374,1.729882717192319
1684002379740115900,0.607516357421875,0.21324475124506997,1.7072849273895743,0.6715207099220557
1684002379750158000,0.617558349609375,0.6831701994210335,3.2889792920289502,-0.3976836204695593
1684002379760200100,0.6276005859375,-0.07815149435364838,2.7811322211610086,-1.693002700820869
1684002379770242200,0.637642578125,0.20050102475531875,2.4258432388894793,-1.195310115746546
1684002379780284300,0.647684814453125,0.24220040438206683,1.470148563360853,-0.957693099882562
1684002379790326400,0.657726806640625,0.8891769051806248,0.0030298231969313675,-0.9218707084608961
1684002379800368600,0.66776904296875,1.5073391199027066,-0.692771434795536,-0.6735076904194971
1684002379810410600,0.67781103515625,2.08201909075399,-0.6846489905846569,-0.4211902619249529
1684002379820452800,0.687853271484375,2.4043755530972217,-0.08975458152286205,0.021390438038570676
1684002379830494900,0.697895263671875,2.64618420606866,0.8746471404454959,0.030665874457142854
1684002379840537000,0.7079375,2.397819042292986,2.4980745315797934,0.39638662351298315
1684002379850579100,0.7179794921875,1.8491736650216917,3.5063018799089454,0.7539005280468203
1684002379860621200,0.728021728515625,1.7144638300049468,3.7276852129683857,0.23499631885085834
1684002379870663300,0.738063720703125,1.8293817042525538,1.9755520819971197,-1.0769519805006071
1684002379880705500,0.74810595703125,1.5465748310193206,0.279813289545164,-1.519769668654695
1684002379890747600,0.75814794921875,1.4961755277225652,-0.9969773291640598,-2.049266815318536
1684002379900789600,0.768190185546875,1.287248968938131,-1.43698978412458,-2.381152629901501
1684002379910831800,0.778232177734375,0.6311123370947803,-1.7466173171684176,-2.897197246616658
1684002379920873900,0.7882744140625,1.207493662916309,-2.2232036591052418,-1.4169573782594116
1684002379930916000,0.79831640625,0.6061042546755209,-1.8040060996626408,-0.5813331603790916
1684002379940958100,0.808358642578125,-0.554236352419147,-1.5005970002282794,0.8750128745928991
1684002379951000200,0.818400634765625,-1.5182642936690158,-0.5428333282103194,2.121612071974327
1684002379961042400,0.82844287109375,-1.8799309730381681,1.224691867764129,2.3778643607412757
1684002379971084500,0.83848486328125,-1.4218715429091122,4.7456755638796695,2.508060932191486
1684002379981126600,0.84852685546875,-1.957605242620763,3.82586288447141,2.579815387713106
1684002379991168600,0.858569091796875,-2.059265851990636,2.7659621238620145,2.6576533317941746
1684002380001210800,0.868611083984375,-1.3844280242960663,2.104041099692945,2.0605568887420507
1684002380011252900,0.8786533203125,-0.8073819874374848,0.9061093331162583,0.9038624763143115
1684002380021295000,0.8886953125,-0.39042359582368813,-0.3961243630835799,-0.14819812770330845
1684002380031337100,0.898737548828125,-0.07432214171235223,-1.842974662819562,-1.2032160759379964
1684002380041379200,0.908779541015625,0.24852710955781487,-2.607268333298836,-2.309207201029691
1684002380051421400,0.91882177734375,0.7765676379666154,-2.2267923353910675,-2.209419488967725
1684002380061463200,0.928863525390625,1.351721286854206,-0.7773547172614909,-1.3358116150218355
1684002380071505300,0.93890576171875,1.3267813920307414,-0.3030142783470019,-0.06186580657004697
1684002380081547400,0.94894775390625,0.5536882878125,1.0991005896942345,1.4937252996790824
1684002380091589600,0.958989990234375,-0.009867399985716924,3.2270545959642374,1.4523715973157199
1684002380101631600,0.969031982421875,-1.043606996607108,3.0343360901196514,1.0245542527051497
1684002380111673800,0.97907421875,-2.137927055324412,1.9338326453376806,0.02797174457072235
1684002380121715900,0.9891162109375,-2.5683920383972563,0.08111095423486261,-1.0631518362497965
1684002380131758000,0.999158447265625,-2.08360219014879,-1.6362323759742365,-1.7433631418695419
1684002380141800100,1.009200439453125,-0.946233570710237,-2.022051811349371,-1.702049255190356
1684002380151842200,1.01924267578125,0.46621674295475135,-1.433928489576407,-1.2552845477954546
1684002380161884300,1.02928466796875,1.4991012812327804,-1.3732252121324904,-0.7657155991048938
1684002380171926400,1.039326904296875,2.169555425618518,-1.7415332794110188,-0.11412572868634083
1684002380181968600,1.049368896484375,2.5102128980952902,-1.8931055069658302,0.5468950271860953
1684002380192010600,1.0594111328125,2.399407386852352,-1.8402099609604414,1.0584390163829913
1684002380202052800,1.069453125,2.09436798110361,-1.5079603194313478,1.4554655550735307
1684002380212094900,1.079495361328125,1.2092390059991385,-1.211871147143658,1.6018316746478753
1684002380222137000,1.089537353515625,0.040303245122261216,-1.1011667252746624,1.431413650493823
1684002380232179100,1.09957958984375,-0.8244780300756298,-1.0312623977573592,1.3952205180982806
1684002380242221200,1.10962158203125,-1.225783586503616,-1.3080940247350452,2.199821472143216
1684002380252263300,1.119663818359375,-1.1206736564723376,-1.173703193491383,2.5447149276115035
1684002380262305500,1.129705810546875,-0.6822042465020371,-0.5409269332148681,2.303756237063142
1684002380272347600,1.139748046875,-0.596386790312418,0.07623863225933475,1.467641592084708
1684002380282389600,1.1497900390625,-0.49353420739901316,-0.022348403941549903,0.35031402106832704
1684002380292431800,1.159832275390625,-0.430684536775399,-0.7354488373503961,-0.022067427616645062
1684002380302473900,1.169874267578125,-0.041521519543612266,-0.9751768112220737,0.043971657738456425
1684002380312516000,1.17991650390625,0.8208842278002061,-0.7182588578092488,0.279711365790971
1684002380322558100,1.18995849609375,1.5385241508874195,-1.2360620497704882,0.44531238090171543
1684002380332600200,1.200000732421875,1.5817213057565889,-2.178280830280305,0.6222261189345588
1684002380342642400,1.210042724609375,1.3510471580900199,-2.4062852860483535,1.0556185246823198
1684002380352684500,1.2200849609375,0.37666532391556706,-2.598714828509135,1.0927886962959488
1684002380362726600,1.230126953125,-0.855507254603634,-2.683615684593922,1.0769619941460362
1684002380372768600,1.240169189453125,-1.8521687983391806,-2.5955543519548505,1.0469841955851038
1684002380382810800,1.250211181640625,-2.325782775898154,-2.1125860214544487,0.8237149714692318
1684002380392852900,1.26025341796875,-2.4052410126052615,-1.421966552721923,0.34274220481285056
1684002380402895000,1.27029541015625,-2.3057613372823877,-0.8952779770000185,-0.4573445320290329
1684002380412937100,1.280337646484375,-1.7871308327941786,-0.5997333527792891,-1.1919524670309234
1684002380422979200,1.290379638671875,-1.0836260319405866,-0.5511999131403915,-1.495818734263274
1684002380433021400,1.300421875,-0.6457195876770511,-0.5815763472963189,-1.4930294751135584
1684002380443063500,1.3104638671875,-0.4574952124649601,-0.8047571182380364,-1.3931297063508632
1684002380453105600,1.320506103515625,-0.2305568456726356,-0.8372669220356428,-1.253623247058005
1684002380463147600,1.330548095703125,-0.026167750335779373,-0.5450181961774083,-0.9886852502274954
1684002380473189800,1.340590087890625,0.16567158700933238,-0.4958019258128711,-0.8522061109231969
1684002380483231900,1.35063232421875,0.2585483787999452,-0.580641746457717,-0.8096866606581793
1684002380493274000,1.36067431640625,0.31367266184740294,-0.6197996139274506,-0.9150058031495163
1684002380503316100,1.370716552734375,0.2471358775669003,-0.7128143309350382,-0.9797183276053872
1684002380513358300,1.380758544921875,0.2420178652570665,-0.768768310602377,-0.9365874528705883
1684002380523400400,1.39080078125,0.3013049362569178,-0.6264638901625086,-0.8153336046331435
1684002380533442600,1.4008427734375,0.42343652240406965,-0.5392246244883516,-0.7039775849979875
1684002380543484600,1.410885009765625,0.4824465512846154,-0.4612703322360767,-0.6421890258818741
1684002380553526400,1.4209267578125,0.5826320648272207,-0.1406612397626519,-0.6955583094460697
1684002380563568800,1.43096923828125,0.7525979281196331,0.19133377080010286,-0.7865604163731343
1684002380573610600,1.441010986328125,1.0605480670981393,0.6259431838926337,-1.0228253602135462
1684002380583653000,1.451053466796875,1.2583634853700183,0.7727985380756931,-0.8273034096346429
1684002380593694900,1.46109521484375,1.4801955223071885,0.7507181167164193,-0.5184800623069125
1684002380603737300,1.4711376953125,1.5561436414332808,0.6703643798683455,-0.17222476014466376
1684002380613779100,1.481179443359375,1.4931503535255557,0.8421230315870691,0.08338785179624907
1684002380623821600,1.491221923828125,1.2801818847319373,1.0018873215596353,0.3379487991538064
1684002380633863300,1.501263671875,1.0387862920540367,1.0873165130976343,0.547466993340839
1684002380643905500,1.511305908203125,0.7709536552793145,0.9560594558743436,0.6084337235480338
1684002380653947600,1.521347900390625,0.6632473468088135,0.8005132673263892,0.45171928400330064
1684002380663989600,1.53139013671875,0.5628077982553146,0.6002864836152372,0.35584926586340176
1684002380674031800,1.54143212890625,0.426217794416991,0.23728561398280787,0.2670369149404357
1684002380684073900,1.551474365234375,0.3494158983080521,-0.06567859639711277,0.13550686846815316
1684002380694116000,1.561516357421875,0.2696889638565756,-0.24415493008767486,-0.09373164179035233
1684002380704158100,1.57155859375,0.15589737887809282,-0.2818670271855545,-0.4259469508652383
1684002380714200200,1.5816005859375,0.0817070005768421,-0.20551776874143815,-0.6811678409640911
1684002380724242400,1.591642822265625,0.053489684989334416,-0.04204559317808259,-0.8415619134565208
1684002380734284500,1.601684814453125,0.019231796347398782,0.13145923613337282,-0.9491719008132485
1684002380744326600,1.61172705078125,0.03617501256690319,0.2645187377377481,-0.9654538633026364
1684002380754368600,1.62176904296875,0.05634093276454351,0.31405448926318075,-0.9380546807345859
1684002380764410800,1.631811279296875,0.005729198400480768,0.287343978810843,-0.9068460463928514
1684002380774452900,1.641853271484375,-0.07691288007954028,0.21784019472649008,-0.8584892751268403
1684002380784495000,1.6518955078125,-0.2120442390263227,0.1053762435809117,-0.7249212264993704
1684002380794537100,1.6619375,-0.3434689043776274,0.033337593183458275,-0.6489682197414286
1684002380804579200,1.671979736328125,-0.43680071842166523,-0.04144191738847339,-0.6010820866070616
1684002380814621400,1.682021728515625,-0.5511887073851706,-0.43132972717306123,-0.6523706913784519
1684002380824663600,1.69206396484375,-0.7179489136533551,-0.9568567274992452,-0.9993089437033968
1684002380834705600,1.70210595703125,-0.6375653742892906,-0.33786487572169105,-0.9925335645207972
1684002380844747600,1.712148193359375,-0.6986033917890907,-0.28217411040042234,-0.9310705660415741
1684002380854789800,1.722190185546875,-0.6892936228659916,-0.1893396377500943,-0.8477172852730571
1684002380864831900,1.732232421875,-0.6754324436672949,-0.03329372405556053,-0.7097799778390774
1684002380874874000,1.7422744140625,-0.6417934896107735,0.17200565341166255,-0.5996787548394744
1684002380884916100,1.752316650390625,-0.5712125301481975,0.4320230483981496,-0.4154417513386401
1684002380894958300,1.762358642578125,-0.5315287113548293,0.4991378784782602,-0.24568939209411478
1684002380905000400,1.77240087890625,-0.5433974266762713,0.3428936005688727,-0.11106300358072108
1684002380915042600,1.78244287109375,-0.5362744330479414,0.19467544547681864,-0.10579586031483604
1684002380925084600,1.792485107421875,-0.45514965068548985,0.1612672805066143,-0.17741131783012193
1684002380935126600,1.802527099609375,-0.38113021851763373,0.21341896073383249,-0.24204063418925945
1684002380945168800,1.8125693359375,-0.3512670994003171,0.18374156955225968,-0.27593231184736
1684002380955210900,1.822611328125,-0.3407158852432185,0.12727451325930006,-0.27909708040623665
1684002380965253000,1.8326533203125,-0.3316762447573572,0.03434276596706108,-0.22791409485727146
1684002380975295200,1.842695556640625,-0.30425477038342474,-0.00462341292023332,-0.12736248978275982
1684002380985337300,1.852737548828125,-0.24633049954344383,0.019447326841325465,-0.04444479957559457
1684002380995379400,1.86277978515625,-0.11580324171808981,0.06826114668096696,0.0043776035509389645
1684002381005421600,1.87282177734375,0.018615722512629683,0.011123657384830498,0.07395505891854885
1684002381015463600,1.882864013671875,0.12860155100317625,0.023107528753003117,0.08829164498525581
1684002381025505600,1.892906005859375,0.13583159442502318,0.011702537531296029,0.09788322438894832
1684002381035547800,1.9029482421875,0.09572458259985273,-0.010276794285078432,0.06250834458104378
1684002381045589900,1.912990234375,0.05368804923501565,-0.006138801498750731,0.03518033011096181
1684002381055632000,1.923032470703125,0.0006637572827843816,0.06271839136773008,-0.019891738883873175
1684002381065674200,1.933074462890625,0.026293277743278498,0.2104663847781643,-0.05768132209735851
1684002381075716300,1.94311669921875,0.12269186972114604,0.37480449679876215,0.07379221910878632
1684002381085758400,1.95315869140625,0.21621680244368402,0.5007143021472725,0.1427018641872422
1684002381095800600,1.963200927734375,0.21063280099287604,0.5497083664111679,0.21802687649226624
1684002381105842600,1.973242919921875,0.009240150371324442,0.4972772597392147,0.37769007685558015
1684002381115884600,1.98328515625,-0.2720861434041069,0.4525623322698929,0.6092655659057994
1684002381125926800,1.9933271484375,-0.5065994261099613,0.48639583579369644,0.7152705193153137
1684002381135968600,2.003369140625,-0.6593704222507558,0.5457143784171328,0.7543873787153725
1684002381146011100,2.013411376953125,-0.6804518700656074,0.5087099075158532,0.6812961102170706
1684002381156052900,2.023453369140625,-0.5875456334791909,0.48780632007972624,0.5794711113903419
1684002381166095300,2.03349560546875,-0.5382835866788851,0.4975910186403235,0.34797930714805775
1684002381176137100,2.04353759765625,-0.5231430532457405,0.5267219543365741,0.04201269147100402
1684002381186179200,2.05357958984375,-0.4982933997140339,0.5641651154921589,-0.36255788808980366
1684002381196221400,2.063621826171875,-0.5568330287552328,0.5225200654155677,-0.7243928908652545
1684002381206263500,2.073663818359375,-0.6887922286829234,0.4978742599451086,-1.0896446704879235
1684002381216305600,2.0837060546875,-0.8875010011868735,0.4111309051440333,-1.2290929555154229
1684002381226347600,2.093748046875,-1.0915780068036696,0.245052337646197,-1.2571487426099939
1684002381236389800,2.103790283203125,-1.3170993328225005,0.06576347344125916,-1.2105412483561795
1684002381246431900,2.113832275390625,-1.4973814487215913,-0.2109203339612571,-1.1191124915663715
1684002381256474000,2.12387451171875,-1.6223633287875394,-0.692220687793709,-0.891161441819582
1684002381266516100,2.13391650390625,-1.643744707087195,-1.2055463790318088,-0.483216762574517
1684002381276558300,2.143958740234375,-1.501761674895739,-1.6050271987957154,0.12298941623168012
1684002381286600400,2.154000732421875,-1.0762095451493277,-1.902480125504273,0.7169477939788571
1684002381296642600,2.16404296875,-0.3854649067465598,-1.956963539172585,1.1759629248956338
1684002381306684600,2.1740849609375,0.06611394885505233,-2.095812797695947,1.4755783081502507
1684002381316726600,2.184127197265625,0.1216242313373017,-2.1639747620625664,1.7075302601094713
1684002381326768800,2.194169189453125,-0.24377870568102647,-1.8576240540356082,1.8429999349997563
1684002381336810900,2.20421142578125,-0.48855090138987534,-0.7007398605521128,1.6167993545598955
1684002381346853000,2.21425341796875,-0.06467211253821563,0.40542411812051365,1.380287170446306
1684002381356895200,2.224295654296875,0.6602984667478511,1.1390352249446543,1.0356659889415254
1684002381366937300,2.234337646484375,1.2839716672915236,1.5287876129340698,0.6730270386037891
1684002381376979400,2.2443798828125,1.7155442237968268,1.6752200126907606,0.22395133960072683
1684002381387021600,2.254421875,1.9503474235725948,1.5640325546357965,-0.05819535254813034
1684002381397063600,2.264464111328125,2.004854679041861,1.4667081832589675,-0.3446772098421889
1684002381407105600,2.274506103515625,1.8634386062811656,1.3676176072455841,-0.771171688906232
1684002381417147800,2.28454833984375,1.7237610816518354,0.9286165236643115,-1.0197936296506016
1684002381427189900,2.29459033203125,1.5880484581225895,0.29853820795859765,-1.1789799929037539
1684002381437232000,2.304632568359375,1.4964256286381392,-0.10988330850854844,-1.3132268190701089
1684002381447274200,2.314674560546875,1.4342530965238993,-0.27689838407692546,-1.3329000471690804
1684002381457316300,2.324716552734375,1.3697282076194914,-0.5122365952506269,-1.0414739848159487
1684002381467358400,2.3347587890625,1.1510486602527081,-0.7237482071197033,-0.62763953208113
1684002381477400600,2.34480078125,0.866502165692903,-0.697581291180836,-0.28284573545662245
1684002381487442600,2.354843017578125,0.6536396741720122,-0.5156049728420711,-0.10666751856238035
1684002381497484600,2.364885009765625,0.4541009961218359,-0.3881006242506691,0.10215520859929521
1684002381507526800,2.37492724609375,0.20497620099833788,-0.19609832770258437,0.15627932539799289
1684002381517568900,2.38496923828125,-0.09357047085255368,-0.10717296593480112,0.0718784333917434
1684002381527611100,2.395011474609375,-0.45040011415728215,0.08636760709594159,-0.17211413370193196
1684002381537653200,2.405053466796875,-0.6994512676507948,-0.12136268625621321,-0.3389217852184204
1684002381547695300,2.415095703125,-0.8875080942858538,-0.3610906599697861,-0.6487244367110483
1684002381557737400,2.4251376953125,-0.8950682282494092,-0.4794645310657601,-0.8482612370555245
1684002381567779600,2.435179931640625,-0.6127241850641633,-0.5574092864648668,-0.8883510826402401
1684002381577821600,2.445221923828125,-0.11982604859431477,-0.5228738784676322,-0.6960890291837941
1684002381587863700,2.45526416015625,0.4402679502801511,-0.49748420726161857,-0.3598377704229253
1684002381597905800,2.46530615234375,0.9926668404583454,-0.47177219385237307,-0.053335189977220615
1684002381607948000,2.475348388671875,1.477467775337209,-0.40307617185562955,0.10708451277737789
1684002381617990100,2.485390380859375,1.8562247752415975,-0.15343570713151014,0.1160733700206759
1684002381628032200,2.4954326171875,2.085734844332563,0.03794574753810146,0.09556913377517014
1684002381638074300,2.505474609375,2.2057631015867325,0.16903209693888172,0.07500839242114837
1684002381648116400,2.515516845703125,2.243937492232929,0.27342700954094945,0.14751458163596373
1684002381658158600,2.525558837890625,2.2152459619953504,0.33696460708683246,0.21758913977398678
1684002381668200400,2.535600830078125,2.162210941354493,0.29078388213619727,0.27383065209754626
1684002381678242700,2.54564306640625,2.0557341575366928,0.1879205703573914,0.4027855394835707
1684002381688284600,2.55568505859375,1.9033795594343084,0.09284591676182125,0.5727710722439822
1684002381698327000,2.565727294921875,1.7534060477881033,0.03146934507733428,0.7467947004521259
1684002381708368800,2.575769287109375,1.5847336054714953,0.06789398191590303,0.7932159899431677
1684002381718410900,2.585811279296875,1.4769713878876651,0.13723659524878812,0.7598903179581937
1684002381728453000,2.595853515625,1.3719283342396649,0.18203926097604028,0.7445974348483178
1684002381738495200,2.6058955078125,1.2639925479324237,0.40966701493176777,0.6557581423523126
1684002381748537300,2.615937744140625,1.1236844063212286,0.5189266204174457,0.5722405911337302
1684002381758579400,2.625979736328125,1.021685123423666,0.5412359239339268,0.47691702840732336
1684002381768621600,2.63602197265625,0.9624178408312833,0.5559234617870031,0.31134247783374114
1684002381778663600,2.64606396484375,0.918051600496653,0.5965890883497428,0.10749125483436156
1684002381788705600,2.656106201171875,0.8565239907437057,0.3581180573489151,-0.0523185730622264
1684002381798747800,2.666148193359375,0.8223066926197403,0.12589645385993303,-0.258987665119597
1684002381808789900,2.6761904296875,0.8098525999642282,-0.09763336169931068,-0.31158125395509056
1684002381818832000,2.686232421875,0.7897272111580604,-0.3963661195396656,-0.4030994177430566
1684002381828874200,2.696274658203125,0.7105807066349202,-0.37916183468160075,-0.5035190583089402
1684002381838916300,2.706316650390625,0.5905237197832695,-0.3336973190918608,-0.6210516691853822
1684002381848958400,2.71635888671875,0.44387996198683105,-0.057396888843601904,-0.7199969291923531
1684002381859000600,2.72640087890625,0.2838862538468185,0.16518402102939528,-0.7831898927496478
1684002381869042600,2.736443115234375,0.1943938136080498,0.21019458765229776,-0.5917522907101536
1684002381879084600,2.746485107421875,0.13260871171670802,0.12824058530261898,-0.3719451427605055
1684002381889126800,2.75652734375,0.0881373585024758,0.041562080370264244,-0.18093013753858067
1684002381899168900,2.7665693359375,0.11366662371969817,0.012044906715526207,0.08311057093778505
1684002381909211100,2.776611572265625,0.09304934733255203,0.1657629012017322,0.23814892770856286
1684002381919253200,2.786653564453125,0.13005626206007867,0.19416522978728606,0.39610910416721706
1684002381929295300,2.79669580078125,0.12833413469769683,0.25499057764230826,0.492041349397475
1684002381939337400,2.80673779296875,0.1212158798572761,0.34570884714240907,0.45458722115525424
1684002381949379600,2.81677978515625,0.17113164071281722,0.3586320875211616,0.5122456550821501
1684002381959421600,2.826822021484375,0.20007222879829054,0.32492351526106267,0.39454984667741877
1684002381969463600,2.836864013671875,0.21629887824895003,0.1639747619799808,0.25393438344434044
1684002381979505800,2.84690625,0.2751377820627023,0.05828380573108328,0.003119707141623094
1684002381989548000,2.8569482421875,0.33551374072485557,-0.19665145880207077,-0.18919682491382936
1684002381999590100,2.866990478515625,0.4443233905836442,-0.5829334259164067,-0.38957715023860945
1684002382009632200,2.877032470703125,0.5522477627148125,-0.9638423919090564,-0.4512441159160171
1684002382019674300,2.88707470703125,0.67413491018434,-1.2202606201771893,-0.5206714868386686
1684002382029716400,2.89711669921875,0.7545148135376181,-1.2122344970791332,-0.6372283697527439
1684002382039758600,2.907158935546875,0.8334497213145916,-0.9433965682567266,-0.8113756178918656
1684002382049800600,2.917200927734375,0.8636763094823386,-0.42904281618143886,-1.0264204741864318
1684002382059842700,2.9272431640625,0.8387384414630932,-0.0019826890705813447,-1.0355787276444248
1684002382069884800,2.93728515625,0.7687886953829224,0.277812957844525,-0.8281145097150299
1684002382079927000,2.947327392578125,0.6689547301988373,0.4369335174414607,-0.713546514529195
1684002382089969100,2.957369384765625,0.5220631360341714,0.364253997746435,-0.6511619089733609
1684002382100011200,2.96741162109375,0.42853051415883764,0.20882606506344004,-0.4962534903392571
1684002382110053300,2.97745361328125,0.35166209936032033,-0.1912183760684832,-0.387010574466442
1684002382120095400,2.987495849609375,0.2649481892928799,-0.5289525986161193,-0.21564841272104912
1684002382130137600,2.997537841796875,0.27812296140985937,-0.7186326979787452,0.16320705414370196
1684002382140179600,3.007580078125,0.2901908754461616,-0.7595224380751886,0.4193530084105328
1684002382150221700,3.0176220703125,0.36101555827686693,-0.5716037750476246,0.5816240310925017
1684002382160263900,3.027664306640625,0.457968026472203,-0.26077270505072453,0.6881155968007879
1684002382170306000,3.037706298828125,0.5312378406197017,-0.039810180767851366,0.7487690447939144
1684002382180348100,3.04774853515625,0.6006679534225314,0.13688564307064027,0.8115217684023643
1684002382190389900,3.057790283203125,0.6588376164463701,0.2622814178398474,0.8476619720648321
1684002382200432000,3.06783251953125,0.6801443099493528,0.28169918075728995,0.835876703102209
1684002382210474200,3.07787451171875,0.7690240740169991,0.20034980773501876,0.8102209566146222
1684002382220516300,3.087916748046875,0.8331690431312089,0.14995956429317495,0.7930078506547913
1684002382230558400,3.097958740234375,0.8402748704300239,0.2212915420581867,0.7230684758746203
1684002382240600600,3.1080009765625,0.8106189966495537,0.34731197347645626,0.6061630249230678
1684002382250642600,3.11804296875,0.7390559911835635,0.37512683862137797,0.5164017676399835
1684002382260684600,3.128085205078125,0.6631340980304649,0.3193664549964956,0.46783685682224774
1684002382270726800,3.138127197265625,0.6161275506616462,0.22810077664005837,0.379358530080458
1684002382280768900,3.14816943359375,0.5588808657054438,0.13724422453843507,0.3536512852468339
1684002382290811100,3.15821142578125,0.5496179461735797,0.09448528291322195,0.31874489790926336
1684002382300853200,3.168253662109375,0.5645955205339125,0.05432033540954616,0.3462626933184449
1684002382310895300,3.178295654296875,0.591372668701275,-0.0167284012739639,0.3881015777638634
1684002382320937400,3.188337890625,0.6268782615761753,-0.03981208810803966,0.4156386851649915
1684002382330979600,3.1983798828125,0.6440995334805868,-0.12483215343952009,0.4696693421807101
1684002382341021600,3.208422119140625,0.6492410898036398,-0.13555908199625108,0.4976677895828809
1684002382351063700,3.218464111328125,0.6634182334614993,-0.17243289958825098,0.5046083926550661
1684002382361105800,3.22850634765625,0.6432058811372694,-0.14226341260618458,0.46919798867953044
1684002382371148000,3.23854833984375,0.5954861044056324,-0.1001768113394026,0.38906335812809895
1684002382381190100,3.248590576171875,0.5247862338751068,-0.0007896424031704355,0.29393529890498504
1684002382391232200,3.258632568359375,0.4727554917382293,0.059388160565502515,0.2315294741617532
1684002382401274300,3.2686748046875,0.38568782794721945,0.11862373347892026,0.17281913761823336
1684002382411316400,3.278716796875,0.28592580559149794,0.13207530961972094,0.1643092630963141
1684002382421358600,3.288759033203125,0.21702978012592072,0.12397575368520462,0.12719297404474855
1684002382431400600,3.298801025390625,0.1530664117612422,0.1460742951106655,0.14146351815062538
1684002382441442700,3.308843017578125,0.1654938161674203,0.19652748114832747,0.11442518222259848
1684002382451484800,3.31888525390625,0.18991865200085464,0.18686389921104277,0.10323381423060003
1684002382461527000,3.32892724609375,0.20500950519657196,0.14112567896946115,0.08640003202940626
1684002382471569100,3.338969482421875,0.26056629416248805,0.030811309854888856,0.05221915243545138
1684002382481611200,3.349011474609375,0.31751888993042127,0.0017452239941137104,0.003266334653405016
1684002382491653300,3.3590537109375,0.35814064750214125,-0.02029609674182098,-0.05086326589304741
1684002382501695400,3.369095703125,0.3982396125973513,-0.011409759567143244,-0.10283589360930527
1684002382511737600,3.379137939453125,0.4016709030130239,-0.017013549801912633,-0.1741037368869763
1684002382521779600,3.389179931640625,0.4150472581977234,-0.04599189771207875,-0.21169209494043778
1684002382531821700,3.39922216796875,0.4199834465895727,0.0006904601038083936,-0.23985517025304887
1684002382541863900,3.40926416015625,0.397757798454463,0.029973983899450746,-0.28462052349221406
1684002382551906000,3.419306396484375,0.4104279876549582,0.032772064190109716,-0.29135322565143296
1684002382561948100,3.429348388671875,0.37543189532346555,0.054328918516865124,-0.33564543722973017
1684002382571990200,3.439390625,0.3221670388430501,0.06376743307136098,-0.34835886956958323
1684002382582032300,3.4494326171875,0.2749117015795339,-0.00698089589461597,-0.3840525149995989
1684002382592074400,3.459474853515625,0.20792561762036085,-0.027089119038305413,-0.43045520777302987
1684002382602116600,3.469516845703125,0.1806999445111255,-0.0562562941438556,-0.4802292585743445
1684002382612158600,3.47955908203125,0.12214460959557372,-0.05200290685760623,-0.5310842990300031
1684002382622200800,3.48960107421875,0.06120836736600308,-0.01728820799699764,-0.5501496791578184
1684002382632242600,3.49964306640625,0.00942492484688705,-0.01625442511237538,-0.5830127001370361
1684002382642285000,3.509685302734375,-0.0239223838231341,-0.022493362411456077,-0.6413826941957561
1684002382652326800,3.519727294921875,-0.025584757429555738,0.011501312365398756,-0.7367213962886555
1684002382662369200,3.52976953125,-0.017091393527179196,0.009679794414213997,-0.7853533029842827
1684002382672411100,3.5398115234375,-0.02486443522920909,-0.00632667538192427,-0.8254238368368934
1684002382682453200,3.549853515625,-0.0200145841642462,-0.02690505981017772,-0.8376412391743228
1684002382692495300,3.559895751953125,-0.011837780423696735,0.007593155054734138,-0.7290587425369035
1684002382702537400,3.569937744140625,0.06200897684753631,0.02525424952723076,-0.5912004709969891
1684002382712579600,3.57997998046875,0.08948779111017309,0.014038085923390306,-0.49863731869446104
1684002382722621600,3.59002197265625,0.16397231824336114,0.04797267913538435,-0.29858231554334197
1684002382732663600,3.600064208984375,0.23259693384456046,0.04805755609198223,-0.10159456723727638
1684002382742705800,3.610106201171875,0.30202829825270167,0.0669527053442453,0.00405359267464944
1684002382752748000,3.6201484375,0.3717327713150793,0.18104934683223986,0.12845325482214964
1684002382762790100,3.6301904296875,0.4364224671948266,0.20868015285704444,0.20706081389447414
1684002382772832200,3.640232666015625,0.4886812568666176,0.30108261099010114,0.2390089035012805
1684002382782874300,3.650274658203125,0.5274934173538847,0.37295913704693306,0.32409214970036887
1684002382792916400,3.66031689453125,0.5481569765538963,0.4057378768757517,0.37612771983498505
1684002382802958600,3.67035888671875,0.5648281573992868,0.3317041397412337,0.399685859692191
1684002382813000600,3.680401123046875,0.541871905231006,0.2726287843238809,0.44169592861278567
1684002382823042700,3.690443115234375,0.4443832635462628,0.15984344466004372,0.35971403128772883
1684002382833084800,3.7004853515625,0.31837034240094503,0.04361248016601968,0.2543349266242549
1684002382843127000,3.71052734375,0.11258518692940116,-0.08534812930391687,-0.021967649412646985
1684002382853169100,3.720569580078125,-0.13797867297084793,-0.2218647001547628,-0.356442928337969
1684002382863211200,3.730611572265625,-0.41257643700506225,-0.4054584502817036,-0.7739070654588396
1684002382873253300,3.74065380859375,-0.7287559509749942,-0.565273284864229,-1.1285442113205673
1684002382883295400,3.75069580078125,-1.033597111656525,-0.7026214599279417,-1.379006862688117
1684002382893337600,3.760738037109375,-1.301912307720442,-0.8366022109488377,-1.5885832310265102
1684002382903379600,3.770780029296875,-1.4874323605966753,-0.9411735533668067,-1.6330842972218866
1684002382913421700,3.780822265625,-1.6164432765580372,-0.9762659074436901,-1.5763764382763494
1684002382923463900,3.7908642578125,-1.6801261902126992,-0.9807710646513703,-1.4185388089253617
1684002382933506000,3.80090625,-1.7696416378823747,-0.9696788786669819,-1.2936066389612628
1684002382943548100,3.810948486328125,-1.869449973057781,-1.0340337753168383,-1.2415901422875892
1684002382953590200,3.820990478515625,-1.805226206755854,-1.101914405752074,-1.1921153069559598
1684002382963632300,3.83103271484375,-1.6566041707730816,-1.096652030910381,-1.1323304177030635
1684002382973674400,3.84107470703125,-1.4359703064577911,-1.254363059860481,-1.0605071781781366
1684002382983716600,3.851116943359375,-1.228525400181606,-1.5355949402140778,-1.0295357704897081
1684002382993758600,3.861158935546875,-1.0393545628378849,-1.7313032150153789,-1.0352226494707537
1684002383003800800,3.871201171875,-0.9294624329588079,-2.0322246551388163,-1.0239732265568826
1684002383013842900,3.8812431640625,-0.8183052539297606,-2.042024612238835,-0.902761936242389
1684002383023885000,3.891285400390625,-0.801748514172158,-1.896086692816434,-0.7458579539110918
1684002383033926800,3.9013271484375,-0.879524946161419,-1.583761215140185,-0.6481585502244953
1684002383043968900,3.911369384765625,-1.0952305793750583,-1.1138839721279303,-0.4772256612035158
1684002383054011100,3.921411376953125,-1.3915205003326323,-0.6052150726255199,-0.3009623288000974
1684002383064053200,3.93145361328125,-1.6122846603295988,-0.23077297219229473,-0.21497881411536732
1684002383074095300,3.94149560546875,-1.6930215358941128,0.0860004425038987,-0.19906032100648757
1684002383084137400,3.951537841796875,-1.6175119876098143,0.25502967821087213,-0.2590985298253165
1684002383094179600,3.961579833984375,-1.4188940525844778,0.39467906942689995,-0.3535522223909723
1684002383104221600,3.9716220703125,-1.1725020409397855,0.5537261962114038,-0.4193804263514953
1684002383114263700,3.9816640625,-0.944422960277612,0.9213714599240665,-0.48861706247572845
1684002383124305800,3.991706298828125,-0.8026378154900945,1.3160247801885696,-0.4577705860704658
1684002383134348000,4.001748291015625,-0.7243521214010655,1.3865146636335552,-0.2677958011161236
1684002383144390100,4.01179052734375,-0.6579980848944043,1.298061370706116,-0.09362041950042743
1684002383154432200,4.02183251953125,-0.555941820087043,1.1340789794736403,0.110324740437879
1684002383164474300,4.031874755859375,-0.4964652061205869,0.9372787476480015,0.2127703429070876
1684002383174516400,4.041916748046875,-0.3221416473280134,0.5908565521774944,0.29957318318653264
1684002383184558600,4.051958984375,0.0218160153196876,0.33748245241504893,0.3693422079114284
1684002383194600600,4.0620009765625,0.5598149299698045,0.10964775094817847,0.5648832320957903
1684002383204642700,4.072043212890625,1.0869700909294637,-0.10243225093471792,0.9194475411666831
1684002383214684800,4.082085205078125,1.5746619702330726,-0.15386009213968552,1.34634625899258
1684002383224727000,4.09212744140625,1.9651341437753864,-0.05149936674745423,1.715146422372436
1684002383234769100,4.10216943359375,2.2879586219242776,0.10856628419120172,2.042175292959728
1684002383244811200,4.112211669921875,2.5425033569572286,0.3922986983664839,2.3194048404686405
1684002383254853300,4.122253662109375,2.675552844942483,0.6625499725090862,2.398582696844945
1684002383264895400,4.1322958984375,2.659649848907726,0.857059478587109,2.322051525141359
1684002383274937600,4.142337890625,2.5569214821280046,1.0171127320016333,2.0445971487822847
1684002383284979600,4.152380126953125,2.4143781663856188,1.1722817422730658,1.7888541221579308
1684002383295021700,4.162422119140625,2.01507186893121,1.3657341003534145,1.5112822056465742
1684002383305063900,4.17246435546875,1.4809384346645589,1.4870634077595575,1.1830848455344745
1684002383315106000,4.18250634765625,0.936806440250062,1.4903278351566265,0.8305294515082698
1684002383325148100,4.192548583984375,0.4038491249550222,1.372756004351385,0.4810038806799156
1684002383335190200,4.202590576171875,-0.010065793926748312,1.1223502160599128,0.2055798768050989
1684002383345232300,4.2126328125,-0.20308375359895478,0.9325838088839157,0.004535317460458481
1684002383355274400,4.2226748046875,-0.20194315911670951,0.69512844081194,0.013584733104652176
1684002383365316600,4.232717041015625,-0.17225146309587064,0.4086656571661295,0.057640910104719424
1684002383375358600,4.242759033203125,-0.182943105709059,0.19309234619316434,0.04542553435077076
1684002383385400800,4.25280126953125,-0.49114727973669986,0.11730861660253672,0.07794225221313683
1684002383395442600,4.262843017578125,-0.7623276709566434,0.14812278731574702,-0.058658480647970274
1684002383405485000,4.272885498046875,-0.8350961208035728,0.3925313950570629,-0.1154471635655787
1684002383415526800,4.28292724609375,-0.6305587291127217,0.5436391830720266,-0.18519079697651458
1684002383425569200,4.292969482421875,-0.4243915080103402,0.6641826629704469,-0.11156320563231112
1684002383435611100,4.303011474609375,-0.25855541211694294,0.637648582462286,-0.11965012536654672
1684002383445653200,4.313053466796875,-0.18112206473322695,0.6574048996133613,0.1411916018875521
1684002383455695300,4.323095703125,-0.15136504185437402,0.5689010620582083,0.25772869584442865
1684002383465737400,4.3331376953125,-0.25280499469038836,0.3667211531739798,0.32613337033048717
1684002383475779600,4.343179931640625,-0.3741893769345178,0.19048786155487138,0.1944535970836511
1684002383485821600,4.353221923828125,-0.5583374501527408,-0.0015211106063009814,-0.37916445741470006
1684002383495863600,4.36326416015625,-0.6537096499207089,-0.27939796447477777,-0.9032196999850608
1684002383505905800,4.37330615234375,-0.5172793865384846,-0.5857934952012676,-1.1622147558882618
1684002383515948000,4.383348388671875,-0.19394111629660182,-0.8560485839961323,-1.1228342057505798
1684002383525990100,4.393390380859375,0.24300551416182958,-0.7674779891885944,-0.9640429615124905
1684002383536032200,4.4034326171875,0.7011518478200888,-0.5375213623155781,-0.8021273015476699
1684002383546074300,4.413474609375,1.1245354412973088,-0.38581657405725056,-0.532612621734701
1684002383556116400,4.423516845703125,1.4462964534338385,-0.24575996412830914,-0.23733127123944475
1684002383566158600,4.433558837890625,1.4577147961989136,0.06541538245831913,0.2596729994552289
1684002383576200600,4.44360107421875,1.3673939703206235,0.2979860305213251,0.5857932567200752
1684002383586242700,4.45364306640625,0.9807744027941927,0.5997571943735559,0.83773982528668
1684002383596284800,4.463685302734375,0.332723856066901,0.8506336213233658,1.4595835208984729
1684002383606327000,4.473727294921875,-0.18660092347778393,0.7042102814228666,1.7657017706888705
1684002383616369100,4.48376953125,-0.4615542888708345,0.49871921548575543,1.7250442505894492
1684002383626411200,4.4938115234375,-0.4306620358553738,0.36182212834883665,1.601530075215441
1684002383636453300,4.503853759765625,-0.45441770546147986,0.1628971098949919,1.2606761457014994
1684002383646495400,4.513895751953125,-0.4710721969063343,-0.06637859342915467,1.0326844453824897
1684002383656537600,4.52393798828125,-0.6155276298406308,-0.34758186341750535,0.8246991634227901
1684002383666579600,4.53397998046875,-0.832999110234879,-0.6213550568867825,0.5833191871210561
1684002383676621700,4.544022216796875,-0.8668154478566561,-0.749420166146512,0.3534814118120581
1684002383686663900,4.554064208984375,-0.7827396392178037,-0.8587474823790032,0.002644419713573885
1684002383696706000,4.5641064453125,-0.710699915938389,-1.0904073714607203,-0.49408590800923435
1684002383706748100,4.5741484375,-0.6215522289087776,-1.1912631988639917,-0.9728884696720639
1684002383716789900,4.5841904296875,-0.4906618593899758,-1.2645387649064608,-1.4869115352014548
1684002383726832300,4.594232666015625,-0.4836511610239747,-1.298613548443181,-1.7689222096331392
1684002383736874200,4.604274658203125,-0.6016589402455536,-1.0399208068445478,-2.005103588161002
1684002383746916300,4.614316650390625,-0.8206954001924335,-0.47151565551281194,-1.928480029232015
1684002383756958400,4.62435888671875,-0.8564902544192803,-0.20515537265011427,-1.6364448071455455
1684002383767000600,4.63440087890625,-0.7475287913377996,-0.26873683927719944,-1.3782166242477785
1684002383777042600,4.644443115234375,-0.694609284362065,-0.2363824845818946,-1.1255414485311679
1684002383787084600,4.654485107421875,-1.0012619494437736,-0.1418867111519717,-0.6932449340729862
1684002383797126800,4.66452734375,-1.5145325660407538,-0.007028579715145922,-0.1356014014087614
1684002383807168900,4.6745693359375,-1.9090962410674552,-0.023041725228519255,0.2383881807607424
1684002383817211100,4.684611572265625,-2.0337302685721714,0.07535839079974813,0.5192732810063208
1684002383827253200,4.694653564453125,-2.1182589530405616,0.05053710951699473,1.090219735991588
1684002383837295300,4.70469580078125,-2.4493253231878493,0.10478305819941877,1.078571319641313
1684002383847337400,4.71473779296875,-3.5504689216734584,0.06513595580036005,0.987046718609351
1684002383857379600,4.72477978515625,-4.415476322105301,-0.36048316974128924,1.2607297896156076
1684002383867421600,4.734822021484375,-3.4712185859645914,-0.8338575362357631,1.1722458599685228
1684002383877463700,4.744864013671875,-1.8661053181692555,-0.9681940078773644,0.6452703474420448
1684002383887505800,4.75490625,-0.24920636424811615,-0.5974721908557513,0.12732291216680336
1684002383897548000,4.7649482421875,0.754401981880004,-0.2305669784058308,-0.44876456260145975
1684002383907590100,4.774990478515625,1.1079772711005564,0.03487491613340758,-1.0813221931130512
1684002383917632200,4.785032470703125,0.9347447156367066,0.06480312355682244,-1.6155449151049965
1684002383927674300,4.79507470703125,0.40164810411423885,-0.03354263307587817,-1.9317481517435466
1684002383937716400,4.80511669921875,-0.15508472911039986,-0.267556190589511,-2.082204342007338
1684002383947758600,4.815158935546875,-0.5939319133845246,-0.46301841736772315,-1.8457399607539993
1684002383957800600,4.825200927734375,-0.5988961458446115,-0.520144462671828,-1.2993108034670227
1684002383967842700,4.8352431640625,-0.07375574106209279,-0.3264989851383237,-0.8035426139607557
1684002383977884800,4.84528515625,0.6343568562962778,-0.06789875021354572,-0.4429886342868509
1684002383987927000,4.855327392578125,1.0848380328412435,0.08662223815427467,-0.19151413430895742
1684002383997969100,4.865369384765625,1.2636275292167969,0.12522315979413934,0.07558071623420128
1684002384008010900,4.875411376953125,1.357795238417807,0.15534782409772327,0.24859845654143253
1684002384018053300,4.88545361328125,1.3555290698968523,0.27228450778227475,0.42853963380302196
1684002384028095200,4.89549560546875,1.3348225355823977,0.3801307678440812,0.6180164813825592
1684002384038137600,4.905537841796875,1.2628515959873803,0.4571895599028291,0.8831996917816621
1684002384048179400,4.915579833984375,1.1064901351156864,0.45305347445927663,1.1173450947925816
1684002384058221600,4.925621826171875,0.9424226879765848,0.47041416172414496,1.212136506961144
1684002384068263600,4.9356640625,0.8205505013787104,0.5091838837817547,1.1675930022880592
1684002384078305600,4.9457060546875,0.757742464577975,0.5788927079724999,0.8961415290570817
1684002384088347800,4.955748291015625,0.6086560485943308,0.59601879131786,0.5380146504277651
1684002384098389900,4.965790283203125,0.4957154989022542,0.5370988845372747,0.06181490423544278
1684002384108432000,4.97583251953125,0.22130119789321645,0.18483734119575268,-0.37243545055293464
1684002384118474200,4.98587451171875,-0.09202051154442059,-0.2744226455113189,-0.7390655278447099
1684002384128516300,4.995916748046875,-0.28487908853248467,-0.4246349335488737,-1.2715547085665422
1684002384138558400,5.005958740234375,-0.3611476422737376,-0.1506471634957062,-1.880341529767961
1684002384148600600,5.0160009765625,-0.4137241839988365,0.16283130642090157,-2.23111939412619
1684002384158642600,5.02604296875,-0.433147668858446,0.3100986480691892,-2.3071527481533223
1684002384168684600,5.036085205078125,-0.36788332477400937,0.32204627997973534,-2.258806705564206
1684002384178726800,5.046127197265625,-0.37824249264890886,0.2154235839976771,-2.14749073978912
1684002384188768900,5.05616943359375,-0.46780323978726857,0.030965805168749905,-2.03694343561969
1684002384198811100,5.06621142578125,-0.6523855925044688,-0.15486240383786487,-1.8619031907629808
1684002384208853200,5.076253662109375,-0.935767412118321,-0.26820278167906664,-1.6385736465657743
1684002384218895300,5.086295654296875,-1.1110690831622132,-0.3143167496295448,-1.2569628953288579
1684002384228937400,5.096337890625,-1.12755846990989,-0.2745618821394321,-0.8234300613750496
1684002384238979600,5.1063798828125,-1.0034943818706372,-0.31683349619186596,-0.2336212396778145
1684002384249021600,5.116422119140625,-0.7809150219129902,-0.33884620661510867,0.35671770567895783
1684002384259063600,5.126464111328125,-0.5189746617483031,-0.40094947811570447,1.183122754135749
1684002384269105800,5.13650634765625,-0.3945872187577214,-0.4294729232758285,2.0398206710680515
1684002384279148000,5.14654833984375,-0.16568273312228282,-0.16870880135308228,2.709406375940565
1684002384289190100,5.156590576171875,0.32454377406230206,0.2287893294940905,2.9133522510192864
1684002384299231900,5.16663232421875,0.914695799392908,0.5201168061186521,2.818164110179441
1684002384309274300,5.1766748046875,1.3655072449870713,0.5984430313201837,2.335581541002753
1684002384319316100,5.186716552734375,1.4085507393017636,0.6556568146872613,1.7754718063800197
1684002384329358300,5.196758544921875,1.1075705289885385,0.3744544981526794,1.1291415691837836
1684002384339400400,5.20680078125,0.5000121593166036,-0.2540159225310393,0.23487353332071156
1684002384349442600,5.2168427734375,-0.37451100350458855,-0.7197256089027885,-0.9159659147261066
1684002384359484600,5.226885009765625,-1.2045550346678044,-0.9436502455948061,-1.9220204353353247
1684002384369526600,5.236927001953125,-1.5201402903925676,-1.0244321821975402,-2.2793128491375945
1684002384379568800,5.24696923828125,-1.3695878981606964,-0.8224906921940984,-2.182391166712562
1684002384389610900,5.25701123046875,-0.8488938213542346,-0.5999622344186799,-1.6597969532044385
1684002384399653000,5.267053466796875,-0.2350140512451997,-0.4344444273525821,-0.8639537097397904
1684002384409695200,5.277095458984375,0.3117205501022152,-0.1280193327899334,-0.17299497133079414
1684002384419737300,5.2871376953125,0.7437964676939964,0.2478027343826521,0.4236966371289786
1684002384429779400,5.2971796875,1.0692700147527439,0.27533435811840884,1.025359392125991
1684002384439821600,5.307221923828125,1.1533972024749248,0.2660598754939655,1.264131188361643
1684002384449863600,5.317263916015625,1.1620588303393435,0.4403743745498271,1.016782164455161
1684002384459905600,5.32730615234375,1.0455279348794433,0.6005363464210766,0.8430886269954939
1684002384469947800,5.33734814453125,0.7998805045161802,0.6466312407776017,0.8859119415196222
1684002384479989900,5.347390380859375,0.4721439779557462,0.6764221192576308,1.0945711134560456
1684002384490032000,5.357432373046875,0.014395873872855345,0.5790882110156503,1.2402833701058213
1684002384500074200,5.367474609375,-0.5659971832622626,0.4781160353963903,1.0072982311347516
1684002384510116300,5.3775166015625,-1.1743769646330857,0.2681350708112979,0.6444752216048778
1684002384520158400,5.387558837890625,-1.7330933811167284,0.04079914094249525,0.20407986634864525
1684002384530200600,5.397600830078125,-2.0758848189954215,-0.10484123219094485,-0.16200959683262472
1684002384540242600,5.40764306640625,-1.9785065650395288,-0.0965118408252851,-0.3927795886403405
1684002384550284600,5.41768505859375,-1.343213081334641,-0.06363391864682359,-0.3336342574222663
1684002384560326800,5.427727294921875,-0.5025608539949832,-0.061641693189431496,-0.14052402990592475
1684002384570368600,5.43776904296875,0.22055691484889323,-0.09782409672054601,0.025129437565943394
1684002384580410800,5.447811279296875,0.7360355854401354,-0.07661533356207076,0.18371796611935223
1684002384590452900,5.457853271484375,1.0803135634029588,-0.13187026979149138,0.3051031828076193
1684002384600495000,5.4678955078125,1.277046561250982,-0.10335254656260007,0.41139447697062065
1684002384610537100,5.4779375,1.3751376867909317,-0.008083343442207094,0.425676345863427
1684002384620579200,5.487979736328125,1.3506221772265852,-0.08755874640908232,0.3593244551285969
1684002384630621400,5.498021728515625,1.2886413335397893,-0.04517078397168684,0.2605136632386333
1684002384640663600,5.50806396484375,1.1889257430968396,0.03773593891146332,0.1517025232576105
1684002384650705600,5.51810595703125,1.0281186103514357,-0.027451515311729978,0.08611905583215707
1684002384660747600,5.528148193359375,0.8931822182644555,-0.31909084316708225,0.0970164536313539
1684002384670789800,5.538190185546875,0.7267601489804912,-0.7482376099277425,0.16229724899257933
1684002384680831900,5.548232421875,0.5182585716709185,-0.9777212143923619,0.2963544131558743
1684002384690874000,5.5582744140625,0.3886215388346021,-0.8744049072828476,0.46035277842763417
1684002384700916100,5.568316650390625,0.2753232716863951,-0.6994953155848915,0.5160011054046775
1684002384710958300,5.578358642578125,0.15376847984597544,-0.2504291534923395,0.5991529225369941
1684002384721000400,5.58840087890625,0.018997728813285,0.2545557022232065,0.6416265963517416
1684002384731042600,5.59844287109375,-0.027073562122862254,0.6768169403102231,0.6900998353565984
1684002384741084600,5.608485107421875,-0.05845093727407951,0.8828802109810944,0.7285805940986162
1684002384751126600,5.618527099609375,-0.023808002381226184,0.8639364242347275,0.804457902881945
1684002384761168800,5.6285693359375,0.01970791823558002,0.6589088440318275,0.8752120733108691
1684002384771210900,5.638611328125,0.0786845683488432,0.5118312835820598,1.013422369948619
1684002384781253000,5.6486533203125,0.2042307257892153,0.29817008972741244,1.2787879705436886
1684002384791295200,5.658695556640625,0.3224154710151816,0.09904098507682707,1.5126006602564102
1684002384801337300,5.668737548828125,0.35672527554828987,-0.13342666621584567,1.724088311156613
1684002384811379100,5.678779541015625,0.37728428844417794,-0.2677927017874444,1.9107505082793532
1684002384821421600,5.68882177734375,0.36998152732784545,-0.29952049262043834,2.039261579469327
1684002384831463300,5.69886376953125,0.3410331012284836,-0.2623233794942822,2.1268153191171333
1684002384841505500,5.70890576171875,0.25035220390575397,-0.1397256850270444,2.2049155234249156
1684002384851547600,5.718947998046875,0.12239009141084528,0.02501201638355724,2.204774379745069
1684002384861589600,5.728989990234375,-0.050180792842728215,0.1815738678416584,2.01177978498795
1684002384871631800,5.7390322265625,-0.14515817148857543,0.17706775682832424,1.7038991451888683
1684002384881673900,5.74907421875,-0.15728920694589144,0.18895149247406356,1.289579033963346
1684002384891716000,5.759116455078125,-0.09227943419609241,0.20560550694073831,0.9425759316876612
1684002384901758100,5.769158447265625,-0.007764577733147478,0.2771825790895363,0.6341654062048401
1684002384911800200,5.77920068359375,0.042211770985327364,0.33655166609091247,0.3569245338616897
1684002384921842400,5.78924267578125,0.09187543398350283,0.3765764236170942,0.11614823352923007
1684002384931884500,5.799284912109375,0.09210246804778575,0.37116146080952217,-0.1444191932886079
1684002384941926600,5.809326904296875,0.04228866096432068,0.25612449650184893,-0.34473145009683853
1684002384951968600,5.819369140625,0.01859587427430255,0.15361595153237909,-0.46771466741555956
1684002384962010800,5.8294111328125,-0.09122341870680362,-0.02230167382028058,-0.5419511795435751
1684002384972052900,5.839453369140625,-0.1868140400032436,-0.1901426315754373,-0.595655321958847
1684002384982095000,5.849495361328125,-0.2966943085226311,-0.3330230711745612,-0.5802118779178251
1684002384992137100,5.85953759765625,-0.3835891484569035,-0.4627838133580979,-0.466798782399909
1684002385002179200,5.86957958984375,-0.44443899390367037,-0.4408664704438761,-0.15373420717734987
1684002385012221400,5.879621826171875,-0.44033095245063575,-0.14359188084681462,0.22762143615102232
1684002385022263200,5.88966357421875,-0.3861354291056041,0.16537952417624446,0.5792895555815669
1684002385032305600,5.8997060546875,-0.3293079138103516,0.35423374164314947,0.870189547636421
1684002385042347400,5.909747802734375,-0.23321533195264388,0.45647525770396435,1.0306835172985933
1684002385052389600,5.9197900390625,-0.13311749680634638,0.3553905487462758,1.0981370211107557
1684002385062431600,5.92983203125,-0.01816177355312152,0.19486331944637322,1.138226032369484
1684002385072473800,5.939874267578125,0.0962980389933099,0.1564893722759754,1.0700205565010332
1684002385082515900,5.949916259765625,0.2093762756631486,0.008212089433107332,1.01301431645702
1684002385092558000,5.95995849609375,0.28931146850472916,0.010685920589335797,0.7887414693384167
1684002385102600100,5.97000048828125,0.4033685326454539,-0.29256725309316717,0.6651616096439443
1684002385112642200,5.980042724609375,0.48450440157679925,-0.2605390548727062,0.43068277835293184
1684002385122684300,5.990084716796875,0.5675925612386999,-0.1518516539727674,0.2035868167225788
1684002385132726400,6.000126953125,0.6577004193031083,0.054767608703912715,0.03914725787597186
1684002385142768600,6.0101689453125,0.6836653948090694,0.22048568725864107,-0.08191966995905058
1684002385152810600,6.020211181640625,0.706858098626544,0.18753528589625887,-0.10595154767591346
1684002385162852800,6.030253173828125,0.6944348812103889,0.1163415908138166,-0.11025023450344695
1684002385172894900,6.04029541015625,0.6452804803615443,0.03813552854821513,-0.15205466745772794
1684002385182937000,6.05033740234375,0.5530272126131203,-0.07569599151080869,-0.15250313282429684
1684002385192979100,6.060379638671875,0.43900912984908996,-0.1510963439151517,-0.1597268582043336
1684002385203021200,6.070421630859375,0.3233867587129012,-0.21450042721327314,-0.1331251859870981
1684002385213063300,6.080463623046875,0.11144983772615948,-0.20624446852687703,-0.06999814510039151
1684002385223105500,6.090505859375,-0.11996012916312265,-0.12892723087252747,0.036617159871109424
1684002385233147600,6.1005478515625,-0.346442401480254,-0.032756805402525555,0.193740844613959
1684002385243189600,6.110590087890625,-0.5016584993543672,0.015509605493096839,0.3292945623744995
1684002385253231800,6.120632080078125,-0.5976710318520265,-0.10110568992801224,0.5632514954104998
1684002385263273600,6.130674072265625,-0.6335899829640915,-0.11474132523890325,0.7246047258691244
1684002385273316000,6.14071630859375,-0.6273514032138444,-0.05663108828122927,0.7800514697898645
1684002385283357900,6.15075830078125,-0.5436928866962416,-0.060699462970849376,0.7731270789361454
1684002385293400000,6.16080029296875,-0.37966811645098475,-0.0862760545068876,0.6613446475324594
1684002385303442100,6.170842529296875,-0.14515143637229486,-0.061744689976295244,0.5506519079255263
1684002385313484200,6.180884521484375,0.08323821431853902,0.0008335113202227985,0.38701927646407963
1684002385323526300,6.1909267578125,0.2725081145478966,0.039288520696289575,0.2620370387261719
1684002385333568400,6.20096875,0.4044502080445945,-0.003582000656898829,0.11894500257603166
1684002385343610600,6.211010986328125,0.547231972207711,-0.05828189850670361,0.02741873274124357
1684002385353652600,6.221052978515625,0.65202105041057,-0.06973075876317049,-0.03347694871416663
1684002385363694800,6.23109521484375,0.7341876625487569,-0.08449649803762069,-0.07197535024059042
1684002385373735100,6.241135498046875,0.7961382865599121,-0.10582256316657515,-0.05133819564080519
1684002385383777200,6.251177490234375,0.8496719599467201,-0.058297157467098876,0.02013695240372555
1684002385393819300,6.2612197265625,0.8782354593525069,0.016845703051982998,0.06114280236082438
1684002385403861400,6.27126171875,0.8637273311403091,0.034359931875481454,0.10014247893934453
1684002385413903600,6.281303955078125,0.8170391319778991,0.02817440045482397,0.1394715309718491
1684002385423945400,6.291345703125,0.7392558455412022,0.0244836806109183,0.2185893057842323
1684002385433987800,6.30138818359375,0.6570798755966453,0.037265777492810244,0.3268228767949335
1684002385444029600,6.311429931640625,0.5825220347742404,0.05438518527255105,0.42084956162682224
1684002385454071600,6.32147216796875,0.48024392137550803,0.03568553917374826,0.4723149539662509
1684002385464113800,6.33151416015625,0.40503916155160585,-0.044105529761958424,0.4938298464324986
1684002385474156000,6.341556396484375,0.32194501143899923,-0.047474861045331586,0.49974107755248437
1684002385484198100,6.351598388671875,0.22501623630698783,-0.05347633371263628,0.4757324456484588
1684002385494240200,6.361640625,0.17185235026412043,-0.08793735507829477,0.37305581566998003
1684002385504282300,6.3716826171875,0.10309031615892413,-0.09144878401395728,0.20291519159782864
1684002385514324400,6.381724853515625,0.09386210140607638,-0.06214046479349836,0.05383026596073532
1684002385524366600,6.391766845703125,0.07414814819432092,0.053705215456469974,-0.10452866551615429
1684002385534408600,6.40180908203125,0.07433967294951091,0.1299772262550542,-0.23141324533875135
1684002385544450700,6.41185107421875,0.09223807613479486,0.14861869812097744,-0.30079865460328065
1684002385554492800,6.421893310546875,0.12894368175711288,0.11063766486072017,-0.2991259098996554
1684002385564535000,6.431935302734375,0.2255813181870572,0.09221172333866598,-0.2254416942322776
1684002385574577100,6.4419775390625,0.37277743223053383,0.10227489475448537,-0.12144100673649988
1684002385584619200,6.45201953125,0.5912649630425797,0.06962394714238647,0.012166619310902689
1684002385594661300,6.462061767578125,0.8651954532644628,0.08911418918290444,0.11848914610821575
1684002385604703400,6.472103759765625,1.1120613815023233,0.09861564632167207,0.19055759901526664
1684002385614745600,6.48214599609375,1.2925014494707434,0.16660881035025474,0.20530998700259917
1684002385624787600,6.49218798828125,1.4030425547238259,0.2074642182009877,0.22724401948468181
1684002385634829700,6.502230224609375,1.4855268001325168,0.2639656067461951,0.26017272458728974
1684002385644871600,6.51227197265625,1.4992135762035699,0.31232452403462896,0.2516782283838163
1684002385654914000,6.522314453125,1.4936097860913389,0.3549690248478673,0.2628470659932034
1684002385664955800,6.532356201171875,1.4233975410974713,0.3754787444385522,0.22439801694826794
1684002385674997900,6.5423984375,1.2914330958930849,0.4096145629830262,0.18193340304234623
1684002385685040000,6.5524404296875,1.1294401885269736,0.3865318297112992,0.0860390663880754
1684002385695082200,6.562482666015625,0.8985855577719722,0.3048019408463565,-0.036539316165562434
1684002385705124300,6.572524658203125,0.5896216631873386,0.16784572606668371,-0.19867384444872288
1684002385715166400,6.58256689453125,0.2555524408827099,0.0849494933952928,-0.36101520069203585
1684002385725208600,6.59260888671875,-0.05344951155887397,0.027041435254285994,-0.5106246471663526
1684002385735250600,6.602651123046875,-0.29762643578936615,-0.011112213168359072,-0.6262658833911747
1684002385745292600,6.612693115234375,-0.4571011661771509,-0.023056983944584577,-0.6620002984006375
1684002385755334800,6.6227353515625,-0.49680840963125783,0.08003902417494452,-0.6759636402276623
1684002385765376900,6.63277734375,-0.46550011639360145,0.16186332701117986,-0.6881127356028488
1684002385775419100,6.6428193359375,-0.36437404172869625,0.22849845877889116,-0.664834976197752
1684002385785461200,6.652861572265625,-0.2932875155493673,0.24200630187681157,-0.6889895202393312
1684002385795503300,6.662903564453125,-0.21323847778815624,0.2434673309128173,-0.6994566917071885
1684002385805545400,6.67294580078125,-0.2491340636152392,0.21400451658244904,-0.6763753891052976
1684002385815587600,6.68298779296875,-0.27962273354343165,0.18468856810068013,-0.551097750721585
1684002385825629600,6.693030029296875,-0.32241612672001135,0.11492347716102742,-0.5321048497580766
1684002385835671700,6.703072021484375,-0.39294409763643123,0.0073022841205297485,-0.48550021651602215
1684002385845713600,6.713114013671875,-0.4444148540893306,-0.04971313484303854,-0.2902503013950307
1684002385855755600,6.723156005859375,-0.5991358756409362,-0.1088247299243696,-0.2649841308839525
1684002385865797800,6.7331982421875,-0.8566620349681415,-0.14378356929685873,-0.3402487040739354
1684002385875839900,6.743240234375,-1.094336271307156,-0.18580245974734813,-0.37042760854352996
1684002385885882000,6.753282470703125,-1.270187020309303,-0.24211025244541612,-0.42450690274152164
1684002385895924100,6.763324462890625,-1.4464418888925445,-0.3104400634329027,-0.3750507830480161
1684002385905966300,6.77336669921875,-1.6561924218879682,-0.4746217726996684,-0.27660000339299695
1684002385916008400,6.78340869140625,-1.9336141347514368,-0.6654615401486937,-0.1006360054250844
1684002385926050600,6.793450927734375,-2.210524082219363,-0.8305149079170733,0.11793363086838707
1684002385936092600,6.803492919921875,-2.3013460635945227,-0.9100799560633277,0.42742276190112954
1684002385946134600,6.81353515625,-2.071705818111584,-0.9469766618210423,0.8098889589487072
1684002385956176800,6.8235771484375,-1.7319551706657166,-0.7516460418112656,1.0013555287951368
1684002385966218900,6.833619384765625,-1.3883026839145594,-0.4716997147275647,1.1951845884475445
1684002385976261000,6.843661376953125,-1.0536115169715228,-0.32906150815820684,1.4109710455074604
1684002385986303200,6.85370361328125,-0.8657246828289072,-0.5053834916043307,1.6868276594944305
1684002385996345300,6.86374560546875,-0.8413947820960163,-0.9936504363590383,1.7303926944213128
1684002386006387400,6.873787841796875,-0.904261469873414,-1.4422826765228065,1.3778945206628126
1684002386016429600,6.883829833984375,-0.9820908308915725,-1.5932693482154279,0.7866324186363215
1684002386026471600,6.8938720703125,-1.1096481084981291,-1.335205078112688,0.222506761500837
1684002386036513500,6.903913818359375,-1.141287088436331,-0.8320884704038038,-0.1506894826339047
1684002386046555600,6.9139560546875,-1.16565251343107,-0.38588714602774193,-0.2855218649065272
1684002386056597600,6.923998046875,-1.1342281104708472,-0.09437656398582761,-0.37508904926801917
1684002386066639800,6.934040283203125,-1.080168604730436,0.11481189727138462,-0.44581127152273725
1684002386076681900,6.944082275390625,-1.021726727443753,0.28029155737699374,-0.4837280511022765
1684002386086724000,6.95412451171875,-0.9527080058964811,0.4571056365580739,-0.5111566781347937
1684002386096766100,6.96416650390625,-0.8900889158769767,0.5949096679626201,-0.5217872858944127
1684002386106808200,6.974208740234375,-0.8139864204995627,0.7247076035171974,-0.5775467156578055
1684002386116850400,6.984250732421875,-0.7354418040252713,0.8442296981169544,-0.6840360163642357
1684002386126892500,6.99429296875,-0.6295307875824361,0.8822460174003828,-0.8335810901386848
1684002386136934600,7.0043349609375,-0.41650414465283414,0.9279327390999688,-1.0440567731889299
1684002386146976600,7.014377197265625,-0.18437087530897311,0.9674015046771319,-1.2461005450173008
1684002386157018800,7.024419189453125,0.11901128305384837,0.9699516296432009,-1.4101114273747455
1684002386167060900,7.03446142578125,0.34924745577867494,0.9356126783986677,-1.4633039235708427
1684002386177103000,7.04450341796875,0.4038680791724097,0.8545589446962031,-1.4791927338490611
1684002386187145100,7.054545654296875,0.30327522743383717,0.6549415586907165,-1.4992442131531243
1684002386197187200,7.064587646484375,0.08910655965938191,0.37238597879556784,-1.3340460062527264
1684002386207229400,7.074629638671875,-0.18541920192052913,0.09261417394325516,-1.1481394768804376
1684002386217271200,7.084671630859375,-0.5027159453390742,-0.21602630623987615,-0.9603433609144488
1684002386227313300,7.094713623046875,-0.7350958585861863,-0.4867172241047329,-0.799100399007986
1684002386237355400,7.104755859375,-0.8632726669952872,-0.7431354522900971,-0.6866916417575981
1684002386247397600,7.1147978515625,-0.9881883859668107,-0.9802846908733337,-0.5409877300731083
1684002386257439600,7.124840087890625,-1.110953569464605,-1.0283775330492495,-0.45720648759838506
1684002386267481800,7.134882080078125,-1.2012493610443729,-0.9307394027309875,-0.37306928626444685
1684002386277523900,7.14492431640625,-1.251982688923785,-0.5994081496938004,-0.2958612442291421
1684002386287566000,7.15496630859375,-1.21002364152419,-0.2955274580628812,-0.22611951830934776
1684002386297608100,7.165008544921875,-1.0436817408206103,-0.01680564888053835,-0.23789858820791188
1684002386307650200,7.175050537109375,-0.834360122608685,0.057823181055597486,-0.3638553620378493
1684002386317692300,7.1850927734375,-0.6190550326730273,0.0916318893524762,-0.5241138934257246
1684002386327734400,7.195134765625,-0.474005818318326,0.1592102051444239,-0.6514399051684534
1684002386337776600,7.205177001953125,-0.4056465624924284,0.013941764753851015,-0.6444478033664456
1684002386347818600,7.215218994140625,-0.33824622647498803,0.016336441064386035,-0.723980188192787
1684002386357860800,7.22526123046875,-0.3268929719956998,0.04449939734738979,-0.8673074245287127
1684002386367902900,7.23530322265625,-0.2615844010235706,-0.08510494232638194,-0.9841979741965828
1684002386377945000,7.245345458984375,-0.1277711391736537,-0.144773483299715,-1.0559538601411398
1684002386387987100,7.255387451171875,0.003234147963915181,-0.2133951187027037,-1.1679331064738625
1684002386398029000,7.265429443359375,0.21108782291179248,-0.1909303664400106,-1.2751587630068608
1684002386408071100,7.275471435546875,0.4025846718477311,-0.12037563335617742,-1.4674654006242245
1684002386418113200,7.285513671875,0.5907198189264246,-0.008525848381160002,-1.5860705374551345
1684002386428155300,7.2955556640625,0.7381751537580337,0.11406326289736866,-1.668131828365188
1684002386438197400,7.305597900390625,0.7411448358725521,0.19061946865722873,-1.6741446256186425
1684002386448239600,7.315639892578125,0.5802720785895844,0.2431249617353751,-1.5267422200345024
1684002386458281600,7.32568212890625,0.3663860559765871,0.2662658690823787,-1.1802601814952172
1684002386468323800,7.33572412109375,-0.0848897695145637,0.2353191376683831,-0.7233246564958534
1684002386478365900,7.345766357421875,-0.5934777258654926,0.24026489256090236,-0.22944116592503486
1684002386488408000,7.355808349609375,-1.112308382869635,0.1894102096481074,0.14993262296007734
1684002386498450100,7.3658505859375,-1.5187249182748928,0.10130977621244883,0.433293580982632
1684002386508492200,7.375892578125,-1.6799869537976393,0.021113395587939073,0.6132581233391078
1684002386518534300,7.385934814453125,-1.6645160911942025,-0.017867088320950547,0.6102287770175807
1684002386528576400,7.395976806640625,-1.4723066090706232,-0.04408645626938138,0.4652740955634142
1684002386538618600,7.40601904296875,-1.2467610836168135,-0.07637119284436025,0.28865051264638
1684002386548660600,7.41606103515625,-0.9611669778980142,-0.0999317169942304,0.12172436714830885
1684002386558702800,7.426103271484375,-0.8004149198859412,-0.097690582322341,-0.07035398486951698
1684002386568744900,7.436145263671875,-0.6973971127968263,-0.12930297854211203,-0.20114731797121635
1684002386578786700,7.446187255859375,-0.6465271710465943,-0.1851501463726397,-0.2681014538391015
1684002386588828800,7.456229248046875,-0.560402631830841,-0.26510715479160124,-0.4161400795188947
1684002386598871000,7.466271240234375,-0.46184825890127096,-0.34042263038952597,-0.45810055727591786
1684002386608913100,7.4763134765625,-0.28913724433443244,-0.33685302745981,-0.5488772392364113
1684002386618955200,7.48635546875,-0.11058616647878379,-0.31861972809602024,-0.7328274249632915
1684002386628997300,7.496397705078125,-0.0013808011248912218,-0.2449254989221236,-0.8375886678442409
1684002386639039400,7.506439697265625,0.023630142104246073,-0.1921663285687355,-0.9252943992535043
1684002386649081600,7.51648193359375,-0.09312260152346394,-0.138894081210208,-0.95599675184268
1684002386659123600,7.52652392578125,-0.13607823857005946,-0.12828350064554464,-0.9996101856676878
1684002386669165700,7.536566162109375,-0.2244017125113839,-0.05998897541123672,-0.9701474904347002
1684002386679207900,7.546608154296875,-0.36513841143325415,0.020433425927159417,-0.9109188318491455
1684002386689250000,7.556650390625,-0.4939007757341576,0.03875064843059876,-0.796409249164711
1684002386699292100,7.5666923828125,-0.6104853153937569,0.04990196228180953,-0.6963775159093039
1684002386709334200,7.576734619140625,-0.6945189237781264,0.07298564908958831,-0.6723186969967737
1684002386719376300,7.586776611328125,-0.6795260906143974,0.10772800448667458,-0.5805239676440496
1684002386729418400,7.59681884765625,-0.6305989027975,0.0892925262239899,-0.5310628413397188
1684002386739460600,7.60686083984375,-0.6046022176442386,0.06550025934423999,-0.5213437079999808
1684002386749502400,7.61690283203125,-0.6403118371938857,0.02715682992728516,-0.6578171252705134
1684002386759544600,7.62694482421875,-0.5859798193948863,-0.0015888214525333275,-0.8419704436943085
1684002386769586600,7.636987060546875,-0.5604858397661118,-0.08980751040941132,-0.9949685335078888
1684002386779628600,7.647029052734375,-0.5365952252879304,-0.2012853621892313,-1.0356293916774368
1684002386789670800,7.6570712890625,-0.4652800560383209,-0.30955886833433327,-1.1029037237280501
1684002386799712900,7.66711328125,-0.38096249121086606,-0.4049463272697829,-1.094079375277036
1684002386809755100,7.677155517578125,-0.3534396887262193,-0.4253730773949378,-1.0955891609074846
1684002386819797200,7.687197509765625,-0.3205298186614467,-0.4402713776596729,-1.033411383791745
1684002386829839300,7.69723974609375,-0.2674037218899093,-0.41624259943515063,-0.983904719362474
1684002386839881400,7.70728173828125,-0.24333870402625665,-0.39886569976476327,-0.9014519453052845
1684002386849923600,7.717323974609375,-0.23273551479786206,-0.4097595213530258,-0.8527152538540845
1684002386859965600,7.727365966796875,-0.2511409520492183,-0.36069297788032206,-0.7921040058413192
1684002386870007600,7.737408203125,-0.2102756500638193,-0.247126579262121,-0.674554824804095
1684002386880049800,7.7474501953125,-0.19297969342179627,-0.22195816038843424,-0.5342056753165572
1684002386890092000,7.757492431640625,-0.23380351075630815,-0.17986583701765904,-0.4553873537583568
1684002386900134100,7.767534423828125,-0.24948287017620183,-0.1638450622086863,-0.31874418246842023
1684002386910176200,7.77757666015625,-0.24925625323716527,-0.0880575180711087,-0.22040200234715643
1684002386920218300,7.78761865234375,-0.25873398794480207,0.032836913984264235,-0.1413228511283919
1684002386930260100,7.79766064453125,-0.26983034620464236,0.05759239199105306,-0.04101610191505568
1684002386940302300,7.80770263671875,-0.22011089331780023,0.06198406209150606,0.04371428508220633
1684002386950344400,7.817744873046875,-0.17967224131715537,0.012332916273808876,0.06353044518577294
1684002386960386600,7.827786865234375,-0.12290048596419222,-0.0029964447097352155,0.011024951922097743
1684002386970428600,7.8378291015625,-0.09407591819542743,0.029603957987301744,0.017671346667527222
1684002386980470600,7.84787109375,-0.08457088470624748,0.09750652309473902,-0.020360946620157225
1684002386990512800,7.857913330078125,-0.11423707009988673,0.209259986743514,-0.06945562359675145
1684002387000554900,7.867955322265625,-0.1800322533977574,0.1849040986545846,0.0013647078781563139
1684002387010597000,7.87799755859375,-0.21925616272786394,0.15378570556059823,-0.004407405815607699
1684002387020639200,7.88803955078125,-0.3026211261738531,0.1564178467541981,-0.05058336260323474
1684002387030681300,7.89808154296875,-0.31038403525868735,0.11008453370599158,-0.09186387066343348
1684002387040723400,7.908123779296875,-0.25718784323653593,0.08862400045848025,-0.13222908967167518
1684002387050765600,7.918165771484375,-0.13081574438315283,0.12924957264899162,-0.16806483264308592
1684002387060807600,7.9282080078125,-0.007053852062595574,0.15074539187506986,-0.1968486310735303
1684002387070849600,7.93825,0.03407144545395509,0.19809627546204428,-0.30365467057354756
1684002387080891800,7.948292236328125,0.07617115972284078,0.21658039078779276,-0.3396139146628779
1684002387090933600,7.958333984375,0.15677928935911958,0.30545616134759956,-0.3393905163052646
1684002387100975800,7.968376220703125,0.13375616065957346,0.3128223418817883,-0.39127016058801584
1684002387111017900,7.978418212890625,0.17238497738906797,0.24010181439465023,-0.45555663108275224
1684002387121060000,7.98846044921875,0.22755670558989394,0.2938261032706505,-0.5182335377338566
1684002387131102100,7.99850244140625,0.29504013048369865,0.2981815338464355,-0.5059250592848951
1684002387141144200,8.008544677734376,0.3223053218294186,0.23780059816794158,-0.4497363566146055
1684002387151186400,8.018586669921875,0.29610598095082796,0.12788581844691313,-0.43716287617213834
1684002387161228500,8.02862890625,0.28111577028403045,0.04671192167030167,-0.32939827442612946
1684002387171270600,8.0386708984375,0.2659468649431907,0.050042152369454654,-0.20858407022461908
1684002387181312600,8.048713134765626,0.14152121545152885,0.10570430754891195,-0.17014670380114671
1684002387191354800,8.058755126953125,-0.02308940882442117,0.15835380548518602,-0.16794145104040809
1684002387201396900,8.06879736328125,-0.146493434923118,0.18175792697848236,-0.07551491245435858
1684002387211439000,8.07883935546875,-0.3085086346282928,0.1573562622150073,-0.005131840724196082
1684002387221481100,8.088881591796875,-0.35786151890563733,0.05763721467371097,0.17960417271104337
1684002387231523000,8.09892333984375,-0.3624947070243179,-0.012466430624764881,0.321652650771992
1684002387241565400,8.1089658203125,-0.33236169827101797,-0.06984806047549881,0.4059635400794411
1684002387251607200,8.119007568359375,-0.36457908144909734,-0.14774513238057976,0.5649094582396406
1684002387261649300,8.1290498046875,-0.27241957191296307,-0.1751861573226658,0.6320456266787866
1684002387271691400,8.139091796875,-0.3136285542626093,-0.4236011504953352,0.6198220253561724
1684002387281733600,8.149134033203126,-0.4145895243158121,-0.5757102967252274,0.5496157409049157
1684002387291775600,8.159176025390625,-0.6022312641001382,-0.7365179060403505,0.5842971802317659
1684002387301817800,8.16921826171875,-0.9007506370706022,-0.6542911530750745,0.6081566810478136
1684002387311859900,8.17926025390625,-1.2474608422036704,-0.38576221473645744,0.7149657010233759
1684002387321902000,8.189302490234375,-1.6943078041541069,-0.135256767151471,0.8507913352391626
1684002387331944100,8.199344482421875,-2.0428056717637264,0.06404304516672753,0.9964619875252243
1684002387341986200,8.20938671875,-2.2433204651572387,0.19193267825910393,1.125860214203223
1684002387352028300,8.2194287109375,-2.2138514519594157,0.0794239044237508,1.2369941472841224
1684002387362070400,8.229470947265625,-1.926369070916934,0.059246063312064196,1.2801061868788013
1684002387372112600,8.239512939453125,-1.501588106232517,0.2317371368772115,1.2609379289638147
1684002387382154600,8.24955517578125,-1.093322872980379,0.36954307546997106,1.2075958252178978
1684002387392196600,8.259596923828125,-0.745915651473336,0.47302818300329597,1.1632183791014743
1684002387402238600,8.26963916015625,-0.45160663123951933,0.5283403397998685,1.051537752236999
1684002387412280800,8.27968115234375,-0.222163438747238,0.5145149231300848,0.8987793921440606
1684002387422322900,8.28972314453125,-0.057406663932529425,0.3700733184794622,0.7026298047898898
1684002387432365000,8.299765380859375,-0.051863431980323366,0.0884876251595786,0.48008346574234717
1684002387442407100,8.309807373046874,-0.15806722645879312,-0.18414211274047781,0.2573134899899907
1684002387452449200,8.319849609375,-0.3373545407915934,-0.302251815845489,0.1273727416972452
1684002387462491300,8.3298916015625,-0.5381258725814164,-0.31903362266963453,0.10204517845599569
1684002387472533400,8.339933837890625,-0.6484069825358555,-0.3616895676216616,0.16452932360720235
1684002387482575600,8.349975830078124,-0.5954028369679291,-0.4733285902847175,0.22434175005003235
1684002387492617600,8.36001806640625,-0.44816613191105786,-0.7230739593636281,0.34884870062261303
1684002387502659800,8.37006005859375,-0.1954274178627468,-0.998200416584867,0.43565011030905304
1684002387512701900,8.380102294921874,-0.05574095258589145,-1.1599617004886729,0.44206678871867294
1684002387522744000,8.390144287109376,-0.11996221535647969,-0.9698295592355369,0.32753098005338127
1684002387532786100,8.4001865234375,-0.36964857591018213,-0.512452125589344,0.025695323955931163
1684002387542828200,8.410228515625,-0.716128349270734,-0.1445274353693386,-0.33558189859363746
1684002387552870300,8.420270751953124,-0.9827083349839498,0.016906738288523574,-0.6364880799810895
1684002387562912200,8.4303125,-1.0373475551405396,0.07015323635079942,-0.8487474322266021
1684002387572954300,8.440354736328125,-0.9048181772010538,0.11354064936222333,-0.9459810852177256
1684002387582996400,8.450396728515624,-0.6368303299632325,0.19740962969650877,-0.9714987873907928
1684002387593038600,8.46043896484375,-0.40177333352074635,0.3695030211551972,-0.9567928909402645
1684002387603080600,8.47048095703125,-0.19063818469210375,0.517242431714038,-0.8434143661372452
1684002387613122700,8.480523193359375,0.006012082002954537,0.6119174957473054,-0.651499331142048
1684002387623164800,8.490565185546876,0.145051181355518,0.5891513824859964,-0.4986077546841221
1684002387633207000,8.500607421875,0.3380206226692532,0.4112424851281169,-0.3696128129239077
1684002387643249100,8.5106494140625,0.4759341477039868,0.13840103166674408,-0.29567182063934294
1684002387653291200,8.520691650390624,0.5408927202450153,-0.12878036507073806,-0.2483767270758321
1684002387663333300,8.530733642578125,0.5009489061065844,-0.26373004913202397,-0.3091875314978965
1684002387673375400,8.54077587890625,0.3745489120574777,-0.25488281247227074,-0.4401109219582327
1684002387683417600,8.55081787109375,0.20821845525725863,-0.21978473648642471,-0.5550501345516335
1684002387693459600,8.560860107421876,0.04793477058431286,-0.16103839876995935,-0.6649056672850825
1684002387703501600,8.57090185546875,-0.03584802155970552,-0.14815616612487909,-0.7570362687135476
1684002387713543900,8.5809443359375,-0.045656979104847395,-0.20735263813294202,-0.7974502444877594
1684002387723585600,8.590986083984374,-0.015207171453277423,-0.19032382965245734,-0.807821929382713
1684002387733627800,8.6010283203125,0.04851424696776241,-0.05184459689154521,-0.8154674172257367
1684002387743669900,8.6110703125,0.13945698734775475,-0.10983180980885184,-0.8759683967712057
1684002387753712000,8.621112548828124,0.25192004432949777,0.0040464401924143875,-0.9318264126645129
1684002387763754200,8.631154541015626,0.3405934869920667,0.24409484858927588,-0.9847316742878306
1684002387773796300,8.64119677734375,0.4047811031952162,0.20658016186149356,-0.932696581049116
1684002387783838400,8.65123876953125,0.5173524021674106,0.388934135422604,-0.7971298098343486
1684002387793880600,8.661281005859376,0.6737483739499263,0.24590015420177266,-0.5701413751495721
1684002387803922600,8.671322998046875,0.8280109166641537,0.15062904357119375,-0.31818974000040817
1684002387813964600,8.681365234375,0.9735692738950387,0.22939109805897331,-0.13401377203126696
1684002387824006800,8.6914072265625,1.0340900421149402,0.2715835571912288,-0.02067124854936542
1684002387834048900,8.701449462890626,1.0384873151364191,0.3873624801265046,-0.02962303154068269
1684002387844090800,8.7114912109375,0.9932003020099996,0.1491374970993617,-0.014444470438869692
1684002387854133200,8.721533447265625,0.8779209852631196,0.037817955009502975,0.06121325492771542
1684002387864175000,8.731575439453126,0.7639248371752505,-0.03784465802438817,0.10815036296801375
1684002387874217100,8.741617431640625,0.662383020032995,-0.0828504562088989,0.09954679009899378
1684002387884259200,8.75165966796875,0.49971178180975107,-0.18566417685674005,-0.06729972357122005
1684002387894301400,8.76170166015625,0.3844794629446203,-0.28641128528338866,-0.3081517219876937
1684002387904343600,8.771743896484375,0.3633843660632483,-0.2536058427062669,-0.5812812448806383
1684002387914385600,8.781785888671875,0.41791307937079664,-0.2378320694572435,-0.8328493835050644
1684002387924427600,8.791828125,0.5137037039088651,-0.1672773361112549,-0.9858893154758472
1684002387934469800,8.8018701171875,0.6396071911963284,-0.10406303411348207,-1.078324317920841
1684002387944511900,8.811912353515625,0.7586445210941027,-0.10534858700612768,-1.0903778075385346
1684002387954554000,8.821954345703125,0.8414939641109495,-0.10643005361791867,-0.9716918467985256
1684002387964596100,8.83199658203125,0.8924455046722598,-0.08112049105035694,-0.8043135403286592
1684002387974638300,8.84203857421875,0.8417944907842511,-0.07024097452718575,-0.5869451761379216
1684002387984680400,8.852080810546875,0.7447159291177513,-0.06421375271209791,-0.42956864826883984
1684002387994722600,8.862122802734374,0.6593212485821613,-0.1346702577397058,-0.33682322517679697
1684002388004764600,8.8721650390625,0.6121783852732843,-0.17150211338659405,-0.2771267889658285
1684002388014806400,8.882206787109375,0.5913296342254553,-0.05299282073893348,-0.22884821895332585
1684002388024848600,8.8922490234375,0.5591157675121259,-0.05893898015275518,-0.15384650242026707
1684002388034890600,8.902291015625,0.5784971714987585,-0.0672340392460324,-0.08820235724330047
1684002388044932800,8.912333251953125,0.5593168734636644,-0.056365966900052744,-0.041560888375027784
1684002388054974900,8.922375244140625,0.5660247801906162,-0.07893466933638575,-0.025962472057999425
1684002388065017000,8.93241748046875,0.5336095093517967,-0.09662151341976062,0.0495827196739661
1684002388075059100,8.94245947265625,0.542750716122461,-0.16195392611848217,0.08486020562536646
1684002388085101200,8.952501708984375,0.533455729495252,-0.1410856247996272,0.17067873486127697
1684002388095143300,8.962543701171874,0.5274377464488468,-0.15600395195842945,0.17563223842840525
1684002388105185500,8.9725859375,0.5272211433796267,-0.15166378031882677,0.2170597316096137
1684002388115227600,8.9826279296875,0.5087060928360977,-0.09707450874743802,0.25903284546406563
1684002388125269600,8.992670166015625,0.4861330986206949,0.01714420324641316,0.3275216817657726
1684002388135311800,9.002712158203124,0.485940724490038,0.011650085342895126,0.41948568807060793
1684002388145353900,9.01275439453125,0.5298217535259695,0.013275146593750101,0.4294455049904566
1684002388155395800,9.022796142578123,0.5698577166375458,0.08879947670430047,0.48850274092665125
1684002388165437900,9.03283837890625,0.6029996275973983,0.13054180144537764,0.5153484343878357
1684002388175480000,9.04288037109375,0.6111771463698242,0.10992240900444426,0.5606185198004757
1684002388185522100,9.052922607421875,0.5859565137844882,0.031822204638228845,0.564728259965773
1684002388195564200,9.062964599609376,0.49503648289247093,-0.000992775012238964,0.5804373024755083
1684002388205606300,9.0730068359375,0.33536756041659394,-0.01259994502986626,0.5646424293586615
1684002388215648400,9.083048828125,0.0939653514341406,0.001726150453929003,0.4097406863440205
1684002388225690600,9.093091064453125,-0.13709083208873066,-0.0582799912008143,0.16563069822503765
1684002388235732600,9.103133056640624,-0.2769687771755892,-0.19187164296731218,-0.115703463380764
1684002388245774800,9.113175048828126,-0.38734185697169493,-0.36074161547242845,-0.4702692032502561
1684002388255816900,9.12321728515625,-0.4294208586266187,-0.3074932098132413,-0.7448125481959201
1684002388265859000,9.13325927734375,-0.43376702071528783,0.015888214080379767,-0.9124704599297154
1684002388275901100,9.143301513671876,-0.41209813944576895,-0.11302948002061078,-0.9888644814566244
1684002388285943200,9.153343505859375,-0.35000059010518414,-0.17087173449426635,-1.0471603870431874
1684002388295985100,9.163385498046877,-0.25757366419768996,-0.20124340060938972,-0.8336667417993031
1684002388306027200,9.173427490234374,-0.1335613728040995,-0.16718196872540153,-0.5683897732207694
1684002388316069300,9.1834697265625,-0.061355650421353006,-0.145240783729223,-0.35647141935648535
1684002388326111400,9.19351171875,0.018552303202878,-0.09995365143398727,-0.20432031162730088
1684002388336153600,9.203553955078124,0.12224358330621828,-0.10243797304897055,-0.13969910155404738
1684002388346195600,9.213595947265626,0.22474330670920187,-0.05300426473919436,-0.14175701134204557
1684002388356237700,9.22363818359375,0.30863451947618464,-0.037186622717339614,-0.045976519492951534
1684002388366279900,9.23368017578125,0.3592596651670993,-0.014536857561597498,0.1031424999404613
1684002388376322000,9.243722412109374,0.3980098367072233,-0.006454467682089325,0.24068796621984198
1684002388386364100,9.253764404296875,0.38689762353622226,0.04855251306572666,0.35086667541763716
1684002388396406200,9.263806640625,0.3432795405131294,0.10731220241081608,0.43876135345862877
1684002388406448300,9.2738486328125,0.3101669549895975,0.16271305080895312,0.5730859041607042
1684002388416490400,9.283890869140626,0.25463485711923967,0.13234043124611253,0.6960241794549727
1684002388426532600,9.293932861328123,0.1920534371747365,0.10002231603719543,0.7838147880436733
1684002388436574600,9.30397509765625,0.15155029290443006,0.028121948323014775,0.8060501813778451
1684002388446616600,9.314016845703126,0.08356988429703158,0.016233444186574304,0.8229231835180016
1684002388456658600,9.32405908203125,0.056104421743359646,0.018509864866281627,0.8294461966772171
1684002388466700600,9.33410107421875,0.015946328575028115,0.03934478763000916,0.7597509622421935
1684002388476742800,9.344143310546874,-0.0763369800353535,0.08088302596924046,0.6768054962547363
1684002388486784900,9.354185302734376,-0.15498876590821625,0.10755825045576389,0.5854251384255995
1684002388496827100,9.3642275390625,-0.1906026602536064,0.03487491605399825,0.5015479326236074
1684002388506869200,9.37426953125,-0.2113882302826673,0.015324592602923945,0.39506268509631526
1684002388516911300,9.384311767578126,-0.22682201856551734,-0.027251243569879867,0.2948664427562999
1684002388526953400,9.394353759765623,-0.2141137719583705,-0.04542732232300845,0.23151993751203015
1684002388536995600,9.40439599609375,-0.19314569249809954,-0.027795791680022497,0.14848804488675102
1684002388547037600,9.41443798828125,-0.14530962704574923,0.010961532555110344,0.0911338328185298
1684002388557079700,9.424480224609376,-0.115962624657453,0.025735855210169394,0.0848698617205343
1684002388567121800,9.434522216796877,-0.06502020358095127,0.009824752829785574,0.09341812136212525
1684002388577164000,9.444564453125,-0.02849012611712203,-0.008085250794439312,0.15861260885192033
1684002388587205800,9.454606201171876,0.012339115188014938,-0.0186071396941941,0.20633280266318016
1684002388597247900,9.4646484375,0.04518496988760533,-0.005326270996954496,0.16211283207656313
1684002388607290000,9.4746904296875,0.055880189004671184,-0.0038433074530701402,0.14364194870320568
1684002388617332100,9.484732666015624,0.08481132992059182,-0.018657684331342798,0.20238387584033274
1684002388627374300,9.494774658203124,0.09849679470323101,0.049348831128097764,0.24047267453206508
1684002388637416400,9.504816650390625,0.09413999321386739,0.10456943522204035,0.2794507742571044
1684002388647458600,9.51485888671875,0.0950163602758203,0.10716342922741492,0.33120000359994123
1684002388657500600,9.52490087890625,0.04218393577430541,0.13564014426966137,0.3975307940993062
1684002388667542600,9.534943115234377,-0.004022836757976146,0.16606712324645237,0.43579709534950395
1684002388677584800,9.544985107421876,-0.035646736654278366,0.15134906786265956,0.5237911940767592
1684002388687626900,9.55502734375,-0.05721873036075236,0.17936038966981419,0.5757977963336415
1684002388697669000,9.5650693359375,-0.0855983494862843,0.16226196280037014,0.6630170345978844
1684002388707711200,9.575111572265625,-0.09509032964481441,0.12195205689996247,0.6953163145823749
1684002388717753300,9.585153564453124,-0.13508254284476282,0.12239170059651175,0.753527402866312
1684002388727795100,9.595195556640626,-0.19285219909230558,0.10640525826182322,0.6957362891238807
1684002388737837200,9.605237548828123,-0.23764038078620411,0.13079547887965615,0.6560004949282005
1684002388747879300,9.61527978515625,-0.2796356082346057,0.08420753472737928,0.6741626262363063
1684002388757921500,9.62532177734375,-0.3168593645788284,0.099664688165965,0.6812227963971019
1684002388767963600,9.635364013671875,-0.3292481899467121,0.16211032864769787,0.6585167646571247
1684002388778005600,9.645406005859376,-0.28988635540117774,0.1436834335914953,0.7095963954932414
1684002388788047800,9.6554482421875,-0.23020219811039636,0.20106983180315643,0.7104901075922849
1684002388798089900,9.665490234375,-0.20347261435059974,0.236422538576969,0.7235615254001768
1684002388808132000,9.675532470703123,-0.17732691756189953,0.24061012267568463,0.7581248283473242
1684002388818174100,9.685574462890624,-0.1449208259629759,0.27072143553648953,0.7862836121640727
1684002388828216200,9.69561669921875,-0.13924074173366416,0.31455135335892115,0.8033834695312065
1684002388838258400,9.70565869140625,-0.10338962078767996,0.3035602567934606,0.8470715283747648
1684002388848300500,9.715700927734376,-0.08493506905366892,0.2645721435728015,0.8840508462240325
1684002388858342600,9.725742919921874,-0.04354244473282244,0.33227825162111824,0.9123964311112555
1684002388868384600,9.73578515625,-0.010340750059672433,0.3424329757450365,0.9722238778849333
1684002388878426600,9.745826904296877,0.028802692968855154,0.34069252008366846,1.0228472947750817
1684002388888468600,9.755869140625,0.05216127626273323,0.38843727106759807,1.022187948243085
1684002388898510800,9.7659111328125,0.07162815324864999,0.345896720911615,1.0391945838922174
1684002388908552900,9.775953369140623,0.06900757562119461,0.26402568812937555,1.1015639305788671
1684002388918595000,9.785995361328125,0.09690994033607706,0.09162425998559802,1.1676801444683218
1684002388928637100,9.79603759765625,0.14715337754021715,-0.061610221948740024,1.2229162453378604
1684002388938679200,9.80607958984375,0.19140380621058914,-0.09261894218599984,1.1966292858679974
1684002388948721300,9.816121826171877,0.2038153409888882,-0.05076885236813293,1.1348259448593763
1684002388958763400,9.826163818359374,0.16794729228777205,-0.02220439901315025,1.0700565577163847
1684002388968805600,9.8362060546875,-0.01437461369225254,-0.06777381887208848,0.9289392233040429
1684002388978847600,9.846248046875,-0.22162568569563112,-0.24943733215887431,0.8304498196867098
1684002388988889800,9.856290283203125,-0.34907734398766094,-0.2774267196644425,0.7522115707109948
1684002388998931600,9.86633203125,-0.3612581491407133,-0.2013072967750191,0.7069761753197523
1684002389008974000,9.87637451171875,-0.2901020048797914,-0.19463348387885404,0.667670130627218
1684002389019015900,9.886416259765625,-0.19380402557638787,-0.10082817076776392,0.5123237371805254
1684002389029058000,9.896458251953124,-0.09487432238249519,-0.09315872208496918,0.3641302586011125
1684002389039100100,9.90650048828125,-0.06259018168939814,-0.15604019174799497,0.24541521062920765
1684002389049142200,9.91654248046875,0.0061293840652531795,-0.24132156365411392,0.1491929292751967
1684002389059184300,9.926584716796874,0.038738131439897384,-0.29221820823076183,0.07558459044187724
1684002389069226400,9.936626708984376,0.08417600399623122,-0.2811393737559978,-0.017885446590593178
1684002389079268600,9.9466689453125,0.08773136140574123,-0.24916076648993254,-0.06009602556125985
1684002389089310600,9.9567109375,0.11611050369580736,-0.30499267562804416,-0.062123119878169535
1684002389099352800,9.966753173828126,0.11967134459300993,-0.36721229560875873,-0.07052457329233608
1684002389109394900,9.976795166015624,0.12735164165390928,-0.39104270939969854,-0.08147460231059137
1684002389119437000,9.98683740234375,0.1861435174335718,-0.3889446257694509,-0.1143458486216491
1684002389129479100,9.99687939453125,0.1940891741664844,-0.30485057832132106,-0.18544858704529898
1684002389139521200,10.006921630859376,0.2200835942019105,-0.27196788785458037,-0.3010395765529119
1684002389149563100,10.01696337890625,0.24457561982264492,-0.2587757109716128,-0.38391113282748096
1684002389159605200,10.027005615234376,0.2328461407776938,-0.2066144944189986,-0.5185452699763465
1684002389169647300,10.037047607421876,0.21019613731054815,-0.07102203361136718,-0.7016187906162618
1684002389179689400,10.04708984375,0.13870525354432411,0.02403926845831379,-0.9071619509785221
1684002389189731600,10.0571318359375,0.13105201714109485,0.16740131385096377,-1.1265885831034834
1684002389199773600,10.067174072265624,0.09686231619853884,0.22786521904370577,-1.3021770717003358
1684002389209815700,10.077216064453124,0.07507026198714284,0.2510375976318225,-1.397666215788624
1684002389219857800,10.08725830078125,0.026169896225429375,0.21059894580587837,-1.3526384831341474
1684002389229900000,10.09730029296875,-0.041784048108665595,0.15649795533149452,-1.2382097245125603
1684002389239942100,10.107342529296876,-0.10250866413721942,0.13844394689151757,-1.0119068622612555
1684002389249984200,10.117384521484375,-0.18068170544256668,0.06276226036163805,-0.7915383578594753
1684002389260026300,10.1274267578125,-0.24677342159709512,0.04619407668784456,-0.6254330278538519
1684002389270068400,10.13746875,-0.3241733909029947,-0.03595733635386918,-0.4279872180046225
1684002389280110600,10.147510986328124,-0.4403402805743474,-0.14315414440090285,-0.3111223577724958
1684002389290152400,10.157552734375,-0.5430033803912623,0.0596055984475386,-0.5242261290444519
1684002389300194600,10.167594970703124,-0.7233482599577543,0.19540500636597785,-0.8169088363300605
1684002389310236600,10.177636962890626,-0.8114237785380772,0.14540386191569768,-0.5658226608611199
1684002389320278600,10.18767919921875,-0.807026803407103,0.10093212138175596,-0.254243195109817
1684002389330320800,10.19772119140625,-0.7964447736291129,0.03320121764289124,-0.07993376255255966
1684002389340362900,10.207763427734376,-0.7896637917930301,-0.021962165786631457,0.01995190966165283
1684002389350405000,10.217805419921875,-0.7565844057865618,-0.0551729202202756,0.13639983527588365
1684002389360447200,10.22784765625,-0.7388230561474065,-0.1526088714745973,0.2619289756079632
1684002389370489300,10.2378896484375,-0.731782436216239,-0.23061084737713694,0.42232948535191595
1684002389380531400,10.247931884765626,-0.7610372305364966,-0.22716808306239197,0.5044621228699426
1684002389390573600,10.257973876953123,-0.7966067194523787,-0.19738483426214004,0.48919755232493206
1684002389400615600,10.26801611328125,-0.8199396730339344,-0.35868167870381823,0.5329766869037789
1684002389410657600,10.27805810546875,-0.8107239602285115,-0.33336162566327276,0.4105325341876482
1684002389420699600,10.288099853515623,-0.8194119930867604,-0.2820863723764481,0.18255388749534618
1684002389430741600,10.29814208984375,-0.8566074968210236,-0.24574852003635345,-0.06134647132868595
1684002389440783800,10.30818408203125,-0.906269729006541,-0.24362277980938285,-0.39441460372307874
1684002389450825900,10.318226318359375,-0.9662586450253444,-0.23759269701852193,-0.6821033358755332
1684002389460868000,10.328268310546877,-0.9534149170296873,-0.1537942886093682,-0.9595149755911332
1684002389470910100,10.338310546875,-0.9253296256858965,-0.14537620530098783,-1.1802663802137057
1684002389480952200,10.3483525390625,-0.8077861069616113,-0.17406463623016147,-1.3604968786633194
1684002389490994400,10.358394775390623,-0.5977582336434235,-0.15157032008204227,-1.4306873082921872
1684002389501036500,10.368436767578125,-0.3232981561635429,-0.25477504746767043,-1.5526077748906628
1684002389511078600,10.37847900390625,0.09772422910914544,-0.2731561662687674,-1.5632538796725777
1684002389521120600,10.38852099609375,0.4904778601248636,-0.18040370943066045,-1.5534720421335773
1684002389531162800,10.398563232421877,0.5429345965243296,-0.4255285263570259,-1.587300062109374
1684002389541204900,10.408605224609374,0.6088654399443525,-0.6662263868841609,-1.6202266216586534
1684002389551247000,10.4186474609375,0.6355696320719998,-0.9026117324651172,-1.5417551994286671
1684002389561288900,10.428689208984377,0.722088158081163,-1.017440796026866,-1.5332419873382361
1684002389571331000,10.4387314453125,0.8113220334054726,-0.9891033172512341,-1.5600433348553704
1684002389581373100,10.4487734375,0.9581836461724664,-0.8963422775022986,-1.442781209890496
1684002389591415200,10.458815673828123,1.1363011598034736,-0.7387371064591564,-1.2787088156327642
1684002389601457300,10.468857666015625,1.2721015214980573,-0.48978137972597946,-0.9654921293299166
1684002389611499400,10.47889990234375,1.2627234458726388,-0.1829595566182529,-0.7069630621653666
1684002389621541600,10.48894189453125,1.1582514047233106,0.023957252502469353,-0.6101546286583802
1684002389631583600,10.498984130859377,1.1562031508520738,0.12376499173544953,-0.5836902858109536
1684002389641625800,10.509026123046874,1.06476533422311,0.16417598722412083,-0.7390084266850203
1684002389651667900,10.519068359375,0.8738018273497201,0.22631359082258767,-1.0577656031081815
1684002389661710000,10.5291103515625,0.7790881393931955,0.18572616570501813,-1.2339558600604537
1684002389671752100,10.539152587890625,0.7919158339903729,0.16916370398779354,-1.326076030799711
1684002389681794200,10.549194580078124,0.6407837271758507,0.1623983382803272,-1.3821301461112543
1684002389691836100,10.559236572265624,0.21782583004767314,0.20355701442040183,-1.3100545405599557
1684002389701878400,10.56927880859375,-0.2465162275805921,0.3115043639878035,-1.2251725197137575
1684002389711920300,10.57932080078125,-0.5239669084366174,0.46938323972374413,-1.2028601170318292
1684002389721962400,10.58936279296875,-0.5356600284226911,0.6316766738742711,-1.2665319442434362
1684002389732004600,10.599405029296875,-0.4296975136160253,0.6549787522188475,-1.382647275960783
1684002389742046600,10.609447021484376,-0.33662748337051074,0.5561647414044165,-1.5058349372686974
1684002389752088800,10.6194892578125,-0.2770732641486888,0.45715522764134603,-1.5956373215612552
1684002389762130900,10.62953125,-0.24341976641817428,0.30307102192828056,-1.6680020093270091
1684002389772173000,10.639573486328125,-0.2469289303670269,0.2660140990305983,-1.7502079009819547
1684002389782215100,10.649615478515624,-0.3131804466141124,0.1664447784066697,-1.552903532943757
1684002389792257200,10.65965771484375,-0.6382849216867303,0.09262561795760246,-1.48916923986393
1684002389802299300,10.66969970703125,-1.005832553016775,-0.07784271256728804,-1.1690862179530905
1684002389812341400,10.679741943359376,-1.4338434935741313,-0.24733638755659518,-0.8793286085433577
1684002389822383600,10.689783935546876,-1.5704587696279988,-0.33261108397087485,-0.7350381613931344
1684002389832425400,10.69982568359375,-1.2997899054418978,-0.35477161397044155,-0.5648045538110901
1684002389842467600,10.709867919921876,-0.8554120064331995,-0.45370578760657865,-0.41303074363379105
1684002389852509600,10.719909912109374,-0.3725962638820417,-0.5945520402273311,-0.1887168884610908
1684002389862551700,10.7299521484375,0.06375968473372198,-0.516051292432741,-0.06898760792092115
1684002389872593800,10.739994140625,0.40200006957824796,-0.46910285952193465,0.08427417271117132
1684002389882636000,10.750036376953124,0.7116528751194086,-0.27208423614804644,0.14380800710999314
1684002389892678100,10.760078369140626,0.920094609203886,0.007722854696745582,0.0723252295255073
1684002389902720200,10.77012060546875,0.929795861192338,0.22423934938350487,-0.07588016997246184
1684002389912762300,10.78016259765625,0.7995359898146686,0.4226560592824463,-0.3346127272088745
1684002389922804400,10.790204833984374,0.5811530351535074,0.64318370830107,-0.6658912896589134
1684002389932846600,10.800246826171875,0.4938136337759962,0.9782924652049219,-0.7961225508193411
1684002389942888600,10.8102890625,0.5260677337011282,1.0954370499465746,-0.7959992886816863
1684002389952930700,10.8203310546875,0.5722559690648001,1.119867324904602,-0.8573370576332864
1684002389962972600,10.830373046875,0.6152737140052085,1.0218982698047816,-0.9416097403236531
1684002389973014600,10.8404150390625,0.6531785724740344,0.9437742233224834,-0.9835975765579035
1684002389983056800,10.850457275390625,0.5807828903278157,0.8761215209415321,-0.8412135839053209
1684002389993098900,10.860499267578126,0.48363471040309436,0.7898101805995238,-0.6437841653762298
1684002390003141000,10.87054150390625,0.38129425035422254,0.674386978148637,-0.36877858634694427
1684002390013183200,10.88058349609375,0.3364007473665339,0.6267623901046007,-0.05885601047885707
1684002390023225300,10.890625732421874,0.3608514071587743,0.6530761719603917,0.20322537434430896
1684002390033267400,10.900667724609375,0.3885540961908618,0.6929359435388156,0.4303047655665073
1684002390043309600,10.9107099609375,0.3190288543114819,0.6910591125393222,0.6441510916205091
1684002390053351600,10.920751953125,0.13202118871213187,0.6498908994832635,0.7564858198161251
1684002390063393600,10.930794189453126,-0.26703453065491634,0.4143686295735505,0.8250063657096048
1684002390073435800,10.940836181640623,-1.065943479426678,-0.015336036837941085,0.9361338615788151
1684002390083477600,10.950878173828125,-2.3404939175263126,-0.5688171385090929,1.1782013178513009
1684002390093519800,10.960920166015624,-3.3160853385423272,-0.8795471189626077,1.4186223746230109
1684002390103561900,10.97096240234375,-3.074808120599814,-0.8511180877632991,1.3922271729270743
1684002390113604000,10.98100439453125,-2.3653316497842916,-0.6102237702315372,1.2600436210833958
1684002390123646100,10.991046630859374,-1.5556328295860364,-0.35607624055043896,1.234773993509645
1684002390133688200,11.001088623046876,-0.5059809683193053,-0.08759212481401575,0.9425101280481218
1684002390143730400,11.011130859375,0.49484026433862804,0.6542167663270145,-0.13981938370260877
1684002390153772500,11.0211728515625,0.8984322548803801,0.6446676253975552,-0.6744810344581553
1684002390163814600,11.031215087890626,0.9044574498104043,0.21172046664754116,-0.9386960268417144
1684002390173856600,11.041257080078124,0.5739462376011452,-0.5128326414730235,-1.0341126919134849
1684002390183898800,11.05129931640625,-0.18378674989890986,-1.2295551300407572,-1.276950001666037
1684002390193940900,11.06134130859375,-1.2243759631961177,-1.305460929721188,-1.9471337795762933
1684002390203983000,11.071383544921876,-2.229457378571417,-1.3060989379518175,-2.508439779316039
1684002390214025100,11.081425537109377,-3.0812721252850706,-1.4735822678812311,-2.685617685211634
1684002390224067200,11.091467529296876,-3.8624572754645023,-1.8060598373481893,-2.823382854368248
1684002390234109100,11.101509521484376,-4.350841999078627,-2.1752471923118617,-2.7156243325771694
1684002390244151200,11.111551513671875,-4.300572395397124,-2.300257682679116,-2.198602199531583
1684002390254193300,11.12159375,-3.5783934592956235,-1.9865388869590237,-1.2595914601911564
1684002390264235400,11.1316357421875,-2.2186150550346095,-1.136983871434029,-0.2841566800585585
1684002390274277600,11.141677978515624,-0.46933722485585394,0.023905754145101876,0.5726779699165137
1684002390284319600,11.151719970703123,1.3973407745307074,1.0070581434833557,1.4023768902312579
1684002390294361800,11.16176220703125,3.055590868024421,1.5985860826201135,2.3481833934737084
1684002390304403900,11.17180419921875,4.088190555455449,1.6252470016425524,3.2864484785017614
1684002390314446000,11.181846435546875,4.266845226150569,1.5234565734618915,3.5616526603417595
1684002390324488100,11.191888427734376,4.056045055457784,1.3323421479854838,3.290750503538769
1684002390334530200,11.2019306640625,3.676185607868146,1.1262149811545672,2.9522604941555564
1684002390344572300,11.21197265625,3.3329703807860946,0.9766330718901417,2.3841643334516234
1684002390354614200,11.2220146484375,3.0781645775073367,0.8235235215351975,1.79904294019414
1684002390364656300,11.232056640625,2.8586046695806524,0.6905364990801144,1.2366399766176241
1684002390374698400,11.242098876953126,2.6770644187724124,0.4774093626390064,0.6142815352318316
1684002390384740600,11.252140869140623,2.5347757340348154,0.2682647705018323,0.25595152388343
1684002390394782600,11.26218310546875,2.432259797981358,0.06107616438640974,-0.019363582208786805
1684002390404824800,11.27222509765625,2.3487739563086665,-0.19169044505110103,-0.35433024170056215
1684002390414866900,11.282267333984375,2.250327587251422,-0.46374607079271146,-0.6103668213225671
1684002390424909000,11.292309326171877,2.116580963137752,-0.7101840973397422,-0.7269643544590446
1684002390434951100,11.3023515625,1.954999208443616,-0.8004741669727163,-0.8376604914658297
1684002390444993200,11.3123935546875,1.7139623163271103,-0.5756015776861526,-1.0576007364588293
1684002390455035300,11.322435791015623,1.4291104076960848,-0.1965475082327206,-1.4097764493480451
1684002390465077400,11.332477783203124,1.0181113480805193,0.1978836060112426,-2.0834317206553212
1684002390475119600,11.34252001953125,0.11374938493994004,0.4899883270498212,-2.6137444974327826
1684002390485161400,11.352561767578123,-0.5540373326034006,0.6601791380968814,-2.8649954795920203
1684002390495203600,11.36260400390625,-0.9252295493087883,0.6702613829882061,-2.972467660821952
1684002390505245600,11.37264599609375,-1.265165567328352,0.3202285767856446,-3.112659931037178
1684002390515287700,11.382688232421875,-1.686795830665612,-0.44115638728122475,-3.12405967707571
1684002390525329800,11.392730224609377,-2.092799186601017,-1.1157236100954442,-2.89328336705666
1684002390535372000,11.4027724609375,-2.2703325748936862,-1.4287061690943683,-2.156491279675779
1684002390545414100,11.412814453125,-2.1306123733326685,-1.189709663265241,-1.1347559691109503
1684002390555456200,11.422856689453123,-1.5383377074986504,-0.43363285064768387,-0.0790592431536224
1684002390565498300,11.432898681640625,-0.7014158366325276,0.1382379532460593,0.6594179867444887
1684002390575540400,11.44294091796875,0.2807965875377466,0.4498720168404267,0.7072063685042318
1684002390585582600,11.45298291015625,1.2556728122876555,0.5236454008319369,0.4797330497286109
1684002390595624600,11.46302490234375,1.9384934901242807,0.45610237118789,0.23609256754685895
1684002390605666600,11.47306689453125,2.3876504898717474,0.2695569992945592,0.26661241053349516
1684002390615708600,11.48310888671875,2.655830621823519,0.13429832455629107,0.4215398431150311
1684002390625750600,11.493151123046877,2.702185392525807,0.03620719907880755,0.548671007012609
1684002390635792800,11.503193115234374,2.622890949075078,0.001594543354281621,0.6135644315311914
1684002390645834900,11.5132353515625,2.4552044868176557,0.0038928986199136513,0.6371180415716834
1684002390655877000,11.52327734375,2.2131085395513583,0.0163469314367062,0.6403052806753511
1684002390665919200,11.533319580078125,1.9453864096668734,0.02174758903610397,0.6583443284356764
1684002390675961300,11.543361572265624,1.6875079870293395,0.024633407582309887,0.48166185614363205
1684002390686003400,11.55340380859375,1.5036872625258075,0.09408569329695066,0.322457253781757
1684002390696045600,11.56344580078125,1.313621282474924,0.0983705519561705,0.36671912675178114
1684002390706087600,11.573488037109374,1.1173223255626663,0.08309841160593319,0.27325505013767687
1684002390716129600,11.583530029296876,0.9046595095369584,0.012679100036884626,0.17604798086902027
1684002390726171800,11.593572265625,0.6430822015415352,-0.07452678690836807,0.16879850623765993
1684002390736213600,11.603614013671876,0.32717651142081505,-0.13551044455867522,0.19888228179366169
1684002390746255800,11.61365625,0.04183825839774325,-0.244369506785459,0.22563093905451073
1684002390756297900,11.6236982421875,-0.25258475539549585,-0.3316774367656454,0.24955344200090382
1684002390766340000,11.633740478515625,-0.4688121080571273,-0.3639974593541092,0.24496257294176477
1684002390776382100,11.643782470703124,-0.5489835143291693,-0.2912740707276904,0.15968346584573578
1684002390786424200,11.65382470703125,-0.4548732937792935,-0.2331352234247627,0.08728772389958361
1684002390796466400,11.66386669921875,-0.23736272746411508,-0.17517471324552938,-0.057892203176553074
1684002390806508500,11.673908935546876,0.04024417686308223,-0.1650924682843985,-0.13166749484344864
1684002390816550600,11.683950927734376,0.32588851456994106,-0.1072444915774515,-0.16561454540106252
1684002390826592600,11.6939931640625,0.6102193595870854,-0.09489536294880722,-0.17706978327426987
1684002390836634800,11.70403515625,0.8178043364269297,0.05836200717375618,-0.14460104719137484
1684002390846676900,11.714077392578124,0.9910544156967283,0.09426212312599125,-0.13532692177643402
1684002390856718800,11.724119140625,1.1224933863170043,0.036974907054038296,-0.06580632925679376
1684002390866760900,11.734161376953123,1.1998394727368136,0.00371551519804581,-0.02528309820244337
1684002390876803000,11.744203369140624,1.2276649475095296,-0.10827445992414139,0.026607155858167926
1684002390886845100,11.75424560546875,1.2126710414169184,-0.21758461004362686,0.0659639835377451
1684002390896887200,11.76428759765625,1.1882520913053622,-0.17857742315967054,0.15673422813391338
1684002390906929300,11.774329833984376,1.1497687100277636,-0.0871486664089043,0.24383348233236293
1684002390916971400,11.784371826171874,1.0867661237949664,-0.10347270962022512,0.40353876355427715
1684002390927013600,11.7944140625,1.010455489134246,-0.007623672550044226,0.44196021567868365
1684002390937055600,11.8044560546875,1.019850373285579,0.020983695995797833,0.42378520970125394
1684002390947097800,11.814498291015624,1.0504189728691278,-0.16076278700487356,0.2658009530761762
1684002390957139900,11.824540283203126,1.0918714998776307,-0.15347194671227982,0.021466851359828423
1684002390967182000,11.83458251953125,1.1002736092922862,-0.057873726036798065,-0.25603464228796613
1684002390977224100,11.84462451171875,1.0272216797680773,0.1282835008321095,-0.5846379994652424
1684002390987266000,11.854666259765626,0.975194037063829,0.2997512818196271,-0.8559827803536942
1684002390997308300,11.864708740234375,0.9037182925936416,0.3252220152228498,-1.0271666049615542
1684002391007350200,11.87475048828125,0.8107528687492784,0.09992408746784567,-1.1494343281520034
1684002391017392300,11.884792724609374,0.7016671300150886,-0.007749557425187739,-1.2848217486819287
1684002391027434400,11.894834716796876,0.6278386713034269,-0.06257629396109456,-1.3732125760219376
1684002391037476600,11.904876953125,0.6640868783435735,-0.005014419385452555,-1.4051903486244524
1684002391047518600,11.9149189453125,0.8267720340128581,0.11690711975229029,-1.4020059108012664
1684002391057560800,11.924961181640626,1.038294315275586,0.12869930277763766,-1.3423706292195687
1684002391067602900,11.935003173828123,1.2589429617262615,0.14051342015209883,-1.2194578647488195
1684002391077645000,11.94504541015625,1.3696146011823849,0.12135314955604234,-1.0763838289931358
1684002391087687100,11.95508740234375,1.35456621655959,0.07371902466278028,-0.985203087318987
1684002391097729200,11.965129638671876,1.184030652209896,-0.08344841011840122,-0.9930891990985743
1684002391107771300,11.975171630859377,0.8540414572394452,-0.26151657109165866,-0.8940829040175692
1684002391117813200,11.985213623046874,0.47446531039444584,-0.39129066464703,-0.6009464263819959
1684002391127855300,11.995255615234376,0.07169255610643636,-0.29627609255828413,-0.2463463991566051
1684002391137897400,12.0052978515625,-0.2415046096329316,-0.31147575381856335,0.06858676660034145
1684002391147939600,12.01533984375,-0.40320163968953987,-0.22652912139961418,0.34857842323699556
1684002391157981600,12.025382080078124,-0.3720477223414228,-0.2017440795570048,0.6576063036673777
1684002391168023700,12.035424072265624,-0.16081267587489131,-0.18923378006083294,0.8373092413465308
1684002391178065800,12.04546630859375,0.1541116088927069,-0.0528049467992309,0.9286577702692438
1684002391188108000,12.05550830078125,0.44388860455195617,-0.04108238226440378,0.9580341576648416
1684002391198150100,12.065550537109376,0.7017966507762671,0.02305984487881584,0.8571434022361495
1684002391208192200,12.075592529296877,0.8861479164451675,-0.1040267942704811,0.7557840347740934
1684002391218234300,12.085634765625,1.010963559189321,-0.15674495691117163,0.6208860276835783
1684002391228276400,12.0956767578125,1.0454249382064646,-0.12810707086452403,0.5385384560919718
1684002391238318300,12.10571875,1.073530674057757,-0.003951072650117933,0.3687549234160272
1684002391248360600,12.115760986328125,1.074595928107152,-0.0782556534148017,0.36564290539213484
1684002391258402600,12.125802978515624,1.0855493546833022,-0.08790493012516763,0.4157957434925615
1684002391268444600,12.135844970703126,1.078142881515593,-0.0163879394691227,0.461066663134894
1684002391278486600,12.14588720703125,1.1191728115138666,0.1647510529509432,0.5372915269032665
1684002391288528800,12.15592919921875,1.1844828128611635,0.23792171471810972,0.6299661398598095
1684002391298570900,12.165971435546876,1.2641637325556403,0.10546398156176147,0.7762988805474828
1684002391308613000,12.176013427734375,1.2669314146211643,0.028220176728773104,0.7707931995305826
1684002391318655200,12.1860556640625,1.285850644247424,-0.08943176255628867,0.7697888017029454
1684002391328697300,12.19609765625,1.2155134677289108,-0.3213796616249756,0.6211847066323113
1684002391338739400,12.206139892578124,1.089044690095991,-0.5526895522301581,0.49934717995205014
1684002391348781600,12.216181884765623,0.9424595832371552,-0.5947437287208888,0.3884589673303984
1684002391358823600,12.22622412109375,0.809969425158548,-0.4337482452960038,0.33537355065306673
1684002391368865500,12.236265869140626,0.6047444342969862,-0.27328777316034863,0.22766998413747064
1684002391378907600,12.246307861328123,0.5051148535501562,-0.18505573286843308,0.09273186326379071
1684002391388949600,12.25635009765625,0.5207094548597809,0.07232856760096155,-0.010948628201326659
1684002391398991800,12.26639208984375,0.6651877165214056,0.12592983245192096,-0.03014773124188459
1684002391409033900,12.276434326171875,0.7752645015673075,-0.05477046964437019,-0.010724544412169927
1684002391419076000,12.286476318359377,0.8859440087118763,-0.013055801382746585,-0.009134262944779405
1684002391429118100,12.2965185546875,0.9380993844781459,0.24824714671793838,-0.18774935604243168
1684002391439160200,12.306560546875,0.9255987405988381,0.32758808125987066,-0.4689187407918995
1684002391449202400,12.316602783203123,0.8423212767167274,0.2731943130999065,-0.6570603847679313
1684002391459244500,12.326644775390625,0.71155929548861,-0.0629634857886208,-0.6884791851607202
1684002391469286600,12.33668701171875,0.6392682194794373,-0.09779357899368811,-0.6349443793173825
1684002391479328600,12.34672900390625,0.6877238154340831,0.5117111205339896,-0.5082067250984128
1684002391489370600,12.35677099609375,0.8184440731386692,1.0524253843287472,-0.37516307818473194
1684002391499412900,12.366813232421874,0.9988366962450514,1.044847488407833,-0.4053956269251541
1684002391509454800,12.376855224609375,1.138731718018007,0.8275232315388518,-0.3195517361032039
1684002391519496900,12.386897216796877,1.1125810147387534,0.673360824406452,-0.07008984676733276
1684002391529539000,12.396939453125,0.9700754284277148,0.498439788809504,0.2615150809569271
1684002391539581100,12.4069814453125,0.8319831490298463,0.05886554717527081,0.5272916555723193
1684002391549623200,12.417023681640623,0.6887556909684266,-0.6258344651555232,0.781613767137752
1684002391559665300,12.427065673828125,0.5198469161432145,-1.161127090435008,0.8424848319546759
1684002391569707400,12.43710791015625,0.3699139953388209,-1.1604642866371564,0.7309626937007003
1684002391579749600,12.44714990234375,0.26334875822428144,-0.9092054367207372,0.7091076374177122
1684002391589791600,12.457192138671877,0.19576334954932098,-0.30747508997041356,0.686665773377775
1684002391599833800,12.467234130859374,0.041627705141539385,0.30465698252973017,0.7030599713024035
1684002391609875900,12.4772763671875,-0.0698007343632531,0.5878095625766594,0.7364175915968846
1684002391619918000,12.487318359375,-0.15086412427138293,0.583173751718382,0.766101419966313
1684002391629960100,12.497360595703125,-0.21510231502801938,0.46090221400725195,0.8597193360701116
1684002391640002000,12.50740234375,-0.26797378061043037,0.27624797819886,0.8148178459739993
