time,seconds_elapsed,z,y,x
1684180364356531100,0.036931640625,-8.687789296372996e-11,2.1947763826630234e-11,-5.3531200812888266e-12
1684180364366572500,0.046972900390625,0.29385328301751457,-0.08214855189419444,-0.06629705431468622
1684180364376614100,0.057014404296875,0.435841560407096,-0.49359416955101676,0.22962951674838586
1684180364386655400,0.067055908203125,0.013360977207000227,-0.9950251579275645,0.13713073728788966
1684180364396697000,0.077097412109375,-0.44395637513938196,-1.0827012062878025,-0.2720842359893477
1684180364406738400,0.087138671875,-0.4997887610484445,-0.313765525772468,-0.9707059861043982
1684180364416779600,0.09718017578125,-0.44601392748573215,0.25646352770191466,-0.8530750274700254
1684180364426821300,0.1072216796875,-0.2935237884602562,0.8391196728111158,-0.6959114074456529
1684180364436862600,0.117262939453125,-0.42769908914669225,0.5881314276142849,-0.4348640443291517
1684180364446904000,0.127304443359375,-0.9027023315019955,0.26566410074339125,-0.8964991569362869
1684180364456945600,0.137345947265625,-1.281424045624252,-0.39611959470066727,-0.4439334870426474
1684180364466986900,0.14738720703125,-1.2928867340406542,-0.17645597461914783,-0.4046397210437676
1684180364477028600,0.157428955078125,-0.9820837975562944,0.16201186191450595,-0.14007520680771451
1684180364487069900,0.16747021484375,-0.4041457175587954,0.30907535547273607,0.2597217558467702
1684180364497111600,0.177511962890625,0.44634866719638655,0.708434343293952,0.18520212183816706
1684180364507152800,0.18755322265625,0.6805186271432916,0.12974381449662897,-0.26989078527597526
1684180364517194200,0.197594482421875,0.9560136795045284,0.26508426662153034,-0.3341631889429652
1684180364527235800,0.20763623046875,0.6631693840111975,-0.003356218333576692,-0.034628868010059384
1684180364537277100,0.217677490234375,0.2742128372286087,-0.191457510031386,0.19589567184927428
1684180364547318600,0.227718994140625,-0.03918218622906782,-0.4882726669737037,0.3301491737389294
1684180364557360000,0.237760498046875,-0.6603622436751898,-0.1717424391461847,-0.3528738021754695
1684180364567401400,0.2478017578125,-1.3636250495085906,-0.4634337424315659,0.4355330468038112
1684180364577443000,0.257843505859375,-1.6353912352340934,-0.1582880021411998,-0.04069232947833929
1684180364587484300,0.267884765625,-1.346444845315973,-0.21233487141217183,-0.01852941514726703
1684180364597525600,0.277926025390625,-0.7508554458382752,0.015789747267651075,0.0424923897251106
1684180364607567300,0.2879677734375,0.29250717170250035,0.35360670088695967,-0.41064882268343356
1684180364617608600,0.298009033203125,0.12275266656620089,0.07538056386282964,-0.16703653339002217
1684180364627650200,0.308050537109375,-0.11198043824545509,0.12140321728046327,-0.08731985104679733
1684180364637691600,0.318092041015625,-0.25762271881400073,0.07025480282696925,-0.12495279330460511
1684180364647732900,0.32813330078125,-0.0916199684164859,-0.009431362139559248,-0.28204870208369526
1684180364657774600,0.3381748046875,0.10556316372891376,0.24503731712676605,-0.2982020377405229
1684180364667815900,0.34821630859375,0.17365121844252923,0.18215990062609197,-0.056140422860152035
1684180364677857500,0.3582578125,0.2483572960318113,0.23859882348018366,-0.12528753280001695
1684180364687898800,0.36829931640625,0.1094217299856764,0.4686467646684225,-0.17107105262351768
1684180364697940100,0.378340576171875,0.09673595432937682,-0.20137166980693863,0.43608188622947575
1684180364707981700,0.388382080078125,0.2527799604838921,0.1438148021958569,0.454889297588752
1684180364718023100,0.398423583984375,0.10536527641474615,0.200345039332633,0.546956062298603
1684180364728064600,0.408465087890625,-0.18445491803022074,0.29126739492663184,0.27820396417558774
1684180364738106000,0.41850634765625,-0.2933623791777211,0.46731781954184076,-0.05912685381159542
1684180364748147400,0.4285478515625,-0.20814847958123497,0.30586218843178925,-0.290312290213462
1684180364758189000,0.43858935546875,-0.03754878047447947,-0.29945540425364986,-0.23254966733416957
1684180364768230300,0.448630615234375,0.0653867722464226,-0.3692469596118866,-0.14095687875013668
1684180364778271600,0.458672119140625,0.008508443955149625,-0.539798498092643,-0.034932136538576596
1684180364788313300,0.468713623046875,-0.10095095633833306,-0.560268163656177,0.28487682341323717
1684180364798354600,0.478755126953125,0.06130719176208577,-0.11231517801282176,0.3228712081337966
1684180364808396200,0.488796630859375,-0.09371519088846013,-0.0687079430035288,0.2615165710811458
1684180364818437600,0.498837890625,0.07047009472117964,-0.10349512112476329,0.05170249949391371
1684180364828478900,0.50887939453125,0.07765650748108018,-0.0041668415598098,-0.4302597046555035
1684180364838520600,0.5189208984375,-0.7139687536715114,-0.3366181849922653,-0.5716366766231106
1684180364848561800,0.528962158203125,-0.3552286626440716,-0.04009056087966378,-0.5601768493454427
1684180364858603400,0.53900390625,-0.005408525455328554,0.3285684583895411,-0.5649962425090012
1684180364868644800,0.549045166015625,0.05952453616133536,0.6480803490019154,-0.5290694235483848
1684180364878686100,0.55908642578125,-0.1894927026058465,0.1900110244738268,-0.5387058256304621
1684180364888727700,0.569128173828125,0.08414816849113059,-0.44658899312562045,-0.14090824133291896
1684180364898769100,0.57916943359375,0.31713318825425374,-0.5619225503029026,0.3401203155770121
1684180364908810600,0.589211181640625,0.46949267381956844,-0.15892696373791892,0.5492296219114807
1684180364918852000,0.59925244140625,0.3491854668147323,-0.10392808909674278,0.7832098006295886
1684180364928893400,0.609293701171875,-0.09644746791806323,-0.10495662687932084,1.0350761413567455
1684180364938935000,0.61933544921875,-0.6021628380554928,0.2077007292836091,0.6718339918931708
1684180364948976300,0.629376708984375,-0.9721322060300448,0.30177307143044396,0.38403415689012405
1684180364959017600,0.63941796875,-0.9593560696011166,0.11408019073108293,-0.11502552020179616
1684180364969059200,0.649459716796875,-0.7050533294904862,-0.041305542002509854,-0.5166997908822899
1684180364979100600,0.6595009765625,-0.4196720123541358,-0.29315328590728673,-0.6820731164697813
1684180364989142200,0.66954248046875,0.02645277960706111,-0.6142611503737032,-0.5710749625864001
1684180364999183600,0.679583984375,0.47910428044151404,-0.6212859154244187,-0.5056538581043757
1684180365009224900,0.689625244140625,0.5956845283242823,-0.5750846862344384,-0.17640876773571393
1684180365019266600,0.6996669921875,0.3701047895968652,-0.3907690047597474,0.1667814256076406
1684180365029307800,0.709708251953125,-0.076665639893758,-0.18581914914893757,0.592677116351915
1684180365039349400,0.719749755859375,-0.3438556195566942,-0.08650159832803407,1.1382083893451915
1684180365049390800,0.729791259765625,-0.3525993824134559,-0.010760784103608869,1.3142604827536326
1684180365059432100,0.73983251953125,-0.2453117371518869,-0.021944999589934722,1.593919754022083
1684180365069473600,0.7498740234375,0.18822073942228654,0.04737758643713368,1.9364347456967792
1684180365079515100,0.75991552734375,0.6754105091632884,-0.11121368403712022,1.7142610551076616
1684180365089556400,0.769956787109375,0.7873265743957879,-0.3697557449675111,1.389826774510312
1684180365099598000,0.779998291015625,0.7373869418831226,-0.10206270225963085,0.7770824431484689
1684180365109639300,0.790039794921875,0.20912194244854923,-0.5720963478604493,0.407638549822045
1684180365119680900,0.800081298828125,-0.1678347588062344,-0.5028963088950212,0.11748790741251944
1684180365129722300,0.810122802734375,-0.543031692584543,-0.023113250746287495,-0.1258440018339998
1684180365139763600,0.8201640625,-0.6487252712866105,0.08694791795583019,-0.13933229458438098
1684180365149805200,0.83020556640625,-0.4687061309896349,0.07926368729083307,-0.06345653527935557
1684180365159846600,0.8402470703125,0.08762526526525427,0.21787357327634715,0.019240379379805186
1684180365169888200,0.85028857421875,0.28462243081891336,0.42515850066778765,-0.07699012752621147
1684180365179929600,0.860329833984375,0.4125247001162004,0.3518943786140109,-0.23926258081706536
1684180365189970900,0.870371337890625,0.4484667778596978,0.3486518860151666,-0.4601483343782844
1684180365200012500,0.880412841796875,0.3778221606956636,0.32436943048622685,-0.5374054908066289
1684180365210053800,0.8904541015625,0.25302839291456525,0.2763495446042481,-0.6334257126219733
1684180365220095400,0.900495849609375,0.006940126414663224,0.32246923461690996,-0.991254329755095
1684180365230136800,0.910537109375,0.03940963745864559,0.10209846479848939,-0.7906851767770625
1684180365240178100,0.92057861328125,0.3644928931868005,0.07762289056527699,-0.3105931282679372
1684180365250219600,0.9306201171875,0.41415762902924175,0.08152532574392561,-0.19226646408205444
1684180365260261000,0.940661376953125,0.41116380697794663,-0.03698825818815733,0.1719589232014041
1684180365270302400,0.950702880859375,0.358791113009265,-0.06699657443017634,0.595408439722473
1684180365280344000,0.960744384765625,0.18849873539995574,-0.01975917813231576,0.8498749732043662
1684180365290385300,0.97078564453125,-0.012017250002323454,-0.14194440837814817,0.8227810859900634
1684180365300426900,0.980827392578125,-0.10454988482599566,-0.1473484040695035,0.5912184715196895
1684180365310468300,0.99086865234375,-0.138554096166222,-0.190449237981417,0.4553899765817723
1684180365320509600,1.000909912109375,-0.19355154044923645,-0.29217004774083505,0.2937068939117349
1684180365330551200,1.01095166015625,-0.12630605700980518,-0.28861045838608146,0.24445724487124548
1684180365340592600,1.020992919921875,-0.25684070593240144,-0.20179224015186548,0.03056097039194252
1684180365350634200,1.03103466796875,-0.3421320915232828,-0.1571698189202672,-0.07359600072551226
1684180365360675600,1.041075927734375,-0.17965173729511702,0.1635031700633856,-0.19665956487391217
1684180365370716800,1.0511171875,0.6433401107046521,1.168329238906404,-0.2508459091188387
1684180365380758400,1.061158935546875,0.43895959857793293,0.391154289315071,0.8990097047403355
1684180365390799800,1.0712001953125,0.14907217037301312,0.14021158216134422,0.9516849516183491
1684180365400841400,1.08124169921875,0.28053045268862503,0.4040226936377359,0.46828174592752203
1684180365410882700,1.091283203125,0.7109794617586195,0.5486435888822331,0.2565441132261609
1684180365420924100,1.101324462890625,0.9868807792215665,0.274465084085176,-0.06305885301061734
1684180365430965600,1.111365966796875,0.8174924850532875,0.19073963151798573,-0.6007637975936134
1684180365441007000,1.121407470703125,1.0538430213805776,-0.018912792192956662,-0.3480176925366139
1684180365451048600,1.131448974609375,1.0626711845884762,-0.03745841986600984,-0.0482964514109328
1684180365461090000,1.141490478515625,0.3820438384150698,0.1868491171380784,0.054542541504904
1684180365471131300,1.15153173828125,-0.6026353836014249,0.11444711687957691,-0.031103134266686792
1684180365481172900,1.1615732421875,-0.5071840286208705,-0.10761499417703028,-0.01359891891889939
1684180365491214300,1.17161474609375,0.23909711838790737,-0.02078104021818374,0.0866889952969759
1684180365501255600,1.181656005859375,0.5653338432919803,0.018152236970784403,0.00029325491753509256
1684180365511297200,1.191697509765625,0.6015958787205526,-0.05658817287282801,-0.0008192062309431777
1684180365521338600,1.201739013671875,0.35809993748162705,-0.08690929415946783,-0.2932419777933939
1684180365531380100,1.211780517578125,0.30813932417017564,-0.035223484091324454,-0.3260593414301352
1684180365541421600,1.22182177734375,0.2128705979134684,0.0005569457439442649,-0.14035654065008488
1684180365551463100,1.231863525390625,-0.10566711425464381,0.22636842725210188,0.08894777313952248
1684180365561504400,1.24190478515625,-0.5618343352185889,0.4668712615994578,0.08435916888513331
1684180365571545800,1.2519462890625,-0.8588967324679598,0.437180519110023,0.016644000962675324
1684180365581587400,1.26198779296875,-0.677989959722242,0.3391971587686846,0.13303852084242382
1684180365591628600,1.272029052734375,-0.37651109691631807,0.35987138729948903,-0.09984016419092512
1684180365601670100,1.282070556640625,0.026259422186965097,0.15017414087498457,-0.12707567218731705
1684180365611711600,1.292112060546875,0.11552667611295024,-0.04157972335254903,-0.316341400090022
1684180365621753000,1.3021533203125,0.20201778405240667,-0.25252485271337627,-0.3869824409187712
1684180365631794400,1.31219482421875,0.061205863915458764,-0.29305934899403874,-0.4325809479536657
1684180365641836000,1.322236328125,-0.040634632138963095,-0.29268884676746215,-0.2883367539201183
1684180365651877300,1.332277587890625,0.06857395180063161,0.04448938376084572,0.16442203530916022
1684180365661918900,1.3423193359375,0.03497791294633941,0.41960525515713054,0.2602958679026313
1684180365671960200,1.352360595703125,-0.07390642171452404,0.7095875739870405,0.14964103691570516
1684180365682001800,1.36240234375,-0.1315736770556693,0.9385929108235656,0.028615951418895398
1684180365692043200,1.372443603515625,-0.1514344214382061,0.9204578399646233,-0.21961116773122044
1684180365702084600,1.38248486328125,-0.05317306508371192,0.9017825126517495,-0.3995113371076522
1684180365712126100,1.392526611328125,0.13107180597165385,0.8489427566580051,-0.4853110312357361
1684180365722167500,1.40256787109375,0.3184762002478576,0.3499937056458491,-0.34320306787163646
1684180365732209100,1.412609375,0.34763669969720185,-0.7212762831954048,0.11790609364415122
1684180365742250400,1.42265087890625,0.3631112576345871,-1.263043880330598,0.052047252752720506
1684180365752291800,1.432692138671875,0.39463567732004506,-0.35239887231482625,-0.6759715080458573
1684180365762333400,1.442733642578125,0.18055176734273512,1.351490259175437,-1.4555478095333738
1684180365772374600,1.452775146484375,-0.36464977265125664,0.7890024183783073,-0.6849675179277698
1684180365782416000,1.46281640625,-0.534242391583645,0.13708591470090645,0.331903934623626
1684180365792457600,1.472858154296875,-0.29976272588868735,0.12026786813630426,0.34426641462850804
1684180365802499000,1.4828994140625,0.023827075881503474,0.48055839552685814,0.16156911850743133
1684180365812540300,1.492940673828125,0.29916763294183685,0.5647711752492528,-0.05369329447873079
1684180365822581900,1.502982421875,0.45401287076627544,0.014410018957072904,-0.037248611285359896
1684180365832623300,1.513023681640625,0.42811465256130593,-0.6454997062988814,0.06772756577765944
1684180365842664900,1.523065185546875,0.37205815309459855,-0.988862037619274,-0.6361742017963873
1684180365852706200,1.533106689453125,0.2316455840745524,-0.862136363946074,-1.0313749314088005
1684180365862747800,1.543148193359375,-0.011987924663954144,-0.6970553396935216,-0.7298841477915556
1684180365872789200,1.553189453125,-0.17199802410879877,-0.26919078826496556,-0.38509750371927937
1684180365882830600,1.56323095703125,-0.1225427388076099,-0.0056810379268707025,-0.14351320263542572
1684180365892872100,1.5732724609375,-0.18251204497013146,0.06268024433949822,-0.09266376491454195
1684180365902913500,1.58331396484375,-0.21464538574853356,0.1378922462220907,-0.09000873563562037
1684180365912955100,1.59335546875,-0.20905840398211364,0.42170667660843825,-0.5680451392040531
1684180365922996400,1.603396728515625,-0.27084749936585867,0.5489540099250295,-0.9649310111374201
1684180365933037700,1.613438232421875,-0.49086284644486344,0.6485986709908705,-1.4274711607446704
1684180365943079300,1.623479736328125,-0.3531920910013961,0.5579042436150645,-1.426477432252664
1684180365953120600,1.63352099609375,-0.14645662904890078,0.5127582549457711,-1.4207744596957153
1684180365963162000,1.6435625,-0.002798259192363451,0.3561668395745938,-1.1717548370057889
1684180365973203600,1.65360400390625,0.17147821186034998,0.059314727876852116,-0.8992643355530926
1684180365983245000,1.663645263671875,0.5151747464180195,0.0058121680832278685,-0.44535398493508443
1684180365993286600,1.67368701171875,0.46981650586037543,0.06548547751606296,-0.26921319956889606
1684180366003327900,1.683728271484375,0.3348787127972203,0.2041974066315933,-0.09990310667432233
1684180366013369300,1.693769775390625,0.1627700031383493,0.5074739456265508,-0.0754795075017244
1684180366023410900,1.703811279296875,0.02959185856581795,0.7301230430145094,-0.41261243821555366
1684180366033452200,1.7138525390625,-0.2816656230583269,0.7333159446490699,-0.47906208032498737
1684180366043493800,1.723894287109375,-0.7494525908064633,0.6760725975417325,-0.3339953423705006
1684180366053535200,1.733935546875,-0.4046621321809916,0.7312417031015351,-0.18394660944685434
1684180366063576600,1.743976806640625,0.17599338291773248,0.21171474455200995,0.44741058336502265
1684180366073618100,1.7540185546875,-0.19099044796454542,-0.558223724284135,1.421615600648485
1684180366083659400,1.764059814453125,-0.5773419140774617,-0.9047307969674485,2.008010387428044
1684180366093701000,1.774101318359375,-0.44184327127804135,-0.8838615417971334,2.493479251924415
1684180366103742400,1.784142822265625,-0.1272146701351122,-0.44938278202959264,2.2791919709615263
1684180366113783600,1.79418408203125,0.03316128256522249,-0.09617710102923792,2.2202844619637037
1684180366123825300,1.804225830078125,-0.2016475202030431,0.5457048415277697,2.068602562122906
1684180366133866600,1.81426708984375,-0.6614704132789907,0.8195648193325229,0.6183657647021397
1684180366143908000,1.824308349609375,-0.8840045930369983,0.757698535895413,-0.6099271773609892
1684180366153949600,1.83435009765625,-0.8683943748738587,-0.09557533275204597,-1.1868982315887433
1684180366163991000,1.844391357421875,-0.40373301513562687,-0.8628616334136036,-1.2970037459876567
1684180366174032600,1.854432861328125,0.3906610012802895,-1.274344444202007,-0.9286518095864996
1684180366184073900,1.864474365234375,0.9936851858125122,-1.3114480972411586,-0.2480187414761496
1684180366194115200,1.874515625,1.2970476151518082,-1.2492089273216769,0.2990908622561731
1684180366204156800,1.88455712890625,0.9431970716572039,-0.783097744146923,0.27217388158128525
1684180366214198200,1.8945986328125,0.21070694919391433,-0.7198071478187005,0.2114052771451757
1684180366224239800,1.90464013671875,-0.5260525943342217,-0.3862671850741098,0.08998394000255125
1684180366234281100,1.914681640625,-1.105620265011623,-0.531116962422849,0.22342205049211072
1684180366244322600,1.924722900390625,-1.4895302057592534,0.02394914631923101,-0.035530567176758045
1684180366254364100,1.934764404296875,-1.5313271283340433,0.40465831749808706,-0.31617355347949394
1684180366264405400,1.944805908203125,-1.6198987961321267,-0.3279495237549597,0.01077747345944611
1684180366274447000,1.954847412109375,-1.0538237095704133,-1.6225910185241337,0.9612021446145326
1684180366284488400,1.964888671875,-0.3029294013562873,0.12729263294733179,0.1202015877892763
1684180366294529600,1.97493017578125,0.119782447915899,0.9669818877883136,-0.7566599846640855
1684180366304571300,1.9849716796875,-0.021522998808357074,0.8997721672368747,-0.9183893203770469
1684180366314612600,1.995012939453125,-0.38339042660328937,0.08269166940472085,-0.9219255446968695
1684180366324654000,2.005054443359375,-0.5090017319333642,-0.08605480210387913,-1.3200821875932864
1684180366334695600,2.015095947265625,-0.451960563633285,-0.00751924514736196,-1.4441347123151982
1684180366344736900,2.025137451171875,-0.4537582398890828,-0.3124470710834844,-1.567767143228578
1684180366354778600,2.035178955078125,-0.43688058861304774,-0.4864678382691804,-1.5648589134656052
1684180366364819900,2.04522021484375,-0.4082376958509701,-0.38206958769224825,-1.5233798026279906
1684180366374861200,2.05526171875,-0.7072641849533342,-0.017815113031871672,-1.2461729049952126
1684180366384902800,2.06530322265625,-0.7075936794502321,-0.4456901550713723,-0.9032578468200151
1684180366394944200,2.075344482421875,-0.5177516936155968,-0.7446875571860236,-0.7361693383401227
1684180366404985800,2.08538623046875,-0.4108281135411207,-0.6975855827189623,-0.3729906082744231
1684180366415027100,2.095427490234375,-0.5314958094680415,-0.10550594323744145,-0.0989909170896543
1684180366425068500,2.10546875,-0.7582330703661474,-0.10759782786627504,0.09929418555655078
1684180366435110100,2.115510498046875,-0.5438814164600333,0.5343050956275351,0.14097833643421842
1684180366445151400,2.1255517578125,-0.5072925090900924,-0.003283500543483755,-0.09957313539884656
1684180366455193000,2.135593505859375,-0.6133236884671825,-0.6705551149022548,-0.06485509866559279
1684180366465234400,2.145634765625,-0.07246971138620406,-1.2813210487728803,0.16947507867739486
1684180366475276000,2.15567626953125,0.7688174248722238,-0.8704547881541881,0.23540639864504173
1684180366485317300,2.1657177734375,1.3286329506961574,-0.5298142432076515,0.29080009470179713
1684180366495358600,2.175759033203125,1.2107146978356753,-0.6324224473094812,0.33885765080573255
1684180366505400200,2.185800537109375,0.7723381519603728,-1.0176219940478732,0.17183351517882953
1684180366515441600,2.195842041015625,0.03266763675996834,-1.0369324684933026,0.08625125899144258
1684180366525482900,2.20588330078125,-0.8978698254597055,-0.8659272193052293,-0.03477954854411866
1684180366535524600,2.215925048828125,-1.3812372683084766,-0.7389187812354422,-0.1886782646950589
1684180366545565900,2.22596630859375,-1.4273269176238224,-1.1300144193850186,-0.39145660413249467
1684180366555607200,2.236007568359375,-1.2101941107641174,-1.5957932473173115,-0.6548542976988762
1684180366565648800,2.24604931640625,-0.3932485580764225,-1.1508083342185822,-0.8890299797420947
1684180366575690200,2.256090576171875,0.2916073800872483,-0.583394050412721,-0.9587216378201328
1684180366585731800,2.266132080078125,0.6165301798397199,-0.5418429374563662,-0.9617748259482957
1684180366595773100,2.276173583984375,0.6116588114596555,-0.375627517790914,-1.346739292168465
1684180366605814600,2.286215087890625,0.5573806763133508,0.015727996709395693,-1.693886757041504
1684180366615856000,2.29625634765625,0.34090590486210814,-0.20778322220642345,-1.737804412851691
1684180366625897400,2.3062978515625,0.45015501963463594,0.7148628234616721,-1.6204786301757745
1684180366635939000,2.31633935546875,0.44369101505015507,1.1530957221952167,-1.2124505043190215
1684180366645980300,2.326380615234375,0.059468746163371125,0.7651042936793677,-0.763530254226243
1684180366656021900,2.33642236328125,-0.14306139937437948,0.5105948449436923,-0.26633691772353724
1684180366666063300,2.346463623046875,-0.2657449245193582,0.19997167587949094,0.07890796671123347
1684180366676104600,2.356505126953125,-0.4009304047119869,-0.18975830073297764,0.4209842681790153
1684180366686146200,2.366546630859375,-0.6766853332048168,-0.5501346588025049,0.5326676368660763
1684180366696187600,2.376587890625,-0.9555687904384371,-0.6199116707732684,0.6007885934380183
1684180366706228900,2.38662939453125,-0.6235074996155076,1.4104738235044885,-0.3403167725844521
1684180366716270600,2.3966708984375,-0.41092205053429876,2.081183433634553,-0.15981197360677518
1684180366726311900,2.406712158203125,-1.0205852986037922,0.7393226622614528,0.013365268841384816
1684180366736353500,2.41675390625,-1.3725922106958761,-0.5740885734488612,0.09944438944413339
1684180366746394800,2.426795166015625,-1.7679107189433276,-1.4963865281568107,0.4581923485430269
1684180366756436100,2.43683642578125,-1.891783714277455,-1.5408043860147127,0.9505033491764671
1684180366766477700,2.446878173828125,-1.5804085731073858,-0.9627170563364623,1.4652042387956312
1684180366776519100,2.45691943359375,-1.217517137594645,-0.0745506286263967,1.669492721530601
1684180366786560600,2.466961181640625,-1.0847401618709165,0.10968542115346906,1.485659599288483
1684180366796602000,2.47700244140625,-1.053571224169029,-0.17943286896973554,1.145464420263579
1684180366806643400,2.487043701171875,-0.9932587147057347,-0.1723308562718291,0.7754058838469567
1684180366816685000,2.49708544921875,-0.8236751557304928,0.15395641332927512,0.1789793968132101
1684180366826726300,2.507126708984375,-0.8123605251949957,0.31451034561076624,-0.26182222371352865
1684180366836767900,2.517168212890625,-0.9105594157150491,0.37665033339074366,-0.8154091836214645
1684180366846809300,2.527209716796875,-0.985735178104095,0.3282828331444751,-1.2398815155100107
1684180366856850600,2.5372509765625,-0.9087083339143179,0.427139759057479,-1.4603633880922777
1684180366866892200,2.547292724609375,-0.7364387512157111,0.2649712561259563,-1.2150492669122637
1684180366876933600,2.557333984375,-0.07746243490764622,-0.4758305549973636,-0.943868160166786
1684180366886975200,2.56737548828125,-0.5625462530853366,-1.0787696838491987,0.4732999801220533
1684180366897016600,2.5774169921875,-0.1795957088746431,-1.482151031476011,1.7882766722943515
1684180366907057800,2.587458251953125,1.0354568958429375,-1.516914367617627,3.2183394430788255
1684180366917099400,2.597499755859375,1.9343984125757583,1.1066026687702348,2.487989902341416
1684180366927140800,2.607541259765625,0.9371142386460776,1.0718846320456896,1.0405540467089578
1684180366937182100,2.61758251953125,-0.1315169334863313,-0.002113342358602549,0.017554283136620698
1684180366947223700,2.6276240234375,-0.3247451782684457,-0.2775106430350527,-0.4985446929180932
1684180366957265100,2.63766552734375,-0.010060310388767833,0.05563354481645259,-0.9408407210469548
1684180366967306600,2.64770703125,0.17723727226791106,0.17142343522299747,-1.052903652126836
1684180366977348000,2.65774853515625,0.30200505254464177,0.08388519289766413,-0.964361190767677
1684180366987389400,2.667789794921875,0.4423427581843707,-0.15908813471862704,-0.9113497734695416
1684180366997431000,2.677831298828125,0.33298516280062307,0.4929928780729977,-0.6037962436294111
1684180367007472300,2.687872802734375,0.19106507303767342,0.03925609575725321,-0.7857534885248529
1684180367017513900,2.697914306640625,0.18682646743886464,-0.33744430534069914,-0.6886060236796608
1684180367027555200,2.70795556640625,0.5014903546621997,-0.0181455611064079,-0.5494801998684441
1684180367037596600,2.7179970703125,0.5687379836657664,0.1721706389761561,-0.38598251339654843
1684180367047638200,2.72803857421875,0.5042378902722254,0.23011493677939665,-0.10963678366454253
1684180367057679600,2.738079833984375,0.46867823610258597,0.19021987910613142,-0.07941198338669722
1684180367067721100,2.74812158203125,0.28922200199806664,0.06006526942915598,-0.24821043025870218
1684180367077762600,2.758162841796875,0.2137570381124274,0.6273622511552751,-0.5075800418751777
1684180367087803800,2.768204345703125,0.18566393848276885,0.7739005087252475,-0.858224153519463
1684180367097845400,2.778245849609375,-0.2020053863234739,1.0793929100926845,-1.2332549095732157
1684180367107886800,2.788287109375,-0.7146465779954456,0.8346004485156161,-1.2143158912940502
1684180367117928400,2.798328857421875,-0.776812553460073,0.5428762436249696,-0.8418366908063416
1684180367127969600,2.8083701171875,-0.41103219982160805,0.029174804768673217,-0.21841526021090293
1684180367138011100,2.818411376953125,0.054841518375519614,-0.16654491416057055,0.3886299133441368
1684180367148052600,2.828453125,0.13084125527360538,-0.3464889525539002,0.6645379066214455
1684180367158094000,2.838494384765625,0.12260270111105075,-0.4088344573921932,0.7480211257913806
1684180367168135300,2.84853564453125,0.10246872895821321,-0.4785394667989949,0.9385418890271446
1684180367178176900,2.858577392578125,0.2170739172124505,0.47711563107713906,0.3138084410944295
1684180367188218300,2.86861865234375,-0.12546586974309404,0.7842659949920305,-0.2920231818028552
1684180367198259900,2.878660400390625,-0.40843558310650635,0.6928210259065054,-0.461033105710742
1684180367208301200,2.88870166015625,-0.6100988388345542,0.5642299652089827,-0.6961350441694475
1684180367218342600,2.898742919921875,-0.41056156153147555,1.630166053892871,-1.174811363199074
1684180367228384200,2.90878466796875,-1.0074226857482822,0.6021890640029703,-0.6654448509677608
1684180367238425600,2.918825927734375,-1.0123052597318307,0.3379583358214129,-0.2637040616171486
1684180367248467100,2.928867431640625,-0.8290586470656628,0.33059692385129913,0.06590795517580343
1684180367258508500,2.938908935546875,-0.8496003151255931,0.2519559859511657,0.4254963398404461
1684180367268550100,2.948950439453125,-1.0195558072665332,-0.15072059629079004,0.7107350826474967
1684180367278591400,2.95899169921875,-0.8625402450191417,-0.08565998083773892,0.8589484691298238
1684180367288632800,2.969033203125,-0.676452636685312,0.3682699204357494,0.5968546867766924
1684180367298674400,2.97907470703125,-0.5573687553667825,0.6456527709963675,0.3383789060788417
1684180367308715600,2.9891162109375,-0.503480911345209,1.0113682747038044,-0.08492326742582826
1684180367318757300,2.99915771484375,-0.5567429064465697,1.3042488098848548,-0.3778178692210521
1684180367328798600,3.009198974609375,-0.5836913586979946,2.033519744779519,-0.6876170634366611
1684180367338840000,3.019240478515625,-0.4670975209634805,2.1537923812807858,-0.4102375507532139
1684180367348881600,3.029281982421875,-0.7063956262344346,1.666471481367219,-0.16157054901740686
1684180367358922900,3.0393232421875,-0.8870680331179261,0.9412174226655653,0.041008234165982864
1684180367368964300,3.04936474609375,-0.9499671459350948,0.18890285490136383,0.1637380122462966
1684180367379005900,3.05940625,-1.0122942924349099,-0.33213424668207775,0.21488833431353466
1684180367389047200,3.069447509765625,-1.1194658279857093,-0.6609086991336285,-0.033010721305044656
1684180367399088800,3.0794892578125,-1.1730647087242676,-0.6890506743818114,-0.39465999586142014
1684180367409130200,3.089530517578125,-1.1486752034170995,-0.528818130381626,-0.7794277668538558
1684180367419171600,3.099572021484375,-1.106045246190311,-0.3543100357284768,-0.8232436179468419
1684180367429213100,3.109613525390625,-1.3190283774619436,-0.7054367067241886,-0.3624317646094811
1684180367439254400,3.11965478515625,-1.8623909950334243,-1.2747154235007088,0.16683483132447588
1684180367449296000,3.129696533203125,-2.608721494750646,-1.910308837903128,0.6524562835010554
1684180367459337400,3.13973779296875,-3.063520908315829,-2.1990871428459275,1.0379424094511496
1684180367469378700,3.149779052734375,-2.8651561735784585,-2.1964387893346067,1.4220647811436047
1684180367479420300,3.15982080078125,-2.403816461629822,-2.065332412712515,1.9682800770005138
1684180367489461600,3.169862060546875,-1.9347324371986472,-1.8201131821966994,2.6111209393503443
1684180367499503300,3.179903564453125,-1.681724548247441,-1.3033885955033275,3.1175560950443213
1684180367509544600,3.189945068359375,-1.5540835856329935,-0.6505174638423833,3.1134872437178136
1684180367519586000,3.199986328125,-1.2962944508329453,0.12298393237538816,2.1962828634970806
1684180367529627600,3.210028076171875,-0.7734680177340424,0.6508417129955455,1.0776550769784747
1684180367539668900,3.2200693359375,0.10256528847551188,1.0994434355586697,0.41973066332915576
1684180367549710600,3.23011083984375,1.0341067315153398,1.307990074042171,0.0015037060061429094
1684180367559751900,3.24015234375,1.8840243815658253,1.1730647087937942,-0.4170508383570773
1684180367569793200,3.250193603515625,2.6141059399568563,1.0374488831023974,-0.6609194278098052
1684180367579834800,3.260235107421875,3.0682423114721527,0.8347120286253065,-0.8986220360425073
1684180367589876100,3.270276611328125,3.265387535189863,0.6546983718982753,-1.0905447006323454
1684180367599917700,3.280318115234375,3.332920551327191,0.5229768752268874,-1.145300984309837
1684180367609959100,3.290359375,3.2784748076945003,0.582645416353298,-0.8719668388032202
1684180367620000400,3.30040087890625,2.9395084381826817,0.5807361602315839,-0.5320410728348328
1684180367630042000,3.3104423828125,2.4921598433705703,0.6052808761852787,-0.2381772994057822
1684180367640083400,3.32048388671875,1.8664424420950763,0.5440044404232312,0.008962392730265877
1684180367650124600,3.330525146484375,1.1446276901212133,0.34084224702978705,0.10919022544024813
1684180367660166300,3.340566650390625,0.3337482214387199,0.042572021483498965,0.1092569826860712
1684180367670207600,3.350608154296875,-0.5820816756564416,-0.24465847031330984,0.01180386541210263
1684180367680249300,3.360649658203125,-1.387902021396978,-0.3687019348613838,-0.2831759452659037
1684180367690290600,3.37069091796875,-1.8818532227379035,-0.21200370784953756,-0.7555983067334828
1684180367700332000,3.380732421875,-1.7065839767973465,0.01981353775931299,-1.0683816671477222
1684180367710373600,3.39077392578125,-0.9270586966572727,0.15052223207618345,-0.8116054535528454
1684180367720414900,3.400815185546875,-0.29289174082997776,0.07978057860225392,-0.6223273275821067
1684180367730456600,3.41085693359375,0.1423124075753572,-0.07421779624545892,-0.5323536394832383
1684180367740497800,3.420898193359375,0.2543851136171112,-0.35609054553389774,-0.515390872922829
1684180367750539400,3.43093994140625,0.03377056105511824,-0.5584001540521818,-0.46559953701466306
1684180367760580800,3.440981201171875,-0.3279917239484646,-0.6467571259543791,-0.32725214966644484
1684180367770622100,3.4510224609375,-0.7146646976823435,-0.5841455458456888,-0.25369739545635656
1684180367780663600,3.461064208984375,-1.090317249282685,-0.347623825212128,-0.10123777392522781
1684180367790705100,3.47110546875,-1.2691563367811018,-0.1548528671204842,0.012599229828267814
1684180367800746600,3.48114697265625,-1.1507749558552796,-0.08141040809190442,0.08007645591310436
1684180367810788000,3.4911884765625,-0.7930051089918339,-0.2146692276487005,0.03575491907570501
1684180367820829400,3.501229736328125,-0.10777321471392898,-0.08986759192210345,-0.14079332363614908
1684180367830871000,3.511271240234375,0.5497245788689985,0.5634288789231909,-0.40101957329648613
1684180367840912300,3.521312744140625,0.8330635429454519,0.5692138672477758,-0.13120961174662413
1684180367850953900,3.531354248046875,0.9215227364759712,0.5430297851338104,0.2570085524723232
1684180367860995200,3.541395751953125,1.5187264681275543,0.6978874205764279,0.18894124034215468
1684180367871036600,3.55143701171875,1.5128575564434947,-0.08133029934021968,0.3259925843153618
1684180367881078200,3.561478515625,1.89514088637696,-0.3581209184122197,0.4853425025857496
1684180367891119600,3.57152001953125,2.142012357765199,-0.7997941970937117,0.628554821000917
1684180367901161100,3.5815615234375,2.3582882880693865,-0.9023456573274005,0.830830097219854
1684180367911202600,3.591602783203125,2.5372579097434143,-0.5717458726700213,1.04914212232324
1684180367921243800,3.601644287109375,2.3969404697356027,-0.12657642363509797,0.8997244834853548
1684180367931285400,3.611685791015625,2.1717300415159233,0.029909133918821,0.7227239609268828
1684180367941326800,3.62172705078125,1.9450641870639644,-0.04643630965963556,0.5430712700043274
1684180367951368100,3.6317685546875,1.6361899376640447,-0.060801506043307,0.3271474838211053
1684180367961409600,3.64181005859375,1.4292805195008729,0.16381740580595897,0.16771626467194328
1684180367971451100,3.6518515625,1.2486995459078547,0.7727289200439387,0.20225477225069804
1684180367981492600,3.66189306640625,0.8074483872018462,0.5105085373538018,0.5107922553066984
1684180367991534000,3.671934326171875,0.4070569872851713,0.32643222808882205,0.5424191950676186
1684180368001575300,3.681975830078125,0.03513365991297561,0.014808654679030161,0.29717779159642804
1684180368011616900,3.692017333984375,-0.24509209390972903,-0.1155004501587446,-0.12468409538330201
1684180368021658300,3.70205859375,-0.3945252297799859,-0.2812795640439818,-0.41619706140445517
1684180368031699900,3.712100341796875,-0.403633296533609,-0.41265296933843115,-0.5212917329217859
1684180368041741200,3.7221416015625,-0.2793225944683817,-0.4235916139615808,-0.5452387333643123
1684180368051782600,3.732182861328125,-0.06596858812655754,-0.3026304244700662,-0.39562034613443947
1684180368061824200,3.742224609375,0.193912103884965,0.057489395197313,-0.2557754515481428
1684180368071865600,3.752265869140625,0.41315412517877326,0.4510021209161241,-0.09829354295225888
1684180368081907100,3.7623076171875,0.5118598939252369,0.4382200241870242,0.16900873184275025
1684180368091948500,3.772348876953125,0.48764097688142166,0.2791604995592654,0.38567328443803817
1684180368101990100,3.782390380859375,0.4292984306797661,0.2503080369942612,0.293004512661666
1684180368112031400,3.792431884765625,0.3564233780867248,0.12978458411124277,0.2493345739055531
1684180368122072800,3.80247314453125,0.31069695937704467,0.09322547909964675,0.27989530557204223
1684180368132114400,3.8125146484375,0.1924590618078612,0.09114837647075026,0.5000259875198579
1684180368142155600,3.82255615234375,-0.008942559545067758,0.21923160533895858,0.7478761673137219
1684180368152197300,3.83259765625,-0.18636235600118428,0.28098773957481643,0.9338061808933392
1684180368162238600,3.84263916015625,-0.2441998421532914,0.304553031896282,0.955171585114076
1684180368172280000,3.852680419921875,-0.16867773229417032,0.29432296744303094,0.8130855560261966
1684180368182321600,3.862721923828125,-0.02841652921980931,0.28145408638266906,0.5321111677893382
1684180368192362900,3.872763427734375,0.13000047204295645,0.3401556015455548,0.22799372665022424
1684180368202404600,3.882804931640625,0.12511438140096826,0.12079429624942359,0.00689673406957724
1684180368212445900,3.89284619140625,0.17207184428778852,-0.17118930816431963,-0.3494155405753621
1684180368222487200,3.9028876953125,0.4308380185603671,-0.21161460880081093,-0.6282882691087744
1684180368232528800,3.91292919921875,0.5388765931511234,-0.29638004314757194,-0.663830280321011
1684180368242570200,3.922970458984375,0.6654311417804363,-0.29652690879284715,-0.5617587565563054
1684180368252611600,3.933011962890625,0.7381363512160888,-0.14587688457501588,-0.36452579491014786
1684180368262653100,3.943053466796875,0.6832242013427058,0.044990539384877265,-0.11884951598535858
1684180368272694400,3.9530947265625,0.5488654970453676,0.28049373642319037,0.1386301515624511
1684180368282736000,3.963136474609375,0.37874895333392977,0.47439575185861427,0.3812718390597242
1684180368292777400,3.973177734375,0.25824567675401083,0.5403633116133918,0.602687359028027
1684180368302818700,3.98321923828125,0.20436185615521416,0.49495601652805743,0.710208415810129
1684180368312860300,3.9932607421875,0.20337927339042297,0.33583354949568167,0.7882564066915227
1684180368322901600,4.003302001953125,0.016948223121114943,-0.08445930492000427,0.8088669777964788
1684180368332943300,4.01334375,0.17450243227992746,-0.0027456282030162505,0.8356275558885199
1684180368342984600,4.023385009765625,0.5785432458363029,0.16235446924873678,0.7389869688602563
1684180368353026000,4.03342626953125,0.6798998712754065,-0.04466247561570824,0.5426385402487063
1684180368363067600,4.043468017578125,0.772566854901053,-0.11101150517034286,0.3337171077649454
1684180368373108900,4.05350927734375,0.8992753623397277,-0.020279884404300903,0.22093772883108248
1684180368383150600,4.063551025390625,0.9476225972024547,0.07159137728761009,0.17546296119844745
1684180368393191900,4.07359228515625,0.8521644472622314,0.12383556366895086,0.06817579277396023
1684180368403233200,4.083633544921875,0.7171880007505186,0.08632850629495943,0.03767418866534765
1684180368413274800,4.09367529296875,0.5809630155617702,0.07354354859401287,0.04185581201846075
1684180368423316100,4.103716552734375,0.44260054817439937,0.06131935133073169,0.017200946804846785
1684180368433357700,4.113758056640625,0.27610582108889825,0.02100563052784352,-0.0900025366277267
1684180368443399100,4.123799560546875,0.13733285665290992,-0.05901050575871206,-0.1564233302869661
1684180368453440600,4.133841064453125,0.06707715990178545,-0.10626220694698925,-0.23909234988501007
1684180368463482000,4.14388232421875,0.023903966007622374,-0.23004341132977607,-0.32573842997565383
1684180368473523400,4.153923828125,0.1492774485549466,-0.1676769256228949,-0.330725908183173
1684180368483565000,4.16396533203125,0.24803948408614387,-0.17110157022701528,-0.3988006115184837
1684180368493606300,4.1740068359375,0.2918385266496056,-0.2575054167961336,-0.5026395320193844
1684180368503647900,4.18404833984375,0.38582408415855424,-0.23148345958946034,-0.5671035052866242
1684180368513689300,4.194089599609375,0.46603548523748195,-0.13450241089623266,-0.6010811328830775
1684180368523730600,4.204131103515625,0.5528334378819169,0.13556671130105968,-0.5795283319074773
1684180368533772200,4.214172607421875,0.652658462423741,0.35365390772744293,-0.519811868603378
1684180368543813600,4.2242138671875,0.7710419894283256,0.45805168157633863,-0.4084872006040263
1684180368553855200,4.234255615234375,0.8967059255311538,0.48260402665391244,-0.18382644667390616
1684180368563896600,4.244296875,1.0083963870471033,0.3843889235459356,-0.011973619513243891
1684180368573937800,4.254338134765625,0.9100111126398569,0.18991756429437895,0.1643857955653965
1684180368583979400,4.2643798828125,0.7597036360083982,-0.09559917452301789,0.19701099393630792
1684180368594020800,4.274421142578125,0.6089533568220072,-0.318924903967932,0.2441985608786234
1684180368604062400,4.284462890625,0.4450874328296025,-0.45375633236912927,0.2607393263139964
1684180368614103700,4.294504150390625,0.2919733525562147,-0.44517707814643614,0.2537603377985156
1684180368624145100,4.30454541015625,0.1449464561066536,-0.46273231494002653,0.16643977163660342
1684180368634186600,4.314587158203125,-0.00564908981774991,-0.43682003024163846,0.11601924890775413
1684180368644228000,4.32462841796875,-0.11244511597090791,-0.25768947596026104,0.13948059096569884
1684180368654269600,4.334669921875,-0.22450643760097627,-0.06437587733004338,0.14676475509055956
1684180368664311000,4.34471142578125,-0.25394976138207465,0.035450935383869384,0.07514905928043181
1684180368674352300,4.354752685546875,-0.22660881279522474,0.08487033842081732,0.027760744207128013
1684180368684393900,4.364794189453125,-0.19226205360981646,0.052808761669563796,0.021526217426463143
1684180368694435200,4.374835693359375,-0.18564248086544607,0.013285636851752557,0.06317889706325645
1684180368704476800,4.384877197265625,-0.16198724497779615,0.018648147719827795,0.10412561888975864
1684180368714518200,4.394918701171875,-0.12168312056062185,-0.007723808225639278,0.15364205837291378
1684180368724559600,4.4049599609375,-0.034273981997198506,0.07781505591798181,0.005612492563932239
1684180368734601100,4.41500146484375,-0.06406748296309604,0.01761341086705327,-0.10785877705131372
1684180368744642600,4.42504296875,-0.03960835931066187,-0.14499187485879486,0.20857822889356997
1684180368754684100,4.43508447265625,0.033847808680428214,-0.19517230997669868,0.3084120750401152
1684180368764725400,4.445125732421875,0.11515414720317362,-0.10924148556005712,0.23112475858146878
1684180368774766800,4.455167236328125,0.1044580937427764,0.000790595997826549,0.11254858976011255
1684180368784808400,4.465208740234375,0.1211278438793898,-0.0035524367213398654,0.17553639417059977
1684180368794849600,4.47525,0.20567119120207783,0.07947158820465494,0.2880498169333479
1684180368804891300,4.485291748046875,0.2858182191965661,0.20815372469492804,0.3659557105794267
1684180368814932600,4.4953330078125,0.20047426214658104,0.17234230028439484,0.4403831957992159
1684180368824974000,4.50537451171875,0.2676718234980659,0.09020519247231217,0.42476391796481877
1684180368835015600,4.515416015625,0.34244954578464254,-0.1669406890468649,0.35669219503401256
1684180368845056900,4.525457275390625,0.3491992949823487,-0.18872833237804035,0.29452383506168267
1684180368855098600,4.5354990234375,0.3922111986493355,-0.026189804062784868,0.3277604580620683
1684180368865139900,4.545540283203125,0.38204622276413674,0.22075748443827273,0.32802164558605235
1684180368875181200,4.55558154296875,0.3537906408016484,0.39048194881171844,0.3674303293652442
1684180368885222800,4.565623291015625,0.33287227160085775,0.49624443056681733,0.3631100655295374
1684180368895264200,4.57566455078125,0.2895524500322205,0.4027624128919226,0.4198970793439284
1684180368905305800,4.5857060546875,0.32426673173266574,0.26162815102633313,0.440707683509327
1684180368915347100,4.59574755859375,0.3608005045321568,0.17465209961995642,0.47788608073580596
1684180368925388500,4.605788818359375,0.4042153954122648,0.23952865614661245,0.45771741853743014
1684180368935430100,4.61583056640625,0.4087615608343597,0.291277885470933,0.4451045989404549
1684180368945471400,4.625871826171875,0.39216381307071846,0.15387630479331296,0.38479721557881214
1684180368955513000,4.635913330078125,0.37877649063375984,0.0545129774670461,0.32418358322675744
1684180368965554400,4.645954833984375,0.431563198492244,-0.0006418228120937768,0.34229648119014555
1684180368975596000,4.655996337890625,0.41124600181064497,-0.15120220182112434,0.2869176865416825
1684180368985637300,4.66603759765625,0.3579186796717126,-0.21397495283360543,0.1699777842278391
1684180368995678600,4.6760791015625,0.29191529762743906,-0.15275955200314364,0.2181583643513678
1684180369005720200,4.68612060546875,0.27761274569861794,-0.010131835831066494,0.1949623823363691
1684180369015761600,4.696161865234375,0.20410376786563592,0.42605113987071336,0.3865176439167912
1684180369025803200,4.70620361328125,0.11780577904468902,0.5078363419889761,0.4144845008886038
1684180369035844600,4.716244873046875,0.0588064790309674,0.2862157822325446,0.37780332551172935
1684180369045885900,4.726286376953125,0.045843184000962066,0.5057582854986226,0.3816425800727808
1684180369055927500,4.736327880859375,-0.03259253508584571,0.4762496946711785,0.5162993670045234
1684180369065968800,4.746369140625,-0.10201710468970082,0.5054740905151945,0.5224318504542176
1684180369076010400,4.756410888671875,-0.12411338092250927,0.20203876489899777,0.5453021526457621
1684180369086051800,4.7664521484375,-0.07604682448142966,0.07299613956258269,0.5732847452211826
1684180369096093100,4.776493408203125,-0.0375761985646904,0.5739727021640757,0.503617167430712
1684180369106134600,4.78653515625,-0.07839953901280321,0.5477285384156687,0.29254209995717567
1684180369116176000,4.796576416015625,-0.17685705417944683,0.12594318394803578,0.015017270990878703
1684180369126217600,4.8066181640625,-0.23349648724185385,-0.06027317057063575,-0.1320102214531275
1684180369136259000,4.816659423828125,-0.2632778584389945,0.2110347747532023,-0.15370416642490042
1684180369146300300,4.82670068359375,-0.3221633732911508,0.05651187895320975,-0.2525315284485718
1684180369156341900,4.836742431640625,-0.3083593248192335,-0.16513347620019583,-0.3975970745895434
1684180369166383300,4.84678369140625,-0.28391027446752465,-0.2921962736190414,-0.5947620868294583
1684180369176424900,4.8568251953125,-0.23304387938239898,-0.36837577819870937,-0.742338120935882
1684180369186466200,4.86686669921875,-0.17584338781923892,-0.425070762672161,-0.8588474393091433
1684180369196507600,4.876907958984375,-0.09456837178714676,-0.33556079876493355,-0.937126755713684
1684180369206549200,4.886949462890625,-0.021466135927072527,-0.20140266421217112,-1.0061211585383765
1684180369216590600,4.896990966796875,0.025890529149567458,0.19261264804046446,-0.8990198970129054
1684180369226632100,4.907032470703125,0.08689683682461159,0.5751314164844108,-0.5820321442507438
1684180369236673500,4.917073974609375,0.11124420153695107,0.6776256562239844,-0.36220335956732663
1684180369246714800,4.927115234375,0.06116425993211486,0.4708528518999585,-0.1378536223334115
1684180369256756400,4.93715673828125,0.01249954105440433,0.12754440293646535,0.05889332283910018
1684180369266797700,4.9471982421875,-0.10293298968830712,-0.15362453451676497,0.1923564671172154
1684180369276839300,4.95723974609375,-0.21744275095227356,-0.28674507143799294,0.28195703045571197
1684180369286880600,4.967281005859375,-0.3740722238903438,-0.35078811654357334,0.22907364371572278
1684180369296922000,4.977322509765625,-0.575224518718715,-0.22399806986142815,0.20480227474042284
1684180369306963600,4.987364013671875,-0.7921220064811554,-0.01670646667629622,0.11601603012105746
1684180369317005000,4.9974052734375,-1.0017371178329482,-0.15654087074226491,0.15896987909685942
1684180369327046600,5.007447021484375,-1.2210227250165815,-0.45621490477376964,0.14115941531352383
1684180369337087900,5.01748828125,-1.3622952699872364,-0.707528114366271,0.17119538795038197
1684180369347129300,5.02752978515625,-1.4512788056626655,-0.8271818161428666,0.1604151727181947
1684180369357170900,5.0375712890625,-1.5459970235862979,0.3708400725782972,0.21532273280404002
1684180369367212200,5.047612548828125,-1.513654828113108,0.7405748367350239,0.3848618269522236
1684180369377253800,5.057654296875,-1.345763444939738,0.2528944015560122,0.42526149750030257
1684180369387295200,5.067695556640625,-1.174079179737368,-0.8625564575938709,0.1439423562265612
1684180369397336800,5.077737060546875,-0.9699217081595072,-1.7628307343236698,-0.21265995498505724
1684180369407378100,5.087778564453125,-0.715856730859053,-2.1807661055777507,-0.34906291966135494
1684180369417419400,5.09781982421875,-0.49590349202921136,-2.108332634081997,-0.3109983800247371
1684180369427461000,5.107861328125,-0.3963879941095146,-1.547299385196545,-0.19070017336346612
1684180369437502400,5.11790283203125,-0.3971078395444996,-0.9363203048823866,-0.10135680436707005
1684180369447543600,5.127944091796875,-0.40302276615314253,-0.4834747314214684,0.01061427595874023
1684180369457585300,5.13798583984375,-0.40296053895174755,-0.32684993756788994,0.03778481498820496
1684180369467626600,5.148027099609375,-0.30991780743547837,-0.37711238866570596,0.04609358319001892
1684180369477668300,5.158068603515625,-0.11592483516417491,-0.5044279098562331,0.047373950469828084
1684180369487709600,5.168110107421875,0.06368649006096878,-0.7202453613340074,0.015677571127141975
1684180369497751200,5.178151611328125,0.23652827730275594,-0.7090091706422895,-0.016017973421893476
1684180369507792600,5.18819287109375,0.4718592166774735,-0.3661308289088221,-0.03218847517159853
1684180369517833900,5.198234375,0.7364593147912206,-0.07451724990783097,-0.0073289274377401365
1684180369527875600,5.20827587890625,0.8416463730900415,0.05097770683095187,0.1867602468502713
1684180369537916800,5.218317138671875,0.8480959533821988,0.1320447922128436,0.3869124053839667
1684180369547958400,5.22835888671875,1.0333619117514836,0.1830501556641839,0.4721527694425582
1684180369557999800,5.238400146484375,1.4701949357645827,0.183259010296489,0.41189569233822404
1684180369568041100,5.248441650390625,1.9721317291340688,0.2868041990455928,0.19654244183637173
1684180369578082700,5.258483154296875,2.298967838214874,0.5325965881411711,0.04111057510770483
1684180369588124100,5.2685244140625,2.4183030128836918,0.9634494781310727,0.17212200162075036
1684180369598165600,5.278566162109375,2.4522643088120866,1.1704139708783199,0.1716693639161659
1684180369608207000,5.288607421875,2.423849105644598,1.1418876649073588,0.12909042830452283
1684180369618248400,5.298648681640625,2.1107995508683857,0.9540414809794471,-0.08141744137753659
1684180369628290000,5.3086904296875,1.689347505528827,0.6852445604078847,-0.6143944263364888
1684180369638331300,5.318731689453125,1.4690105915331821,0.4453048707327599,-1.0004518031810297
1684180369648372900,5.328773193359375,1.2521127462329202,0.3201313018882256,-1.2604589461841147
1684180369658414300,5.338814697265625,0.9946048259026633,0.11621475212418743,-1.34013485914387
1684180369668455600,5.34885595703125,0.5658764840486683,-0.022786140426432788,-1.1384840010361874
1684180369678497200,5.358897705078125,-0.059754729264165564,-0.10927200324502342,-0.8729757070312995
1684180369688538600,5.36893896484375,-0.6602020263403536,-0.24887180335296114,-0.7066335676411495
1684180369698580100,5.37898046875,-1.0255962611449507,-0.36045074458324416,-0.5974185467424163
1684180369708621600,5.38902197265625,-1.07238793387907,-0.41733837126745243,-0.6829304694883546
1684180369718663100,5.3990634765625,-0.9075419902058364,-0.4284620285260322,-0.8189817666761122
1684180369728704400,5.409104736328125,-0.7199729681131497,-0.3887023925324164,-0.9648910165928792
1684180369738745800,5.419146240234375,-0.5692499877035894,-0.29095363615787323,-1.1012883186780844
1684180369748787400,5.429187744140625,-0.589936375672574,-0.31008529672015883,-1.166859388407058
1684180369758828600,5.43922900390625,-0.5910141468491483,-0.28639030462313797,-1.2942547797069157
1684180369768870300,5.449270751953125,-0.5520534516118306,-0.16083431255883784,-1.3938088417013292
1684180369778911600,5.45931201171875,-0.4951627254924328,0.006115913363378707,-1.386982321670053
1684180369788953000,5.469353515625,-0.45545530329735023,0.16927719128355076,-1.4266234637802866
1684180369798994600,5.47939501953125,-0.41170835481046447,0.07877635962742795,-1.599523544283861
1684180369809036000,5.489436279296875,-0.3856819868675316,0.02950477602534028,-1.564563631986244
1684180369819077600,5.49947802734375,-0.24224126340814123,0.1144123077757165,-1.4316530227774227
1684180369829118900,5.509519287109375,-0.013071179426646503,-0.0031814573774701506,-1.5223833321119618
1684180369839160200,5.519560546875,0.1309473514563859,-0.22445583330686442,-1.4702932835100666
1684180369849201800,5.529602294921875,0.4139301776720437,-0.2529993056321579,-1.1068007945772325
1684180369859243200,5.5396435546875,0.6154724360682905,0.03219413754144579,-0.6899574994760638
1684180369869284800,5.549685302734375,0.6666716337368378,0.16696929922495282,-0.3443862198605206
1684180369879326100,5.5597265625,0.6664528846311494,0.13283348083238877,-0.12823057165212437
1684180369889367600,5.569767822265625,0.5246022938946051,0.12367725383171059,0.13592290881798447
1684180369899409100,5.5798095703125,0.3751000166458176,0.09381389603164712,0.4062094688100908
1684180369909450400,5.589850830078125,0.295599102975025,0.09561538693235674,0.6330204010604698
1684180369919492000,5.599892333984375,0.2389482258868604,0.0045747756916309865,0.8285138605834454
1684180369929533400,5.609933837890625,0.2209416628833319,-0.3656940459786476,0.9739351272582237
1684180369939575000,5.619975341796875,0.2625763416349168,-0.4081172942918351,1.056308031119132
1684180369949616300,5.6300166015625,0.29120826712246883,-0.10397243499505299,0.900151729570344
1684180369959657600,5.64005810546875,0.372228026253153,0.11308193211340592,0.8079004287417237
1684180369969699200,5.650099609375,0.4087160824797278,0.1524114607759687,0.3500607012962661
1684180369979740600,5.66014111328125,0.40396869189472945,0.0843095779668394,-0.14943432793825442
1684180369989782200,5.6701826171875,0.45623910435991394,0.1029071808358535,-0.4832683799897107
1684180369999823600,5.680223876953125,0.48198103902692774,0.21522808070785918,-0.7565293313083868
1684180370009864900,5.690265380859375,0.45489060861253994,0.28495216351696523,-1.0242544412605363
1684180370019906600,5.700306884765625,0.44636797900730374,0.19560050966363185,-1.2564346790726106
1684180370029947800,5.71034814453125,0.4156750440847405,0.172667503414899,-1.4699546099686283
1684180370039989400,5.720389892578125,0.4071401356551114,0.3071050643314175,-1.5113759041323573
1684180370050030800,5.73043115234375,0.36923575394646074,0.4789972304754406,-1.449342608549691
1684180370060072100,5.740472412109375,0.3056957723340649,0.5614204406507265,-1.4195995329854452
1684180370070113600,5.75051416015625,0.24976468083796957,0.6116476060080216,-1.3395508526912097
1684180370080155100,5.760555419921875,0.15432095537964627,0.42866611479884864,-1.2775050401803691
1684180370090196600,5.77059716796875,0.02315175539187147,0.14169025422136056,-1.2407575844444796
1684180370100238000,5.780638427734375,-0.09194898603809257,-0.06735992432044831,-1.2893229722432196
1684180370110279600,5.790679931640625,-0.2684888838902599,-0.39679431910950613,-1.2685146331730086
1684180370120320900,5.800721435546875,-0.38440513614005284,-0.6531085968176635,-1.0956257582104378
1684180370130362300,5.8107626953125,-0.42833328253747854,-0.858335494856498,-0.8324583767786713
1684180370140403900,5.82080419921875,-0.4086111785440819,-1.0389766694386655,-0.6570805310299057
1684180370150445200,5.830845703125,-0.2577011584168093,-1.197188377351052,-0.5045635700351361
1684180370160486800,5.84088720703125,-0.13702237602565653,-1.1798439025062286,-0.4168643952705484
1684180370170528200,5.850928466796875,0.06987440600915261,-0.862899780252329,-0.33279943453458
1684180370180569600,5.860969970703125,0.1619322300000267,-0.4095125199398081,-0.1828353406155441
1684180370190611100,5.871011474609375,0.3039768933660876,-0.09980201726505014,-0.1381590365735877
1684180370200652500,5.881052978515625,0.4033068417712055,0.15926361082906265,-0.10203242301098306
1684180370210694100,5.891094482421875,0.3202067613148118,0.2984209059426816,-0.19089245777407857
1684180370220735400,5.9011357421875,0.23247718807957762,0.3993520737155906,-0.2805868385773062
1684180370230776800,5.91117724609375,0.14782059190837607,0.4096841811156026,-0.39587545385947176
1684180370240818400,5.92121875,-0.03145873549146052,0.34851074224795314,-0.5060586929921651
1684180370250859600,5.931260009765625,-0.0066559313755761886,0.04641532898077465,-0.6081454157568232
1684180370260901300,5.9413017578125,-0.11414051049943477,-0.45049953463932946,-0.6797733306074254
1684180370270942600,5.951343017578125,-0.6230005024616435,-0.8028612136079049,-0.6131926178069651
1684180370280984000,5.96138427734375,-1.009473085474043,-1.0380239486103304,-0.5185102821729315
1684180370291025600,5.971426025390625,-1.3045680523152892,-1.2669334410547393,-0.33754313004569847
1684180370301066900,5.98146728515625,-1.8757917881910378,-1.574013710219533,-0.06027114393379156
1684180370311108600,5.991509033203125,-3.3661355973218665,-1.7909774778809346,0.7481357455674718
1684180370321149900,6.00155029296875,-5.475257873442234,-2.359460830608333,2.1393618583735674
1684180370331191500,6.011591796875,-5.175377845665795,-2.3943500519030354,2.761116027738887
1684180370341232800,6.02163330078125,-2.798289298993283,-2.0177154540379663,2.6069304943822362
1684180370351274200,6.031674560546875,-0.49523150919622544,-1.6194334030657194,2.2551183699810995
1684180370361315800,6.041716064453125,0.9044881463842281,-1.3300399779033347,1.582226634126337
1684180370371357100,6.051757568359375,1.2806539536865194,-0.7151966093739847,0.9237911106758409
1684180370381398600,6.061799072265625,1.1377922295200054,0.02751827230854893,0.3447557688123508
1684180370391440000,6.07184033203125,0.9265942573130845,0.6273479461193359,-0.27485343810012686
1684180370401481400,6.0818818359375,0.9058581590657316,0.9889726638210729,-0.8942785263674294
1684180370411523000,6.09192333984375,0.9111831187709246,1.0820293426390035,-1.3956809042728993
1684180370421564300,6.10196484375,0.832739770398892,1.4853801728444473,-1.6361644268403135
1684180370431605900,6.11200634765625,0.6600773333929644,2.122110366746191,-1.6780178546635474
1684180370441647300,6.122047607421875,0.6102182863982762,2.375634193398965,-1.4933059214909064
1684180370451688900,6.13208935546875,0.6002473830142508,2.2732491491786835,-1.1579678057862184
1684180370461730200,6.142130615234375,0.7035024761567777,1.7297878264115696,-0.6702697276771032
1684180370471771600,6.152171875,0.7900623081888231,0.9992685317665877,-0.29528057568029253
1684180370481813200,6.162213623046875,0.8970149755097392,0.8795051574442366,-0.033469185226533055
1684180370491854600,6.1722548828125,1.0656203032548115,0.5066137315434623,0.3744866847472397
1684180370501896100,6.182296630859375,1.2672077418568148,0.0625896453390267,0.7061339019384576
1684180370511937500,6.192337890625,1.349230527971034,-0.10366153703603992,0.9546837209961349
1684180370521978800,6.202379150390625,1.1938633919588315,-0.25550937651297495,1.1295086145304312
1684180370532020400,6.2124208984375,0.9362789393013075,-0.402588844214608,1.1426519156869246
1684180370542061700,6.222462158203125,0.5525223016425501,-0.5760478972955249,1.035329580367339
1684180370552103300,6.232503662109375,0.2174901366264723,-0.8188924789212344,0.8470782042591561
1684180370562144600,6.242545166015625,-0.08301031582882375,-0.8277359008763111,0.574822068223962
1684180370572186300,6.252586669921875,-0.29988867045918005,-0.5816612242775141,0.2479301244594534
1684180370582227600,6.2626279296875,-0.4976629317779117,-0.18154239637038924,-0.0476061702974326
1684180370592269000,6.27266943359375,-0.6249091624712132,0.2720327376384893,-0.3764679431444162
1684180370602310600,6.2827109375,-0.7048443555724128,0.6357278824926537,-0.6356135607409817
1684180370612351900,6.29275244140625,-0.7031164168946666,0.8978605269418585,-0.87217175946089
1684180370622393600,6.3027939453125,-0.6250654457597772,0.9391880035036259,-1.1246416567995015
1684180370632434900,6.312835205078125,-0.4673913121672933,0.8053264617113535,-1.4123780727613044
1684180370642476500,6.322876953125,-0.2955853045170723,0.5774774552093984,-1.5542910099470308
1684180370652517800,6.332918212890625,-0.017886132100499035,0.30556011215097656,-1.6363434791698903
1684180370662559200,6.34295947265625,0.25323528045574345,0.04413127894945237,-1.6000778673727543
1684180370672600800,6.353001220703125,0.5526921750184487,-0.13556289677136332,-1.4610761404608736
1684180370682642100,6.36304248046875,0.8238996268694134,-0.348508834958829,-1.2489186526247948
1684180370692683600,6.373083984375,1.0527212619444855,-0.5108318327561511,-0.954327106587149
1684180370702725000,6.38312548828125,1.2584125995198814,-0.4237670899301992,-0.6412850620025081
1684180370712766400,6.393166748046875,1.4623854161013519,-0.41180801402560313,-0.42044484604643106
1684180370722808000,6.40320849609375,1.6220405103347906,-0.5098419190715501,-0.33974778643583525
1684180370732849300,6.413249755859375,1.7888629435480627,-0.5808773040269486,-0.39306259173231284
1684180370742890900,6.423291259765625,1.8637818097433319,-0.6053228379050417,-0.4115693569762664
1684180370752932300,6.433332763671875,1.8544290066835805,-0.45858192435046063,-0.4539515971796291
1684180370762973900,6.443374267578125,1.7565355301715044,-0.31503677362894467,-0.4518632887816289
1684180370773015200,6.45341552734375,1.6234643459475824,-0.34627246862446437,-0.5209734439426016
1684180370783056600,6.46345703125,1.4997124673727305,-0.6497669218926422,-0.7150566578570798
1684180370793098200,6.47349853515625,1.3450472354452587,-0.9098653795029328,-0.9338755607975749
1684180370803139600,6.483539794921875,1.1480921506654462,-1.2632369995454467,-1.2249691485973047
1684180370813181100,6.49358154296875,0.967863619317033,-1.3662710189150935,-1.3776121140309865
1684180370823222400,6.503622802734375,0.7289248110047926,-1.0819091796588816,-1.4286923408257854
1684180370833263800,6.513664306640625,0.5002330541443274,-0.8581676482584855,-1.2927360534664614
1684180370843305400,6.523705810546875,0.22074429693354886,-0.33650016784049186,-1.1048867700733047
1684180370853346700,6.5337470703125,0.059787202507262535,0.07675838460187565,-0.7859518527278305
1684180370863388300,6.543788818359375,-0.08374873550682709,0.4583282470731105,-0.7137410641171962
1684180370873429600,6.553830078125,-0.038467444488234984,0.38288497938421057,-0.7667527198064042
1684180370883471000,6.563871337890625,0.18373906597661155,0.4319524765392459,-0.6343672274211812
1684180370893512600,6.5739130859375,0.5673362016884083,0.36701393127970283,-0.3625121117834701
1684180370903554000,6.583954345703125,0.9657810926375642,0.5606908797918845,-0.2919647693275111
1684180370913595600,6.593995849609375,1.2106602191800802,0.9807710649268754,-0.1953516007578313
1684180370923636900,6.604037353515625,1.3591268063872184,0.6356716157788841,-0.0943548678677975
1684180370933678300,6.61407861328125,1.3170733452530488,0.0981330871441006,-0.11589288717229199
1684180370943719900,6.624120361328125,1.1483968496574553,-0.12538719171117826,-0.12947082520515021
1684180370953761200,6.63416162109375,0.8634561299413656,-0.1889772415495802,-0.18093252173932492
1684180370963802800,6.644203125,0.5615414382665879,-0.5655288697673825,-0.15712785723563416
1684180370973844100,6.65424462890625,0.2702696323867584,-0.5326442717431447,-0.06000113484210181
1684180370983885700,6.6642861328125,0.17610469473269746,-0.16328239444937054,-0.007863759948525898
1684180370993927100,6.674327392578125,0.21014712742564334,0.028180122505936576,0.004570007350266996
1684180371003968400,6.684368896484375,0.31141480805178595,0.0636510848429869,-0.010544061624042535
1684180371014010000,6.694410400390625,0.3874161542209659,-0.3313217163584595,-0.2314212321493388
1684180371024051400,6.70445166015625,0.5091698171358308,-0.7283086777564655,-0.23916149125063707
1684180371034093000,6.714493408203125,0.5854405164257236,0.8408765792075297,0.31278061866072565
1684180371044134300,6.72453466796875,0.6524402498287475,-0.33097934722804767,-0.052444696427978124
1684180371054175900,6.734576416015625,0.7524419427601565,1.1247797011621457,0.6499267816295843
1684180371064217300,6.74461767578125,0.6562098861110368,0.5591726303593606,0.47063672548286395
1684180371074258600,6.754658935546875,0.840682625762062,-1.2423543928974217,-0.2013683319405427
1684180371084300200,6.76470068359375,1.0120036602315836,-0.3327360154545983,0.41427063946898446
1684180371094341600,6.774741943359375,1.126178026241907,0.4972820281422836,0.5233166217170475
1684180371104383200,6.784783447265625,1.072589993577525,0.4222326277258171,0.03840422628686618
1684180371114424600,6.794824951171875,0.8712092042128329,0.9277343749375738,0.42595958704647274
1684180371124466100,6.804866455078125,0.6175673007519312,1.5497179031122772,0.5612570046932555
1684180371134507400,6.814907958984375,0.4295414387276728,1.7830071449308345,0.4322328567114758
1684180371144548800,6.82494921875,0.3516652882721692,1.6587657928685569,0.3868432044087821
1684180371154590400,6.83499072265625,0.425550579866012,1.5933699606653546,0.5300550460447048
1684180371164631700,6.8450322265625,0.521914005268165,1.6041684150402333,0.8558449744245488
1684180371174673300,6.85507373046875,0.5695528984576977,1.5863590242263497,1.0705350636584077
1684180371184714600,6.865114990234375,0.5402300953002179,1.4160308837911413,1.309794068400354
1684180371194756000,6.875156494140625,0.47863826155400263,0.7021780014230511,1.2216153144161428
1684180371204797600,6.885197998046875,0.40042483800695333,-0.09577465044312246,0.6032081842288257
1684180371214839000,6.8952392578125,0.3910718858141644,-0.27626228342769393,0.20136499411168549
1684180371224880600,6.905281005859375,0.4232691823813288,-0.2181873321442401,0.06573009499609782
1684180371234921900,6.915322265625,0.4522433578225282,-0.0893859863060527,0.052582264079809975
1684180371244963600,6.925364013671875,0.5414573548399927,0.18630790717846002,0.20721745497273528
1684180371255004800,6.9354052734375,0.6958580017910077,0.38436317430519057,0.42289280896447917
1684180371265046200,6.945446533203125,0.9683779477218567,0.610282897874037,0.598191499806363
1684180371275087800,6.95548828125,1.205472350313957,0.8524007797373482,0.8155159951050994
1684180371285129100,6.965529541015625,1.336678624026237,1.0250368117938957,0.9064600468712024
1684180371295170700,6.975571044921875,1.3526020048912668,1.1259231566812726,0.9933931825989659
1684180371305212100,6.985612548828125,1.3154644965843663,1.1696262359927148,1.0499085187001367
1684180371315253400,6.99565380859375,1.221020817759697,1.029982566782759,1.1134521960384762
1684180371325295000,7.0056953125,1.1359803677752995,0.664440155116439,1.0695134402890738
1684180371335336400,7.01573681640625,1.0052891969969764,0.29537200920906564,0.9313038588296403
1684180371345378000,7.0257783203125,0.8376012443229257,0.12690258028969773,0.7367532252666282
1684180371355419300,7.03581982421875,0.6291069983270972,-0.1533098221893229,0.5478470325951061
1684180371365460900,7.045861328125,0.1974632442657136,0.20639610288424173,0.9230194091981263
1684180371375502300,7.055902587890625,-0.23184484232050323,-0.512188911337908,0.4694857596763378
1684180371385543900,7.0659443359375,-0.5867180229549496,-1.4433307647794433,-0.10388445853969423
1684180371395585200,7.075985595703125,-0.8225891590000325,-1.7860422134497285,-0.26112127307909544
1684180371405626600,7.08602685546875,-0.75891041750076,-1.558400154210234,0.05779719356946748
1684180371415668100,7.096068603515625,-0.4197025297853977,-1.380676269529458,0.22896718972870675
1684180371425709600,7.10610986328125,-0.03457948569775234,-1.2162551881158066,0.2673985958380201
1684180371435751100,7.1161513671875,0.3434227109829023,-1.1372861862589299,0.23495292668644135
1684180371445792400,7.12619287109375,0.6538153886902291,-1.049170493985762,0.17849493034022199
1684180371455833800,7.136234130859375,0.862075090426965,-0.8791503906502002,0.14513182633771962
1684180371465875400,7.14627587890625,1.0301034449170252,-0.7502527235557236,0.12863039981768187
1684180371475916600,7.156317138671875,1.1196780205484178,-0.5483102798096612,0.15715026845446836
1684180371485958300,7.166358642578125,1.1313102244951496,-0.26641941071919883,0.2405116556937483
1684180371495999600,7.176400146484375,1.0586038828207116,0.15717887884639378,0.28112649911251025
1684180371506041300,7.186441650390625,0.786128044195037,0.6309661865971906,0.15376710892820653
1684180371516082600,7.19648291015625,0.38792186965256903,0.9824352264417617,-0.01583003987890425
1684180371526124000,7.2065244140625,-0.12914356580537653,1.1132316589746536,-0.35209584240142444
1684180371536165600,7.21656591796875,-0.673290967971504,1.1110954286380632,-0.8440964222890918
1684180371546206900,7.226607177734375,-1.2055339812513184,0.9253225327362459,-1.3073520660463376
1684180371556248600,7.23664892578125,-1.5540204048036128,0.6059293747633104,-1.7785325049169756
1684180371566289800,7.246690185546875,-1.7540948389805653,0.3300065995168363,-1.9220068453545152
1684180371576331200,7.256731689453125,-1.782763719595968,0.1438837051443101,-1.7720510960751303
1684180371586372800,7.266773193359375,-1.6714715958225135,-0.03725910180083878,-1.5881488324777733
1684180371596414100,7.276814453125,-1.5057055949750033,-0.13541316994575336,-1.4166066646676196
1684180371606455600,7.286856201171875,-1.2971532345061623,-0.15138530731281366,-1.248286962547094
1684180371616497100,7.2968974609375,-0.9981983303352087,-0.20786476124330722,-1.1277952193214813
1684180371626538600,7.30693896484375,-0.6750347614380293,-0.38428306585308913,-1.1393840312725008
1684180371636580000,7.31698046875,-0.3606930969452772,-0.6571378707393905,-1.1040570736248692
1684180371646621600,7.32702197265625,-0.14433503149092275,-0.7314100265032356,-1.2022893427023518
1684180371656663000,7.3370634765625,-0.0012954473363522567,-0.16722202282982182,-0.890772104269307
1684180371666704300,7.347104736328125,0.07191181188403246,0.5062742234814922,-0.8188128471717857
1684180371676745900,7.357146240234375,0.16385221479488304,0.7215185165212622,-1.2878754138423065
1684180371686787200,7.367187744140625,0.21055173874438785,0.5561361312885612,-1.270777940713844
1684180371696828800,7.377229248046875,0.2313166856628656,0.38330078124383593,-1.0579192640205666
1684180371706870200,7.3872705078125,0.18116796017583825,0.3861446381957045,-0.9882237910569134
1684180371716911600,7.39731201171875,0.0711232423890165,0.4759387969463078,-0.9091038704926472
1684180371726953100,7.407353515625,-0.0880758762343351,0.4848937987515311,-0.807989359005246
1684180371736994600,7.417394775390625,-0.19545936583295961,0.39602470397559186,-0.7245347499481792
1684180371747036100,7.4274365234375,-0.22970974455740642,0.34735679632317384,-0.6280324458343632
1684180371757077400,7.437477783203125,-0.2227814198510962,0.2524995803783195,-0.60079193128799
1684180371767119000,7.44751953125,-0.1916650534906213,0.10941219325755544,-0.5690047740872066
1684180371777160400,7.457560791015625,-0.20246970662256417,0.1524257660327349,-0.5311145781170463
1684180371787201600,7.46760205078125,-0.2563245296896285,0.33562946318374853,-0.4851400852074411
1684180371797243300,7.477643798828125,-0.29069972022611057,0.45806503300981494,-0.4551508426366618
1684180371807284600,7.48768505859375,-0.263503789807556,0.6132955551524414,-0.3983612059485099
1684180371817326300,7.4977265625,-0.2074487208478827,0.739404678203307,-0.35755729662855595
1684180371827367600,7.50776806640625,-0.1103332043517007,0.7984209059945384,-0.27682662010181597
1684180371837409200,7.5178095703125,0.0066125394000289585,0.7218179702631162,-0.22798633571047547
1684180371847450600,7.527850830078125,0.07790637015115892,0.6753091812190308,-0.15446734430653927
1684180371857491900,7.537892333984375,0.12085819253087501,0.553690910299138,-0.19006705287453482
1684180371867533600,7.547933837890625,0.15100884439502274,0.33016967770462075,-0.36183547986421116
1684180371877574800,7.557975341796875,0.09612202650200034,0.116379737775101,-0.5224623679098263
1684180371887616400,7.568016845703125,-0.08003830909192887,0.004960060156128407,-0.6598618030772877
1684180371897657800,7.57805810546875,-0.25857257834385483,-0.15979194626747678,-0.6670806407133029
1684180371907699400,7.588099853515625,-0.4094717502711901,-0.33257007604112016,-0.6642093657729268
1684180371917740600,7.59814111328125,-0.40560722353089596,-0.37195205687356026,-0.5743114947748017
1684180371927782100,7.608182373046875,-0.23090982429840892,-0.3178997039478822,-0.4144659042598049
1684180371937823600,7.61822412109375,-0.020167350609751954,-0.3013296127409677,-0.38923454293479104
1684180371947865000,7.628265380859375,0.17312836649449775,-0.2146606444681253,-0.36879420279785124
1684180371957906600,7.63830712890625,0.30515420434779356,-0.1631040574010363,-0.3932273388165466
1684180371967948000,7.648348388671875,0.3944623470634337,-0.08674430858831332,-0.37630629534339466
1684180371977989300,7.6583896484375,0.3600555657763497,0.18638134003021709,-0.40438151361032626
1684180371988030900,7.668431396484375,0.18405890473153833,0.503044128383957,-0.2704999447835392
1684180371998072200,7.67847265625,-0.13444089887596997,0.7122192382597535,-0.3375704289167355
1684180372008113800,7.68851416015625,-0.4865231513774764,0.8943662643729473,-0.4359076023230923
1684180372018155200,7.6985556640625,-0.7526490689394776,1.0393695831401937,-0.5063955783585282
1684180372028196800,7.70859716796875,-0.8575904368569539,1.0874576567894743,-0.5623009206113676
1684180372038238100,7.718638427734375,-0.7350027560236964,1.003736019051458,-0.5273582933878359
1684180372048279700,7.72868017578125,-0.42350053784135056,0.7366847992104318,-0.4952585696653087
1684180372058321100,7.738721435546875,-0.022632598846518772,0.46861362464405976,-0.5139021873164218
1684180372068362600,7.74876318359375,0.4412055017151095,0.19705963144333816,-0.39437627801780284
1684180372078404000,7.758804443359375,0.7993278502171636,0.010411262394438497,-0.19039130226768242
1684180372088445400,7.768845703125,0.9709287882366562,-0.06777477264670495,0.05573177343227032
1684180372098487000,7.778887451171875,0.9187133311075933,-0.19844532029471945,0.08585810656447383
1684180372108528300,7.7889287109375,0.5670933723295012,-0.31341743454670806,-0.023886680483886192
1684180372118569900,7.79897021484375,-0.08776116367367336,-0.3993377685815514,-0.02390003193680697
1684180372128611200,7.80901171875,-0.9000222682864967,-0.401490211629041,0.05128669738901178
1684180372138652600,7.819052978515625,-1.6088528633299188,-0.26494026181998787,0.20072793965423893
1684180372148694200,7.829094482421875,-1.9921634197650895,-0.20954608917538325,0.23878884322284427
1684180372158735600,7.839135986328125,-2.007210254770542,-0.1794738768777059,0.2836143969724397
1684180372168777100,7.849177490234375,-1.8141417503930564,-0.1473302841142502,0.3111410140245299
1684180372178818600,7.859218994140625,-1.4866361618438482,-0.014298439091770464,0.41793560988319955
1684180372188859800,7.86926025390625,-1.0554182529635552,0.1670389175533236,0.5216293336426118
1684180372198901400,7.8793017578125,-0.5699229240536015,0.23885631559150594,0.5979454517420115
1684180372208942800,7.88934326171875,-0.053938388852590974,0.2683610917980257,0.6538195610604445
1684180372218984400,7.899384765625,0.407918214772853,0.24160575861506964,0.6128427981616953
1684180372229025600,7.909426025390625,0.7425452470955883,0.256968498258204,0.4755537510516422
1684180372239067300,7.9194677734375,0.9583272933068708,0.33095455161016496,0.32713055615777886
1684180372249108600,7.929509033203125,0.9479242562891279,0.42673778519537614,0.08879303935475315
1684180372259150300,7.939550537109375,0.7470617295439037,0.42595767971731224,-0.1630594731626986
1684180372269191600,7.949592041015625,0.4583591223311908,0.41193008415246446,-0.2732164859775045
1684180372279232900,7.95963330078125,0.1836032867587904,0.300547599762688,-0.5352923869166201
1684180372289274600,7.969675048828125,-0.10760569561651473,0.1706972121966315,-0.6219146251736773
1684180372299315900,7.97971630859375,-0.3277907371486443,0.18462562542339067,-0.7896823883267879
1684180372309357600,7.9897578125,-0.46308660500991305,0.31822967538716046,-0.7178368568475693
1684180372319398800,7.99979931640625,-0.5187826156150266,0.5500278472539524,-0.776913404506814
1684180372329440400,8.0098408203125,-0.5053186417118181,0.6595468521873152,-0.8192007541756368
1684180372339481800,8.019882080078125,-0.4563407898229172,0.5925464630739774,-0.6341364383729177
1684180372349523100,8.029923583984376,-0.400348424962328,0.5851011277349464,-0.5258367061847974
1684180372359564600,8.039965087890625,-0.3602149485548736,0.5942983628314139,-0.5368101596239151
1684180372369606100,8.05000634765625,-0.2763574123247168,0.4432992934863398,-0.4109771252723377
1684180372379647600,8.060048095703126,-0.2084655760912951,0.33082103741561075,-0.19439125053773854
1684180372389689000,8.07008935546875,-0.07544732105184175,0.1495637893711162,0.06443786630983381
1684180372399730600,8.080131103515624,0.08552384388911313,0.01232719417505507,0.3317914010290998
1684180372409772000,8.09017236328125,0.22561478621450445,-0.09956455221230638,0.5974609853027503
1684180372419813600,8.1002138671875,0.30376005169438564,-0.2548551559944191,0.7697494029969975
1684180372429854900,8.11025537109375,0.37361097334831606,-0.40097904189553485,0.905898094178906
1684180372439896200,8.120296630859375,0.2755109071288957,-0.5171175002666619,0.884202718752309
1684180372449937800,8.130338134765625,0.1607264279289619,-0.5705738068434626,0.8316648006456072
1684180372459979200,8.140379638671876,0.09447336194872506,-0.6045494079681952,0.710029602060616
1684180372470020800,8.150421142578125,0.04445385931109712,-0.5326423645731002,0.5955398082580352
1684180372480062100,8.160462646484374,-0.0579302310144598,-0.283069610540101,0.46676158912991883
1684180372490103500,8.17050390625,-0.2402367591813765,-0.1263599394154559,0.3440363406722787
1684180372500145100,8.18054541015625,-0.42911410345479334,0.0421953201139898,0.20272016513051389
1684180372510186400,8.1905869140625,-0.5628113746244527,0.04544448853149488,0.22768783579489404
1684180372520228000,8.20062841796875,-0.6224483250450268,-0.0015869139886896101,0.24420547488152736
1684180372530269400,8.210669677734375,-0.5988808870780902,-0.12003421780136969,0.3521621227437317
1684180372540311000,8.22071142578125,-0.509989738514379,-0.17743873608689203,0.5713415146426912
1684180372550352300,8.230752685546875,-0.4229208230956298,-0.28794670101419206,0.7736401558085113
1684180372560393900,8.240794189453124,-0.3890316486915746,-0.33439254769136934,0.8677802086108719
1684180372570435200,8.250835693359376,-0.3546453713459243,-0.23113059984666756,0.9160132408829684
1684180372580476600,8.260876953125,-0.362687110894896,-0.0882740021505032,1.0581631659647952
1684180372590518200,8.270918701171874,-0.3672261238259761,0.041519164959095786,1.0637459755017433
1684180372600559600,8.2809599609375,-0.32620346548741824,0.08429050447283322,1.0949826239813336
1684180372610601100,8.29100146484375,-0.30025434496319425,0.11164474473465591,1.007056713165268
1684180372620642600,8.30104296875,-0.18757951257049746,0.27128887179971584,0.7608392238930362
1684180372630684100,8.31108447265625,-0.15060508252285484,0.2740192413717397,0.6383266450033148
1684180372640725400,8.321125732421875,-0.20456492888448005,0.35199069978406455,0.4985163212954667
1684180372650766800,8.331167236328126,-0.18028175822470502,0.41665744782636055,0.3759503364009379
1684180372660808400,8.341208740234375,-0.03828382483515136,0.47523975367202137,0.26450967779612755
1684180372670849600,8.35125,0.03122365472375888,0.4485969543341116,0.14370584487328625
1684180372680891300,8.361291748046876,-0.1167469025265786,0.5420742034083719,-0.06743288028664227
1684180372690932600,8.3713330078125,-0.3633044959884731,0.5862913131801907,-0.28896522518745044
1684180372700974300,8.381374755859374,-0.5532025099543583,0.5772085190313995,-0.5778031348943948
1684180372711015600,8.391416015625,-0.5997714996724245,0.46678447713329135,-0.8122572900665035
1684180372721057200,8.40145751953125,-0.546585559922065,0.29043674470057634,-0.8580965996336646
1684180372731098600,8.4114990234375,-0.4158899784542413,0.2507324220167892,-0.7700748444294562
1684180372741139900,8.421540283203125,-0.279264092443715,0.3398122787618313,-0.7938055993164318
1684180372751181600,8.431581787109375,-0.19844162458786346,0.1369380949443191,-0.5794501303760221
1684180372761222800,8.441623291015626,-0.35547649857895114,-0.06211757663149827,-0.3281249999670212
1684180372771264400,8.451664794921875,-0.38164961330710195,-0.03462219231920111,1.0490311490728554e-05
1684180372781305800,8.4617060546875,-0.3294271230398482,0.0837011338183286,0.13352537141215665
1684180372791347100,8.47174755859375,-0.17364156254340102,0.11818122857653453,0.07339477534184186
1684180372801388600,8.4817890625,0.08998227123249306,0.2214517592975331,0.0025434495093227317
1684180372811430100,8.49183056640625,0.34869849679826925,0.17392349243195646,-0.007895469695527183
1684180372821471600,8.5018720703125,0.40837013706549263,0.050351142812181046,0.07957983019918155
1684180372831513000,8.511913330078125,0.34537112719530455,0.180491447490326,-0.013890266284629879
1684180372841554600,8.521955078125,0.21161997325837906,0.43981933583901084,-0.23204994197328033
1684180372851596000,8.531996337890625,-0.09421408166364643,0.6632299422330672,-0.5619335174820949
1684180372861637600,8.542037841796875,-0.4042195081861233,0.847159385748209,-1.011237621359559
1684180372871678900,8.552079345703126,-0.6963697074255599,0.98087835307771,-1.345142841221663
1684180372881720200,8.56212060546875,-0.9096161126672239,0.9877419471776117,-1.4983654020711443
1684180372891761800,8.572162353515624,-0.9760126472179598,0.7347230911953634,-1.618945121681241
1684180372901803200,8.58220361328125,-0.8910121321336689,0.24957084657651668,-1.6277213096656393
1684180372911844800,8.5922451171875,-0.7803766727030812,-0.26997184762834997,-1.3267335893035002
1684180372921886100,8.60228662109375,-0.6228886247971761,-0.6084899902124454,-1.0102128981451424
1684180372931927700,8.612328125,-0.6263809800367649,-1.0055017471279253,-0.6647322178649047
1684180372941969100,8.622369384765625,-0.5747326016429356,-1.2383022308182496,-0.25722765914434514
1684180372952010600,8.6324111328125,-0.5595003961819752,-1.56206798564221,0.0910825728903835
1684180372962052000,8.642452392578125,-0.551751494315591,-1.6037807462822857,0.3601245879299125
1684180372972093400,8.65249365234375,-0.6076023578234947,-1.4385766983734116,0.5717947482059503
1684180372982135000,8.662535400390626,-0.6955284477056622,-1.1151447295371912,0.6956312656811263
1684180372992176300,8.67257666015625,-0.6835938096121202,-0.7513360976303618,0.7232065201076425
1684180373002217900,8.682618408203124,-0.5792052744911101,-0.1760559083460921,0.6115093231259296
1684180373012259200,8.69265966796875,-0.42553859946911604,0.10840225220968536,0.45744299897547785
1684180373022300800,8.702701171875,-0.18172687296085113,0.20820236198867273,0.37284588819040154
1684180373032342200,8.71274267578125,0.06330412623493481,0.3654460906264833,0.22558689109925678
1684180373042383800,8.7227841796875,0.179425895383336,0.36317062388738147,0.14649415024476373
1684180373052425100,8.732825439453125,0.15441662059600464,0.4384632111964178,0.04913878431505238
1684180373062466600,8.742866943359376,-0.017403423691036556,0.6311101914574923,-0.10790848726052397
1684180373072508100,8.752908447265625,-0.45098364369166155,0.7106933593569736,-0.3347754478531978
1684180373082549400,8.76294970703125,-0.9823734759560886,0.9250812529866932,-0.6013028622712019
1684180373092591000,8.772991455078126,-1.3799422979207037,1.0823087691969475,-0.846846341954778
1684180373102632400,8.78303271484375,-1.5122518539324328,1.1174650192272775,-1.1564087868768793
1684180373112674000,8.793074462890624,-1.3558883667551944,0.9929285048877858,-1.3684217930136962
1684180373122715300,8.80311572265625,-1.0275796651382185,0.71742820742593,-1.5817468167523394
1684180373132756600,8.813156982421875,-0.5071040391576441,0.6780090333409508,-1.8384823799673462
1684180373142798300,8.82319873046875,0.07813380661552674,0.4815273284586885,-1.9300994873349446
1684180373152839600,8.833239990234375,0.5553330183990748,0.3405313492281133,-1.7216525078895522
1684180373162881200,8.843281494140625,0.8053099513877301,0.21023273464062714,-1.244236946009187
1684180373172922600,8.853322998046876,0.8906376362090532,0.12705326080981194,-0.8560371398937949
1684180373182964100,8.863364501953125,0.841438770459207,0.17405223836203537,-0.5938470363922778
1684180373193005600,8.873406005859374,0.6774713993145881,0.25297737129431186,-0.33779907227687483
1684180373203047100,8.883447509765626,0.5653541087001647,0.5049266815243888,-0.13880944266549233
1684180373213088400,8.89348876953125,0.4764651955092767,0.4503288270709209,0.026907682414475623
1684180373223129800,8.9035302734375,0.3976285457802417,0.4989032744663769,0.09074401856007017
1684180373233171400,8.91357177734375,0.37219095232019583,0.476396560526321,0.0758371354424827
1684180373243212600,8.923613037109375,0.3543169497367967,0.4398450851018732,0.1746258737028122
1684180373253254300,8.93365478515625,0.3738940356649191,0.47210311876353117,0.2623002529296331
1684180373263295600,8.943696044921875,0.4288365244600728,0.3552789688444648,0.38536429409914635
1684180373273337300,8.953737548828125,0.5367596745486006,0.16393661500142448,0.5075533389891472
1684180373283378600,8.963779052734376,0.6481494903810907,-0.09654331202416515,0.6922917367117741
1684180373293420200,8.973820556640625,0.7694673538548362,-0.32564353942891916,0.7745397090557671
1684180373303461600,8.983862060546874,0.9267568588020417,-0.5592699049353986,0.8142535687169637
1684180373313502900,8.9939033203125,1.1246132850866448,-0.823520660322155,0.9663357735503951
1684180373323544600,9.00394482421875,1.328803777811156,-1.0488853454340388,0.993625640889031
1684180373333585800,9.013986328125,1.47895741451921,-1.244732856903484,1.1464822293342611
1684180373343627400,9.02402783203125,1.6183302401773758,-1.2938261032428595,1.4359071255878413
1684180373353668800,9.034069091796876,1.7409986257625345,-1.21798133856594,1.5870493652120397
1684180373363710400,9.04411083984375,1.8249489069476816,-1.1109209060596166,1.7898358107154553
1684180373373751600,9.054152099609375,1.8947345018225517,-0.9701709747268605,2.0175642967076626
1684180373383793300,9.06419384765625,1.9444835186672667,-0.9054632186532265,2.2242784499232284
1684180373393834600,9.074235107421876,1.916951417797122,-0.8065443039981217,2.397396326011976
1684180373403876000,9.0842763671875,1.7808644771111306,-0.6807727812828629,2.4414567946525123
1684180373413917600,9.094318115234374,1.6324425935071363,-0.5906267167176292,2.4934096335277105
1684180373423959000,9.104359375,1.4771928787258333,-0.4550971984792309,2.5394046306283387
1684180373434000600,9.11440087890625,1.2585476636832067,-0.4607677459697985,2.5488464833997106
1684180373444041900,9.1244423828125,1.044760704116124,-0.5593032837360907,2.44732189173237
1684180373454083600,9.13448388671875,0.8550772070123752,-0.6281480788466035,2.3246960640722447
1684180373464124800,9.144525146484376,0.6827606558863533,-0.7099466323543215,2.0631079673059585
1684180373474166400,9.15456689453125,0.5758479237873523,-0.6850509644380102,1.808079957960503
1684180373484207800,9.164608154296875,0.47473213079598175,-0.5922098158249405,1.3093822001839421
1684180373494249400,9.17464990234375,0.35692191115261823,-0.37508583069452117,0.8010935782750921
1684180373504290700,9.184691162109376,0.13140225415425072,-0.24211502085749623,0.30287957197608995
1684180373514332100,9.194732421875,-0.19403603663854893,-0.14798259743033002,-0.16588521011192675
1684180373524373600,9.204774169921874,-0.5770829319003281,0.02166843414757534,-0.5685708521820642
1684180373534415000,9.2148154296875,-0.9469878673880039,0.1614208220893154,-0.8637833595056698
1684180373544456600,9.22485693359375,-1.228116154698349,0.24747180930608592,-1.007732153070365
1684180373554498000,9.2348984375,-1.2788870334830078,0.2440948485205228,-1.0211203098658552
1684180373564539600,9.24493994140625,-1.204199433467488,0.09141826630538293,-1.0269424915709806
1684180373574580900,9.254981201171876,-0.9632148742777703,-0.12222957607083366,-0.8238890170734892
1684180373584622600,9.26502294921875,-0.6079797743487778,-0.35370254526147415,-0.42524743082551625
1684180373594663900,9.275064208984375,-0.3245685101105918,-0.5213565825073552,0.06176376340940568
1684180373604705200,9.285105712890624,-0.13653635973613054,-0.6296215057717001,0.5301909446781109
1684180373614746800,9.295147216796876,0.041971415263863054,-0.656826972838316,0.8884041309080446
1684180373624788100,9.3051884765625,0.11289429653524176,-0.6529493331881647,1.2670035361757948
1684180373634829700,9.315230224609374,0.14001283038592874,-0.6371126174948079,1.5844813584333584
1684180373644871100,9.325271484375,0.15856489540076438,-0.5973968505437153,1.88147521017084
1684180373654912600,9.33531298828125,0.08277705315390824,-0.6864767075741677,2.147891998410436
1684180373664954000,9.3453544921875,-0.09196731451507886,-0.7988376618394868,2.237802505563052
1684180373674995600,9.35539599609375,-0.26481595621510956,-0.8912448882247712,2.327869892111864
1684180373685037000,9.365437255859376,-0.48263403779398417,-0.8629007339082995,2.3976378442048456
1684180373695078300,9.375478759765626,-0.6736242174896429,-0.7971897123959448,2.3362946509750895
1684180373705119900,9.385520263671877,-0.8230395316793458,-0.620240211423019,2.0181860923929267
1684180373715161300,9.395561767578124,-0.8676559926426567,-0.4974374772238655,1.6098160743345753
1684180373725202900,9.405603271484376,-0.8255226611241168,-0.364797592270007,1.1989107131903105
1684180373735244200,9.41564453125,-0.7635269759505001,-0.26592826848692386,0.8655502796313479
1684180373745285800,9.425686279296874,-0.7309817076989493,-0.1634225844799344,0.5758671760769688
1684180373755327200,9.4357275390625,-0.7874283790707797,-0.09521102888354913,0.5204465389441716
1684180373765368800,9.44576904296875,-0.8423848153720185,-0.07236671444828716,0.41313648207867243
1684180373775410100,9.455810546875,-0.8416990041849981,-0.09808826458440476,0.25682330133226516
1684180373785451400,9.465851806640623,-0.6886739731838796,-0.06791210190670131,0.327264547304802
1684180373795493000,9.4758935546875,-0.5219116210330995,-0.07525825490625512,0.45803332346106035
1684180373805534400,9.485934814453126,-0.4866129458311482,-0.06746101384112904,0.5888712405257779
1684180373815576000,9.495976318359377,-0.5843239427164209,-0.07055187231163493,0.7532393932312519
1684180373825617300,9.506017822265624,-0.5498005746084317,-0.12986660000136233,0.8442478179377026
1684180373835658900,9.516059326171876,-0.44444340466001747,-0.22610378271085138,0.9575922487319609
1684180373845700300,9.5261005859375,-0.3551863431167573,-0.31588077537469966,1.0611827374871914
1684180373855741900,9.536142333984374,-0.31075376272829613,-0.42268753059864156,1.118108034111454
1684180373865783200,9.54618359375,-0.3056972920477572,-0.4022951125170271,1.202658653164083
1684180373875824800,9.55622509765625,-0.27338379628976067,-0.4888610839510782,1.1972069740832931
1684180373885866200,9.5662666015625,-0.23282948129623304,-0.42892837533996664,1.1827027797673373
1684180373895907800,9.57630810546875,-0.24152481547671273,-0.22321891781918501,1.1262211799779538
1684180373905949100,9.586349609375,-0.3235536217592477,-0.151609420688065,1.0184910298720005
1684180373915990400,9.596390869140626,-0.4361617268597817,-0.2041749955193195,0.8622686862003361
1684180373926032000,9.606432373046877,-0.5642576217452678,-0.3065252304451942,0.7751212120567275
1684180373936073400,9.616473876953124,-0.6933254601247106,-0.2890682220195016,0.7289452552359278
1684180373946115000,9.626515380859376,-0.7738035321317153,-0.39301872246167635,0.6898710728834442
1684180373956156300,9.636556640625,-0.7566395401093394,-0.48421859733760253,0.6746041775137872
1684180373966197900,9.646598388671874,-0.6293684244610468,-0.62698459623,0.7233557701194391
1684180373976239300,9.6566396484375,-0.40236809861952844,-0.846854209907636,0.8033030032623336
1684180373986280900,9.666681396484377,-0.13763648263545222,-0.9211444855128427,0.9034383298848383
1684180373996322200,9.67672265625,0.09477007379113808,-0.8360748291918113,0.9543290138680519
1684180374006363600,9.686763916015623,0.28491765249710727,-0.6668052674945238,0.9311375618679675
1684180374016405200,9.6968056640625,0.4434490798821972,-0.490401267877963,0.9256539343871881
1684180374026446600,9.706846923828126,0.5368776321369462,-0.4071636199740483,0.9115419387184829
1684180374036488100,9.716888427734377,0.5832664966347987,-0.39997577675881424,0.788307190016996
1684180374046529500,9.726929931640624,0.5743530990021114,-0.44229984283878615,0.6469726562037149
1684180374056571100,9.736971435546875,0.5823598504232113,-0.4027862547371112,0.45212721825524677
1684180374066612400,9.7470126953125,0.5744096636852054,-0.451356887806712,0.25213241576512313
1684180374076654000,9.757054443359374,0.5633045434778301,-0.44435882561500306,0.046762704837624305
1684180374086695300,9.767095703125,0.5566635728230787,-0.48501682274571395,-0.3158009052575272
1684180374096736900,9.777137451171876,0.5300356149336642,-0.5357875824255516,-0.6088244915743943
1684180374106778300,9.7871787109375,0.515669464991289,-0.41580486306548387,-0.8572874068096707
1684180374116819600,9.797219970703123,0.5086705683360359,-0.3952274321270636,-1.0308916569657107
1684180374126861200,9.80726171875,0.481071829747826,-0.32019710537641577,-1.1704254149634683
1684180374136902600,9.817302978515626,0.39309194676170084,-0.1832551956531118,-1.399292468931241
1684180374146944200,9.827344482421877,0.18567854148036328,-0.00841045379320571,-1.5838613511038933
1684180374156985600,9.837385986328124,-0.16394010178175372,0.2010812759631349,-1.8247106073741552
1684180374167027100,9.847427490234375,-0.6260247826927419,0.35549640663203874,-1.9336919783934257
1684180374177068500,9.85746875,-1.1466754675310655,0.4161815641481167,-1.7075915337437975
1684180374187110100,9.867510498046874,-1.5143513679667857,0.3887405396303818,-1.1451189516659726
1684180374197151400,9.8775517578125,-1.5269870758902901,0.19768905637784034,-0.5568816661002834
1684180374207193000,9.887593505859376,-1.2362443208128404,-0.0009632110140720192,0.04063892354372984
1684180374217234400,9.897634765625,-0.7767312525923806,-0.10144329083469215,0.5179405212719926
1684180374227276000,9.90767626953125,-0.26748380077119477,-0.20608139033978182,0.8372249603441901
1684180374237317300,9.9177177734375,0.18194532397457602,-0.2383213041615557,1.0030474662426239
1684180374247358600,9.927759033203126,0.5144941806082719,-0.21501064307648746,1.0753915309604403
1684180374257400200,9.937800537109377,0.6722052098237448,-0.2173204422471373,1.1259121893093835
1684180374267441600,9.947842041015624,0.6136280894461845,-0.2160415648069731,1.0630459785333155
1684180374277483200,9.957883544921875,0.39925551404382204,-0.14185714714276965,0.8418266773212834
1684180374287524600,9.967925048828125,0.13522069166230008,0.004604339592540651,0.5641994476285042
1684180374297566100,9.977966552734374,-0.1135637760087125,0.1395683288943791,0.3928442000739477
1684180374307607600,9.9880078125,-0.32503807532395945,0.21728229513678352,0.20192003260150956
1684180374317649100,9.998049560546876,-0.4830832780148308,0.16569423662060737,0.14071416846034038
1684180374327690400,10.0080908203125,-0.5781917571610865,0.042723655781487464,0.1435601710556033
1684180374337731800,10.018132080078123,-0.5766499042308036,-0.08899497989030769,0.12323498729817227
1684180374347773400,10.028173828125,-0.5619561074903157,-0.11276721939232538,0.04696679121217326
1684180374357814600,10.038215087890626,-0.5535086394291387,-0.10350894929818458,-0.014591693875650994
1684180374367856300,10.048256591796877,-0.5684206485777411,-0.09237670890714601,0.0004377365900503443
1684180374377897600,10.058298095703124,-0.6132409572746216,-0.12464714044095858,-0.04493308062282476
1684180374387939200,10.068339599609375,-0.6327542066489259,-0.07609462740493436,-0.11526226986591265
1684180374397980600,10.078381103515625,-0.630669236149796,0.007328033263401434,-0.17222332948142566
1684180374408022200,10.088422607421874,-0.5241042973024481,0.10411071768734656,-0.15469551088112726
1684180374418063600,10.0984638671875,-0.37289118770341667,0.16433238967996716,-0.14040207868875934
1684180374428105100,10.108505615234376,-0.21405780314778808,0.16697406764614128,-0.07298970226687604
1684180374438146600,10.118546875,-0.06559437523839057,0.08175277720650898,-0.039646148698655355
1684180374448188100,10.12858837890625,-0.07792580135103007,-0.029128074675040763,-0.20203733455501313
1684180374458229400,10.1386298828125,-0.2344372272875523,-0.14699745176424334,-0.3124394414989203
1684180374468270800,10.148671142578126,-0.4715365170931583,-0.2528085709085905,-0.4547350407649865
1684180374478312400,10.158712646484377,-0.7479964494114165,-0.3536691665491373,-0.49164104446753326
1684180374488353600,10.168754150390624,-0.8818216325187687,-0.34461975101727876,-0.5894782542852594
1684180374498395300,10.178795654296875,-0.9384368659818987,-0.27879905714100295,-0.574568271815829
1684180374508436600,10.188837158203125,-0.8584377765259672,-0.1781911850376347,-0.5954568385651914
1684180374518478300,10.198878662109376,-0.7235217095288617,-0.2126026153411848,-0.6538596153164915
1684180374528519600,10.208919921875,-0.4512388706624795,-0.18563461294727762,-0.6284017563132506
1684180374538561200,10.218961669921876,-0.1446108818833901,-0.19940185554788187,-0.4808802604694474
1684180374548602600,10.2290029296875,0.23657035839347423,-0.27138805372856845,-0.25723981852249617
1684180374558644100,10.23904443359375,0.6623780728439245,-0.32322502143346493,0.06035614022183666
1684180374568685600,10.2490859375,1.0273033380213168,-0.4059391020487713,0.31647181509923733
1684180374578727100,10.25912744140625,1.3277975320034117,-0.49975776657987037,0.5894355773228075
1684180374588768400,10.2691689453125,1.580731987901714,-0.5310573576550759,0.7029204368000972
1684180374598809800,10.279210205078124,1.7251734734210116,-0.5391759873146214,0.8751540183392525
1684180374608851400,10.289251708984375,1.8104891777726808,-0.5204992295018593,1.0465643405640181
1684180374618892600,10.299293212890625,1.8685457706390125,-0.4832725524105473,1.2414170503056794
1684180374628934300,10.309334716796876,1.7197403909189055,-0.36856460558353504,1.4151593447043256
1684180374638975600,10.3193759765625,1.4795210361457471,-0.20581436148263804,1.524500250806748
1684180374649017300,10.329417724609376,1.2168048619869607,-0.050650596743588426,1.6296086311788736
1684180374659058600,10.339458984375,0.8669135570547204,0.09423160553543013,1.5789234639887022
1684180374669100200,10.34950048828125,0.5199263095354181,0.19755077369051746,1.4434596298936684
1684180374679141600,10.3595419921875,0.36778736126395184,0.4352493287318377,0.9002022742520706
1684180374689183200,10.36958349609375,-0.21008348468223845,-0.240411758509624,-0.3895118237565679
1684180374699224600,10.379625,0.16416168216213484,-0.28240680687251934,-1.6375663280011528
1684180374709266100,10.38966650390625,0.9682664869963035,0.6260318756616486,-2.063446760273669
1684180374719307400,10.399707763671875,1.7897750139890436,1.628008365712348,-2.190202236053448
1684180374729348800,10.409749267578125,2.3778579236354243,2.3509550094716896,-2.0693643094641345
1684180374739390400,10.419790771484376,2.533047914366886,2.659076213869848,-1.9923977853064527
1684180374749431600,10.42983203125,2.0402250289398722,2.576541900534267,-1.9674568175747156
1684180374759473300,10.439873779296876,0.8325372935082034,1.9672050475459615,-2.0631401537742344
1684180374769514600,10.4499150390625,-0.6787416934436148,1.219575881952931,-1.8843522072283274
1684180374779556300,10.459956787109377,-1.7960011958409754,0.7027425765302112,-1.1723999978395685
1684180374789597600,10.469998046875,-1.4854717254453487,0.5289154052527928,-0.16260385519009093
1684180374799639200,10.48003955078125,-0.5517828465708903,0.23758602145220767,0.4487328529480983
1684180374809680600,10.4900810546875,-0.35838437089116737,-0.4016628266483655,0.46394324300241074
1684180374819722200,10.50012255859375,-0.26572179804110835,-0.9569873809707626,0.4953734874187921
1684180374829763600,10.510163818359375,-0.04074430467241118,-1.1980991363167213,0.2049167157169498
1684180374839805100,10.52020556640625,0.4353238343796605,-0.7792196273601049,-0.06913304337124156
1684180374849846400,10.530246826171876,0.719928145547279,-0.18609237673354503,-0.5344645978346195
1684180374859887800,10.5402880859375,0.4609527588130698,0.24659728999026412,-0.9375824929410924
1684180374869929400,10.550329833984376,0.009021520561006515,0.5724382401764444,-1.199270725203099
1684180374879970700,10.56037109375,-0.32127523424480664,0.9608192444572439,-1.5482940675478822
1684180374890012300,10.570412841796877,-0.48025894167046124,1.293744087232451,-1.724060773750419
1684180374900053600,10.5804541015625,-0.512556076011706,1.4048881531660673,-1.5438246726242055
1684180374910095300,10.59049560546875,-0.7748324872848021,1.047928810227167,-1.1583940984591623
1684180374920136600,10.600537109375,-0.7881178855986809,1.657021045715334,-0.7309782504923628
1684180374930178200,10.61057861328125,-0.5263702870492515,0.23828220358339192,-0.7184982299537231
1684180374940219600,10.620619873046875,-0.20701241491522962,-0.34306240071675836,-0.2080960274020607
1684180374950261200,10.63066162109375,-0.006700754216823156,-0.2667951584291521,-0.13114619260368066
1684180374960302600,10.640702880859376,0.48338437080650987,-0.38879394535461037,0.06471824639786238
1684180374970344100,10.65074462890625,0.9022028446980674,-0.2537078857004283,0.29209613797857636
1684180374980385500,10.660785888671874,1.1829600333113108,-0.11678981768571656,0.33768820766272456
1684180374990426800,10.6708271484375,1.506206035715883,-0.10165309903571758,0.47347950932005106
1684180375000468400,10.680868896484377,1.7244355677983083,-0.10905265800622173,0.5566315650472649
1684180375010509700,10.69091015625,1.767989754679833,-0.27977466598807194,0.5300104617782091
1684180375020551300,10.70095166015625,1.5424883364768174,-0.3609342573831882,0.4235961437459148
1684180375030592600,10.7109931640625,1.024160623542695,-0.3869972229822011,0.3411142825000315
1684180375040634300,10.72103466796875,0.24260735527440372,-0.3852186203955918,0.18528485305502812
1684180375050675600,10.731075927734375,-0.6739255190406009,-0.4427318572886988,-0.040170669538805485
1684180375060717200,10.74111767578125,-1.544530749293385,-0.5396413803502631,-0.42054033268018415
1684180375070758600,10.751158935546876,-2.185934543464917,-0.5203552246326928,-0.6768393516840033
1684180375080800200,10.76120068359375,-2.4512233733692215,-0.47021484383390066,-0.7854444980672453
1684180375090841600,10.771241943359374,-2.2558417320344915,-0.5638427732916601,-0.6916656494807194
1684180375100883100,10.781283447265626,-1.7101362943280662,-0.5680274963667664,-0.4817986489812505
1684180375110924500,10.791324951171877,-1.105741024014756,-0.4693851470904146,-0.40941143042172934
1684180375120966100,10.801366455078124,-0.6305392980682913,-0.3337192534196395,-0.4019401072537711
1684180375131007400,10.81140771484375,-0.34464704999097984,-0.20045661924812527,-0.43486261368151113
1684180375141049000,10.821449462890625,-0.24485182753846846,-0.0881586076327654,-0.6566252708356092
1684180375151090400,10.83149072265625,-0.2625950573202704,0.05823707589738015,-0.8013703823398579
1684180375161131600,10.841531982421875,-0.3256148098827973,0.07867240897800586,-0.9244043826350617
1684180375171173300,10.85157373046875,-0.3488218784132826,0.12146186844729222,-1.0381240844353423
1684180375181214600,10.861614990234376,-0.28798377512613044,0.11438941944879956,-0.9651417733767037
1684180375191256200,10.87165673828125,-0.18292534353126888,0.15562248223623099,-0.6446104049588388
1684180375201297600,10.881697998046874,-0.03610098360062527,0.0849733351832514,-0.4257314203328199
1684180375211339200,10.891739501953126,0.09764802469604443,0.5188817976839917,-0.15217971806509353
1684180375221380600,10.901781005859377,0.24349498730950367,1.1843957901076614,-0.13434171670628905
1684180375231422100,10.911822509765624,0.37078595161399525,1.1029920578932872,-0.07025790218076208
1684180375241463500,10.92186376953125,0.3399487732961766,0.38583278650191294,0.17815542223238404
1684180375251505100,10.931905517578125,0.2203222512902199,-0.6178407670627922,0.19517755510045023
1684180375261546400,10.94194677734375,0.009926199787526277,-2.5888481140475976,-0.9120357036406459
1684180375271588000,10.951988525390624,-0.20195007340500057,-1.743897438208536,-0.6143877505624054
1684180375281629400,10.96202978515625,-0.4708274603060591,-0.6556959153429314,-0.05098748201169076
1684180375291671000,10.9720712890625,-0.6762477159948216,0.567523956210152,0.23038101211738835
1684180375301712300,10.98211279296875,-0.751460909917724,1.4734778403060482,0.212667703484654
1684180375311753900,10.992154296875,-0.7065389157005656,1.845903873570647,0.019085884107406265
1684180375321795200,11.002195556640626,-0.528813958071288,1.9390954971624186,-0.02155184748086393
1684180375331836600,11.012237060546877,-0.23979735370674213,1.825944900380568,0.1509621144614451
1684180375341878200,11.022278564453124,0.039933204594749985,1.5531167984883667,0.35190057761849736
1684180375351919600,11.03231982421875,0.2780638932913638,1.0811767578281033,0.5214591027660748
1684180375361961100,11.042361572265625,0.44824957862651393,0.4875955582701115,0.7206361294255673
1684180375372002600,11.05240283203125,0.515997886730539,-0.2412290574309535,0.8058474064135566
1684180375382044100,11.062444580078123,0.4231615066374924,-0.9808845519679509,0.8261144162449787
1684180375392085400,11.07248583984375,0.21950376034677577,-1.6239900589372573,0.913767337881359
1684180375402127000,11.08252734375,0.01894021037196034,-1.9653348923609082,1.0762894154834766
1684180375412168400,11.09256884765625,-0.15951108943043124,-1.881964683446357,1.1260755061320027
1684180375422210000,11.1026103515625,-0.30296945568158995,-1.4759778975926343,1.076559782056394
1684180375432251300,11.112651611328126,-0.3577909469807509,-0.8480682373318083,0.9501872062731137
1684180375442292900,11.122693359375,-0.2617168426274804,-0.20034885392242088,0.6862237453804049
1684180375452334300,11.132734619140624,-0.19692611694517426,0.3318471908127763,0.3118488789302226
1684180375462375900,11.1427763671875,-0.2611558438232753,0.6577930448874586,0.01178669933976394
1684180375472417200,11.152817626953125,-0.48388957984644165,0.7677593231303017,-0.2443335055809992
1684180375482458800,11.162859130859376,-0.805721998254785,0.7091960905992228,-0.39356636994489835
1684180375492500100,11.172900634765623,-1.11255860318183,0.579342842214575,-0.4250097274785716
1684180375502541600,11.18294189453125,-1.4078552723031137,0.3821611405273775,-0.36606025680545823
1684180375512583100,11.1929833984375,-1.575645685302745,0.20793533322434732,-0.22821760185240034
1684180375522624600,11.203025146484377,-1.630137682009829,0.09675312053698785,-0.17565870287582944
1684180375532666000,11.21306640625,-1.574213504894605,0.09564208982069926,-0.18039679523813137
1684180375542707400,11.223107666015624,-1.4424421785666286,0.1658306122627315,-0.16226530073382725
1684180375552749000,11.2331494140625,-1.2442255021463562,0.2070302963951731,-0.17541503912592812
1684180375562790300,11.243190673828124,-1.0409929752261298,0.1618471146033442,-0.16582250603707074
1684180375572831900,11.253232421875,-0.8283476829888188,0.020795822187911542,-0.07323837267952242
1684180375582873300,11.263273681640625,-0.589741945304191,-0.18428421034664738,0.0625944137378109
1684180375592914900,11.273315185546876,-0.422482252047469,-0.37148094175951457,0.22055697445764094
1684180375602956200,11.283356689453123,-0.3295373916596061,-0.4310092925601291,0.39704704290826603
1684180375612997800,11.293398193359376,-0.2517526149782601,-0.4612350463578606,0.49314689635872955
1684180375623039200,11.303439453125,-0.15988945961213452,-0.416943550100132,0.5827322005630108
1684180375633080800,11.313481201171877,-0.07482337956687632,-0.13816833507304968,0.6545922754897019
1684180375643122100,11.3235224609375,0.0008645057425090508,1.1246681213995375,0.6835429667673169
1684180375653163600,11.333564208984376,0.14635682114273912,2.233479499727899,0.7926397323587882
1684180375663205000,11.34360546875,0.3645842074076236,1.80941295609266,1.5771555900010361
1684180375673246600,11.35364697265625,0.43771028526025074,0.6437711715899288,1.3247158526451002
1684180375683288000,11.3636884765625,0.41032934186162145,0.8200721741326774,0.6209754943261704
1684180375693329600,11.37372998046875,0.6285626888116388,-1.7787446976761438,0.7536404133137358
1684180375703370900,11.383771240234376,0.6742069720717918,-4.1273441314798465,-1.8927650452207467
1684180375713412300,11.393812744140623,0.7312746047645521,-2.736176490896187,-1.7624773979583745
1684180375723453900,11.403854248046876,0.6490941045944753,-0.7848052978601794,-0.2650630474706928
1684180375733495200,11.4138955078125,0.5367512702568779,1.206708908005658,0.6292979717466242
1684180375743536800,11.423937255859377,0.20787286749415984,2.4107694626780023,1.1226840018446416
1684180375753578200,11.433978515625,-0.17725849134885252,2.8432111738685433,1.3247117996476143
1684180375763619800,11.444020263671876,-0.46730852117058763,2.3804483412946564,1.6976829768109838
1684180375773661100,11.4540615234375,-0.7086970806733539,1.470219612209365,2.1743035316744646
1684180375783702600,11.46410302734375,-0.9398052693180033,0.6430778503517383,2.6258301734534966
1684180375793744000,11.47414453125,-1.049175262492666,0.016437530665851158,2.9148931502181212
1684180375803785600,11.48418603515625,-1.0682015419220063,-0.47101306901184953,2.953218937107411
1684180375813827000,11.494227294921876,-1.0783786774014281,-0.781376838612351,2.851994037575253
1684180375823868600,11.50426904296875,-0.9874546527616539,-0.9832611083599702,2.7852644920752994
1684180375833909900,11.514310302734376,-0.8564896583625171,-1.059621810908528,2.7790787220253446
1684180375843951600,11.52435205078125,-0.7040164471731014,-1.0069561005266179,2.6502313613859325
1684180375853992900,11.534393310546877,-0.6208605766010735,-0.8044195173788208,2.3631753920246124
1684180375864034600,11.544434814453124,-0.5582489965895961,-0.4457359314062186,1.8338980673482663
1684180375874075800,11.554476318359375,-0.6315813065720149,-0.012475967524682071,1.0969021319659522
1684180375884117400,11.564517822265625,-0.7800519467248745,0.5178432465377276,0.4414072037374186
1684180375894158800,11.57455908203125,-0.9494183064838376,0.9055590629712382,0.10385036465494447
1684180375904200400,11.584600830078124,-1.1119101047598616,1.208194255916675,-0.0701282024461124
1684180375914241600,11.59464208984375,-1.1937038899825254,1.3902463913028205,-0.20529723164971403
1684180375924283300,11.60468359375,-1.1375353336669798,1.4070701599110769,-0.17002344132017977
1684180375934324600,11.61472509765625,-1.1205966471675584,1.2467379569439359,-0.42566967022854446
1684180375944366300,11.6247666015625,-1.0698473454244746,0.791713714581266,-0.6249783039974923
1684180375954407600,11.63480810546875,-1.069127082637934,0.09468746184306218,-0.8768057823042871
1684180375964448900,11.644849365234377,-1.1924419403447903,-0.6600694656141428,-1.1784408093011773
1684180375974490600,11.654890869140624,-1.4976723194155857,-1.1770858764619456,-1.4145150184061182
1684180375984531900,11.664932373046875,-1.8753345013399247,-1.3749294282630347,-1.6579663751886884
1684180375994573600,11.674973876953125,-2.0876245498029835,-1.646831512319135,-1.722558021642159
1684180376004614800,11.68501513671875,-2.2205328941743954,-2.0619459152405826,-1.6909520625010057
1684180376014656400,11.695056884765624,-2.669435977972925,-2.412600517292917,-1.772675037455493
1684180376024697800,11.70509814453125,-3.474681377486576,-2.6308345794807426,-1.5420410633005561
1684180376034739400,11.715139892578126,-3.9311656951863325,-2.595310211108464,-0.6496715544218431
1684180376044780600,11.72518115234375,-3.3435401916964063,-2.2387809751800476,0.3362653255697228
1684180376054822300,11.73522265625,-1.8120583295133357,-1.7696332930597705,1.1029665470030172
1684180376064863600,11.74526416015625,-0.23643410201461681,-1.1591758728650072,1.559027671981122
1684180376074905300,11.7553056640625,1.0507140160010369,-0.5092954635624937,1.571307897569088
1684180376084946600,11.765346923828124,1.8992666006692416,0.2486000060521019,1.275087118101483
1684180376094988200,11.775388671875,2.358108282076003,0.9647498129932643,0.8503241538799345
1684180376105029600,11.785429931640625,2.5630373954851566,1.4519829749929563,0.46782350534649525
1684180376115071200,11.795471435546874,2.7058224678536322,1.6824984550018962,0.4539875983831655
1684180376125112600,11.805512939453124,2.777591705204812,1.7384958268945268,0.5845959186698654
1684180376135154100,11.815554443359376,2.7649257183299065,1.6370139120664025,0.6178905963078893
1684180376145195400,11.825595947265626,2.665907382841048,1.5050683020697804,0.5632586479453391
1684180376155237000,11.835637451171875,2.5875945092837425,1.2401928901521997,0.38005828865725244
1684180376165278400,11.8456787109375,2.4792661666432427,0.7712039948082874,0.19243574146224685
1684180376175320000,11.855720458984376,2.469639778263923,0.31366252881939166,-0.07652926444588631
1684180376185361300,11.86576171875,2.440249204582431,-0.13216209395872272,-0.16091060646779182
1684180376195402900,11.87580322265625,2.3710632324259286,-0.6161727904808681,-0.14272403718842283
1684180376205444300,11.8858447265625,2.2807710170949145,-0.9189815520475272,-0.14257335664794385
1684180376215485600,11.895885986328125,2.16896343238368,-1.0609788895192758,-0.2139694691252292
1684180376225527200,11.905927734375,2.0199043749827204,-1.0664167404442435,-0.22242236130143297
1684180376235568800,11.91596923828125,1.9030382634189074,-0.8511848449060179,-0.14712047560118166
1684180376245610200,11.926010498046876,1.6895370483867822,-0.5630645751089784,-0.13404154783554056
1684180376255651600,11.936052001953126,1.4077924489978142,-0.2592306138369791,-0.25634717958513237
1684180376265693100,11.946093505859375,0.9346542358801576,0.07935714708635153,-0.37566185001077496
1684180376275734400,11.956134765625,0.28680187458736367,0.23164367666970573,-0.7236802577573961
1684180376285776000,11.966176513671876,-0.5574851632626863,0.32298564914950684,-1.0895245075367055
1684180376295817400,11.9762177734375,-1.4999034404981106,0.3091716766439025,-1.3891947269067457
1684180376305859000,11.98625927734375,-2.3856306075326907,0.2521648406781741,-1.467869043440917
1684180376315900300,11.99630078125,-2.673536300655472,0.25925445559953963,-1.4415414334323204
1684180376325941900,12.00634228515625,-2.095569133799528,0.3368082046348417,-1.25215148926241
1684180376335983300,12.0163837890625,-0.9933966993539628,0.4205417633455394,-0.730040550356419
1684180376346024900,12.02642529296875,0.05019846558162964,0.33965396881385507,-0.2716755866503929
1684180376356066200,12.036466552734376,0.8022086024975514,0.2052173613922741,0.07032895084167501
1684180376366107800,12.04650830078125,1.295295357689152,0.09445858000489092,0.37077021602695853
1684180376376149200,12.056549560546877,1.6529631615176936,-0.08028411871505867,0.6584513188014357
1684180376386190800,12.066591064453124,1.862432599007079,-0.20806503308430752,0.9893851280279707
1684180376396232100,12.076632568359376,1.9529777765908916,-0.326585769538127,1.280640601931519
1684180376406273600,12.086674072265623,1.8442533017126952,-0.49329757685921255,1.4648869038109242
1684180376416315100,12.096715576171874,1.5559895038529874,-0.6489677431029396,1.5521266459923664
1684180376426356600,12.106757080078124,1.120349526251943,-0.775229454083844,1.5956408977341188
1684180376436398000,12.11679833984375,0.5958395005087219,-0.7961320876649606,1.6623406411519523
1684180376446439600,12.126840087890624,0.081867471278507,-0.747964859083782,1.6803015469723055
1684180376456480900,12.13688134765625,-0.3533495069231669,-0.5785684585876605,1.5352175235801806
1684180376466522600,12.1469228515625,-0.6197943688085151,-0.3888530731004928,1.2762312889030865
1684180376476563900,12.15696435546875,-0.6716938018514375,-0.1790294646086446,0.9857022760308946
1684180376486605200,12.167005615234377,-0.5058563946927697,0.0031375884014212267,0.6951463223346186
1684180376496646800,12.177047119140624,-0.22872829433662886,0.13165378561870397,0.392512798416656
1684180376506688400,12.1870888671875,0.06364850700376427,0.1853885649218161,0.07032918930295314
1684180376516729800,12.197130126953123,0.3252827525627051,0.16248703019756325,-0.21250367179410481
1684180376526771100,12.207171630859374,0.46985435468455666,0.09677696238657409,-0.43759489062219026
1684180376536812600,12.217213134765624,0.48679286231526264,-0.025785446236716567,-0.5937788486309474
1684180376546854300,12.227254638671877,0.40028873077702615,-0.20975685119036988,-0.6218748092401895
1684180376556895600,12.237296142578124,0.29625189296869503,-0.3904867173248362,-0.6010994911516466
1684180376566937000,12.24733740234375,0.17129638795311927,-0.5320711136076045,-0.47928380961817707
1684180376576978600,12.25737890625,0.08420802649738961,-0.6274414063524973,-0.3044073581356897
1684180376587020000,12.26742041015625,0.019472157581391942,-0.6217174530766106,-0.08151769643666208
1684180376597061600,12.2774619140625,0.053256951357862826,-0.41257572176927837,0.046335697248838556
1684180376607102900,12.28750341796875,0.0723160655484918,-0.1942701338922817,0.15432834628320993
1684180376617144600,12.297544921875,0.13342796263398832,-0.09569931020949571,0.1371915339355564
1684180376627185800,12.307586181640623,0.2069558798573053,-0.09559440624036515,-0.04145622253984562
1684180376637227400,12.3176279296875,0.30770152799473616,0.09725570681014029,0.0330555438213191
1684180376647268800,12.327669189453124,0.44541329150896525,0.31264591207315934,0.06686854350963277
1684180376657310400,12.337710693359377,0.570370972186461,0.4139451979061058,0.05190444007523804
1684180376667351700,12.347752197265624,0.6500198842157779,0.42510509495180276,0.2110202313903905
1684180376677393300,12.357793701171875,0.6688635945138334,0.39439678181578636,0.3566675185660361
1684180376687434600,12.3678349609375,0.6212055682627943,0.3412132263871925,0.48586940767160086
1684180376697476300,12.377876708984376,0.45482772596065496,0.31588268281179943,0.688950777038551
1684180376707517600,12.38791796875,0.21450445048095443,0.1944475174397369,0.9145877361840584
1684180376717559200,12.397959716796874,0.005405127826027025,-0.08454036702515616,1.1017954350714838
1684180376727600600,12.4080009765625,-0.17025679345875241,-0.44874763477138574,1.240288019169366
1684180376737642200,12.41804248046875,-0.3008551300529106,-0.7543907165399742,1.286485195199345
1684180376747683600,12.428083984375,-0.38266664731013994,-0.9011583328744776,1.3262845277715536
1684180376757725100,12.43812548828125,-0.41832602034197525,-0.9374399185498615,1.3102903365976946
1684180376767766400,12.448166748046877,-0.4510364533826441,-0.9303865433469346,1.2172213793974334
1684180376777808000,12.45820849609375,-0.48521122328928734,-0.7080612182597776,0.9802005290908371
1684180376787849400,12.468249755859375,-0.4496223926430487,-0.3764762879611656,0.600745201008138
1684180376797891000,12.47829150390625,-0.34842592487917073,-0.03899002069628895,0.28324556338527224
1684180376807932300,12.488332763671876,-0.2813601791311792,0.20874500273787236,0.02294468864670332
