time,seconds_elapsed,z,y,x
1684002379177757900,0.045158203125,7.821974410381605e-11,1.230075782441618e-10,8.999642940099147e-11
1684002379187800000,0.055200439453125,-1.6455557347989125,-0.985417127614167,-0.28094482421662487
1684002379197842100,0.065242431640625,-0.2923729419861311,-0.8420689104747426,-0.5727024077886249
1684002379207884200,0.07528466796875,2.1643316746878725,0.5577056407879738,-0.12352752684262593
1684002379217926300,0.08532666015625,2.6147184370826615,-0.1888451577793693,0.6400194167411517
1684002379227968400,0.095368896484375,2.613706588902461,0.40586304672703105,-1.0942192078004152
1684002379238010600,0.105410888671875,2.6238932608896204,0.4473881721307741,-3.221477985362794
1684002379248052600,0.115453125,1.9685554503457616,-0.6912417410511495,-3.180237293352832
1684002379258094800,0.1254951171875,1.3129004238734503,-0.6837759017221385,-2.435970306412367
1684002379268136900,0.135537353515625,0.7249630689860332,0.3059127331109394,-1.3658728598829344
1684002379278179000,0.145579345703125,0.7980622649951594,1.0824719667247,-0.5591077803779557
1684002379288221100,0.15562158203125,0.8655277488824697,0.19544506075153034,0.8426456450844595
1684002379298263200,0.16566357421875,1.168030023512732,0.16031408297495844,1.6000242233223534
1684002379308305300,0.175705810546875,1.9063336850643717,0.5108747481950251,1.2912530899352794
1684002379318347400,0.185747802734375,2.351705074436308,0.20799088481253067,0.9885616300996917
1684002379328389600,0.1957900390625,2.2835593222343316,-0.20514845851301675,0.38259792340196713
1684002379338431600,0.20583203125,2.4229426384377097,-0.6121950150260524,0.28300571444608597
1684002379348473800,0.215874267578125,3.1269464493451924,-0.861676216011008,0.45318984997613326
1684002379358515900,0.225916259765625,3.402242898869486,-1.7354147434724712,0.7223682402126774
1684002379368558000,0.23595849609375,3.385547161064544,-1.6520111561401303,0.3633480072908309
1684002379378600100,0.24600048828125,2.8354871273634115,-1.4428677557912457,0.07709217059625206
1684002379388642200,0.256042724609375,2.1228358744430107,-1.1466841697447634,-0.34412002561995925
1684002379398684300,0.266084716796875,1.6910455226368248,-1.3492629528163549,-0.6723585130118214
1684002379408726400,0.276126953125,1.528344631249815,-1.2108488083064455,-1.2635617255838427
1684002379418768600,0.2861689453125,1.2534364461744052,-2.0193376540742567,-1.9065566063499906
1684002379428810600,0.296211181640625,0.7603463530548124,-1.841765165322909,-1.7715668678408736
1684002379438852800,0.306253173828125,0.40500235539483576,-1.4601836204608345,-1.231392860443707
1684002379448894900,0.31629541015625,1.144901752574572,-1.2347898482379085,-0.6310324669854341
1684002379458937000,0.32633740234375,1.511168241582366,-1.4494214056798342,0.10641336442339912
1684002379468979100,0.336379638671875,0.6785122156138991,-2.319091796947146,2.515193462475879
1684002379479021200,0.346421630859375,0.17433777461087072,-1.2870025636107487,3.07050895704669
1684002379489063300,0.356463623046875,0.17886877047224384,0.010637760214125474,2.29800605771069
1684002379499105500,0.366505859375,0.22616715740080728,1.1695656776744936,0.32766532896597383
1684002379509147600,0.3765478515625,0.09581178428326903,0.15730857860642336,-1.172969341410582
1684002379519189600,0.386590087890625,-0.17926600572722073,-1.5865883827947111,-0.8746190070450455
1684002379529231800,0.396632080078125,-0.3296573162472716,-1.907228946644233,-0.2336421011739449
1684002379539273900,0.40667431640625,-0.24928903583568543,-2.347318649257913,0.4968791008089166
1684002379549316000,0.41671630859375,0.25345247978347285,-1.9828662871104048,0.6862111093220091
1684002379559358100,0.426758544921875,1.4084029198313532,-1.4596085548028142,0.9732995031700629
1684002379569400200,0.436800537109375,2.365143298981522,-1.4877023697798366,2.598332405117153
1684002379579442100,0.446842529296875,2.841446161177387,-1.250613212675643,4.309351920991026
1684002379589484200,0.456884521484375,2.4252634047319637,-0.3596587180172225,6.149772643964284
1684002379599526300,0.4669267578125,1.9858523607016636,0.23783969874167246,6.859913349119477
1684002379609568400,0.47696875,0.8000252246807937,0.4339609144736947,6.258726596814827
1684002379619610600,0.487010986328125,-0.6417390703977192,-0.4613480568456639,4.2524538040908535
1684002379629652600,0.497052978515625,0.5735447406699687,-1.4564576148369799,1.810638904638218
1684002379639694800,0.50709521484375,-0.20476815114714328,-0.2577142714804068,-0.7027516363899591
1684002379649736900,0.51713720703125,-0.32750001543170176,-0.9484972953977969,-0.7271685600117831
1684002379659779000,0.527179443359375,-1.107373952841725,-0.9218192101822308,-1.1725258827684188
1684002379669821100,0.537221435546875,-0.16504602118337278,-1.3288269041792424,-1.0144853590183178
1684002379679863200,0.547263671875,-0.05493257931267623,-0.5220093726039423,-0.7539682389065983
1684002379689905300,0.5573056640625,0.1942617596539995,-0.2823710442488393,-0.044262886065042764
1684002379699947400,0.567347900390625,0.6381525397211453,0.17583465569279316,0.5007405280992852
1684002379709989600,0.577389892578125,0.04146017148987305,-1.2543182371482242,0.9456834792649073
1684002379720031600,0.58743212890625,0.00019115220275794142,-1.5232696531602572,3.6219949723174762
1684002379730073800,0.59747412109375,-0.10175786170098726,0.006038665794205122,1.7298827172438234
1684002379740115900,0.607516357421875,0.21324475116785,1.707284927335144,0.6715207100425687
1684002379750158000,0.617558349609375,0.6831701993886928,3.2889792918489023,-0.397683620440817
1684002379760200100,0.6276005859375,-0.0781514942628525,2.7811322212662533,-1.6930027006296477
1684002379770242200,0.637642578125,0.20050102478511064,2.425843238866186,-1.1953101158004371
1684002379780284300,0.647684814453125,0.2422004044401543,1.4701485634244567,-0.9576930998534741
1684002379790326400,0.657726806640625,0.8891769052762182,0.0030298232809940102,-0.9218707085946175
1684002379800368600,0.66776904296875,1.5073391199650616,-0.6927714346470377,-0.673507690420741
1684002379810410600,0.67781103515625,2.082019090522605,-0.6846489906025762,-0.4211902617397641
1684002379820452800,0.687853271484375,2.4043755532365205,-0.08975458145762101,0.021390438104252032
1684002379830494900,0.697895263671875,2.6461842059555516,0.8746471403426863,0.030665874496605013
1684002379840537000,0.7079375,2.3978190422260175,2.498074531733765,0.39638662345775516
1684002379850579100,0.7179794921875,1.8491736650898682,3.5063018798973404,0.75390052791323
1684002379860621200,0.728021728515625,1.7144638300885735,3.727685213043359,0.2349963189105541
1684002379870663300,0.738063720703125,1.8293817042992941,1.9755520820177837,-1.0769519806424541
1684002379880705500,0.74810595703125,1.546574830943514,0.27981328955600504,-1.5197696685058255
1684002379890747600,0.75814794921875,1.4961755277203304,-0.9969773291861662,-2.0492668153045868
1684002379900789600,0.768190185546875,1.2872489690541897,-1.4369897842421657,-2.381152629879672
1684002379910831800,0.778232177734375,0.6311123371596904,-1.7466173173089978,-2.897197246621963
1684002379920873900,0.7882744140625,1.207493662731288,-2.22320365890793,-1.4169573783421785
1684002379930916000,0.79831640625,0.6061042546922576,-1.80400609968811,-0.5813331603259174
1684002379940958100,0.808358642578125,-0.5542363523529822,-1.5005970001772067,0.8750128744747212
1684002379951000200,0.818400634765625,-1.5182642937982571,-0.5428333281922054,2.1216120719276947
1684002379961042400,0.82844287109375,-1.8799309731588074,1.2246918677597427,2.3778643609357935
1684002379971084500,0.83848486328125,-1.4218715429032813,4.745675563715064,2.5080609320085703
1684002379981126600,0.84852685546875,-1.9576052428000623,3.8258628844798404,2.579815387824276
1684002379991168600,0.858569091796875,-2.0592658520464724,2.7659621238249303,2.6576533317554536
1684002380001210800,0.868611083984375,-1.3844280241160463,2.104041099473929,2.060556888689177
1684002380011252900,0.8786533203125,-0.8073819877331532,0.9061093330512651,0.903862476327872
1684002380021295000,0.8886953125,-0.3904235960342149,-0.3961243629943661,-0.14819812761263987
1684002380031337100,0.898737548828125,-0.07432214177039048,-1.842974662821858,-1.2032160758049448
1684002380041379200,0.908779541015625,0.2485271096353426,-2.6072683334024607,-2.3092072010752167
1684002380051421400,0.91882177734375,0.7765676377676001,-2.226792335404861,-2.2094194890718972
1684002380061463200,0.928863525390625,1.3517212866823112,-0.7773547173296673,-1.3358116150148476
1684002380071505300,0.93890576171875,1.3267813921858524,-0.30301427837512923,-0.06186580653154123
1684002380081547400,0.94894775390625,0.5536882876952895,1.099100589718106,1.4937252999718547
1684002380091589600,0.958989990234375,-0.009867400035066816,3.227054596081093,1.452371597394751
1684002380101631600,0.969031982421875,-1.0436069965663894,3.0343360902339898,1.0245542525126619
1684002380111673800,0.97907421875,-2.1379270553895293,1.9338326454158616,0.027971744530006178
1684002380121715900,0.9891162109375,-2.5683920383436147,0.081110954408933,-1.0631518364701236
1684002380131758000,0.999158447265625,-2.083602189984839,-1.636232375945106,-1.743363142154126
1684002380141800100,1.009200439453125,-0.9462335705006836,-2.022051811213118,-1.7020492554215825
1684002380151842200,1.01924267578125,0.46621674302237426,-1.4339284896545184,-1.255284547720336
1684002380161884300,1.02928466796875,1.499101281321927,-1.3732252121435913,-0.765715599048398
1684002380171926400,1.039326904296875,2.1695554256861294,-1.7415332792334417,-0.11412572868904845
1684002380181968600,1.049368896484375,2.510212898098638,-1.893105506969274,0.5468950270774604
1684002380192010600,1.0594111328125,2.399407386809553,-1.8402099610245748,1.058439016290874
1684002380202052800,1.069453125,2.0943679809938636,-1.5079603196656628,1.4554655551831859
1684002380212094900,1.079495361328125,1.209239006111814,-1.2118711471388204,1.6018316745256127
1684002380222137000,1.089537353515625,0.04030324518633442,-1.1011667252361204,1.4314136506313557
1684002380232179100,1.09957958984375,-0.824478030266143,-1.0312623977632858,1.3952205180539723
1684002380242221200,1.10962158203125,-1.2257835865198659,-1.308094024680332,2.199821472167699
1684002380252263300,1.119663818359375,-1.1206736565082238,-1.1737031937238276,2.5447149276886774
1684002380262305500,1.129705810546875,-0.6822042464908445,-0.5409269333828032,2.3037562371026707
1684002380272347600,1.139748046875,-0.5963867902600605,0.07623863217463059,1.4676415921002093
1684002380282389600,1.1497900390625,-0.49353420743967313,-0.022348403938222256,0.35031402114132076
1684002380292431800,1.159832275390625,-0.43068453668751827,-0.735448837253006,-0.022067427792584863
1684002380302473900,1.169874267578125,-0.041521519514527414,-0.9751768112064079,0.04397165760121323
1684002380312516000,1.17991650390625,0.8208842277447879,-0.718258857610497,0.2797113658316022
1684002380322558100,1.18995849609375,1.538524150980482,-1.236062049952123,0.4453123806845525
1684002380332600200,1.200000732421875,1.5817213059717194,-2.1782808304972363,0.6222261190168188
1684002380342642400,1.210042724609375,1.351047158401151,-2.406285285909301,1.0556185244885796
1684002380352684500,1.2200849609375,0.37666532389368185,-2.5987148284450394,1.0927886963061377
1684002380362726600,1.230126953125,-0.8555072547412955,-2.6836156845406745,1.0769619941451947
1684002380372768600,1.240169189453125,-1.8521687984350776,-2.5955543517542385,1.046984195690095
1684002380382810800,1.250211181640625,-2.325782775922025,-2.1125860213764245,0.8237149714295284
1684002380392852900,1.26025341796875,-2.40524101255761,-1.4219665528706211,0.342742204830815
1684002380402895000,1.27029541015625,-2.30576133728144,-0.8952779769068656,-0.45734453209745235
1684002380412937100,1.280337646484375,-1.7871308326897546,-0.5997333527070846,-1.1919524670073303
1684002380422979200,1.290379638671875,-1.083626031844343,-0.5511999130033173,-1.4958187342308702
1684002380433021400,1.300421875,-0.6457195877708037,-0.5815763472630106,-1.49302947511388
1684002380443063500,1.3104638671875,-0.45749521261839377,-0.8047571183308221,-1.39312970645611
1684002380453105600,1.320506103515625,-0.2305568456947437,-0.8372669221801055,-1.2536232471775723
1684002380463147600,1.330548095703125,-0.026167750425394116,-0.5450181961841848,-0.9886852502862933
1684002380473189800,1.340590087890625,0.16567158698006124,-0.4958019254790252,-0.8522061109525058
1684002380483231900,1.35063232421875,0.2585483790795925,-0.5806417465467493,-0.8096866607292447
1684002380493274000,1.36067431640625,0.31367266176344283,-0.6197996139664815,-0.9150058030797411
1684002380503316100,1.370716552734375,0.24713587764477984,-0.7128143310260511,-0.9797183275279463
1684002380513358300,1.380758544921875,0.24201786512805995,-0.7687683106253302,-0.9365874528346682
1684002380523400400,1.39080078125,0.30130493643336487,-0.6264638901940394,-0.8153336047709766
1684002380533442600,1.4008427734375,0.42343652245051266,-0.5392246245427149,-0.7039775847892147
1684002380543484600,1.410885009765625,0.4824465512732108,-0.46127033246714483,-0.6421890259362395
1684002380553526400,1.4209267578125,0.5826320648665151,-0.1406612395052874,-0.6955583096192502
1684002380563568800,1.43096923828125,0.7525979279495555,0.1913337707459056,-0.7865604162026378
1684002380573610600,1.441010986328125,1.0605480671604344,0.6259431840782377,-1.0228253603524542
1684002380583653000,1.451053466796875,1.2583634853933408,0.7727985381785824,-0.8273034095673966
1684002380593694900,1.46109521484375,1.4801955223491272,0.7507181167930078,-0.5184800624328729
1684002380603737300,1.4711376953125,1.5561436415469811,0.6703643797893233,-0.1722247600653811
1684002380613779100,1.481179443359375,1.4931503533590802,0.8421230315121112,0.08338785165524953
1684002380623821600,1.491221923828125,1.2801818849067284,1.0018873214904909,0.33794879916785975
1684002380633863300,1.501263671875,1.038786292150227,1.0873165131074,0.5474669933593375
1684002380643905500,1.511305908203125,0.7709536552575361,0.956059455898096,0.6084337235310759
1684002380653947600,1.521347900390625,0.6632473469014608,0.8005132675607042,0.45171928419190155
1684002380663989600,1.53139013671875,0.5628077984228413,0.6002864836614659,0.3558492660455217
1684002380674031800,1.54143212890625,0.4262177944854181,0.23728561417518296,0.2670369148029192
1684002380684073900,1.551474365234375,0.3494158982265298,-0.0656785965046706,0.13550686840196205
1684002380694116000,1.561516357421875,0.26968896388645,-0.2441549301131617,-0.0937316417304219
1684002380704158100,1.57155859375,0.1558973788458576,-0.2818670271378512,-0.4259469510105802
1684002380714200200,1.5816005859375,0.08170700076624351,-0.2055177687472292,-0.6811678408779297
1684002380724242400,1.591642822265625,0.053489685076128377,-0.04204559329665481,-0.8415619133875055
1684002380734284500,1.601684814453125,0.019231796332407194,0.13145923608030355,-0.9491719006530597
1684002380744326600,1.61172705078125,0.03617501266126313,0.2645187377746836,-0.9654538630249273
1684002380754368600,1.62176904296875,0.05634093282345523,0.3140544891468997,-0.9380546807380274
1684002380764410800,1.631811279296875,0.005729198652830954,0.28734397892294133,-0.9068460463917013
1684002380774452900,1.641853271484375,-0.0769128799766876,0.2178401947509011,-0.8584892748783132
1684002380784495000,1.6518955078125,-0.21204423916287524,0.10537624365345925,-0.7249212265922367
1684002380794537100,1.6619375,-0.3434689044980586,0.033337593102235934,-0.648968219746792
1684002380804579200,1.671979736328125,-0.4368007183117634,-0.04144191754263345,-0.6010820866100834
1684002380814621400,1.682021728515625,-0.5511887074105078,-0.4313297271453389,-0.6523706913323618
1684002380824663600,1.69206396484375,-0.7179489136652248,-0.956856727754292,-0.9993089437834388
1684002380834705600,1.70210595703125,-0.6375653744813164,-0.33786487576691204,-0.9925335646087811
1684002380844747600,1.712148193359375,-0.6986033916376831,-0.2821741103743054,-0.9310705662203743
1684002380854789800,1.722190185546875,-0.6892936230476884,-0.18933963769590165,-0.8477172850518928
1684002380864831900,1.732232421875,-0.6754324436404193,-0.033293724001120226,-0.7097799777271964
1684002380874874000,1.7422744140625,-0.6417934894101356,0.17200565339115217,-0.5996787546581287
1684002380884916100,1.752316650390625,-0.5712125300730594,0.432023048413466,-0.4154417516413345
1684002380894958300,1.762358642578125,-0.531528711322444,0.49913787852346625,-0.2456893920378094
1684002380905000400,1.77240087890625,-0.543397426615454,0.34289360039373173,-0.1110630035853511
1684002380915042600,1.78244287109375,-0.5362744332021046,0.19467544565525577,-0.10579586020296158
1684002380925084600,1.792485107421875,-0.4551496505200032,0.1612672804720896,-0.17741131792625087
1684002380935126600,1.802527099609375,-0.3811302184635141,0.2134189605554054,-0.24204063408867593
1684002380945168800,1.8125693359375,-0.35126709930776956,0.18374156961057228,-0.27593231199548496
1684002380955210900,1.822611328125,-0.3407158850688794,0.12727451306650409,-0.2790970802986314
1684002380965253000,1.8326533203125,-0.33167624487112274,0.034342765742620414,-0.22791409483705374
1684002380975295200,1.842695556640625,-0.3042547701819612,-0.004623413107515843,-0.12736248968291053
1684002380985337300,1.852737548828125,-0.2463304997180239,0.01944732660505872,-0.04444479952110563
1684002380995379400,1.86277978515625,-0.11580324176132688,0.06826114652428704,0.0043776033753583085
1684002381005421600,1.87282177734375,0.018615722793174395,0.011123657381800727,0.07395505895716316
1684002381015463600,1.882864013671875,0.1286015508812416,0.02310752871059675,0.08829164514976963
1684002381025505600,1.892906005859375,0.13583159435446188,0.011702537569021825,0.09788322446630911
1684002381035547800,1.9029482421875,0.09572458264881084,-0.010276794550008425,0.06250834454291171
1684002381045589900,1.912990234375,0.05368804932235823,-0.00613880141892679,0.03518033026872773
1684002381055632000,1.923032470703125,0.000663757238919222,0.06271839145402673,-0.019891738795311822
1684002381065674200,1.933074462890625,0.02629327771264876,0.21046638480052812,-0.05768132220143069
1684002381075716300,1.94311669921875,0.12269186955292757,0.37480449673798866,0.07379221914737406
1684002381085758400,1.95315869140625,0.21621680266939822,0.5007143020894461,0.14270186430685608
1684002381095800600,1.963200927734375,0.21063280105266338,0.5497083663949343,0.21802687648073082
1684002381105842600,1.973242919921875,0.00924015028653896,0.4972772597815467,0.3776900767914406
1684002381115884600,1.98328515625,-0.2720861434808036,0.45256233234286086,0.6092655657989804
1684002381125926800,1.9933271484375,-0.5065994261986732,0.48639583606204295,0.7152705192617668
1684002381135968600,2.003369140625,-0.6593704224834895,0.5457143783432951,0.7543873786909827
1684002381146011100,2.013411376953125,-0.6804518699106236,0.5087099074457446,0.6812961101700845
1684002381156052900,2.023453369140625,-0.5875456333602028,0.4878063203306138,0.5794711112608665
1684002381166095300,2.03349560546875,-0.5382835864132475,0.4975910187223458,0.3479793070739685
1684002381176137100,2.04353759765625,-0.5231430529210065,0.5267219543205751,0.042012691440812995
1684002381186179200,2.05357958984375,-0.49829339991957655,0.5641651155051862,-0.3625578879544692
1684002381196221400,2.063621826171875,-0.5568330288662542,0.5225200653350657,-0.7243928909621461
1684002381206263500,2.073663818359375,-0.6887922286949347,0.4978742598482997,-1.0896446704226306
1684002381216305600,2.0837060546875,-0.887501001433217,0.41113090517709583,-1.2290929556867236
1684002381226347600,2.093748046875,-1.091578006695426,0.2450523375001983,-1.2571487425828856
1684002381236389800,2.103790283203125,-1.3170993327496399,0.06576347352293826,-1.21054124819582
1684002381246431900,2.113832275390625,-1.4973814488938422,-0.21092033392379222,-1.119112491539381
1684002381256474000,2.12387451171875,-1.62236332890668,-0.6922206878387086,-0.8911614418497533
1684002381266516100,2.13391650390625,-1.6437447071818194,-1.2055463791171264,-0.48321676248540457
1684002381276558300,2.143958740234375,-1.5017616749243126,-1.6050271988086093,0.12298941620731306
1684002381286600400,2.154000732421875,-1.076209545250663,-1.902480125395177,0.7169477940081936
1684002381296642600,2.16404296875,-0.38546490671891015,-1.956963539186364,1.1759629248963113
1684002381306684600,2.1740849609375,0.06611394872126683,-2.095812797612713,1.47557830823189
1684002381316726600,2.184127197265625,0.1216242314495636,-2.1639747619972796,1.7075302600555662
1684002381326768800,2.194169189453125,-0.2437787056505858,-1.8576240537873183,1.842999935155224
1684002381336810900,2.20421142578125,-0.48855090134805945,-0.7007398604383764,1.6167993547172141
1684002381346853000,2.21425341796875,-0.06467211240611363,0.40542411818370017,1.3802871703125374
1684002381356895200,2.224295654296875,0.6602984667228081,1.1390352250149074,1.035665988994985
1684002381366937300,2.234337646484375,1.2839716671445227,1.5287876129315883,0.6730270386047136
1684002381376979400,2.2443798828125,1.7155442238652012,1.6752200128247525,0.2239513395755599
1684002381387021600,2.254421875,1.9503474235728417,1.5640325546204514,-0.05819535254674914
1684002381397063600,2.264464111328125,2.0048546792110584,1.466708183474139,-0.3446772097656482
1684002381407105600,2.274506103515625,1.8634386063190307,1.3676176071734176,-0.7711716890869826
1684002381417147800,2.28454833984375,1.7237610818129543,0.9286165237041325,-1.0197936296475278
1684002381427189900,2.29459033203125,1.5880484582280132,0.29853820806385023,-1.1789799928519393
1684002381437232000,2.304632568359375,1.4964256286501059,-0.10988330854041711,-1.3132268190150542
1684002381447274200,2.314674560546875,1.434253096574767,-0.27689838399323935,-1.332900047263306
1684002381457316300,2.324716552734375,1.3697282076431578,-0.5122365951440454,-1.0414739846828989
1684002381467358400,2.3347587890625,1.151048660366888,-0.7237482071628359,-0.627639531999914
1684002381477400600,2.34480078125,0.8665021657383938,-0.6975812912236512,-0.2828457356763916
1684002381487442600,2.354843017578125,0.6536396740760337,-0.5156049728835629,-0.1066675186317903
1684002381497484600,2.364885009765625,0.4541009961891952,-0.3881006240442408,0.10215520853102412
1684002381507526800,2.37492724609375,0.20497620112204018,-0.19609832764594146,0.15627932565961528
1684002381517568900,2.38496923828125,-0.09357047064207065,-0.10717296597160407,0.07187843316195802
1684002381527611100,2.395011474609375,-0.4504001139004071,0.08636760722663496,-0.17211413390741115
1684002381537653200,2.405053466796875,-0.6994512677832528,-0.12136268621219515,-0.3389217853917936
1684002381547695300,2.415095703125,-0.8875080943976414,-0.3610906601332715,-0.6487244368893258
1684002381557737400,2.4251376953125,-0.8950682281351396,-0.4794645309378452,-0.8482612372223062
1684002381567779600,2.435179931640625,-0.6127241851600055,-0.5574092866570998,-0.8883510827624688
1684002381577821600,2.445221923828125,-0.11982604856750417,-0.5228738784870474,-0.6960890292341406
1684002381587863700,2.45526416015625,0.44026795032639393,-0.49748420720466513,-0.3598377704434328
1684002381597905800,2.46530615234375,0.992666840535652,-0.4717721938150631,-0.05333518966881588
1684002381607948000,2.475348388671875,1.4774677753421035,-0.4030761718793407,0.10708451264847808
1684002381617990100,2.485390380859375,1.856224775240338,-0.15343570695277303,0.11607336987333285
1684002381628032200,2.4954326171875,2.085734844251593,0.03794574753373162,0.09556913379654317
1684002381638074300,2.505474609375,2.2057631016313937,0.16903209686180262,0.07500839236383806
1684002381648116400,2.515516845703125,2.2439374924474973,0.27342700950033844,0.14751458176802396
1684002381658158600,2.525558837890625,2.2152459621267204,0.33696460708764964,0.2175891398747722
1684002381668200400,2.535600830078125,2.162210941395456,0.2907838821256212,0.27383065231244286
1684002381678242700,2.54564306640625,2.055734157529194,0.18792057028009568,0.40278553972557896
1684002381688284600,2.55568505859375,1.9033795594914484,0.09284591681392083,0.5727710723189156
1684002381698327000,2.565727294921875,1.7534060477415048,0.03146934494837965,0.746794700732557
1684002381708368800,2.575769287109375,1.5847336053575922,0.06789398195324226,0.7932159898940494
1684002381718410900,2.585811279296875,1.476971387771274,0.1372365952128565,0.7598903178263359
1684002381728453000,2.595853515625,1.3719283342339084,0.18203926088058822,0.7445974350097496
1684002381738495200,2.6058955078125,1.2639925480098155,0.4096670151618292,0.6557581424695506
1684002381748537300,2.615937744140625,1.1236844063271627,0.5189266203757744,0.5722405911201648
1684002381758579400,2.625979736328125,1.0216851233572404,0.5412359236910856,0.4769170283851682
1684002381768621600,2.63602197265625,0.9624178411161657,0.5559234618856781,0.3113424778079477
1684002381778663600,2.64606396484375,0.9180516005061901,0.5965890883266675,0.10749125479880596
1684002381788705600,2.656106201171875,0.8565239906661896,0.3581180573354786,-0.052318573052503176
1684002381798747800,2.666148193359375,0.8223066925153499,0.12589645376950945,-0.25898766505418735
1684002381808789900,2.6761904296875,0.8098526001621322,-0.09763336180135027,-0.3115812539951214
1684002381818832000,2.686232421875,0.7897272110147872,-0.3963661193604734,-0.4030994176402053
1684002381828874200,2.696274658203125,0.7105807066738955,-0.3791618346232721,-0.5035190583776917
1684002381838916300,2.706316650390625,0.590523719829929,-0.3336973189614462,-0.6210516689656923
1684002381848958400,2.71635888671875,0.4438799619570791,-0.05739688890182419,-0.7199969291694728
1684002381859000600,2.72640087890625,0.28388625383887867,0.16518402097843338,-0.783189892778027
1684002381869042600,2.736443115234375,0.19439381356167953,0.21019458772092792,-0.591752290855738
1684002381879084600,2.746485107421875,0.13260871183202766,0.12824058532266314,-0.3719451428851588
1684002381889126800,2.75652734375,0.08813735853264736,0.04156208041986593,-0.18093013776495198
1684002381899168900,2.7665693359375,0.11366662371941254,0.012044906650848406,0.08311057098341326
1684002381909211100,2.776611572265625,0.09304934744779941,0.16576290129540125,0.23814892770845145
1684002381919253200,2.786653564453125,0.1300562621204091,0.19416522978489195,0.3961091042261393
1684002381929295300,2.79669580078125,0.12833413479233538,0.2549905776821044,0.4920413493613093
1684002381939337400,2.80673779296875,0.12121587988145503,0.34570884703431903,0.45458722122792067
1684002381949379600,2.81677978515625,0.17113164075499573,0.35863208776903516,0.5122456550893764
1684002381959421600,2.826822021484375,0.20007222907719865,0.3249235153551253,0.3945498466733132
1684002381969463600,2.836864013671875,0.2162988781922858,0.1639747619922578,0.25393438331025553
1684002381979505800,2.84690625,0.27513778199507327,0.058283805975979826,0.0031197072000282507
1684002381989548000,2.8569482421875,0.3355137407447605,-0.1966514587355316,-0.189196825034363
1684002381999590100,2.866990478515625,0.4443233905779873,-0.5829334259306629,-0.38957715039478563
1684002382009632200,2.877032470703125,0.5522477626936004,-0.9638423920560307,-0.45124411575933043
1684002382019674300,2.88707470703125,0.6741349101301963,-1.220260620173513,-0.5206714869155576
1684002382029716400,2.89711669921875,0.7545148134601705,-1.212234497125691,-0.6372283697767237
1684002382039758600,2.907158935546875,0.8334497211656602,-0.9433965683282708,-0.8113756181776628
1684002382049800600,2.917200927734375,0.8636763096653072,-0.4290428161794379,-1.0264204740855856
1684002382059842700,2.9272431640625,0.8387384414848312,-0.001982688987404731,-1.035578727702902
1684002382069884800,2.93728515625,0.7687886954256768,0.27781295780763904,-0.8281145097084149
1684002382079927000,2.947327392578125,0.6689547300411796,0.4369335175407978,-0.7135465144640787
1684002382089969100,2.957369384765625,0.5220631360931068,0.3642539978423923,-0.651161909113408
1684002382100011200,2.96741162109375,0.4285305143146642,0.20882606513581878,-0.49625349051098444
1684002382110053300,2.97745361328125,0.35166209947817884,-0.19121837623714422,-0.38701057434131747
1684002382120095400,2.987495849609375,0.2649481891967103,-0.5289525984528369,-0.21564841271057605
1684002382130137600,2.997537841796875,0.2781229615941098,-0.718632697922346,0.16320705406969302
1684002382140179600,3.007580078125,0.29019087565046064,-0.7595224379812203,0.4193530083693573
1684002382150221700,3.0176220703125,0.36101555825038434,-0.5716037749522133,0.5816240311371939
1684002382160263900,3.027664306640625,0.45796802640378925,-0.26077270507994965,0.688115596890069
1684002382170306000,3.037706298828125,0.5312378406465919,-0.03981018082050522,0.7487690449075859
1684002382180348100,3.04774853515625,0.6006679535562154,0.1368856429137671,0.8115217685581769
1684002382190389900,3.057790283203125,0.6588376163789496,0.262281417888806,0.847661971986984
1684002382200432000,3.06783251953125,0.6801443099017106,0.28169918044337333,0.8358767033404124
1684002382210474200,3.07787451171875,0.7690240741198667,0.20034980759163543,0.8102209568247848
1684002382220516300,3.087916748046875,0.8331690430637924,0.14995956406519276,0.7930078505741328
1684002382230558400,3.097958740234375,0.8402748703922913,0.22129154204207083,0.7230684756347381
1684002382240600600,3.1080009765625,0.8106189966234587,0.34731197347958226,0.6061630248388162
1684002382250642600,3.11804296875,0.7390559912110348,0.3751268385315137,0.5164017677537928
1684002382260684600,3.128085205078125,0.6631340980006765,0.319366455189903,0.4678368568704155
1684002382270726800,3.138127197265625,0.6161275506257036,0.2281007765986637,0.37935853000829145
1684002382280768900,3.14816943359375,0.5588808654342703,0.13724422447119436,0.3536512851877475
1684002382290811100,3.15821142578125,0.549617946301466,0.09448528296280484,0.31874489785098165
1684002382300853200,3.168253662109375,0.5645955203579197,0.054320335466842534,0.3462626933402473
1684002382310895300,3.178295654296875,0.5913726686396615,-0.016728401207278816,0.3881015777875669
1684002382320937400,3.188337890625,0.6268782614727307,-0.039812088077656876,0.4156386853101271
1684002382330979600,3.1983798828125,0.6440995334701517,-0.12483215323674178,0.4696693421947818
1684002382341021600,3.208422119140625,0.6492410897630333,-0.13555908208938347,0.4976677894663993
1684002382351063700,3.218464111328125,0.6634182332799666,-0.1724328995612323,0.5046083926379598
1684002382361105800,3.22850634765625,0.6432058811997905,-0.14226341250338412,0.46919798847250593
1684002382371148000,3.23854833984375,0.5954861046199867,-0.10017681130952916,0.38906335838757794
1684002382381190100,3.248590576171875,0.5247862338809239,-0.0007896423953609586,0.2939352989300283
1684002382391232200,3.258632568359375,0.47275549175075177,0.05938816066490119,0.2315294740862315
1684002382401274300,3.2686748046875,0.38568782804762847,0.11862373371622538,0.17281913741912697
1684002382411316400,3.278716796875,0.2859258055818075,0.13207530980912396,0.1643092632310598
1684002382421358600,3.288759033203125,0.21702978004828274,0.12397575386306124,0.1271929739969354
1684002382431400600,3.298801025390625,0.15306641152074124,0.14607429504567238,0.1414635180083374
1684002382441442700,3.308843017578125,0.16549381610228364,0.1965274811408872,0.11442518235748868
1684002382451484800,3.31888525390625,0.1899186522644365,0.1868638992639982,0.10323381430926502
1684002382461527000,3.32892724609375,0.2050095051088129,0.1411256789956435,0.08640003211949204
1684002382471569100,3.338969482421875,0.26056629422864,0.030811309878497357,0.052219152411417474
1684002382481611200,3.349011474609375,0.31751888993447336,0.0017452240168652716,0.0032663345604564144
1684002382491653300,3.3590537109375,0.3581406473306261,-0.020296096804351044,-0.05086326598613601
1684002382501695400,3.369095703125,0.39823961252167533,-0.01140975960947338,-0.10283589363845161
1684002382511737600,3.379137939453125,0.4016709030253673,-0.017013549727116186,-0.17410373697314788
1684002382521779600,3.389179931640625,0.41504725821661625,-0.0459918977244578,-0.2116920948425399
1684002382531821700,3.39922216796875,0.41998344658523945,0.0006904600282944428,-0.23985517031980086
1684002382541863900,3.40926416015625,0.39775779833522934,0.02997398383548813,-0.28462052351949163
1684002382551906000,3.419306396484375,0.4104279874697852,0.03277206408927185,-0.29135322584671247
1684002382561948100,3.429348388671875,0.37543189540860133,0.05432891840202966,-0.335645437249863
1684002382571990200,3.439390625,0.3221670388789225,0.06376743304883382,-0.34835886951754585
1684002382582032300,3.4494326171875,0.2749117016791595,-0.006980895981941511,-0.38405251492422304
1684002382592074400,3.459474853515625,0.2079256177404539,-0.027089119112960715,-0.430455207681799
1684002382602116600,3.469516845703125,0.18069994440301274,-0.05625629417259631,-0.48022925860497206
1684002382612158600,3.47955908203125,0.12214460963328319,-0.05200290681382622,-0.5310842990587548
1684002382622200800,3.48960107421875,0.06120836731014018,-0.017288207924606464,-0.5501496791638447
1684002382632242600,3.49964306640625,0.009424924949603163,-0.016254424945950866,-0.5830127000701463
1684002382642285000,3.509685302734375,-0.02392238379897805,-0.022493362467484342,-0.6413826943743471
1684002382652326800,3.519727294921875,-0.025584757425147372,0.011501312171765657,-0.7367213965919359
1684002382662369200,3.52976953125,-0.017091393459343508,0.009679794396543106,-0.7853533030376512
1684002382672411100,3.5398115234375,-0.024864435228138596,-0.006326675412624353,-0.8254238366191033
1684002382682453200,3.549853515625,-0.020014584104449576,-0.026905059903877284,-0.8376412392206756
1684002382692495300,3.559895751953125,-0.01183778034705888,0.0075931548309587805,-0.7290587424892738
1684002382702537400,3.569937744140625,0.06200897700821418,0.02525424944182618,-0.5912004708946179
1684002382712579600,3.57997998046875,0.08948779108158995,0.01403808598651298,-0.4986373185173446
1684002382722621600,3.59002197265625,0.16397231817688526,0.04797267914816275,-0.2985823153152459
1684002382732663600,3.600064208984375,0.23259693382726782,0.04805755627274447,-0.10159456718135003
1684002382742705800,3.610106201171875,0.30202829840295603,0.06695270532074815,0.004053592745232462
1684002382752748000,3.6201484375,0.37173277128487464,0.18104934708414036,0.12845325473346367
1684002382762790100,3.6301904296875,0.43642246721305283,0.2086801529013167,0.207060813903974
1684002382772832200,3.640232666015625,0.48868125669301193,0.30108261107541384,0.2390089034698243
1684002382782874300,3.650274658203125,0.5274934171599124,0.3729591368315754,0.32409214970884154
1684002382792916400,3.66031689453125,0.54815697673252,0.4057378767337521,0.3761277200031003
1684002382802958600,3.67035888671875,0.5648281572844418,0.3317041398744998,0.399685859487393
1684002382813000600,3.680401123046875,0.541871905361909,0.27262878414999725,0.44169592854052436
1684002382823042700,3.690443115234375,0.44438326361985836,0.15984344497028546,0.3597140311261577
1684002382833084800,3.7004853515625,0.318370342255567,0.04361248013778806,0.2543349266163998
1684002382843127000,3.71052734375,0.11258518704598947,-0.08534812919434524,-0.021967649329326756
1684002382853169100,3.720569580078125,-0.13797867303428316,-0.2218647004604419,-0.35644292821238555
1684002382863211200,3.730611572265625,-0.41257643703580954,-0.40545845028810074,-0.7739070654743684
1684002382873253300,3.74065380859375,-0.7287559508134038,-0.5652732849082033,-1.128544211396727
1684002382883295400,3.75069580078125,-1.0335971115977118,-0.7026214600804557,-1.3790068626913774
1684002382893337600,3.760738037109375,-1.3019123078499408,-0.836602211076826,-1.5885832309712618
1684002382903379600,3.770780029296875,-1.4874323606232778,-0.9411735534945963,-1.6330842971988824
1684002382913421700,3.780822265625,-1.6164432765144827,-0.9762659072818866,-1.576376438032168
1684002382923463900,3.7908642578125,-1.6801261901182238,-0.9807710647654095,-1.418538808817951
1684002382933506000,3.80090625,-1.7696416378431932,-0.9696788787158774,-1.2936066389697527
1684002382943548100,3.810948486328125,-1.8694499731892638,-1.0340337754044815,-1.2415901421746764
1684002382953590200,3.820990478515625,-1.805226206827329,-1.1019144059187993,-1.1921153069424775
1684002382963632300,3.83103271484375,-1.6566041709452846,-1.0966520309346444,-1.1323304176564932
1684002382973674400,3.84107470703125,-1.435970306496097,-1.2543630601362492,-1.0605071783608233
1684002382983716600,3.851116943359375,-1.2285254000544368,-1.5355949401558786,-1.02953577051594
1684002382993758600,3.861158935546875,-1.0393545627901295,-1.7313032150626018,-1.0352226496921344
1684002383003800800,3.871201171875,-0.929462432864451,-2.0322246550354715,-1.0239732264430477
1684002383013842900,3.8812431640625,-0.8183052539633463,-2.042024612530152,-0.9027619361705663
1684002383023885000,3.891285400390625,-0.8017485142986222,-1.896086692838229,-0.7458579540636576
1684002383033926800,3.9013271484375,-0.8795249462687905,-1.583761215085182,-0.6481585503179671
1684002383043968900,3.911369384765625,-1.0952305795702448,-1.1138839720959681,-0.4772256613828391
1684002383054011100,3.921411376953125,-1.39152050009494,-0.6052150727046276,-0.3009623288856133
1684002383064053200,3.93145361328125,-1.6122846603560588,-0.23077297209199435,-0.21497881423932147
1684002383074095300,3.94149560546875,-1.6930215358724556,0.0860004426553952,-0.19906032099796586
1684002383084137400,3.951537841796875,-1.617511987851519,0.25502967833191764,-0.25909852993659704
1684002383094179600,3.961579833984375,-1.418894052658972,0.39467906951364873,-0.35355222236700923
1684002383104221600,3.9716220703125,-1.1725020409481886,0.5537261963124145,-0.41938042646192314
1684002383114263700,3.9816640625,-0.944422960225826,0.9213714601095283,-0.48861706263481736
1684002383124305800,3.991706298828125,-0.8026378155196323,1.3160247802013993,-0.45777058589281544
1684002383134348000,4.001748291015625,-0.7243521213510692,1.3865146637291144,-0.26779580106743367
1684002383144390100,4.01179052734375,-0.6579980849963452,1.2980613709804918,-0.09362041946657713
1684002383154432200,4.02183251953125,-0.5559418200686064,1.1340789794060009,0.11032474036798025
1684002383164474300,4.031874755859375,-0.49646520605571304,0.9372787474204827,0.21277034297712508
1684002383174516400,4.041916748046875,-0.32214164732430295,0.5908565521207549,0.29957318301129804
1684002383184558600,4.051958984375,0.0218160152463269,0.337482452356539,0.3693422079886941
1684002383194600600,4.0620009765625,0.5598149298262615,0.10964775086076402,0.5648832321969002
1684002383204642700,4.072043212890625,1.0869700910099345,-0.10243225099748908,0.9194475412049837
1684002383214684800,4.082085205078125,1.5746619702731504,-0.15386009216843957,1.3463462591599602
1684002383224727000,4.09212744140625,1.9651341438113024,-0.051499366737389224,1.7151464224289694
1684002383234769100,4.10216943359375,2.2879586219367676,0.10856628414364358,2.0421752929643833
1684002383244811200,4.112211669921875,2.5425033569384174,0.392298698461309,2.3194048404876986
1684002383254853300,4.122253662109375,2.6755528449450243,0.6625499725333667,2.398582697014384
1684002383264895400,4.1322958984375,2.659649848989184,0.857059478815713,2.3220515250524074
1684002383274937600,4.142337890625,2.556921482116466,1.0171127319591915,2.044597148757645
1684002383284979600,4.152380126953125,2.414378166105847,1.1722817420184777,1.788854122175688
1684002383295021700,4.162422119140625,2.0150718687791183,1.3657341003154286,1.5112822057343003
1684002383305063900,4.17246435546875,1.4809384345848229,1.4870634080259322,1.1830848454257241
1684002383315106000,4.18250634765625,0.936806440477737,1.490327835071483,0.830529451370277
1684002383325148100,4.192548583984375,0.40384912486632374,1.3727560044232712,0.481003880405296
1684002383335190200,4.202590576171875,-0.010065794136916271,1.1223502159672785,0.20557987694871244
1684002383345232300,4.2126328125,-0.20308375361475514,0.9325838090071883,0.004535317317008744
1684002383355274400,4.2226748046875,-0.2019431592601507,0.6951284407216148,0.013584733106601375
1684002383365316600,4.232717041015625,-0.17225146299584798,0.4086656569494477,0.057640910219431164
1684002383375358600,4.242759033203125,-0.1829431058033412,0.19309234621123808,0.04542553424514044
1684002383385400800,4.25280126953125,-0.49114727980185824,0.11730861648151146,0.0779422521010556
1684002383395442600,4.262843017578125,-0.7623276710623805,0.1481227875489776,-0.05865848072305542
1684002383405485000,4.272885498046875,-0.8350961209061335,0.3925313948073209,-0.11544716363366984
1684002383415526800,4.28292724609375,-0.6305587293027626,0.5436391831929125,-0.18519079678840464
1684002383425569200,4.292969482421875,-0.4243915080917986,0.6641826631134942,-0.11156320580650991
1684002383435611100,4.303011474609375,-0.25855541222408907,0.6376485823575657,-0.11965012561751356
1684002383445653200,4.313053466796875,-0.18112206459042932,0.6574048995819086,0.14119160181004528
1684002383455695300,4.323095703125,-0.151365041830185,0.568901061944487,0.25772869584969116
1684002383465737400,4.3331376953125,-0.25280499463343514,0.366721153229692,0.3261333703656642
1684002383475779600,4.343179931640625,-0.37418937682398207,0.19048786165533171,0.1944535971281745
1684002383485821600,4.353221923828125,-0.5583374501386397,-0.0015211104773964676,-0.37916445718837827
1684002383495863600,4.36326416015625,-0.6537096500054658,-0.2793979645139722,-0.903219699970577
1684002383505905800,4.37330615234375,-0.5172793863866604,-0.5857934952159674,-1.1622147561014642
1684002383515948000,4.383348388671875,-0.193941116210104,-0.856048583900162,-1.1228342055879699
1684002383525990100,4.393390380859375,0.24300551413031393,-0.7674779893617415,-0.9640429617131159
1684002383536032200,4.4034326171875,0.7011518478919014,-0.537521362293464,-0.8021273016629653
1684002383546074300,4.413474609375,1.1245354412850161,-0.3858165740997239,-0.5326126218919206
1684002383556116400,4.423516845703125,1.4462964534396854,-0.24575996393327046,-0.2373312711712338
1684002383566158600,4.433558837890625,1.4577147960636638,0.06541538237854458,0.25967299939440797
1684002383576200600,4.44360107421875,1.3673939704040299,0.297986030531557,0.5857932569262331
1684002383586242700,4.45364306640625,0.9807744026759662,0.5997571944633543,0.8377398252234995
1684002383596284800,4.463685302734375,0.3327238560034205,0.8506336213939589,1.4595835208156842
1684002383606327000,4.473727294921875,-0.18660092348051907,0.7042102812595793,1.7657017708702016
1684002383616369100,4.48376953125,-0.4615542888120373,0.4987192155366531,1.7250442503817345
1684002383626411200,4.4938115234375,-0.43066203612503756,0.36182212839271444,1.6015300749883985
1684002383636453300,4.503853759765625,-0.45441770546457927,0.16289711000525992,1.2606761456821314
1684002383646495400,4.513895751953125,-0.4710721970160864,-0.06637859333626728,1.0326844454728707
1684002383656537600,4.52393798828125,-0.6155276297953809,-0.34758186327773744,0.8246991635531691
1684002383666579600,4.53397998046875,-0.8329991102833967,-0.6213550567515584,0.5833191871631195
1684002383676621700,4.544022216796875,-0.8668154478805713,-0.749420166012987,0.35348141195162375
1684002383686663900,4.554064208984375,-0.7827396393049119,-0.8587474824906038,0.0026444198114076566
1684002383696706000,4.5641064453125,-0.7106999160156903,-1.0904073714999984,-0.49408590781517986
1684002383706748100,4.5741484375,-0.62155222885721,-1.191263198825181,-0.9728884697549761
1684002383716789900,4.5841904296875,-0.4906618596900764,-1.264538764989725,-1.486911535375232
1684002383726832300,4.594232666015625,-0.4836511613022084,-1.2986135482892602,-1.768922209885466
1684002383736874200,4.604274658203125,-0.601658940248394,-1.0399208067725032,-2.0051035880937036
1684002383746916300,4.614316650390625,-0.8206954001360319,-0.4715156555805496,-1.928480029150478
1684002383756958400,4.62435888671875,-0.856490254502907,-0.2051553726941392,-1.6364448070188433
1684002383767000600,4.63440087890625,-0.7475287915673855,-0.26873683927846437,-1.3782166243702787
1684002383777042600,4.644443115234375,-0.6946092843996167,-0.23638248430821923,-1.1255414485831434
1684002383787084600,4.654485107421875,-1.0012619496112747,-0.14188671124363492,-0.6932449342048722
1684002383797126800,4.66452734375,-1.5145325660593405,-0.007028579795620808,-0.13560140129674636
1684002383807168900,4.6745693359375,-1.909096240964022,-0.023041725053797056,0.23838818069050835
1684002383817211100,4.684611572265625,-2.033730268557742,0.07535839071159682,0.5192732810917556
1684002383827253200,4.694653564453125,-2.1182589530574645,0.05053710922578383,1.0902197359502321
1684002383837295300,4.70469580078125,-2.4493253231289462,0.10478305807906163,1.0785713195647104
1684002383847337400,4.71473779296875,-3.5504689216214644,0.06513595567159461,0.9870467185790294
1684002383857379600,4.72477978515625,-4.415476322163132,-0.3604831695934837,1.2607297898098764
1684002383867421600,4.734822021484375,-3.4712185859119273,-0.8338575362516129,1.172245860115701
1684002383877463700,4.744864013671875,-1.8661053181733018,-0.9681940078756494,0.6452703474644843
1684002383887505800,4.75490625,-0.24920636406814045,-0.5974721909476243,0.12732291237991014
1684002383897548000,4.7649482421875,0.754401981784963,-0.23056697837573592,-0.44876456250420393
1684002383907590100,4.774990478515625,1.1079772710213913,0.0348749160348805,-1.0813221930714674
1684002383917632200,4.785032470703125,0.9347447158617751,0.06480312341093712,-1.6155449151148893
1684002383927674300,4.79507470703125,0.40164810421699987,-0.033542633062014306,-1.9317481517849406
1684002383937716400,4.80511669921875,-0.15508472910233095,-0.267556190462155,-2.082204341862999
1684002383947758600,4.815158935546875,-0.5939319134443654,-0.4630184173396665,-1.8457399605829055
1684002383957800600,4.825200927734375,-0.5988961459420452,-0.5201444626042973,-1.299310803328612
1684002383967842700,4.8352431640625,-0.07375574104092662,-0.3264989852088837,-0.8035426139691618
1684002383977884800,4.84528515625,0.634356856331345,-0.0678987502825043,-0.4429886341019936
1684002383987927000,4.855327392578125,1.0848380325676363,0.08662223812484283,-0.19151413426010047
1684002383997969100,4.865369384765625,1.263627529170654,0.12522315984974333,0.0755807160989182
1684002384008010900,4.875411376953125,1.3577952383929974,0.1553478241047006,0.2485984563918326
1684002384018053300,4.88545361328125,1.3555290698073859,0.27228450774103424,0.42853963383455257
1684002384028095200,4.89549560546875,1.334822535559836,0.3801307678781285,0.618016481289375
1684002384038137600,4.905537841796875,1.2628515960252653,0.45718955997803634,0.8831996917067351
1684002384048179400,4.915579833984375,1.1064901351715373,0.45305347444725097,1.1173450945848866
1684002384058221600,4.925621826171875,0.942422687935149,0.4704141616709563,1.212136507033651
1684002384068263600,4.9356640625,0.8205505013515153,0.5091838836374453,1.1675930023047074
1684002384078305600,4.9457060546875,0.7577424646439326,0.5788927077507121,0.896141529057565
1684002384088347800,4.955748291015625,0.6086560487792334,0.5960187912458502,0.5380146502873278
1684002384098389900,4.965790283203125,0.4957154990694852,0.5370988846137619,0.061814904175149114
1684002384108432000,4.97583251953125,0.2213011979784688,0.1848373413222761,-0.37243545049063415
1684002384118474200,4.98587451171875,-0.09202051159816824,-0.27442264553790285,-0.7390655279373828
1684002384128516300,4.995916748046875,-0.28487908839319154,-0.4246349335037401,-1.2715547085083931
1684002384138558400,5.005958740234375,-0.36114764211196493,-0.1506471634652793,-1.880341529730859
1684002384148600600,5.0160009765625,-0.41372418408028866,0.16283130639713744,-2.2311193943297214
1684002384158642600,5.02604296875,-0.433147668803506,0.31009864813948773,-2.3071527481149414
1684002384168684600,5.036085205078125,-0.3678833246716289,0.3220462798697521,-2.258806705530023
1684002384178726800,5.046127197265625,-0.3782424928248465,0.21542358395140693,-2.1474907398119405
1684002384188768900,5.05616943359375,-0.46780323983214706,0.030965805066021604,-2.036943435714025
1684002384198811100,5.06621142578125,-0.652385592389938,-0.1548624038322727,-1.8619031905125143
1684002384208853200,5.076253662109375,-0.935767412135694,-0.26820278171727485,-1.6385736466464518
1684002384218895300,5.086295654296875,-1.1110690831754992,-0.31431674968506623,-1.2569628954427416
1684002384228937400,5.096337890625,-1.1275584697725551,-0.27456188205512644,-0.8234300614754971
1684002384238979600,5.1063798828125,-1.0034943819043012,-0.3168334960433142,-0.23362123964415232
1684002384249021600,5.116422119140625,-0.7809150217434561,-0.33884620653657777,0.35671770571065803
1684002384259063600,5.126464111328125,-0.5189746617649664,-0.4009494781367356,1.183122753967018
1684002384269105800,5.13650634765625,-0.39458721872088626,-0.42947292345509946,2.03982067104966
1684002384279148000,5.14654833984375,-0.16568273304585066,-0.16870880126331456,2.7094063760126166
1684002384289190100,5.156590576171875,0.32454377399672724,0.2287893295242377,2.9133522511555627
1684002384299231900,5.16663232421875,0.9146957994432793,0.5201168061658604,2.818164110179678
1684002384309274300,5.1766748046875,1.3655072449711732,0.5984430312247025,2.335581540971089
1684002384319316100,5.186716552734375,1.4085507392754437,0.6556568145501727,1.7754718064132333
1684002384329358300,5.196758544921875,1.1075705291566504,0.3744544982813029,1.129141569142769
1684002384339400400,5.20680078125,0.5000121594497331,-0.2540159225112027,0.23487353340680833
1684002384349442600,5.2168427734375,-0.37451100341191007,-0.7197256089434058,-0.9159659147040233
1684002384359484600,5.226885009765625,-1.20455503475209,-0.9436502456903052,-1.9220204352419148
1684002384369526600,5.236927001953125,-1.5201402903229837,-1.0244321822781297,-2.2793128491623884
1684002384379568800,5.24696923828125,-1.3695878982139174,-0.8224906922358184,-2.1823911668692997
1684002384389610900,5.25701123046875,-0.8488938211092306,-0.5999622343776049,-1.6597969533568626
1684002384399653000,5.267053466796875,-0.23501405116993168,-0.43444442758252616,-0.8639537096479005
1684002384409695200,5.277095458984375,0.31172055005376853,-0.12801933280666145,-0.17299497126711094
1684002384419737300,5.2871376953125,0.743796467757126,0.24780273437679426,0.42369663728775314
1684002384429779400,5.2971796875,1.0692700149356846,0.27533435828304886,1.0253593920976862
1684002384439821600,5.307221923828125,1.1533972024177328,0.26605987531324266,1.2641311883731383
1684002384449863600,5.317263916015625,1.1620588303318586,0.4403743743013049,1.0167821645840052
1684002384459905600,5.32730615234375,1.0455279349598081,0.6005363465096077,0.8430886268117569
1684002384469947800,5.33734814453125,0.7998805045795593,0.6466312406828444,0.8859119415728586
1684002384479989900,5.347390380859375,0.47214397771617334,0.676422119102276,1.094571113644019
1684002384490032000,5.357432373046875,0.01439587390700912,0.5790882109579929,1.240283370123194
1684002384500074200,5.367474609375,-0.5659971832789443,0.4781160354012211,1.007298231148828
1684002384510116300,5.3775166015625,-1.1743769645874695,0.2681350708781611,0.6444752216621205
1684002384520158400,5.387558837890625,-1.7330933808127629,0.0407991410202285,0.20407986638179124
1684002384530200600,5.397600830078125,-2.075884818980626,-0.10484123230541885,-0.16200959682751423
1684002384540242600,5.40764306640625,-1.9785065651526956,-0.09651184099360767,-0.39277958864806845
1684002384550284600,5.41768505859375,-1.3432130813096415,-0.06363391867786006,-0.33363425741873914
1684002384560326800,5.427727294921875,-0.5025608538439794,-0.06164169314119945,-0.14052402967244998
1684002384570368600,5.43776904296875,0.22055691484632234,-0.0978240967915293,0.025129437520198517
1684002384580410800,5.447811279296875,0.7360355855719093,-0.07661533353020532,0.18371796618480268
1684002384590452900,5.457853271484375,1.0803135633163643,-0.13187026989730302,0.30510318278003423
1684002384600495000,5.4678955078125,1.2770465613767987,-0.10335254676489704,0.411394476850256
1684002384610537100,5.4779375,1.3751376865974592,-0.008083343678488964,0.425676345796423
1684002384620579200,5.487979736328125,1.3506221769785647,-0.0875587465243547,0.3593244551755081
1684002384630621400,5.498021728515625,1.2886413335785738,-0.0451707839454951,0.26051366336128357
1684002384640663600,5.50806396484375,1.1889257431323554,0.037735938891276424,0.15170252328045242
1684002384650705600,5.51810595703125,1.028118610565592,-0.027451515165223823,0.08611905592775561
1684002384660747600,5.528148193359375,0.8931822182573568,-0.3190908432251427,0.09701645380280581
1684002384670789800,5.538190185546875,0.7267601489405437,-0.7482376096910617,0.16229724887008523
1684002384680831900,5.548232421875,0.518258571640896,-0.977721214285836,0.2963544129967081
1684002384690874000,5.5582744140625,0.388621538861558,-0.8744049072269772,0.46035277848858874
1684002384700916100,5.568316650390625,0.27532327168075044,-0.6994953155601125,0.5160011052759788
1684002384710958300,5.578358642578125,0.15376847984026903,-0.2504291534095625,0.5991529225812207
1684002384721000400,5.58840087890625,0.018997728747043384,0.25455570227279517,0.6416265964150693
1684002384731042600,5.59844287109375,-0.02707356205938866,0.6768169402942914,0.6900998353441038
1684002384741084600,5.608485107421875,-0.05845093718225952,0.8828802108540171,0.7285805941458349
1684002384751126600,5.618527099609375,-0.023808002478636004,0.8639364242681022,0.8044579028670397
1684002384761168800,5.6285693359375,0.01970791815624743,0.6589088440201182,0.8752120732824175
1684002384771210900,5.638611328125,0.0786845683266012,0.5118312834625397,1.0134223698440072
1684002384781253000,5.6486533203125,0.2042307256474523,0.2981700896318373,1.2787879707202296
1684002384791295200,5.658695556640625,0.3224154711576211,0.09904098520475939,1.5126006602969744
1684002384801337300,5.668737548828125,0.3567252753505537,-0.13342666618579724,1.724088311206362
1684002384811379100,5.678779541015625,0.3772842882507495,-0.26779270176463627,1.910750508444426
1684002384821421600,5.68882177734375,0.36998152727429684,-0.2995204926321712,2.039261579462823
1684002384831463300,5.69886376953125,0.3410331010773365,-0.26232337964989866,2.126815318895843
1684002384841505500,5.70890576171875,0.25035220378429185,-0.13972568510931274,2.204915523623554
1684002384851547600,5.718947998046875,0.12239009158249323,0.02501201627022109,2.2047743797997215
1684002384861589600,5.728989990234375,-0.05018079294812828,0.1815738677415102,2.011779785161811
1684002384871631800,5.7390322265625,-0.14515817182118537,0.17706775671007374,1.7038991452237393
1684002384881673900,5.74907421875,-0.1572892070476718,0.18895149236124273,1.2895790339686852
1684002384891716000,5.759116455078125,-0.0922794342218583,0.20560550696907318,0.9425759314726103
1684002384901758100,5.769158447265625,-0.007764578010117955,0.2771825791753017,0.634165406135002
1684002384911800200,5.77920068359375,0.042211771062578105,0.33655166621897037,0.356924533762428
1684002384921842400,5.78924267578125,0.09187543388157772,0.37657642362499383,0.11614823345097285
1684002384931884500,5.799284912109375,0.09210246807545552,0.37116146074579504,-0.1444191932414164
1684002384941926600,5.809326904296875,0.04228866094950657,0.2561244964724474,-0.34473145005769973
1684002384951968600,5.819369140625,0.018595874214149242,0.15361595158916402,-0.467714667498502
1684002384962010800,5.8294111328125,-0.09122341858820773,-0.022301673853315968,-0.5419511794517087
1684002384972052900,5.839453369140625,-0.18681403992671763,-0.1901426315357563,-0.595655322150069
1684002384982095000,5.849495361328125,-0.2966943085368036,-0.33302307138178716,-0.5802118779171684
1684002384992137100,5.85953759765625,-0.38358914858446014,-0.4627838134278488,-0.46679878251318085
1684002385002179200,5.86957958984375,-0.4444389938770826,-0.44086647045986577,-0.15373420709547278
1684002385012221400,5.879621826171875,-0.440330952342988,-0.1435918808361559,0.2276214362013637
1684002385022263200,5.88966357421875,-0.3861354291580274,0.16537952440513345,0.5792895555443156
1684002385032305600,5.8997060546875,-0.3293079138519663,0.3542337419192248,0.8701895476939332
1684002385042347400,5.909747802734375,-0.23321533211830725,0.45647525784140536,1.0306835175094653
1684002385052389600,5.9197900390625,-0.13311749700256853,0.35539054863992103,1.0981370211583883
1684002385062431600,5.92983203125,-0.01816177361474051,0.1948633193750016,1.1382260321525501
1684002385072473800,5.939874267578125,0.09629803909813345,0.1564893723905607,1.070020556337624
1684002385082515900,5.949916259765625,0.20937627566644845,0.008212089440411685,1.013014316395096
1684002385092558000,5.95995849609375,0.28931146848808803,0.010685920675309105,0.7887414694450134
1684002385102600100,5.97000048828125,0.40336853264070366,-0.29256725315229537,0.6651616096623928
1684002385112642200,5.980042724609375,0.4845044017353671,-0.26053905490578994,0.4306827783210203
1684002385122684300,5.990084716796875,0.5675925611764325,-0.15185165408239037,0.20358681677447946
1684002385132726400,6.000126953125,0.6577004194056254,0.054767608534518494,0.039147257667516776
1684002385142768600,6.0101689453125,0.6836653946397009,0.2204856873098029,-0.08191967012628282
1684002385152810600,6.020211181640625,0.7068580985000952,0.18753528589474128,-0.10595154773612954
1684002385162852800,6.030253173828125,0.6944348812228327,0.11634159096450912,-0.11025023465365034
1684002385172894900,6.04029541015625,0.6452804802809522,0.03813552852289498,-0.15205466747619234
1684002385182937000,6.05033740234375,0.5530272126474581,-0.07569599148435553,-0.15250313285679445
1684002385192979100,6.060379638671875,0.43900912990195495,-0.15109634408052763,-0.1597268581734049
1684002385203021200,6.070421630859375,0.3233867584135341,-0.21450042725564467,-0.13312518588431005
1684002385213063300,6.080463623046875,0.11144983767142645,-0.2062444685161198,-0.06999814509175056
1684002385223105500,6.090505859375,-0.11996012926873245,-0.12892723078870022,0.036617159897579625
1684002385233147600,6.1005478515625,-0.3464424014556192,-0.03275680548751936,0.19374084468833613
1684002385243189600,6.110590087890625,-0.5016584992571527,0.015509605338488577,0.32929456235795573
1684002385253231800,6.120632080078125,-0.5976710318756698,-0.10110568993067653,0.5632514952364222
1684002385263273600,6.130674072265625,-0.6335899830198013,-0.11474132529477458,0.7246047259262447
1684002385273316000,6.14071630859375,-0.6273514032535806,-0.05663108833060608,0.7800514698029878
1684002385283357900,6.15075830078125,-0.5436928867763666,-0.0606994629253809,0.773127078957599
1684002385293400000,6.16080029296875,-0.3796681166134485,-0.08627605435886684,0.6613446472271352
1684002385303442100,6.170842529296875,-0.1451514363369852,-0.06174468993530458,0.5506519078906803
1684002385313484200,6.180884521484375,0.08323821421810249,0.0008335112475703045,0.3870192765726799
1684002385323526300,6.1909267578125,0.27250811448884216,0.03928852080862295,0.26203703891537566
1684002385333568400,6.20096875,0.40445020801014847,-0.003582000738256015,0.11894500256675733
1684002385343610600,6.211010986328125,0.5472319723377237,-0.05828189841732184,0.027418732666273246
1684002385353652600,6.221052978515625,0.6520210504801169,-0.06973075851735622,-0.03347694889561623
1684002385363694800,6.23109521484375,0.7341876627052489,-0.08449649800812604,-0.07197535041671427
1684002385373735100,6.241135498046875,0.7961382864933086,-0.10582256323118285,-0.051338195874030525
1684002385383777200,6.251177490234375,0.8496719600102695,-0.05829715730282429,0.020136952440721657
1684002385393819300,6.2612197265625,0.878235459462522,0.016845703162833094,0.0611428022055292
1684002385403861400,6.27126171875,0.8637273311352438,0.034359932001944905,0.10014247898817766
1684002385413903600,6.281303955078125,0.8170391320544941,0.02817440030294931,0.13947153101981707
1684002385423945400,6.291345703125,0.7392558456196767,0.02448368083392216,0.21858930574296795
1684002385433987800,6.30138818359375,0.6570798753955019,0.03726577762100009,0.3268228767701339
1684002385444029600,6.311429931640625,0.5825220348022253,0.054385185339530136,0.4208495616862358
1684002385454071600,6.32147216796875,0.48024392116115655,0.035685539213323805,0.47231495366159504
1684002385464113800,6.33151416015625,0.4050391614390769,-0.04410552994562714,0.4938298463131613
1684002385474156000,6.341556396484375,0.3219450115640394,-0.047474861195739425,0.4997410774277915
1684002385484198100,6.351598388671875,0.2250162362708065,-0.053476333700731994,0.4757324458794594
1684002385494240200,6.361640625,0.17185235016683062,-0.0879373551395926,0.3730558157860452
1684002385504282300,6.3716826171875,0.10309031596980249,-0.09144878395456708,0.20291519168298008
1684002385514324400,6.381724853515625,0.09386210151561818,-0.06214046481555753,0.0538302659357403
1684002385524366600,6.391766845703125,0.07414814821509015,0.05370521552227911,-0.10452866544909652
1684002385534408600,6.40180908203125,0.07433967285013963,0.12997722615511606,-0.23141324512532954
1684002385544450700,6.41185107421875,0.09223807596977171,0.14861869812614392,-0.3007986546363227
1684002385554492800,6.421893310546875,0.12894368176717952,0.11063766476947498,-0.29912590964825436
1684002385564535000,6.431935302734375,0.22558131811245233,0.09221172322561154,-0.22544169420286644
1684002385574577100,6.4419775390625,0.3727774320638241,0.10227489461228916,-0.12144100654378576
1684002385584619200,6.45201953125,0.5912649631074505,0.06962394731639923,0.012166619357669002
1684002385594661300,6.462061767578125,0.8651954530971614,0.08911418906074038,0.11848914629822367
1684002385604703400,6.472103759765625,1.1120613814443598,0.09861564625953348,0.1905575990936345
1684002385614745600,6.48214599609375,1.2925014494347569,0.16660881050226833,0.20530998698364789
1684002385624787600,6.49218798828125,1.4030425548639025,0.2074642181391021,0.22724401945910444
1684002385634829700,6.502230224609375,1.4855268001089579,0.2639656067552397,0.2601727247654978
1684002385644871600,6.51227197265625,1.4992135761566354,0.31232452386901133,0.25167822824992303
1684002385654914000,6.522314453125,1.493609785856255,0.35496902465875374,0.2628470658338423
1684002385664955800,6.532356201171875,1.4233975411294122,0.37547874444025453,0.22439801694762762
1684002385674997900,6.5423984375,1.2914330960758313,0.40961456307849053,0.18193340314234965
1684002385685040000,6.5524404296875,1.1294401882736953,0.38653182981522893,0.08603906631056181
1684002385695082200,6.562482666015625,0.8985855579179269,0.30480194090918933,-0.036539316259070746
1684002385705124300,6.572524658203125,0.5896216631873672,0.16784572582865165,-0.19867384434490315
1684002385715166400,6.58256689453125,0.25555244088347523,0.08494949337697323,-0.3610152004791224
1684002385725208600,6.59260888671875,-0.05344951148886605,0.027041435144877335,-0.5106246471943006
1684002385735250600,6.602651123046875,-0.2976264356514249,-0.011112213266906005,-0.6262658834931656
1684002385745292600,6.612693115234375,-0.457101166353526,-0.023056983912855256,-0.6620002985683607
1684002385755334800,6.6227353515625,-0.4968084098455077,0.0800390244161555,-0.6759636401661162
1684002385765376900,6.63277734375,-0.46550011618672665,0.16186332717026436,-0.6881127358162471
1684002385775419100,6.6428193359375,-0.36437404154446146,0.22849845884293996,-0.6648349763039719
1684002385785461200,6.652861572265625,-0.29328751583467877,0.24200630191451905,-0.6889895200614733
1684002385795503300,6.662903564453125,-0.21323847777585037,0.2434673309675618,-0.6994566917159438
1684002385805545400,6.67294580078125,-0.24913406382524875,0.21400451671710233,-0.6763753891660882
1684002385815587600,6.68298779296875,-0.2796227335376253,0.18468856817405027,-0.5510977505335594
1684002385825629600,6.693030029296875,-0.3224161268144345,0.11492347714527232,-0.5321048498534177
1684002385835671700,6.703072021484375,-0.39294409756007714,0.007302284062526767,-0.4855002164447171
1684002385845713600,6.713114013671875,-0.4444148540130854,-0.0497131348169584,-0.2902503012398594
1684002385855755600,6.723156005859375,-0.5991358757851585,-0.10882472983287714,-0.26498413081044514
1684002385865797800,6.7331982421875,-0.8566620349403078,-0.14378356933845313,-0.3402487040963023
1684002385875839900,6.743240234375,-1.0943362712900795,-0.1858024596972618,-0.37042760847784606
1684002385885882000,6.753282470703125,-1.270187020236662,-0.24211025241585002,-0.42450690269090025
1684002385895924100,6.763324462890625,-1.4464418888901598,-0.3104400635316826,-0.3750507831246541
1684002385905966300,6.77336669921875,-1.6561924219385507,-0.4746217727685482,-0.2766000033275385
1684002385916008400,6.78340869140625,-1.9336141347002516,-0.6654615402800557,-0.10063600528652834
1684002385926050600,6.793450927734375,-2.210524082147224,-0.8305149077603154,0.1179336308120575
1684002385936092600,6.803492919921875,-2.3013460636244334,-0.9100799560824929,0.42742276204603846
1684002385946134600,6.81353515625,-2.0717058181049466,-0.94697666184523,0.8098889589228555
1684002385956176800,6.8235771484375,-1.7319551707758054,-0.7516460419338306,1.0013555289700253
1684002385966218900,6.833619384765625,-1.3883026837909418,-0.4716997147643133,1.1951845883968157
1684002385976261000,6.843661376953125,-1.053611517032228,-0.329061508049728,1.4109710454839832
1684002385986303200,6.85370361328125,-0.8657246828361497,-0.5053834915296235,1.686827659623172
1684002385996345300,6.86374560546875,-0.8413947821681117,-0.9936504364889776,1.7303926944506405
1684002386006387400,6.873787841796875,-0.9042614697304053,-1.4422826767682653,1.3778945207597066
1684002386016429600,6.883829833984375,-0.9820908307082389,-1.5932693481251365,0.7866324186627183
1684002386026471600,6.8938720703125,-1.1096481085176773,-1.3352050781372506,0.2225067616539113
1684002386036513500,6.903913818359375,-1.1412870883180533,-0.8320884704980868,-0.15068948267189883
1684002386046555600,6.9139560546875,-1.1656525135401101,-0.38588714588210665,-0.28552186488616704
1684002386056597600,6.923998046875,-1.1342281103032552,-0.09437656398902158,-0.37508904940913784
1684002386066639800,6.934040283203125,-1.0801686048137398,0.11481189721107461,-0.44581127176064805
1684002386076681900,6.944082275390625,-1.0217267276356319,0.28029155740111245,-0.4837280513256136
1684002386086724000,6.95412451171875,-0.9527080060170803,0.45710563660836845,-0.5111566782088439
1684002386096766100,6.96416650390625,-0.8900889158397843,0.5949096679980985,-0.5217872858506485
1684002386106808200,6.974208740234375,-0.813986420536422,0.724707603577813,-0.5775467156857432
1684002386116850400,6.984250732421875,-0.7354418040430782,0.8442296981299827,-0.6840360164914707
1684002386126892500,6.99429296875,-0.6295307874753372,0.8822460175307122,-0.8335810899288533
1684002386136934600,7.0043349609375,-0.4165041447797807,0.9279327392823083,-1.044056773369095
1684002386146976600,7.014377197265625,-0.18437087525650128,0.9674015045210063,-1.2461005449233309
1684002386157018800,7.024419189453125,0.11901128292312628,0.969951629708552,-1.410111427404008
1684002386167060900,7.03446142578125,0.3492474556770608,0.9356126784475438,-1.4633039235231082
1684002386177103000,7.04450341796875,0.40386807913808315,0.8545589447563416,-1.4791927338614723
1684002386187145100,7.054545654296875,0.30327522744104807,0.6549415589187328,-1.499244212925341
1684002386197187200,7.064587646484375,0.08910655972654553,0.37238597868569123,-1.3340460063391402
1684002386207229400,7.074629638671875,-0.1854192017013668,0.09261417372715261,-1.1481394768198456
1684002386217271200,7.084671630859375,-0.502715945197504,-0.21602630625483454,-0.9603433608484028
1684002386227313300,7.094713623046875,-0.735095858683375,-0.4867172240344904,-0.799100399110407
1684002386237355400,7.104755859375,-0.8632726668047567,-0.7431354523448949,-0.6866916419389822
1684002386247397600,7.1147978515625,-0.9881883860013926,-0.9802846907707174,-0.5409877299857329
1684002386257439600,7.124840087890625,-1.1109535692715762,-1.028377533031304,-0.4572064876152482
1684002386267481800,7.134882080078125,-1.2012493609857964,-0.9307394027606093,-0.3730692862581111
1684002386277523900,7.14492431640625,-1.2519826888895693,-0.5994081496134107,-0.29586124437241657
1684002386287566000,7.15496630859375,-1.210023641623679,-0.2955274582219985,-0.22611951834597738
1684002386297608100,7.165008544921875,-1.0436817407896928,-0.016805648714417816,-0.23789858824792315
1684002386307650200,7.175050537109375,-0.8343601226932119,0.05782318132851811,-0.3638553620050266
1684002386317692300,7.1850927734375,-0.6190550327146148,0.09163188950148671,-0.5241138935550592
1684002386327734400,7.195134765625,-0.4740058183353702,0.1592102049250267,-0.6514399052940414
1684002386337776600,7.205177001953125,-0.4056465626859879,0.013941764742252085,-0.6444478034788321
1684002386347818600,7.215218994140625,-0.3382462261964722,0.016336441145152914,-0.7239801883046384
1684002386357860800,7.22526123046875,-0.3268929719817862,0.04449939724875223,-0.8673074247054489
1684002386367902900,7.23530322265625,-0.26158440106954584,-0.08510494223115085,-0.984197974153861
1684002386377945000,7.245345458984375,-0.1277711391751475,-0.14477348339924062,-1.0559538601329732
1684002386387987100,7.255387451171875,0.003234148052791545,-0.21339511880676992,-1.167933106420239
1684002386398029000,7.265429443359375,0.21108782278816887,-0.19093036653070242,-1.2751587629821768
1684002386408071100,7.275471435546875,0.4025846719133591,-0.120375633249475,-1.467465400787516
1684002386418113200,7.285513671875,0.5907198190803354,-0.008525848342338,-1.5860705375668172
1684002386428155300,7.2955556640625,0.7381751537005586,0.11406326296653145,-1.6681318282887576
1684002386438197400,7.305597900390625,0.7411448358425462,0.19061946864188803,-1.6741446258016965
1684002386448239600,7.315639892578125,0.5802720784032769,0.24312496170959655,-1.5267422199289178
1684002386458281600,7.32568212890625,0.3663860558946798,0.2662658691495997,-1.1802601814893858
1684002386468323800,7.33572412109375,-0.08488976973798479,0.23531913771784302,-0.7233246565591496
1684002386478365900,7.345766357421875,-0.5934777260731209,0.24026489267756027,-0.22944116598732106
1684002386488408000,7.355808349609375,-1.1123083828597207,0.18941020959474786,0.1499326228587484
1684002386498450100,7.3658505859375,-1.5187249184940783,0.10130977623506861,0.4332935810003553
1684002386508492200,7.375892578125,-1.6799869536844043,0.021113395785918653,0.6132581234821021
1684002386518534300,7.385934814453125,-1.6645160914999109,-0.0178670884056005,0.6102287770167202
1684002386528576400,7.395976806640625,-1.4723066090967634,-0.044086456249655154,0.46527409562022704
1684002386538618600,7.40601904296875,-1.246761083460029,-0.07637119295114288,0.2886505128039389
1684002386548660600,7.41606103515625,-0.9611669779494841,-0.09993171692619478,0.12172436720594353
1684002386558702800,7.426103271484375,-0.8004149197077298,-0.0976905821903785,-0.07035398487030363
1684002386568744900,7.436145263671875,-0.6973971129116207,-0.12930297855903222,-0.20114731791022145
1684002386578786700,7.446187255859375,-0.6465271712085267,-0.18515014654596385,-0.2681014538206944
1684002386588828800,7.456229248046875,-0.5604026316962167,-0.2651071548494459,-0.41614007960509264
1684002386598871000,7.466271240234375,-0.46184825902998966,-0.3404226303190711,-0.45810055729091065
1684002386608913100,7.4763134765625,-0.2891372441493725,-0.3368530273136794,-0.5488772392994569
1684002386618955200,7.48635546875,-0.11058616640522209,-0.3186197281074176,-0.7328274250206344
1684002386628997300,7.496397705078125,-0.0013808011589702214,-0.24492549887632162,-0.8375886678461473
1684002386639039400,7.506439697265625,0.023630142145560154,-0.1921663285282578,-0.925294399355303
1684002386649081600,7.51648193359375,-0.09312260158326066,-0.13889408098958053,-0.9559967517053557
1684002386659123600,7.52652392578125,-0.13607823839770022,-0.1282835006360229,-0.99961018560651
1684002386669165700,7.536566162109375,-0.22440171242357082,-0.05998897552806792,-0.9701474905793626
1684002386679207900,7.546608154296875,-0.3651384114201871,0.02043342595350965,-0.9109188317453095
1684002386689250000,7.556650390625,-0.4939007758710962,0.03875064849644273,-0.7964092492613345
1684002386699292100,7.5666923828125,-0.6104853154784137,0.04990196243382078,-0.696377515811487
1684002386709334200,7.576734619140625,-0.6945189236155739,0.07298564917636005,-0.6723186968445674
1684002386719376300,7.586776611328125,-0.6795260906473279,0.10772800438001844,-0.5805239677168167
1684002386729418400,7.59681884765625,-0.6305989025598145,0.08929252619651241,-0.5310628414990878
1684002386739460600,7.60686083984375,-0.6046022175500794,0.06550025941786135,-0.5213437080957046
1684002386749502400,7.61690283203125,-0.6403118371985981,0.02715682968555989,-0.6578171254558407
1684002386759544600,7.62694482421875,-0.5859798191827577,-0.001588821390377061,-0.8419704436816883
1684002386769586600,7.636987060546875,-0.5604858397291606,-0.08980751025096136,-0.9949685334376491
1684002386779628600,7.647029052734375,-0.5365952254670923,-0.2012853620916421,-1.0356293916259705
1684002386789670800,7.6570712890625,-0.4652800559671609,-0.3095588684706855,-1.1029037237548163
1684002386799712900,7.66711328125,-0.3809624909756987,-0.4049463272266277,-1.0940793754413924
1684002386809755100,7.677155517578125,-0.35343968873199433,-0.4253730774270682,-1.0955891608023596
1684002386819797200,7.687197509765625,-0.3205298184228062,-0.4402713776693364,-1.0334113836117376
1684002386829839300,7.69723974609375,-0.26740372168228416,-0.4162425994521182,-0.9839047194336659
1684002386839881400,7.70728173828125,-0.24333870419569242,-0.39886569959278845,-0.9014519452550821
1684002386849923600,7.717323974609375,-0.23273551447013346,-0.40975952151601575,-0.8527152538326793
1684002386859965600,7.727365966796875,-0.2511409521237653,-0.3606929779300229,-0.7921040057203664
1684002386870007600,7.737408203125,-0.21027565001669285,-0.2471265794296709,-0.6745548247391309
1684002386880049800,7.7474501953125,-0.1929796934497062,-0.2219581602597544,-0.534205675134158
1684002386890092000,7.757492431640625,-0.23380351068750363,-0.17986583702615602,-0.4553873538097816
1684002386900134100,7.767534423828125,-0.24948287014400453,-0.1638450621818611,-0.3187441826030107
1684002386910176200,7.77757666015625,-0.24925625312449373,-0.08805751787159961,-0.22040200237216068
1684002386920218300,7.78761865234375,-0.2587339877885183,0.03283691405201346,-0.14132285120339455
1684002386930260100,7.79766064453125,-0.26983034595099425,0.05759239197101686,-0.04101610185265265
1684002386940302300,7.80770263671875,-0.2201108931028753,0.06198406211816979,0.04371428482637432
1684002386950344400,7.817744873046875,-0.17967224109035135,0.012332916346430231,0.06353044501597563
1684002386960386600,7.827786865234375,-0.12290048617497991,-0.002996444769392927,0.01102495186179254
1684002386970428600,7.8378291015625,-0.09407591803692138,0.029603958258284525,0.01767134671031882
1684002386980470600,7.84787109375,-0.08457088474966279,0.09750652323712362,-0.020360946662550502
1684002386990512800,7.857913330078125,-0.1142370700922551,0.20925998685213884,-0.06945562354976212
1684002387000554900,7.867955322265625,-0.18003225337179699,0.18490409847888822,0.0013647079678310694
1684002387010597000,7.87799755859375,-0.21925616270469048,0.15378570568952757,-0.004407405769261282
1684002387020639200,7.88803955078125,-0.3026211261858597,0.15641784667789918,-0.050583362536588114
1684002387030681300,7.89808154296875,-0.3103840350346395,0.11008453368708601,-0.09186387044206219
1684002387040723400,7.908123779296875,-0.25718784336764233,0.08862400042508999,-0.13222908974391626
1684002387050765600,7.918165771484375,-0.1308157444214941,0.129249572700541,-0.16806483274010697
1684002387060807600,7.9282080078125,-0.0070538522748340785,0.150745391963642,-0.19684863081013407
1684002387070849600,7.93825,0.03407144534776338,0.1980962753985614,-0.30365467083094366
1684002387080891800,7.948292236328125,0.07617115959034777,0.21658039086182165,-0.33961391459467033
1684002387090933600,7.958333984375,0.15677928913400788,0.3054561615933316,-0.3393905163923674
1684002387100975800,7.968376220703125,0.13375616067148213,0.3128223420084824,-0.39127016078426974
1684002387111017900,7.978418212890625,0.17238497738656322,0.24010181412564222,-0.45555663109768874
1684002387121060000,7.98846044921875,0.22755670542806936,0.29382610310163415,-0.518233537792372
1684002387131102100,7.99850244140625,0.2950401306422158,0.2981815338627889,-0.5059250593853086
1684002387141144200,8.008544677734376,0.32230532187887323,0.23780059815874882,-0.44973635671647266
1684002387151186400,8.018586669921875,0.29610598090874307,0.1278858183294751,-0.43716287619379524
1684002387161228500,8.02862890625,0.2811157701863712,0.046711921632501326,-0.32939827458874243
1684002387171270600,8.0386708984375,0.26594686498896597,0.05004215224000903,-0.20858407015412625
1684002387181312600,8.048713134765626,0.14152121556368386,0.10570430743989685,-0.17014670362744044
1684002387191354800,8.058755126953125,-0.023089408916092128,0.15835380554425785,-0.16794145098950913
1684002387201396900,8.06879736328125,-0.14649343494219436,0.18175792695193535,-0.07551491260370038
1684002387211439000,8.07883935546875,-0.3085086345762921,0.15735626222202773,-0.005131840688865644
1684002387221481100,8.088881591796875,-0.35786151898368973,0.05763721476095001,0.17960417271094722
1684002387231523000,8.09892333984375,-0.36249470702959163,-0.012466430664923854,0.321652650919589
1684002387241565400,8.1089658203125,-0.33236169824892453,-0.06984806066075638,0.4059635401831217
1684002387251607200,8.119007568359375,-0.364579081469605,-0.14774513241464235,0.5649094580059301
1684002387261649300,8.1290498046875,-0.2724195719273899,-0.17518615713639135,0.6320456266340014
1684002387271691400,8.139091796875,-0.3136285541931398,-0.42360115045243857,0.6198220253401661
1684002387281733600,8.149134033203126,-0.41458952424794654,-0.5757102966642178,0.5496157409170946
1684002387291775600,8.159176025390625,-0.6022312639953331,-0.7365179062950256,0.5842971801840815
1684002387301817800,8.16921826171875,-0.9007506368673304,-0.6542911530922255,0.6081566812134838
1684002387311859900,8.17926025390625,-1.2474608421136744,-0.38576221470772654,0.7149657011825029
1684002387321902000,8.189302490234375,-1.6943078040581183,-0.13525676744220466,0.8507913352307317
1684002387331944100,8.199344482421875,-2.0428056717044925,0.06404304507064111,0.9964619874659219
1684002387341986200,8.20938671875,-2.2433204650180327,0.19193267824969254,1.1258602141637786
1684002387352028300,8.2194287109375,-2.2138514519878227,0.07942390437183822,1.2369941473994903
1684002387362070400,8.229470947265625,-1.9263690710419183,0.059246063191051336,1.2801061867828174
1684002387372112600,8.239512939453125,-1.5015881060049168,0.2317371369135699,1.2609379291255691
1684002387382154600,8.24955517578125,-1.093322872952433,0.369543075737075,1.207595825298731
1684002387392196600,8.259596923828125,-0.7459156513140665,0.4730281828879663,1.1632183790977528
1684002387402238600,8.26963916015625,-0.45160663143039975,0.5283403396574431,1.0515377520915334
1684002387412280800,8.27968115234375,-0.2221634387833066,0.5145149230683023,0.8987793922625866
1684002387422322900,8.28972314453125,-0.05740666398149341,0.3700733185690576,0.70262980462288
1684002387432365000,8.299765380859375,-0.05186343210687178,0.08848762499387265,0.48008346571153515
1684002387442407100,8.309807373046874,-0.15806722634341724,-0.184142112696061,0.25731348975009344
1684002387452449200,8.319849609375,-0.3373545408770109,-0.30225181594393064,0.12737274170144164
1684002387462491300,8.3298916015625,-0.5381258725803167,-0.3190336226721316,0.1020451784811949
1684002387472533400,8.339933837890625,-0.648406982376297,-0.36168956764001503,0.16452932351527
1684002387482575600,8.349975830078124,-0.5954028367946577,-0.4733285903299198,0.2243417502781865
1684002387492617600,8.36001806640625,-0.4481661321153878,-0.7230739592996751,0.3488487005081221
1684002387502659800,8.37006005859375,-0.19542741769415609,-0.998200416492119,0.43565011029688466
1684002387512701900,8.380102294921874,-0.05574095265933695,-1.1599617003390972,0.44206678870604216
1684002387522744000,8.390144287109376,-0.11996221547841333,-0.969829559378479,0.3275309799588617
1684002387532786100,8.4001865234375,-0.36964857574268895,-0.5124521256100131,0.02569532398564109
1684002387542828200,8.410228515625,-0.7161283493245154,-0.14452743528834483,-0.3355818986378211
1684002387552870300,8.420270751953124,-0.9827083349972376,0.0169067382988065,-0.6364880799380208
1684002387562912200,8.4303125,-1.037347555247614,0.07015323655810023,-0.8487474321992841
1684002387572954300,8.440354736328125,-0.9048181771777745,0.11354064954231961,-0.9459810851141534
1684002387582996400,8.450396728515624,-0.6368303297439574,0.19740962969374423,-0.9714987872750004
1684002387593038600,8.46043896484375,-0.4017733335756624,0.36950302123177525,-0.9567928910480346
1684002387603080600,8.47048095703125,-0.19063818461089582,0.5172424317029818,-0.8434143661924863
1684002387613122700,8.480523193359375,0.006012082197693039,0.6119174957422736,-0.6514993310759892
1684002387623164800,8.490565185546876,0.14505118145351253,0.5891513823445285,-0.49860775487498765
1684002387633207000,8.500607421875,0.3380206226937517,0.41124248511155304,-0.3696128130574172
1684002387643249100,8.5106494140625,0.4759341478472184,0.1384010314582797,-0.29567182061701924
1684002387653291200,8.520691650390624,0.5408927202466,-0.12878036513127664,-0.2483767269427494
1684002387663333300,8.530733642578125,0.5009489060389405,-0.263730049116099,-0.30918753155759016
1684002387673375400,8.54077587890625,0.3745489120067204,-0.2548828124759429,-0.4401109219653687
1684002387683417600,8.55081787109375,0.20821845530611585,-0.21978473651912728,-0.5550501346602236
1684002387693459600,8.560860107421876,0.04793477068840095,-0.1610383986059036,-0.6649056673307057
1684002387703501600,8.57090185546875,-0.03584802138615588,-0.1481561660144836,-0.7570362687088298
1684002387713543900,8.5809443359375,-0.04565697893144894,-0.20735263819215272,-0.7974502445425423
1684002387723585600,8.590986083984374,-0.01520717156382746,-0.19032382953468363,-0.8078219294943855
1684002387733627800,8.6010283203125,0.04851424687878951,-0.05184459685464223,-0.8154674172435605
1684002387743669900,8.6110703125,0.13945698735986098,-0.10983180994015557,-0.8759683967445683
1684002387753712000,8.621112548828124,0.25192004441255333,0.0040464401651217055,-0.9318264127184115
1684002387763754200,8.631154541015626,0.34059348706020504,0.2440948487328877,-0.9847316741393065
1684002387773796300,8.64119677734375,0.4047811031093828,0.20658016203782317,-0.9326965808634043
1684002387783838400,8.65123876953125,0.5173524021351885,0.3889341354028139,-0.7971298098739181
1684002387793880600,8.661281005859376,0.6737483739430534,0.24590015410582888,-0.5701413751773869
1684002387803922600,8.671322998046875,0.8280109165211086,0.150629043711682,-0.3181897401785159
1684002387813964600,8.681365234375,0.9735692739532439,0.2293910979942552,-0.13401377199419495
1684002387824006800,8.6914072265625,1.0340900420754269,0.2715835572293733,-0.02067124835649097
1684002387834048900,8.701449462890626,1.0384873151049296,0.3873624802098849,-0.029623031662384978
1684002387844090800,8.7114912109375,0.9932003022128052,0.14913749687965197,-0.014444470326001019
1684002387854133200,8.721533447265625,0.877920985090126,0.0378179550314709,0.06121325493516777
1684002387864175000,8.731575439453126,0.763924837149667,-0.03784465790322607,0.10815036303791815
1684002387874217100,8.741617431640625,0.6623830200478783,-0.08285045622749404,0.09954679017444618
1684002387884259200,8.75165966796875,0.49971178167351843,-0.18566417712176758,-0.06729972358806352
1684002387894301400,8.76170166015625,0.3844794630550294,-0.28641128540367655,-0.3081517219885812
1684002387904343600,8.771743896484375,0.36338436604591134,-0.25360584265298924,-0.5812812448705105
1684002387914385600,8.781785888671875,0.41791307934149236,-0.23783206925989897,-0.8328493833837952
1684002387924427600,8.791828125,0.5137037037870464,-0.16727733631044103,-0.9858893156222154
1684002387934469800,8.8018701171875,0.6396071911257944,-0.10406303407693147,-1.0783243180193587
1684002387944511900,8.811912353515625,0.758644521272403,-0.10534858697678644,-1.0903778077862878
1684002387954554000,8.821954345703125,0.841493964358629,-0.1064300537182901,-0.9716918468743807
1684002387964596100,8.83199658203125,0.8924455044718584,-0.0811204910340736,-0.8043135403744428
1684002387974638300,8.84203857421875,0.8417944907422927,-0.07024097436615603,-0.5869451760820683
1684002387984680400,8.852080810546875,0.7447159289452696,-0.06421375272026378,-0.42956864833871633
1684002387994722600,8.862122802734374,0.6593212485479781,-0.13467025747104666,-0.3368232251468464
1684002388004764600,8.8721650390625,0.6121783853645304,-0.17150211332767976,-0.27712678920222694
1684002388014806400,8.882206787109375,0.5913296341705487,-0.05299282075692128,-0.2288482188784689
1684002388024848600,8.8922490234375,0.5591157674581725,-0.05893898015021384,-0.15384650221803728
1684002388034890600,8.902291015625,0.5784971714450625,-0.06723403937441166,-0.08820235746043727
1684002388044932800,8.912333251953125,0.5593168735400056,-0.056365966690099314,-0.04156088829055634
1684002388054974900,8.922375244140625,0.5660247802584121,-0.07893466952028225,-0.025962472043364927
1684002388065017000,8.93241748046875,0.5336095096268135,-0.09662151336634422,0.049582719730627924
1684002388075059100,8.94245947265625,0.542750716148478,-0.16195392595587071,0.08486020551643253
1684002388085101200,8.952501708984375,0.533455729379433,-0.1410856247407801,0.17067873478644774
1684002388095143300,8.962543701171874,0.5274377465914579,-0.15600395210650703,0.17563223843225956
1684002388105185500,8.9725859375,0.5272211432573507,-0.1516637800619751,0.2170597314940977
1684002388115227600,8.9826279296875,0.5087060930200648,-0.09707450868932781,0.259032845472059
1684002388125269600,8.992670166015625,0.48613309848335506,0.017144203220882618,0.32752168174968566
1684002388135311800,9.002712158203124,0.4859407247671593,0.01165008556972092,0.4194856883451386
1684002388145353900,9.01275439453125,0.5298217535749591,0.013275146486275213,0.4294455053113225
1684002388155395800,9.022796142578123,0.5698577165578803,0.08879947658321408,0.48850274080926204
1684002388165437900,9.03283837890625,0.6029996277258468,0.1305418013955148,0.5153484343658924
1684002388175480000,9.04288037109375,0.6111771465452788,0.1099224091837797,0.560618519824271
1684002388185522100,9.052922607421875,0.5859565139115187,0.031822204679358604,0.5647282599612483
1684002388195564200,9.062964599609376,0.49503648297949165,-0.0009927749259004324,0.5804373024866295
1684002388205606300,9.0730068359375,0.33536756056369726,-0.012599945068476018,0.5646424293319118
1684002388215648400,9.083048828125,0.09396535170203371,0.001726150573707601,0.40974068639419864
1684002388225690600,9.093091064453125,-0.13709083186442206,-0.05827999103603859,0.16563069819717824
1684002388235732600,9.103133056640624,-0.2769687771794798,-0.19187164310773946,-0.11570346354428383
1684002388245774800,9.113175048828126,-0.38734185690986445,-0.3607416153150025,-0.4702692032026204
1684002388255816900,9.12321728515625,-0.429420858489137,-0.30749320986552653,-0.7448125482100425
1684002388265859000,9.13325927734375,-0.43376702083068114,0.015888214075076477,-0.9124704599459867
1684002388275901100,9.143301513671876,-0.4120981396667523,-0.11302948012220346,-0.9888644813276468
1684002388285943200,9.153343505859375,-0.3500005901602445,-0.1708717345514531,-1.0471603870450013
1684002388295985100,9.163385498046877,-0.25757366424037836,-0.20124340051873674,-0.8336667419171093
1684002388306027200,9.173427490234374,-0.13356137275707933,-0.16718196856291312,-0.5683897732762647
1684002388316069300,9.1834697265625,-0.061355650425465244,-0.14524078378478555,-0.35647141934779103
1684002388326111400,9.19351171875,0.01855230327071076,-0.09995365143478706,-0.20432031142976648
1684002388336153600,9.203553955078124,0.12224358313180989,-0.10243797296139709,-0.13969910148369513
1684002388346195600,9.213595947265626,0.2247433065761523,-0.05300426480071183,-0.14175701143203961
1684002388356237700,9.22363818359375,0.30863451965814176,-0.0371866226623621,-0.0459765194990252
1684002388366279900,9.23368017578125,0.35925966492500194,-0.014536857651057916,0.10314249985934085
1684002388376322000,9.243722412109374,0.3980098365386144,-0.006454467663323158,0.24068796647242016
1684002388386364100,9.253764404296875,0.3868976236392942,0.048552513120465136,0.3508666752051145
1684002388396406200,9.263806640625,0.3432795405887633,0.10731220252741162,0.43876135344594624
1684002388406448300,9.2738486328125,0.3101669550551183,0.16271305086700427,0.573085904032955
1684002388416490400,9.283890869140626,0.25463485704396677,0.13234043135188983,0.6960241794073949
1684002388426532600,9.293932861328123,0.19205343731691532,0.10002231597525937,0.7838147879849302
1684002388436574600,9.30397509765625,0.15155029287050603,0.028121948201516738,0.8060501814985139
1684002388446616600,9.314016845703126,0.08356988430306528,0.016233444171019004,0.8229231834233423
1684002388456658600,9.32405908203125,0.056104421678653905,0.018509864681474798,0.8294461964535079
1684002388466700600,9.33410107421875,0.015946328569955925,0.0393447876061693,0.7597509622668668
1684002388476742800,9.344143310546874,-0.07633697969336119,0.08088302621945136,0.6768054962173058
1684002388486784900,9.354185302734376,-0.15498876555389268,0.10755825047396465,0.5854251385298992
1684002388496827100,9.3642275390625,-0.19060266035527312,0.034874916007754754,0.5015479325643499
1684002388506869200,9.37426953125,-0.21138823025180875,0.015324592505011815,0.3950626849397424
1684002388516911300,9.384311767578126,-0.22682201849113953,-0.027251243622873525,0.2948664426773085
1684002388526953400,9.394353759765623,-0.21411377191456402,-0.04542732238022749,0.23151993762147272
1684002388536995600,9.40439599609375,-0.19314569247627494,-0.02779579164678821,0.148488044823752
1684002388547037600,9.41443798828125,-0.14530962701318303,0.010961532624035687,0.09113383309257286
1684002388557079700,9.424480224609376,-0.11596262454304677,0.02573585520571957,0.08486986164394988
1684002388567121800,9.434522216796877,-0.0650202036496247,0.009824752988677196,0.09341812127299905
1684002388577164000,9.444564453125,-0.028490126092138468,-0.008085250913468674,0.15861260892189438
1684002388587205800,9.454606201171876,0.012339115131695116,-0.018607139463258565,0.20633280261851272
1684002388597247900,9.4646484375,0.04518496990135306,-0.005326270905208072,0.16211283205630023
1684002388607290000,9.4746904296875,0.05588018889371921,-0.003843307651529926,0.14364194867097202
1684002388617332100,9.484732666015624,0.08481132973837742,-0.01865768421216588,0.20238387579442968
1684002388627374300,9.494774658203124,0.09849679457905217,0.04934883106566359,0.24047267437157469
1684002388637416400,9.504816650390625,0.09413999321961083,0.10456943507421987,0.2794507741600689
1684002388647458600,9.51485888671875,0.0950163601270919,0.10716342917204275,0.33120000353605983
1684002388657500600,9.52490087890625,0.042183935724515745,0.13564014430140303,0.3975307940682719
1684002388667542600,9.534943115234377,-0.004022836626827704,0.16606712340605684,0.4357970953068249
1684002388677584800,9.544985107421876,-0.035646736772375114,0.15134906753157745,0.5237911939405446
1684002388687626900,9.55502734375,-0.057218730364154625,0.1793603897313484,0.5757977963259105
1684002388697669000,9.5650693359375,-0.08559834958947084,0.16226196277371863,0.6630170345987083
1684002388707711200,9.575111572265625,-0.09509032972612537,0.12195205674116705,0.6953163145745974
1684002388717753300,9.585153564453124,-0.13508254280697282,0.1223917007113101,0.7535274029202861
1684002388727795100,9.595195556640626,-0.1928521991044688,0.10640525813587247,0.6957362889780982
1684002388737837200,9.605237548828123,-0.23764038073892985,0.1307954788380489,0.6560004951494506
1684002388747879300,9.61527978515625,-0.2796356080384198,0.0842075348349823,0.6741626263877548
1684002388757921500,9.62532177734375,-0.3168593645197049,0.09966468804792787,0.6812227964241164
1684002388767963600,9.635364013671875,-0.32924818985243326,0.16211032867158917,0.6585167646033648
1684002388778005600,9.645406005859376,-0.2898863553370711,0.14368343347663767,0.7095963954992786
1684002388788047800,9.6554482421875,-0.23020219807782075,0.2010698319321314,0.7104901074001959
1684002388798089900,9.665490234375,-0.20347261428824637,0.2364225387248822,0.7235615253255545
1684002388808132000,9.675532470703123,-0.1773269177496305,0.24061012274679472,0.7581248282352091
1684002388818174100,9.685574462890624,-0.14492082595575423,0.27072143562220147,0.7862836122946122
1684002388828216200,9.69561669921875,-0.1392407417641889,0.31455135348148844,0.803383469572316
1684002388838258400,9.70565869140625,-0.10338962085168636,0.3035602568386718,0.8470715283503681
1684002388848300500,9.715700927734376,-0.08493506905743359,0.2645721434852618,0.8840508460981414
1684002388858342600,9.725742919921874,-0.043542444832399586,0.33227825165527897,0.9123964310302939
1684002388868384600,9.73578515625,-0.01034075012511191,0.3424329756615006,0.9722238779921571
1684002388878426600,9.745826904296877,0.028802692745796055,0.34069252007389667,1.0228472948706753
1684002388888468600,9.755869140625,0.05216127636883758,0.3884372711557572,1.022187948315582
1684002388898510800,9.7659111328125,0.07162815331853033,0.3458967208342834,1.0391945838390064
1684002388908552900,9.775953369140623,0.0690075756667889,0.26402568811865473,1.10156393046767
1684002388918595000,9.785995361328125,0.09690994035150302,0.09162425981824665,1.1676801443372342
1684002388928637100,9.79603759765625,0.14715337760208377,-0.06161022182501239,1.222916245290841
1684002388938679200,9.80607958984375,0.19140380632777368,-0.09261894226939647,1.1966292857525247
1684002388948721300,9.816121826171877,0.20381534107783816,-0.050768852292141786,1.1348259448549602
1684002388958763400,9.826163818359374,0.16794729240260053,-0.022204399132144316,1.070056557705455
1684002388968805600,9.8362060546875,-0.014374613850900681,-0.06777381897586818,0.9289392233166878
1684002388978847600,9.846248046875,-0.22162568585907189,-0.2494373321794264,0.8304498196553229
1684002388988889800,9.856290283203125,-0.34907734404146684,-0.27742671973927324,0.7522115708412473
1684002388998931600,9.86633203125,-0.3612581491513784,-0.20130729659012547,0.7069761751741208
1684002389008974000,9.87637451171875,-0.29010200501208977,-0.19463348395642818,0.6676701307226958
1684002389019015900,9.886416259765625,-0.19380402570186014,-0.10082817067676395,0.512323737227466
1684002389029058000,9.896458251953124,-0.09487432243838892,-0.09315872199930504,0.364130258409367
1684002389039100100,9.90650048828125,-0.06259018179554574,-0.1560401916078303,0.24541521077623923
1684002389049142200,9.91654248046875,0.00612938411094664,-0.24132156369103766,0.14919292921604335
1684002389059184300,9.926584716796874,0.03873813143410172,-0.29221820832799517,0.07558459044345534
1684002389069226400,9.936626708984376,0.08417600405161076,-0.28113937378257514,-0.017885446528710686
1684002389079268600,9.9466689453125,0.0877313612948857,-0.2491607666976742,-0.06009602532643807
1684002389089310600,9.9567109375,0.11611050357305554,-0.30499267580569794,-0.062123119943050004
1684002389099352800,9.966753173828126,0.11967134486799823,-0.3672122955203118,-0.07052457334561384
1684002389109394900,9.976795166015624,0.12735164160715742,-0.39104270930743124,-0.08147460212895073
1684002389119437000,9.98683740234375,0.18614351757258984,-0.3889446259793364,-0.1143458484422891
1684002389129479100,9.99687939453125,0.19408917430341763,-0.3048505782482032,-0.1854485868717713
1684002389139521200,10.006921630859376,0.22008359434675517,-0.2719678878826797,-0.30103957654873204
1684002389149563100,10.01696337890625,0.24457561980130943,-0.2587757109819182,-0.3839111329170316
1684002389159605200,10.027005615234376,0.23284614087050348,-0.20661449429934703,-0.5185452699414784
1684002389169647300,10.037047607421876,0.21019613757292355,-0.07102203377038656,-0.7016187906757482
1684002389179689400,10.04708984375,0.1387052536154157,0.024039268423485558,-0.9071619509194098
1684002389189731600,10.0571318359375,0.13105201729483376,0.16740131379829093,-1.1265885831625
1684002389199773600,10.067174072265624,0.09686231613437862,0.227865219043784,-1.3021770715051513
1684002389209815700,10.077216064453124,0.07507026207318808,0.25103759772314116,-1.3976662160365203
1684002389219857800,10.08725830078125,0.026169896040848243,0.2105989456239021,-1.3526384830736213
1684002389229900000,10.09730029296875,-0.04178404803900092,0.15649795528932026,-1.2382097243897885
1684002389239942100,10.107342529296876,-0.10250866418670547,0.13844394679914604,-1.0119068621277494
1684002389249984200,10.117384521484375,-0.18068170551973978,0.06276226033027013,-0.7915383577043574
1684002389260026300,10.1274267578125,-0.2467734217913756,0.046194076560809046,-0.6254330277617549
1684002389270068400,10.13746875,-0.324173390899406,-0.035957336467071305,-0.4279872178506394
1684002389280110600,10.147510986328124,-0.4403402805750756,-0.1431541442802757,-0.31112235782397557
1684002389290152400,10.157552734375,-0.5430033804238338,0.05960559843706888,-0.5242261291145928
1684002389300194600,10.167594970703124,-0.7233482600690637,0.19540500641269964,-0.8169088364998629
1684002389310236600,10.177636962890626,-0.8114237784953064,0.1454038619240447,-0.5658226608528082
1684002389320278600,10.18767919921875,-0.8070268035062953,0.10093212125927155,-0.25424319519820476
1684002389330320800,10.19772119140625,-0.7964447737573462,0.03320121761320105,-0.07993376259162951
1684002389340362900,10.207763427734376,-0.789663791644394,-0.021962165951784712,0.019951909837242796
1684002389350405000,10.217805419921875,-0.7565844060392006,-0.05517292020799617,0.1363998353042407
1684002389360447200,10.22784765625,-0.7388230562762929,-0.15260887150670277,0.2619289756363351
1684002389370489300,10.2378896484375,-0.7317824363305326,-0.23061084745582064,0.4223294854854701
1684002389380531400,10.247931884765626,-0.761037230582372,-0.22716808315091166,0.5044621229146092
1684002389390573600,10.257973876953123,-0.7966067194884476,-0.19738483423705747,0.4891975521912567
1684002389400615600,10.26801611328125,-0.8199396730258989,-0.3586816788424471,0.5329766870778846
1684002389410657600,10.27805810546875,-0.8107239605384408,-0.33336162573742645,0.4105325341533296
1684002389420699600,10.288099853515623,-0.8194119929991498,-0.28208637234904615,0.182553887206971
1684002389430741600,10.29814208984375,-0.856607496637153,-0.24574851984859955,-0.06134647134612758
1684002389440783800,10.30818408203125,-0.9062697291010362,-0.24362277977420646,-0.3944146037365532
1684002389450825900,10.318226318359375,-0.9662586450485312,-0.23759269719075868,-0.6821033357857392
1684002389460868000,10.328268310546877,-0.953414916991593,-0.1537942884874292,-0.9595149755372863
1684002389470910100,10.338310546875,-0.9253296256196306,-0.1453762055147096,-1.1802663802779187
1684002389480952200,10.3483525390625,-0.8077861069940132,-0.17406463622558954,-1.360496878636004
1684002389490994400,10.358394775390623,-0.5977582336968659,-0.15157032006384286,-1.4306873083256866
1684002389501036500,10.368436767578125,-0.32329815623708646,-0.25477504735449935,-1.5526077747644502
1684002389511078600,10.37847900390625,0.09772422900961084,-0.27315616617123073,-1.5632538797083986
1684002389521120600,10.38852099609375,0.4904778599690082,-0.18040370943911632,-1.553472042024743
1684002389531162800,10.398563232421877,0.5429345965718552,-0.4255285264188001,-1.5873000621517752
1684002389541204900,10.408605224609374,0.6088654399540193,-0.6662263869440546,-1.6202266217296897
1684002389551247000,10.4186474609375,0.6355696321088207,-0.9026117324656355,-1.541755199383733
1684002389561288900,10.428689208984377,0.7220881581176689,-1.017440795821579,-1.5332419873035532
1684002389571331000,10.4387314453125,0.811322033453057,-0.9891033172628513,-1.5600433350390228
1684002389581373100,10.4487734375,0.9581836461514269,-0.8963422774368864,-1.4427812099892667
1684002389591415200,10.458815673828123,1.1363011599272133,-0.7387371063721976,-1.2787088155706134
1684002389601457300,10.468857666015625,1.2721015215688005,-0.48978137957270756,-0.965492129366759
1684002389611499400,10.47889990234375,1.2627234458907055,-0.18295955658673652,-0.7069630623142436
1684002389621541600,10.48894189453125,1.1582514049152197,0.023957252471657604,-0.6101546287261981
1684002389631583600,10.498984130859377,1.1562031506570989,0.12376499173581344,-0.5836902855234654
1684002389641625800,10.509026123046874,1.0647653342695234,0.16417598715047704,-0.7390084266185921
1684002389651667900,10.519068359375,0.8738018273045476,0.22631359096046688,-1.0577656030266798
1684002389661710000,10.5291103515625,0.7790881395482853,0.1857261656861894,-1.2339558602141614
1684002389671752100,10.539152587890625,0.7919158339172901,0.16916370375729084,-1.3260760306372712
1684002389681794200,10.549194580078124,0.6407837270841491,0.16239833836108875,-1.3821301461748101
1684002389691836100,10.559236572265624,0.21782583009850884,0.2035570144278384,-1.3100545406588313
1684002389701878400,10.56927880859375,-0.24651622771940826,0.3115043640885924,-1.2251725195979504
1684002389711920300,10.57932080078125,-0.523966908419761,0.469383239844933,-1.2028601169241346
1684002389721962400,10.58936279296875,-0.5356600285432156,0.6316766738775762,-1.2665319443422878
1684002389732004600,10.599405029296875,-0.4296975134944364,0.6549787521109143,-1.382647275894654
1684002389742046600,10.609447021484376,-0.33662748345456606,0.5561647416748156,-1.5058349371736817
1684002389752088800,10.6194892578125,-0.27707326410202154,0.4571552276663631,-1.595637321304463
1684002389762130900,10.62953125,-0.2434197664303756,0.3030710218849877,-1.6680020095386299
1684002389772173000,10.639573486328125,-0.24692893033534127,0.2660140992134003,-1.7502079008709075
1684002389782215100,10.649615478515624,-0.31318044651170307,0.1664447783738388,-1.5529035330860037
1684002389792257200,10.65965771484375,-0.6382849217650809,0.09262561780555288,-1.4891692400213432
1684002389802299300,10.66969970703125,-1.0058325527969452,-0.07784271227960159,-1.1690862178491503
1684002389812341400,10.679741943359376,-1.433843493507458,-0.2473363876792367,-0.8793286085286586
1684002389822383600,10.689783935546876,-1.5704587698833608,-0.3326110840227509,-0.735038161229818
1684002389832425400,10.69982568359375,-1.2997899056314417,-0.3547716140547849,-0.5648045540039566
1684002389842467600,10.709867919921876,-0.8554120064149949,-0.45370578772768666,-0.4130307435410871
1684002389852509600,10.719909912109374,-0.37259626394593326,-0.5945520400862067,-0.1887168883755174
1684002389862551700,10.7299521484375,0.06375968451548633,-0.5160512925100217,-0.0689876079466392
1684002389872593800,10.739994140625,0.40200006962323503,-0.46910285934938356,0.08427417275727916
1684002389882636000,10.750036376953124,0.7116528748291578,-0.2720842360632902,0.14380800737839358
1684002389892678100,10.760078369140626,0.9200946094113497,0.007722854576237495,0.07232522949882907
1684002389902720200,10.77012060546875,0.9297958611647991,0.22423934919650873,-0.07588016996270967
1684002389912762300,10.78016259765625,0.7995359899517636,0.4226560593059023,-0.33461272725429947
1684002389922804400,10.790204833984374,0.5811530350904134,0.6431837082117107,-0.6658912896625868
1684002389932846600,10.800246826171875,0.4938136339962352,0.9782924652776325,-0.7961225509873162
1684002389942888600,10.8102890625,0.5260677337577514,1.0954370498717807,-0.7959992884735415
1684002389952930700,10.8203310546875,0.5722559689615853,1.1198673248550268,-0.8573370575822812
1684002389962972600,10.830373046875,0.6152737140625286,1.0218982696568168,-0.9416097401543859
1684002389973014600,10.8404150390625,0.6531785727671884,0.9437742233303605,-0.9835975766501138
1684002389983056800,10.850457275390625,0.5807828903662897,0.8761215210356909,-0.8412135840186024
1684002389993098900,10.860499267578126,0.48363471038626654,0.7898101807484955,-0.6437841653646122
1684002390003141000,10.87054150390625,0.3812942506711666,0.6743869780293636,-0.36877858647990885
1684002390013183200,10.88058349609375,0.3364007473647655,0.6267623901408471,-0.05885601042198471
1684002390023225300,10.890625732421874,0.3608514069701888,0.6530761718983852,0.2032253741324913
1684002390033267400,10.900667724609375,0.3885540962139205,0.6929359435836536,0.43030476585142474
1684002390043309600,10.9107099609375,0.31902885428499483,0.6910591126764196,0.644151091583249
1684002390053351600,10.920751953125,0.1320211888541412,0.649890899651496,0.7564858197690502
1684002390063393600,10.930794189453126,-0.2670345306883001,0.41436862933790847,0.8250063656214104
1684002390073435800,10.940836181640623,-1.0659434795641964,-0.015336036596166046,0.9361338614782736
1684002390083477600,10.950878173828125,-2.3404939174753516,-0.5688171385919689,1.178201317714062
1684002390093519800,10.960920166015624,-3.3160853385626967,-0.8795471192298626,1.4186223743878534
1684002390103561900,10.97096240234375,-3.0748081206610816,-0.8511180878148014,1.3922271728719353
1684002390113604000,10.98100439453125,-2.365331649792796,-0.6102237701548605,1.2600436210942731
1684002390123646100,10.991046630859374,-1.5556328296424364,-0.35607624041098873,1.2347739935884632
1684002390133688200,11.001088623046876,-0.5059809683815489,-0.08759212491923805,0.9425101280132712
1684002390143730400,11.011130859375,0.49484026440120565,0.654216766263086,-0.13981938360794577
1684002390153772500,11.0211728515625,0.898432254744856,0.6446676253515818,-0.6744810341740659
1684002390163814600,11.031215087890626,0.9044574498178554,0.21172046646789375,-0.938696026667999
1684002390173856600,11.041257080078124,0.5739462375193849,-0.5128326417851283,-1.034112692046891
1684002390183898800,11.05129931640625,-0.1837867499342901,-1.2295551299000382,-1.2769500018089557
1684002390193940900,11.06134130859375,-1.2243759632490296,-1.3054609298769584,-1.9471337794054218
1684002390203983000,11.071383544921876,-2.229457378262327,-1.3060989381065116,-2.508439779229829
1684002390214025100,11.081425537109377,-3.081272125129994,-1.4735822678149957,-2.6856176852463856
1684002390224067200,11.091467529296876,-3.8624572753966495,-1.8060598372959464,-2.8233828544210664
1684002390234109100,11.101509521484376,-4.350841998939642,-2.1752471925319763,-2.715624332321141
1684002390244151200,11.111551513671875,-4.300572395455829,-2.3002576827642,-2.1986021995267873
1684002390254193300,11.12159375,-3.5783934594216142,-1.9865388870671683,-1.2595914601224345
1684002390264235400,11.1316357421875,-2.2186150550990575,-1.1369838713976812,-0.28415668011314243
1684002390274277600,11.141677978515624,-0.4693372251105181,0.023905754021289288,0.5726779698141212
1684002390284319600,11.151719970703123,1.3973407745366226,1.0070581435820272,1.4023768901885376
1684002390294361800,11.16176220703125,3.055590867826027,1.5985860825791232,2.348183393511714
1684002390304403900,11.17180419921875,4.0881905555076985,1.6252470015689016,3.2864484787230954
1684002390314446000,11.181846435546875,4.266845226194247,1.52345657342851,3.561652660359999
1684002390324488100,11.191888427734376,4.056045055396301,1.332342147752147,3.2907505035685145
1684002390334530200,11.2019306640625,3.676185607875533,1.1262149810928344,2.952260494242323
1684002390344572300,11.21197265625,3.3329703808086024,0.9766330719824182,2.384164333377269
1684002390354614200,11.2220146484375,3.0781645773304462,0.8235235213846036,1.7990429402683759
1684002390364656300,11.232056640625,2.8586046697262497,0.6905364989250034,1.236639976569103
1684002390374698400,11.242098876953126,2.677064418753293,0.4774093627850807,0.6142815349994425
1684002390384740600,11.252140869140623,2.5347757337931283,0.26826477051404146,0.2559515239144179
1684002390394782600,11.26218310546875,2.432259797984781,0.061076164286542695,-0.01936358211292038
1684002390404824800,11.27222509765625,2.348773956184781,-0.19169044497194576,-0.3543302417470462
1684002390414866900,11.282267333984375,2.250327587302944,-0.4637460709443547,-0.6103668212423277
1684002390424909000,11.292309326171877,2.116580963097567,-0.7101840974016583,-0.7269643545105697
1684002390434951100,11.3023515625,1.9549992084722148,-0.800474166750817,-0.8376604914639787
1684002390444993200,11.3123935546875,1.71396231644045,-0.5756015778473946,-1.057600736476157
1684002390455035300,11.322435791015623,1.4291104077825991,-0.19654750829266948,-1.4097764492058105
1684002390465077400,11.332477783203124,1.0181113482420427,0.1978836059111569,-2.0834317206859625
1684002390475119600,11.34252001953125,0.1137493849267816,0.4899883270271077,-2.6137444972008144
1684002390485161400,11.352561767578123,-0.5540373324619703,0.6601791381341026,-2.8649954796814154
1684002390495203600,11.36260400390625,-0.92522954927701,0.6702613830781867,-2.9724676609070166
1684002390505245600,11.37264599609375,-1.2651655674122557,0.32022857668510885,-3.1126599312399814
1684002390515287700,11.382688232421875,-1.68679583078631,-0.44115638725751327,-3.1240596770255307
1684002390525329800,11.392730224609377,-2.0927991866262134,-1.1157236099599024,-2.893283367030496
1684002390535372000,11.4027724609375,-2.2703325748294803,-1.4287061691771785,-2.1564912796218176
1684002390545414100,11.412814453125,-2.1306123733048703,-1.1897096635307352,-1.1347559690647044
1684002390555456200,11.422856689453123,-1.5383377075042284,-0.4336328506462311,-0.0790592433682279
1684002390565498300,11.432898681640625,-0.7014158368163976,0.1382379532439546,0.6594179869738959
1684002390575540400,11.44294091796875,0.280796587423203,0.4498720168862628,0.7072063683750033
1684002390585582600,11.45298291015625,1.255672812368432,0.5236454010976226,0.4797330499071319
1684002390595624600,11.46302490234375,1.938493490177609,0.45610237132682313,0.23609256738001913
1684002390605666600,11.47306689453125,2.3876504899042854,0.26955699921996173,0.266612410464967
1684002390615708600,11.48310888671875,2.655830621886036,0.1342983246500648,0.42153984320921156
1684002390625750600,11.493151123046877,2.7021853923678214,0.03620719898339259,0.5486710072762256
1684002390635792800,11.503193115234374,2.622890949272977,0.0015945435381206703,0.6135644317637327
1684002390645834900,11.5132353515625,2.4552044867634875,0.0038928985784898447,0.6371180414655592
1684002390655877000,11.52327734375,2.2131085395190415,0.01634693141089606,0.6403052807237332
1684002390665919200,11.533319580078125,1.9453864098985911,0.02174758896485872,0.6583443284274032
1684002390675961300,11.543361572265624,1.687507987051644,0.024633407731761654,0.4816618561091668
1684002390686003400,11.55340380859375,1.5036872626235798,0.09408569341376594,0.3224572539548395
1684002390696045600,11.56344580078125,1.3136212824376736,0.09837055196198312,0.36671912674800083
1684002390706087600,11.573488037109374,1.117322325681935,0.08309841147342029,0.27325505026019214
1684002390716129600,11.583530029296876,0.9046595095733557,0.012679100139878722,0.17604798093759805
1684002390726171800,11.593572265625,0.6430822015296321,-0.07452678677580658,0.1687985062049587
1684002390736213600,11.603614013671876,0.3271765112823688,-0.1355104447771134,0.19888228187926957
1684002390746255800,11.61365625,0.041838258358458794,-0.2443695067941855,0.22563093902568057
1684002390756297900,11.6236982421875,-0.252584755585574,-0.33167743683243983,0.24955344193694265
1684002390766340000,11.633740478515625,-0.46881210812790264,-0.3639974593420191,0.2449625730391361
1684002390776382100,11.643782470703124,-0.5489835141973347,-0.29127407083485146,0.15968346600155078
1684002390786424200,11.65382470703125,-0.45487329362217155,-0.2331352233596172,0.08728772406022026
1684002390796466400,11.66386669921875,-0.23736272744410972,-0.17517471311736119,-0.057892203245268954
1684002390806508500,11.673908935546876,0.04024417692455855,-0.16509246816937762,-0.13166749484641427
1684002390816550600,11.683950927734376,0.3258885146390564,-0.10724449155036436,-0.1656145452808302
1684002390826592600,11.6939931640625,0.610219359415043,-0.09489536284741837,-0.17706978318526925
1684002390836634800,11.70403515625,0.8178043366570148,0.058362007239410575,-0.14460104714511626
1684002390846676900,11.714077392578124,0.9910544156606197,0.09426212317222539,-0.1353269219288685
1684002390856718800,11.724119140625,1.1224933861585424,0.03697490708513645,-0.0658063291614837
1684002390866760900,11.734161376953123,1.1998394727667419,0.003715515293445281,-0.025283098226727186
1684002390876803000,11.744203369140624,1.2276649474884136,-0.10827445981537684,0.02660715584900518
1684002390886845100,11.75424560546875,1.2126710414470157,-0.21758461005639285,0.06596398354226024
1684002390896887200,11.76428759765625,1.188252091469799,-0.17857742305250582,0.15673422811431226
1684002390906929300,11.774329833984376,1.1497687101485443,-0.08714866645619991,0.243833482327688
1684002390916971400,11.784371826171874,1.0867661237849395,-0.10347270964698062,0.4035387634863523
1684002390927013600,11.7944140625,1.0104554891806037,-0.007623672528959856,0.4419602156519308
1684002390937055600,11.8044560546875,1.0198503732873618,0.020983695924491903,0.4237852097897559
1684002390947097800,11.814498291015624,1.0504189728857398,-0.160762786739421,0.26580095285857264
1684002390957139900,11.824540283203126,1.0918715000093933,-0.15347194673853304,0.021466851392038536
1684002390967182000,11.83458251953125,1.1002736090849878,-0.0578737259134815,-0.2560346425109795
1684002390977224100,11.84462451171875,1.0272216797181066,0.1282835006361404,-0.5846379994529297
1684002390987266000,11.854666259765626,0.9751940369268003,0.2997512818955842,-0.8559827805543359
1684002390997308300,11.864708740234375,0.9037182926893289,0.32522201534099426,-1.0271666050142183
1684002391007350200,11.87475048828125,0.8107528687152162,0.09992408754070936,-1.1494343280907884
1684002391017392300,11.884792724609374,0.7016671299241448,-0.007749557468250646,-1.2848217487715605
1684002391027434400,11.894834716796876,0.6278386711579479,-0.06257629409367571,-1.373212575902666
1684002391037476600,11.904876953125,0.6640868783185981,-0.005014419547281956,-1.4051903484486383
1684002391047518600,11.9149189453125,0.8267720343374012,0.11690711970992929,-1.4020059108652887
1684002391057560800,11.924961181640626,1.0382943154140907,0.12869930272603508,-1.3423706292596773
1684002391067602900,11.935003173828123,1.2589429615451961,0.14051342017284255,-1.2194578647865186
1684002391077645000,11.94504541015625,1.369614601021372,0.1213531493457572,-1.0763838290353873
1684002391087687100,11.95508740234375,1.3545662164098211,0.07371902483524875,-0.9852030873602924
1684002391097729200,11.965129638671876,1.184030652027119,-0.08344840990777706,-0.9930891991254773
1684002391107771300,11.975171630859377,0.8540414571889886,-0.26151657098352393,-0.8940829039467462
1684002391117813200,11.985213623046874,0.47446531060697045,-0.39129066454692807,-0.6009464264552603
1684002391127855300,11.995255615234376,0.07169255607786201,-0.296276092567228,-0.24634639916967882
1684002391137897400,12.0052978515625,-0.24150460969516563,-0.31147575383994597,0.06858676654432604
1684002391147939600,12.01533984375,-0.40320163964416655,-0.22652912144003937,0.34857842307724873
1684002391157981600,12.025382080078124,-0.3720477223096714,-0.20174407972482306,0.6576063036928915
1684002391168023700,12.035424072265624,-0.160812675834572,-0.18923378007329003,0.8373092414335014
1684002391178065800,12.04546630859375,0.15411160893348738,-0.05280494690792889,0.9286577702802182
1684002391188108000,12.05550830078125,0.44388860471925284,-0.04108238217812126,0.958034157805177
1684002391198150100,12.065550537109376,0.7017966507639876,0.023059844921074636,0.8571434022346225
1684002391208192200,12.075592529296877,0.8861479163160186,-0.10402679447893685,0.7557840347938238
1684002391218234300,12.085634765625,1.0109635592522979,-0.15674495689588186,0.62088602775756
1684002391228276400,12.0956767578125,1.0454249381007854,-0.1281070709464651,0.5385384558688003
1684002391238318300,12.10571875,1.0735306740442292,-0.003951072601908864,0.368754923374276
1684002391248360600,12.115760986328125,1.074595928272995,-0.07825565334570767,0.3656429052033783
1684002391258402600,12.125802978515624,1.085549354598814,-0.0879049302189657,0.4157957434847953
1684002391268444600,12.135844970703126,1.078142881480167,-0.0163879393991292,0.46106666326475004
1684002391278486600,12.14588720703125,1.1191728116121693,0.16475105287681865,0.5372915268943891
1684002391288528800,12.15592919921875,1.184482812980041,0.23792171476351426,0.6299661397802114
1684002391298570900,12.165971435546876,1.2641637326206752,0.10546398164592041,0.7762988805293426
1684002391308613000,12.176013427734375,1.266931414537431,0.028220176743166337,0.7707931993623813
1684002391318655200,12.1860556640625,1.2858506442901938,-0.0894317625598441,0.769788801610046
1684002391328697300,12.19609765625,1.2155134677234227,-0.3213796614781995,0.6211847066491559
1684002391338739400,12.206139892578124,1.0890446901760915,-0.552689552329323,0.4993471801222445
1684002391348781600,12.216181884765623,0.9424595831551421,-0.5947437286394601,0.38845896726544416
1684002391358823600,12.22622412109375,0.8099694253002595,-0.4337482453376209,0.3353735507614193
1684002391368865500,12.236265869140626,0.6047444343627536,-0.27328777310337565,0.22766998401003738
1684002391378907600,12.246307861328123,0.5051148533420268,-0.18505573278707968,0.09273186334478178
1684002391388949600,12.25635009765625,0.5207094550500873,0.07232856732603518,-0.010948628210268803
1684002391398991800,12.26639208984375,0.6651877163260058,0.12592983232970986,-0.030147731272992764
1684002391409033900,12.276434326171875,0.7752645016482673,-0.05477046974861487,-0.010724544510894366
1684002391419076000,12.286476318359377,0.8859440086776225,-0.013055801331212329,-0.009134262659117
1684002391429118100,12.2965185546875,0.9380993842947962,0.24824714668933787,-0.18774935598359244
1684002391439160200,12.306560546875,0.9255987406271399,0.32758808148481094,-0.4689187407052291
1684002391449202400,12.316602783203123,0.8423212767343217,0.27319431303282193,-0.6570603847055544
1684002391459244500,12.326644775390625,0.7115592957519178,-0.06296348577813307,-0.6884791849857855
1684002391469286600,12.33668701171875,0.6392682193179258,-0.09779357900139081,-0.634944379255287
1684002391479328600,12.34672900390625,0.6877238155848674,0.5117111205896725,-0.5082067253114471
1684002391489370600,12.35677099609375,0.8184440731799254,1.0524253844382923,-0.37516307839277196
1684002391499412900,12.366813232421874,0.9988366962452433,1.0448474883830006,-0.40539562711998356
1684002391509454800,12.376855224609375,1.1387317180860859,0.8275232314950143,-0.31955173607620335
1684002391519496900,12.386897216796877,1.1125810146327408,0.6733608244418516,-0.07008984684476202
1684002391529539000,12.396939453125,0.970075428333167,0.4984397887899522,0.261515080997488
1684002391539581100,12.4069814453125,0.8319831490761777,0.05886554723730463,0.5272916555380911
1684002391549623200,12.417023681640623,0.6887556911806868,-0.6258344649071232,0.7816137671461801
1684002391559665300,12.427065673828125,0.5198469161466545,-1.1611270904495283,0.8424848317286471
1684002391569707400,12.43710791015625,0.3699139952478549,-1.1604642867764499,0.7309626938288751
1684002391579749600,12.44714990234375,0.2633487583583697,-0.9092054366514439,0.7091076373081943
1684002391589791600,12.457192138671877,0.19576334947809737,-0.30747509009425494,0.6866657733675381
1684002391599833800,12.467234130859374,0.04162770524129722,0.30465698240721834,0.7030599712401386
1684002391609875900,12.4772763671875,-0.06980073455156745,0.587809562775011,0.7364175916748784
1684002391619918000,12.487318359375,-0.15086412443533445,0.5831737518249948,0.7661014200462392
1684002391629960100,12.497360595703125,-0.21510231476648686,0.4609022140397322,0.8597193360847988
1684002391640002000,12.50740234375,-0.267973780581993,0.2762479781587432,0.8148178456883456
