time,seconds_elapsed,z,y,x
1684006622844162200,0.043562744140625,6.94149995980625e-11,-8.765836891741716e-11,1.4019585183137885e-11
1684006622854203300,0.053603759765625,-0.05507564532523546,3.385541752750488e-05,0.040542364243392776
1684006622864244100,0.06364453125,0.060601711261598946,-0.007694721172540972,0.05123543738616837
1684006622874285000,0.073685302734375,0.29847955697233947,-0.07115936279941114,0.09186720834424246
1684006622884325800,0.083726318359375,0.7398924827392712,-0.25572443012762375,0.28583288189063377
1684006622894366900,0.093767333984375,0.9985151291885883,-0.3787989615681665,0.42021250732426013
1684006622904407700,0.10380810546875,1.2046813963915384,-0.34856986998387857,0.4616308212872808
1684006622914448600,0.113848876953125,0.8264064788343668,-0.44705629341477404,0.5288279056076406
1684006622924489600,0.12389013671875,-0.359838485700186,-0.6205620766074745,0.4101934433115838
1684006622934530600,0.133930908203125,-1.003941535867307,-0.5944294927628079,0.17586183544513725
1684006622944571300,0.1439716796875,-1.495913982397896,-0.5579667091006865,0.5135884283611415
1684006622954612100,0.154012451171875,-0.9935350418874863,0.1041193009310949,1.4873166084315135
1684006622964653000,0.164053466796875,-0.7453889846691075,0.568542003506557,1.0404868126257398
1684006622974694100,0.174094482421875,-0.20587778079963917,0.2337565421327224,0.5771002769118424
1684006622984734900,0.18413525390625,-0.11270236981121122,-0.07632923138742136,-0.0539231300008627
1684006622994775700,0.194176025390625,0.43008804327592315,0.00763607025653991,-0.30908393867146355
1684006623004816600,0.204217041015625,1.1551160812174464,0.0522665978555596,-0.6052012444447736
1684006623014857600,0.214258056640625,1.373307228087842,0.018187522825615365,-1.0179491043181814
1684006623024898600,0.224298828125,1.728487491482183,0.9588251114616894,-1.4501821992930553
1684006623034939300,0.234339599609375,0.8237714766840558,-0.7247371672823265,-0.8243160248810287
1684006623044980100,0.244380615234375,0.5726914406596931,-0.4730463029288305,-1.1425056456255533
1684006623055021200,0.254421630859375,0.2733597755349623,0.15448427194848308,-1.3499102593675216
1684006623065062100,0.26446240234375,0.1721096039331322,-0.7515287398630854,-0.7131552696835296
1684006623075102900,0.27450341796875,0.8035130500025691,0.5953860284586142,-0.7591357229971337
1684006623085143700,0.284544189453125,0.587023258323159,0.06497192390310133,-0.7249560356163907
1684006623095184800,0.294585205078125,0.3861203193295654,-0.32185506823204957,-1.1252489090436946
1684006623105225600,0.3046259765625,0.18736934648746942,-0.19528055188684038,-2.114795207962652
1684006623115266600,0.3146669921875,0.44077253343757034,-0.7452712059468711,-3.0824449062371144
1684006623125307300,0.324707763671875,1.0225381852030058,-0.38688755030824434,-0.5068821906112368
1684006623135348100,0.33474853515625,1.0348253249699262,-0.008773803702330343,-0.9416999816950586
1684006623145389200,0.34478955078125,1.114123344235362,0.9395203588528348,-3.2830460072134193
1684006623155430100,0.35483056640625,1.978036403494097,-0.6825857161405395,-3.6676845551616317
1684006623165470900,0.364871337890625,1.8657941819093555,-1.6383180618835116,-2.034042358403766
1684006623175512000,0.374912353515625,1.9777212143324188,-1.5033893585582994,-1.489583492309831
1684006623185552800,0.384953125,0.7720699311022046,-1.2612562180990063,-0.9172277450765124
1684006623195593600,0.394994140625,0.050929069525160124,-0.4903907775346727,-0.4198141097537653
1684006623205634600,0.405034912109375,-1.7453589440182806,0.0836563111475074,0.2953858374603589
1684006623215675600,0.415075927734375,-3.8692860603894634,0.6912932395939639,0.9161291122898343
1684006623225716400,0.42511669921875,-5.8146705628331805,0.8045494556759754,3.1843290329693916
1684006623235757200,0.43515771484375,-5.368652343855445,2.2611210345587063,4.90613365169589
1684006623245798100,0.445198486328125,-4.513327598550751,2.4176812173239606,5.823378562817805
1684006623255838900,0.4552392578125,-2.4677257537037653,2.3401832579389445,4.586303710831534
1684006623265880000,0.4652802734375,-0.7070332765829178,1.5096824168636418,2.596500396664197
1684006623275920800,0.4753212890625,-0.19350230699086354,0.15727567681965496,1.5373725892169092
1684006623285961600,0.485362060546875,-0.19383716572592144,-1.0625271797249403,1.9903497697153085
1684006623296002600,0.49540283203125,0.4879261255229047,-0.8500232695797816,2.6884441376182036
1684006623306043600,0.50544384765625,2.251919031172912,-0.36075258256536175,0.6109046936096745
1684006623316084400,0.51548486328125,2.9978728292914227,-0.7250862120625412,-0.8054094315814126
1684006623326125200,0.525525634765625,1.9677633046936667,-0.9172782898424646,-0.6007928849147314
1684006623336166100,0.53556640625,1.1452282668342866,-0.29091691967690986,-0.5918979644784484
1684006623346207200,0.545607666015625,0.39121377454283773,0.2665560244702159,-0.9177923200614723
1684006623356248000,0.5556484375,-0.11737322799457738,0.28962087634392986,-0.9658575056576982
1684006623366288800,0.565689208984375,-1.4403913021533914,0.8445403575296969,-0.5687503814780113
1684006623376329600,0.57572998046875,-1.0000586508365372,0.897992134137878,-0.5903854368841427
1684006623386370700,0.585771240234375,-0.7217913271347554,0.8784565926028308,-1.3596448897543998
1684006623396411600,0.59581201171875,0.4449229836758828,-0.12462973601617501,-4.256790161186679
1684006623406452400,0.605852783203125,1.8691779375805615,-0.4915397166648339,-4.91378831868822
1684006623416493200,0.6158935546875,2.210739851115303,-0.5922560691844794,-3.826942443903636
1684006623426534300,0.625934814453125,2.0279240609152405,0.350916147169481,-2.224338531477458
1684006623436575200,0.6359755859375,1.7269868849594805,1.0708792210664324,-1.3799390793962754
1684006623446616000,0.646016357421875,1.509850382782261,1.4899139403895068,-1.1646718978390709
1684006623456656800,0.65605712890625,1.8181490897516146,1.494001746162631,-1.3359718321494252
1684006623466697900,0.666098388671875,1.0810625554307396,0.9339439868524644,-1.810816764881724
1684006623476738700,0.67613916015625,0.4179652333365634,0.7165989876556528,-2.1738262176607153
1684006623486779600,0.686179931640625,0.578831195736797,0.8655937909360777,-1.4918785094253741
1684006623496820400,0.696220703125,1.577063918134119,0.9947264194558073,0.005607604985174858
1684006623506861200,0.70626171875,0.5414630173880656,0.7318476437294577,-1.6260399818288307
1684006623516902300,0.716302734375,-0.006154775626644911,1.0172570944734336,-1.9624032973228467
1684006623526943200,0.726343505859375,-2.0634407997051905,0.8766859769807179,-2.4433078767098477
1684006623536984000,0.73638427734375,-3.7856416702596283,0.6883752346820172,-2.6052160263528017
1684006623547024800,0.74642529296875,-3.096471309563522,0.4117822646020059,-2.218378067059627
1684006623557065900,0.75646630859375,-0.8025425673937879,-0.4165902139248455,-1.5617561340647061
1684006623567106700,0.766507080078125,0.5725049377505447,-1.2748389244056275,-1.403486251836268
1684006623577147600,0.7765478515625,1.3026807308487662,-1.8898632526200465,-1.012331962459347
1684006623587188600,0.786589111328125,1.6837525366925676,-2.154907226683227,-0.4513607024576992
1684006623597229600,0.7966298828125,0.910137772605395,-2.360396385171236,-0.14668464653877558
1684006623607270300,0.806670654296875,-0.30153489106974085,-2.134961605175285,0.08056926739552919
1684006623617311200,0.816711669921875,-0.7357869745721652,-1.3445599078623418,0.5257177352605719
1684006623627352000,0.82675244140625,-0.7808827756862576,-1.1186125279196788,0.9337053299539834
1684006623637393100,0.83679345703125,-0.7650204896908388,-0.5686228275451943,0.09754562384506006
1684006623647433900,0.846834228515625,-0.7604702114561085,-0.38129043581095096,-0.24201583868267543
1684006623657474700,0.856875244140625,-0.686380684416539,-1.1768808364370185,0.5163822173887511
1684006623667515600,0.866916015625,0.008873462542999463,-2.0084581375749324,1.2265253066183819
1684006623677556600,0.87695703125,0.45463192468509034,-1.7954936028034008,1.7751598357881164
1684006623687597600,0.886997802734375,0.48961466550712474,-1.5284309386080648,2.094783782919382
1684006623697638300,0.897038818359375,0.3504545986280589,-1.393281459878262,1.7153844834760448
1684006623707679200,0.90707958984375,-0.08956146240813435,-1.4098105431730314,1.3593168257520427
1684006623717720200,0.91712060546875,-0.5433678625817964,-1.1711263657630617,1.3404130935631804
1684006623727761100,0.927161376953125,-1.1922073364131092,-0.8054618836975129,1.4150695801601436
1684006623737801900,0.937202392578125,-1.3568532465322185,-0.20277309403387017,1.2273159026003655
1684006623747842700,0.9472431640625,-0.2347628474479219,-0.9141998292041434,-0.02788162249212936
1684006623757883600,0.957283935546875,0.2747166753164578,0.27899074551513464,-0.22322034834305454
1684006623767924600,0.967324951171875,0.13104987152736458,0.6988215446422181,0.32533073429527415
1684006623777965600,0.977365966796875,-0.24728238572558014,0.7733397483554058,1.262975215822767
1684006623788006300,0.98740673828125,0.23078125719234302,0.7388072014258726,0.8230352401160784
1684006623798047400,0.99744775390625,0.8333100676670263,1.0676703452932643,0.27350902551390155
1684006623808088200,1.007488525390625,0.6918874381527217,1.39083623886616,0.9377584458479645
1684006623818129100,1.017529541015625,0.5596196056135869,1.442857265506322,2.304734706949743
1684006623828169900,1.0275703125,0.5323659778156438,1.4715976714775458,3.2497324944143853
1684006623838210700,1.037611083984375,0.5976516603713596,1.3117842674371645,4.807703972014965
1684006623848251800,1.04765234375,0.44759994751706106,1.222973346671492,4.540963649750801
1684006623858292600,1.057693115234375,0.11985337740025696,1.2817568777683832,2.189313411789819
1684006623868333600,1.06773388671875,-0.25747501855237237,-0.41059350969355213,1.1957616804982552
1684006623878374300,1.077774658203125,-0.050127506226660117,1.4918332099134195,-0.8144307137128962
1684006623888415400,1.08781591796875,0.1845712661237062,-1.342361927046283,-1.1516175270608928
1684006623898456200,1.097856689453125,0.2626835108626571,0.16187000267187907,-1.9673123358838283
1684006623908497100,1.1078974609375,0.4240313767706331,1.6630916596116105,-1.590386867590008
1684006623918537900,1.117938232421875,0.5704854726973758,-1.0065522192548508,-1.2525067330112682
1684006623928579000,1.1279794921875,0.6244933007605118,-0.8029141426716271,-1.2805438042139508
1684006623938619800,1.138020263671875,1.5012916325830112,-2.9645347594940468,1.4792313576154097
1684006623948660600,1.14806103515625,2.6467607021649733,1.2549328802848752,-0.27835273753654655
1684006623958701600,1.158101806640625,2.02150964745244,-0.17737722400776362,0.8897528648398052
1684006623968742300,1.168142822265625,1.5488805769893756,-1.3361577988243274,1.6470785141784385
1684006623978783400,1.178183837890625,1.402148485164465,-1.3145132064299616,1.661133766027843
1684006623988824200,1.188224609375,0.7146920562446409,-1.3763470648916722,1.7138824463808242
1684006623998865100,1.198265380859375,-0.2388291357517793,-1.4941163062646077,2.046540260421136
1684006624008905900,1.208306396484375,-1.3146204947739264,-1.0321121216427158,2.5141925810831163
1684006624018947000,1.218347412109375,-2.200813293449079,-0.7405323980840086,2.887193679768183
1684006624028987800,1.22838818359375,-3.034993648469173,-0.17743444445264234,3.1696772575074306
1684006624039028600,1.238428955078125,-3.0825390815842724,0.9194264412218741,2.183484554389014
1684006624049069600,1.248469970703125,-2.5644099712525583,-0.3969354629770917,1.0530409812797559
1684006624059110600,1.258510986328125,-1.515015602118039,-1.254967212722009,1.0827713011210005
1684006624069151400,1.2685517578125,-1.2054678202046514,-2.0489797592794634,0.62317466743663
1684006624079192200,1.278592529296875,0.03682965026106225,-2.1019234658778605,2.775335311814486
1684006624089233100,1.288633544921875,-0.9182078839601918,-0.9420385360073121,-0.12408399577636896
1684006624099274200,1.298674560546875,-1.1151545047912796,1.0543727875382116,0.5230884552218625
1684006624109315000,1.30871533203125,-0.12762978682639164,2.4227972032034644,-0.1725378036159627
1684006624119355800,1.318756103515625,-0.03889417631719086,2.3096175192958954,-1.1574792862585
1684006624129396600,1.328797119140625,0.28620645401432265,1.487796783377664,-1.9682731629752839
1684006624139437700,1.338838134765625,0.5482522844771435,0.928388595596881,-2.512189388264785
1684006624149478600,1.34887890625,1.7241711616674311,0.6809439658574579,-2.289505958569979
1684006624159519400,1.358919921875,2.953550815448027,0.7248654366774109,-2.496454954150913
1684006624169560200,1.368960693359375,4.012691021125561,0.9276189803176005,-3.2564418316182713
1684006624179601100,1.37900146484375,4.764275550877432,0.8227729797104979,-3.6340470313364026
1684006624189642200,1.38904248046875,4.50778627390957,0.8300662039678421,-3.2708158492621
1684006624199683000,1.39908349609375,3.577931404014716,0.6196503639812789,-2.1318595409573393
1684006624209723800,1.409124267578125,2.878075599682711,0.29273939138595795,-1.2390713692507094
1684006624219764600,1.4191650390625,1.8481407166005173,0.7812514305079481,-0.34558773053673486
1684006624229805700,1.4292060546875,1.4228565692963615,0.9204211234113228,-0.3506340980874028
1684006624239846600,1.4392470703125,1.2333855628037824,0.8777427673267822,-0.5620975494227124
1684006624249887400,1.449287841796875,1.2180987596069477,0.6262807847444508,-0.9326024054617409
1684006624259928200,1.45932861328125,1.2091194391277549,0.40776538833200376,-1.1356744765607663
1684006624269969300,1.46936962890625,0.8888990283861944,0.1640529631530809,-1.2175831796168763
1684006624280010200,1.47941064453125,0.4399899243506403,-0.24961566927758824,-1.2751579284747523
1684006624290051000,1.489451416015625,-0.22466945658620507,-0.37153530131690204,-1.311967849814506
1684006624300091800,1.4994921875,-1.7774597405244752,0.06269121167301098,-1.0334329604403607
1684006624310132900,1.509533203125,-6.284811496626816,-0.5550231933663814,-1.2472023964450247
1684006624320173700,1.51957421875,-8.390475273228464,-2.1442904471603765,-1.5937151909622187
1684006624330214600,1.529614990234375,-5.401520729003878,-1.619520187391174,-0.015381813059887159
1684006624340255400,1.53965576171875,-0.7942390442300545,0.16701507577716218,0.5377769470174043
1684006624350296600,1.54969677734375,3.0660233497657523,0.913043022139551,0.04253053669177734
1684006624360337300,1.55973779296875,2.220207691211059,-0.9692058563339131,0.07822036752577678
1684006624370378200,1.569778564453125,1.040591240067234,-1.6637930869389068,0.006863117292221276
1684006624380419000,1.5798193359375,-2.6889281272320233,-2.1192398070000267,1.099610805408813
1684006624390459800,1.589860107421875,-3.9878787995086005,-0.6564459800164751,2.028643131354564
1684006624400500900,1.5999013671875,-2.1420981884713384,0.773260116644419,1.1919798850635235
1684006624410541700,1.609942138671875,-0.17942285535269137,0.7988295555214635,0.501980304713171
1684006624420582600,1.61998291015625,1.7685251237283575,1.801626682424792,0.7115707398616985
1684006624430623400,1.63002392578125,2.341767787961891,1.7216444015230692,1.3170166015348443
1684006624440664600,1.64006494140625,0.8068995476694157,-2.036466598509086,2.5493869780958427
1684006624450705300,1.650105712890625,0.27091482287758084,-3.4490861892930615,2.3832411766440234
1684006624460746200,1.660146484375,-0.9353655577327179,-3.1367244720116325,2.060551166689394
1684006624470787000,1.6701875,-1.7205066680945993,-1.7433514595670048,1.91879224778175
1684006624480828100,1.680228515625,-0.08930587763081291,-0.512109756513327,4.541104793617518
1684006624490868900,1.690269287109375,0.3954698146029365,-0.8389916420945202,4.695839881880976
1684006624500909700,1.70031005859375,-0.32546395071524126,-1.5441265106606334,4.240447521258736
1684006624510950600,1.71035107421875,-0.7116129993216619,-1.6614370346254244,1.8258590699117407
1684006624520991600,1.72039208984375,-0.6472287772619079,-2.3061714171625365,-0.7302155493817298
1684006624531032600,1.730432861328125,0.12771409740382966,-2.1461153030037323,-1.5936505793345972
1684006624541073300,1.7404736328125,0.24508953101295908,-1.4590063094100585,-3.868598938000014
1684006624551114200,1.7505146484375,0.2639763356108371,-0.9975862504241385,-5.38076114661107
1684006624561155000,1.760555419921875,0.32412540914651405,0.9616651535718421,-6.026852607604385
1684006624571196100,1.770596435546875,0.2000474929827059,2.3585410117933474,-6.240939140342037
1684006624581236900,1.78063720703125,0.25845062716974726,2.4907288550636495,-5.441881656756263
1684006624591277700,1.79067822265625,0.5710133314724326,1.5665550231875935,-3.649886608202752
1684006624601318600,1.800718994140625,0.7569712996225004,0.8977637291405061,-2.033183813094185
1684006624611359600,1.810760009765625,1.0723124741936008,0.8328075409597142,-1.1974081994279837
1684006624621400600,1.82080078125,1.5959429741419986,1.0533943177548555,-1.0626988410563574
1684006624631441300,1.830841796875,2.061580896531729,0.6402249336422821,-1.1464567184632855
1684006624641482200,1.840882568359375,2.347488880107431,-0.2921047210564952,-1.1106328964991432
1684006624651523200,1.850923583984375,2.198890447727256,-1.0843544006158141,-1.3234519959262003
1684006624661564100,1.860964599609375,1.7398864032080834,-1.119580268784676,-1.6754045486542777
1684006624671604900,1.87100537109375,1.3041892050902035,-0.6059474945965608,-1.8422024251894018
1684006624681645700,1.881046142578125,0.6177701948903063,0.21797609334207646,-1.7605619431551487
1684006624691686800,1.891087158203125,0.17068219195378603,1.1294093132703058,-1.5841560364227862
1684006624701727600,1.901128173828125,-0.36434149748269,1.7001924514784594,-1.357611656278249
1684006624711768600,1.9111689453125,-1.4918394090186562,0.07468891144048698,-1.7586741448127174
1684006624721809300,1.921209716796875,-2.533998489520784,-1.4244880676386136,-1.3340530395684387
1684006624731850400,1.931250732421875,-2.7224359511620864,-1.331844329676388,-1.014018058873613
1684006624741891200,1.941291748046875,-3.0490818024987085,-0.9697480202025152,0.20609617240980688
1684006624751932100,1.95133251953125,-3.8015508652501904,-1.6449117659689758,1.549432754535891
1684006624761972900,1.961373291015625,-2.4088039398012446,-0.907099723680714,1.5475425719479496
1684006624772013700,1.9714140625,-0.9421694280288365,-0.8051037788393182,1.9834403991756189
1684006624782054800,1.981455322265625,0.3727470636676867,-0.7261815070671687,2.409804344128428
1684006624792095600,1.99149609375,1.886534452389948,0.525483608186001,3.4313302040665605
1684006624802136600,2.001536865234375,1.4675922393956327,0.1940941811333826,1.3230476378111202
1684006624812177300,2.01157763671875,0.7538936138729856,0.4762845039857216,-0.572471618665222
1684006624822218400,2.021618896484375,0.12104392047786683,0.6811542509944001,-1.361402034775763
1684006624832259200,2.03165966796875,-0.46876001361035363,0.5102281569158691,-1.364931583298369
1684006624842300100,2.041700439453125,-0.6242971421188299,0.15644931796018624,-0.9268765448233358
1684006624852340900,2.0517412109375,-0.5302186012990674,-0.23322963723047135,-0.5106449128199538
1684006624862382000,2.061782470703125,-0.5137546061769431,-0.6861691475081938,-0.19046211253130488
1684006624872422800,2.0718232421875,-0.28854942312776405,-0.05087995530883057,0.40352201459819126
1684006624882463600,2.081864013671875,0.016573786814222044,0.9171290396666308,0.8315801621201042
1684006624892504600,2.09190478515625,0.08989310261629006,1.226648330828179,0.6335635185526305
1684006624902545600,2.101946044921875,-0.07013571257260195,1.8411216734806184,0.0401382446635016
1684006624912586400,2.11198681640625,-0.3550219535796923,2.6727347372390122,-0.49924516684973164
1684006624922627200,2.122027587890625,-0.5394957066117415,3.05963468555043,-1.5017623901501462
1684006624932668100,2.132068359375,-0.7997348309957375,3.4788599014605883,-2.9165008067875986
1684006624942709200,2.142109619140625,-0.8215085267540407,3.4444842339238826,-3.6925144196346054
1684006624952750000,2.152150390625,0.06275665769400769,5.038815975159907,-3.4717140197161664
1684006624962790800,2.162191162109375,0.5345106124365478,3.006726741803268,-3.349476337563005
1684006624972831600,2.172232177734375,0.8949567079201957,0.7057814598627062,-2.8944735526539556
1684006624982872600,2.18227294921875,1.1525366304512696,-0.7221479415350915,-2.3732800484117416
1684006624992913600,2.19231396484375,0.8951147793601223,-1.4922456742339196,-1.3754315376457715
1684006625002954400,2.202354736328125,-0.07590436935416686,-2.4773559568825387,-0.5311150551262109
1684006625012995200,2.212395751953125,-0.9072277546479697,-2.6284523010205976,0.016026019945350946
1684006625023036100,2.2224365234375,-1.275473237037865,-0.8751554487889899,1.7947978973381913
1684006625033077200,2.2324775390625,-1.387908696946543,-0.7450609206848962,2.112518310571803
1684006625043118000,2.242518310546875,-0.8652962445117861,-1.046063423164117,1.725134134423297
1684006625053158800,2.252559326171875,-0.21609854697349898,-0.3521385192665235,1.348894357636229
1684006625063199600,2.26260009765625,0.17837274074708065,0.28593254075361585,1.21377110473922
1684006625073240600,2.272640869140625,0.24377870569067533,0.6071825027389913,0.952991247027976
1684006625083281600,2.282681884765625,0.005174756093356669,1.7669243813141835,0.0045731067811386845
1684006625093322400,2.292722900390625,-0.40235602857827013,2.9198455810519475,-0.8947706222916904
1684006625103363200,2.302763671875,-0.7233281136652313,3.179484844161593,-1.3585026264268445
1684006625113404300,2.3128046875,-0.6589223146236943,3.245321273810766,-1.564788699185986
1684006625123445200,2.322845458984375,-0.46055960657312905,4.9337382315967,-1.4952515364431918
1684006625133486000,2.332886474609375,-1.862467288965944,4.7099666594780345,-1.0370132923286524
1684006625143526800,2.34292724609375,-2.827004432703631,0.9935722352631062,-0.009990215145983066
1684006625153567900,2.35296826171875,-1.0985999108264284,0.42311286910831847,1.1868374347732178
1684006625163608800,2.363009033203125,-1.1030213832780646,-3.4763498305821057,0.8308639525944551
1684006625173649600,2.373050048828125,-0.3487656117199328,-5.641729355037895,1.2845394611332557
1684006625183690400,2.3830908203125,0.08972620964282245,-6.720680236945906,1.2818174361440606
1684006625193731200,2.393131591796875,0.6747374534675326,-7.705385208192887,1.3633863925219865
1684006625203772300,2.4031728515625,1.6520037652064037,-7.580001831084284,1.673244476496688
1684006625213813200,2.413213623046875,1.8694167137198534,-5.368193626433251,1.1395225523633383
1684006625223854000,2.42325439453125,0.9830389023321919,-0.7442045212953803,0.8876152038740482
1684006625233894800,2.433295166015625,0.7286944387993172,3.499136924923892,1.0291702747203217
1684006625243935900,2.44333642578125,0.9099667073463861,1.0596790313828135,1.0880539418120834
1684006625253976800,2.453377197265625,1.3695189951370568,-0.4388360977499117,0.7584707736943012
1684006625264017600,2.46341796875,3.0648472308393835,-1.6950368880977613,0.3515722751578576
1684006625274058400,2.473458740234375,2.1926827430949523,-3.5409889221070068,0.10350751888371021
1684006625284099200,2.483499755859375,1.8461488485196205,-1.7763833998213239,-0.42826008789490155
1684006625294140300,2.493540771484375,0.9555299281698245,-6.417546272173894,-0.1845517158886857
1684006625304181200,2.50358154296875,-0.6795392037124287,-7.178561210571524,-0.3233439922280898
1684006625314222000,2.513622314453125,-1.6947400570063584,-4.4794254303380265,-1.4950046539308026
1684006625324262800,2.523663330078125,-2.932720899660985,-2.485536575322445,-2.648263692958827
1684006625334303900,2.533704345703125,-3.4720189572901354,-0.6455717087175588,-3.8710227012853586
1684006625344344800,2.5437451171875,-3.703854084008597,-0.6760568617958285,-4.377377510027757
1684006625354385600,2.553785888671875,-2.2054901123764856,1.9135484695295146,-3.192611455977682
1684006625364426600,2.5638271484375,-1.4779510497613713,3.2831091881006436,-2.9350392819323785
1684006625374467600,2.573867919921875,-0.4812736511251982,4.2318663596770625,-2.3518936633414222
1684006625384508300,2.58390869140625,0.2711780072004304,4.2450327872561235,-1.7165598868804843
1684006625394549200,2.593949462890625,0.5391581057199941,3.401517868069172,-1.1715366841096344
1684006625404590000,2.603990478515625,0.47265982631309267,2.3863801955248496,-0.6791813373053849
1684006625414631100,2.614031494140625,0.5120379924190473,1.7469606398706439,-0.21868419650657664
1684006625424671900,2.624072265625,0.8835544585287096,1.4133377073985554,0.23497080795903483
1684006625434712800,2.634113037109375,1.2648355961611093,1.306878089982894,0.6334578990855144
1684006625444753600,2.644154052734375,1.3799369334541316,1.2855868340435614,1.0929152964861162
1684006625454794600,2.654195068359375,1.1638375520760085,1.0631904603688827,1.4645140170989028
1684006625464835600,2.66423583984375,0.7684466838743326,0.5550975799814817,1.4923474789342028
1684006625474876300,2.67427685546875,0.19841456420125925,0.0071105957176111016,1.2423112393894609
1684006625484917200,2.684317626953125,-0.3924312591822699,-0.6634292601607994,0.9024691583193838
1684006625494958300,2.694358642578125,-0.8821389675352094,-1.47391891481946,0.23817062389071122
1684006625504999100,2.7043994140625,-0.9549317358632318,-0.9071435926610468,0.2970798015992644
1684006625515039900,2.7144404296875,-0.9150564671257132,0.07073783885791467,0.997815847304827
1684006625525080800,2.724481201171875,-0.7238061428570315,0.49575328831432225,1.5590808390927657
1684006625535121600,2.73452197265625,-0.5509266853982488,0.6445350645807785,1.7771763802254592
1684006625545162600,2.74456298828125,-0.3428568839351922,0.336677551350528,1.531657219027999
1684006625555203600,2.75460400390625,-0.24457788465166866,-0.05550003064781724,0.9853448869213243
1684006625565244300,2.764644775390625,-0.24087309845212446,-0.22484493255711688,0.3267128469106131
1684006625575285400,2.774685791015625,-0.12468385693902216,-0.3392019271150808,-0.21586370462586704
1684006625585326300,2.7847265625,-0.0013797281773654361,-0.37869930259824314,-0.599827289700258
1684006625595367100,2.794767578125,0.06604051573462266,-0.2250804900536067,-0.8184735776857729
1684006625605407900,2.804808349609375,0.08131313313269886,-0.041053771929596854,-1.040505409183218
1684006625615448800,2.81484912109375,-0.02271080019136197,0.1055040359835145,-1.1429238320701733
1684006625625489800,2.82489013671875,-0.22054505345828262,0.1923999786562542,-1.054975747910627
1684006625635530600,2.83493115234375,-0.45909595491867805,0.21324634539430434,-0.7678554059447242
1684006625645571600,2.844971923828125,-0.6889023781072432,0.21770095818468704,-0.44656109817861445
1684006625655612300,2.8550126953125,-0.848031759214479,0.2642707824465751,-0.07656097399103926
1684006625665653400,2.8650537109375,-0.8960433007822027,0.32813835147682907,0.25575065616089715
1684006625675694300,2.8750947265625,-0.652670621987699,0.42373561867680093,0.4572920799525362
1684006625685735100,2.885135498046875,-0.37031102171871416,0.5749187468519288,0.5149087904868451
1684006625695775900,2.89517626953125,-0.1879601478435301,0.6379899980059511,0.5342144967302693
1684006625705817000,2.905217529296875,-0.14458847026687838,0.4604377747584487,0.5647149087169371
1684006625715857800,2.91525830078125,-0.2902166844055858,0.20798778531122283,0.6498403548708616
1684006625725898600,2.925299072265625,-0.6556363105592924,-0.06313228612368706,0.5994281769882784
1684006625735939600,2.93533984375,-1.0436391828591687,-0.46055412289056663,0.3084583283515093
1684006625745980300,2.945380615234375,-1.448300004032857,-0.5194816589891768,0.21037054059641383
1684006625756021400,2.955421875,-1.7116676570137264,-0.7319231033294644,0.13520145426520144
1684006625766062300,2.965462646484375,-2.2747397423196976,-1.0864295959312225,-0.06452083570900836
1684006625776103100,2.97550341796875,-2.7696008681911497,-1.4027709960877277,0.023053646143369202
1684006625786144200,2.985544677734375,-2.7448046207553176,-1.6181364060125254,0.40172338468076135
1684006625796185000,2.99558544921875,-2.0252075196299817,-1.440395355226297,0.8914132118363547
1684006625806225800,3.005626220703125,-1.102056026350441,-1.0961065291888752,1.052566051467128
1684006625816266600,3.0156669921875,-0.3649042844580104,-0.5748853683210603,1.0789537429291065
1684006625826307800,3.025708251953125,0.035688519527623246,0.08311080915302395,0.8448796273130535
1684006625836348600,3.0357490234375,0.3483359813561374,0.47766685492888494,0.6787428856075678
1684006625846389400,3.045789794921875,0.6436303853110232,0.7382392883300583,0.3823218347174967
1684006625856430300,3.05583056640625,0.8594168424927364,0.9458017349505166,-0.14049482346000464
1684006625866471100,3.06587158203125,1.0504302977898041,0.9896216392507535,-0.5285439490784254
1684006625876512200,3.07591259765625,1.1200170517206591,0.8299856187550674,-0.637867212415209
1684006625886553000,3.085953369140625,0.9945428372242727,0.5848827361106054,-0.6584980488055461
1684006625896593800,3.095994140625,0.6610735653572298,0.3696050644207312,-0.6340057849965498
1684006625906634600,3.10603515625,0.1589649916206182,0.15093803403244754,-0.4581131934397684
1684006625916675800,3.116076171875,-0.29250609888997564,0.04603958131522663,-0.2522764207016771
1684006625926716600,3.126116943359375,-0.4769135713739482,0.04307746895971679,-0.21652555459966055
1684006625936757400,3.13615771484375,-0.2256356478935368,0.04940509779414961,-0.3091521262333545
1684006625946798300,3.14619873046875,0.282897114857592,-0.10631370551292653,-0.43658971787180656
1684006625956839300,3.15623974609375,0.7353134750147675,-0.25430011746939385,-0.5185725690254978
1684006625966880200,3.166280517578125,1.0758252143942142,-0.3758716584586276,-0.5585780142638946
1684006625976921000,3.1763212890625,1.2876769304977516,-0.3596057890242641,-0.5747013092208755
1684006625986961800,3.1863623046875,1.4144606590455617,-0.3426799773219053,-0.57775712015355
1684006625997002900,3.1964033203125,1.432985663345299,-0.2470149993024567,-0.5092272758915919
1684006626007043800,3.206444091796875,1.3268263339485056,-0.16169548019814814,-0.4705557823251176
1684006626017084600,3.216485107421875,1.1649675369742587,-0.034367561353585124,-0.4215002059634089
1684006626027125400,3.22652587890625,0.9749498964882564,0.10858058927670917,-0.3622493745059599
1684006626037166600,3.23656689453125,0.7511722446001655,0.26935768128255494,-0.2883319855749621
1684006626047207300,3.246607666015625,0.38406795263497506,0.4120149614119481,-0.19257164002255128
1684006626057248200,3.256648681640625,-0.02122265098950844,0.40478038800341726,0.08908224104905084
1684006626067289000,3.266689453125,-0.45330160843077066,0.3237133025775506,0.41917657865666275
1684006626077330100,3.27673046875,-0.8340545893843825,0.29581069938206994,0.5837864874412138
1684006626087370900,3.286771240234375,-0.8828057647480404,0.2021274567363845,0.6659135819103414
1684006626097411800,3.296812255859375,-0.46649661649517615,0.15083789815170448,0.5523438454972366
1684006626107452600,3.30685302734375,0.2308492063311621,0.08975505824079599,0.39948225015412175
1684006626117493400,3.316893798828125,0.914279580132056,0.009637832536422825,0.1837854384858858
1684006626127534600,3.326934814453125,1.3686772583931837,-0.10341072082846678,-0.003562450385609705
1684006626137575300,3.336975830078125,1.5902585983009403,-0.10334777832202474,-0.10752058032531651
1684006626147616200,3.3470166015625,1.6755769251827486,-0.1457729338371305,-0.12181615844622129
1684006626157657000,3.357057373046875,1.6402640343071389,-0.09475326532230803,-0.1429772375522163
1684006626167698100,3.367098388671875,1.5026872158070175,-0.01497364051666502,-0.18065023414291617
1684006626177738900,3.377139404296875,1.281978368691012,0.02384757987231103,-0.06382656107701863
1684006626187779800,3.38718017578125,0.996387481740863,0.011701583877035553,0.036519050649190136
1684006626197820600,3.397220947265625,0.6734728814486325,-0.018180847116391934,0.10816860204439761
1684006626207861600,3.407261962890625,0.3932630718223179,-0.04914283743994171,0.11321973803221534
1684006626217902600,3.417302978515625,0.2100142688055702,-0.06672191606200237,-0.04781723040719687
1684006626227943300,3.42734375,0.12304638324543174,-0.17569351187144855,-0.1613578796744198
1684006626237984200,3.437384521484375,0.10267141458924876,-0.21554946897729454,-0.2676434516653496
1684006626248025300,3.44742578125,0.10083145638287279,-0.23622035976551065,-0.3470673560152222
1684006626258066100,3.457466552734375,0.10052434341913807,-0.2996845246215836,-0.39965176586383483
1684006626268106900,3.46750732421875,0.08966712645331097,-0.34120750423513385,-0.47539138778868506
1684006626278147800,3.477548095703125,0.09333449587602068,-0.29868125912149573,-0.46893405908080177
1684006626288188800,3.48758935546875,0.14708927265640712,-0.27744770064671553,-0.4450263976013151
1684006626298229600,3.497630126953125,0.23078320935625224,-0.2272739410158768,-0.39881610859693184
1684006626308270600,3.5076708984375,0.29691082241081534,-0.21742725382673764,-0.2562780379670189
1684006626318311300,3.517711669921875,0.36547598247588164,-0.16658687593822244,-0.11313676838226736
1684006626328352400,3.5277529296875,0.3945408760245472,-0.11788940429820506,0.05908918377183289
1684006626338393300,3.537793701171875,0.41158932439176255,-0.08332157129558457,0.176543235658033
1684006626348434100,3.54783447265625,0.42881727219188265,0.016017913824339706,0.2991828918276801
1684006626358474900,3.557875244140625,0.4626789094613668,0.09627819059494844,0.3766226767765425
1684006626368515800,3.567916259765625,0.45775341981483164,0.25112152092723344,0.3479561807427847
1684006626378556800,3.577957275390625,0.49000415196291336,0.3324823379805172,0.37856626508494906
1684006626388597600,3.587998046875,0.5252516270948379,0.3303775788208834,0.4765801429259248
1684006626398638600,3.598038818359375,0.495754927446745,0.4071006776103095,0.46703195575981116
1684006626408679300,3.608079833984375,0.4728632569310742,0.41438198083082395,0.562683105553287
1684006626418720400,3.618120849609375,0.37542527897208083,0.35233879084121406,0.6102838515484865
1684006626428761300,3.62816162109375,0.3394735455601899,0.32577514643507344,0.6162652968351193
1684006626438802100,3.638202392578125,0.3194359540317082,0.2365179062572647,0.5302281378898063
1684006626448843200,3.64824365234375,0.29419362546914457,0.13976383217314425,0.38603878026042093
1684006626458884000,3.658284423828125,0.3311467767468726,0.06186962124299685,0.18633604046647334
1684006626468924800,3.6683251953125,0.34439063059364367,-0.037482261695225935,0.0059328079193390485
1684006626478965600,3.678365966796875,0.34588724374371127,-0.08858394624538525,-0.1591501235543897
1684006626489006600,3.688406982421875,0.3377769588275359,-0.14159393309091847,-0.22512149819026445
1684006626499047600,3.698447998046875,0.31007385257689873,-0.17257308951172706,-0.31144809727987066
1684006626509088400,3.70848876953125,0.2221784591030297,-0.1861400602892082,-0.3340373039831991
1684006626519129300,3.71852978515625,0.14379632475699788,-0.139437675495599,-0.3027856350669238
1684006626529170100,3.728570556640625,0.06355309482645431,-0.12331771837764162,-0.2369301319038227
1684006626539211200,3.738611572265625,0.015327692144799966,-0.08275699617114277,-0.14373397825800113
1684006626549252000,3.74865234375,-0.0007107257274587606,-0.01786327358040321,-0.06636857988037523
1684006626559292800,3.758693359375,-0.008328795383296594,0.044915199203859425,0.014023304021624276
1684006626569333600,3.768734130859375,0.04262280465632619,0.10308933248912838,0.09720325460567375
1684006626579374800,3.778775146484375,0.12597352268198125,0.14501380931139113,0.12404966356058013
1684006626589415600,3.78881591796875,0.18246394403923677,0.18424701692056902,0.21479940417774676
1684006626599456400,3.79885693359375,0.1909812093611584,0.1831502914830123,0.2789506912095454
1684006626609497300,3.808897705078125,0.2040457726180601,0.1895084381045843,0.3382163046677254
1684006626619538400,3.818938720703125,0.1929099559104649,0.2384843826575575,0.4468498229476783
1684006626629579200,3.8289794921875,0.16924577956670175,0.2890949249832192,0.4999895096366334
1684006626639620000,3.8390205078125,0.1397266388168848,0.2942724227494256,0.5270204544151984
1684006626649660800,3.849061279296875,0.057517707258534605,0.2902317047982436,0.6063737869741436
1684006626659701900,3.859102294921875,-0.076559007105401,0.3219165803309099,0.6313991547367518
1684006626669742800,3.86914306640625,-0.1835778952230146,0.29664230347782977,0.7577142716020553
1684006626679783600,3.87918408203125,-0.2752575874440084,0.3352413177154083,0.707693576644568
1684006626689824400,3.889224853515625,-0.3178580701478819,0.33306789391642244,0.7359700202427423
1684006626699865600,3.899265869140625,-0.33451813464848207,0.3448543548798605,0.6500821113316316
1684006626709906400,3.909306640625,-0.3573080597964411,0.2903308868910314,0.6023206709933407
1684006626719947200,3.91934765625,-0.3482556343713153,0.3099012375079586,0.5010638238290378
1684006626729988000,3.929388427734375,-0.3536743818328356,0.34833621979108437,0.3948488235814435
1684006626740029100,3.939429443359375,-0.3344568908237599,0.35818862908540705,0.3592286111005251
1684006626750069900,3.94947021484375,-0.28181225047600894,0.26221275321086507,0.324733495784139
1684006626760110800,3.95951123046875,-0.2480291723845568,0.2154235839684585,0.24243354798417024
1684006626770151600,3.969552001953125,-0.21600067616791344,0.17713928231593964,0.2170307636095995
1684006626780192600,3.979593017578125,-0.18044322720662867,0.14246940614853607,0.2521054743527517
1684006626790233600,3.989634033203125,-0.17916357507671338,0.12542057037037332,0.254746198718608
1684006626800274400,3.9996748046875,-0.15302062046075754,0.14686870566009422,0.30558109290600816
1684006626810315200,4.009715576171875,-0.10301417099661929,0.20843124397811835,0.3731284140740787
1684006626820356000,4.01975634765625,-0.07505559927735368,0.21959209452931222,0.4563765525062044
1684006626830397100,4.029797607421875,-0.038040220705943796,0.26590538023522253,0.5337495803635575
1684006626840437900,4.03983837890625,0.005646049798400971,0.3373575211139031,0.6359007358573533
1684006626850478800,4.049879150390625,0.03270798937365661,0.44309139254383506,0.7202880382700381
1684006626860519900,4.059920166015625,0.062479496008239245,0.4955329896043999,0.8439090252226017
1684006626870560600,4.069961181640625,0.05275762091636585,0.4884672165239061,0.9918262957874667
1684006626880601600,4.080001953125,0.13379096974961635,0.4011831282621384,1.157651662777429
1684006626890642400,4.090042724609375,0.2196558713643908,0.3763275145314633,1.2681403160527713
1684006626900683400,4.100083740234375,0.28942728055705647,0.33307933811246904,1.3294808864307837
1684006626910724300,4.110124755859375,0.38062745333636727,0.2807683945841744,1.5158181189448083
1684006626920765100,4.12016552734375,0.5113975406049619,0.1888952254862364,1.6201784609994365
1684006626930805900,4.130206298828125,0.567773461262611,0.10762977605760504,1.7053585053331466
1684006626940847000,4.140247314453125,0.6042495965861993,0.0737934112432094,1.8808448315199442
1684006626950887900,4.150288330078125,0.5873441696298233,-0.1472864149958699,2.0938453673020825
1684006626960928600,4.1603291015625,0.550987899456361,-0.4114341736024534,2.2090289591418517
1684006626970969600,4.170369873046875,0.4630404114408365,-0.6165618897018205,2.282436847677205
1684006626981010400,4.18041064453125,0.33700859542634765,-0.809925079357672,2.332613945038611
1684006626991051400,4.190451904296875,0.21495765460138896,-0.9078779220980443,2.240114450353646
1684006627001092300,4.20049267578125,0.10415506367105581,-0.9442386627150273,2.0956845285000223
1684006627011133100,4.210533447265625,-0.007917940579352736,-0.9605751037428147,1.9023845195801623
1684006627021173900,4.22057421875,-0.10345411310988945,-0.9117498397587827,1.555077314275293
1684006627031215000,4.230615478515625,-0.256492555032761,-0.8547029494314061,1.086910962947464
1684006627041255900,4.24065625,-0.512756049811338,-0.8148946762893846,0.5937964916892122
1684006627051296600,4.250697021484375,-0.8051638007515867,-0.7366752625606204,0.05870437635956095
1684006627061337600,4.260738037109375,-1.2077057360272956,-0.6244478226526218,-0.4789364337156516
1684006627071378600,4.270779052734375,-1.5797314642389653,-0.5092163086211519,-0.9192368983614224
1684006627081419400,4.28081982421875,-1.8855960368262288,-0.36486339561456843,-1.182854652359516
1684006627091460300,4.290860595703125,-2.170772075744075,-0.19403553011107103,-1.4343996046271295
1684006627101501100,4.300901611328125,-2.3021471499678334,-0.03267955781785191,-1.551010131912378
1684006627111542200,4.310942626953125,-2.201330423446283,0.1044721603237554,-1.39605712886647
1684006627121583000,4.3209833984375,-1.9147260189269955,0.2672939300541613,-0.9729940891502845
1684006627131623900,4.331024169921875,-1.3755242825295582,0.5555000306576579,-0.3730244636660288
1684006627141664600,4.341065185546875,-0.7344624995933446,0.9923372268329754,-0.0038430691751919015
1684006627151705800,4.351106201171875,0.03042212123594733,1.1777486801596224,0.40933156013324773
1684006627161746600,4.36114697265625,0.510120511037217,1.2550444601894848,0.5940501689897054
1684006627171787400,4.371187744140625,0.5937513112788181,1.188770770932452,0.6737008095871797
1684006627181828300,4.381228759765625,0.4247164726751012,1.0605363845487412,0.660654068009386
1684006627191869400,4.391269775390625,0.14880341299756022,0.7390241622955616,0.7120096681670652
1684006627201910200,4.401310546875,-0.05251681806339837,0.3248462676381881,0.6117787360525796
1684006627211951000,4.411351318359375,-0.18463888772610496,-0.0692596434498721,0.3630771636760308
1684006627221991900,4.421392333984375,-0.28973072771165426,-0.35713672634804317,0.03140830989713039
1684006627232032900,4.431433349609375,-0.3111282585844159,-0.6106119155981928,-0.30823230749491837
1684006627242073800,4.44147412109375,-0.17601025097480688,-0.7893733978546198,-0.6004376411540249
1684006627252114600,4.451514892578125,0.12207579608055398,-0.9171524048240011,-0.9344425201261595
1684006627262155400,4.461555908203125,0.4847621917562125,-0.9000186919467342,-1.3003795146066812
1684006627272196600,4.471596923828125,0.874499797711533,-1.111811637861026,-1.3918533326705702
1684006627282237400,4.4816376953125,1.1350822448388027,-1.2759399414737433,-1.4293382168662718
1684006627292278200,4.4916787109375,1.346074461817959,-1.3498497009301609,-1.4766945839489318
1684006627302319000,4.501719482421875,1.5529274940458888,-1.3091487883243962,-1.479084014881205
1684006627312360100,4.511760498046875,1.814693331746734,-1.2263202666641004,-1.4591646195177803
1684006627322400900,4.52180126953125,1.9597384930676556,-1.0086784363840275,-1.3318071365265043
1684006627332441800,4.53184228515625,1.8405544758100638,-0.7409744261876063,-1.1128220558051425
1684006627342482600,4.541883056640625,1.6234004497250818,-0.47543716434984395,-0.8738958835743561
1684006627352523600,4.551924072265625,1.2310545444654635,-0.19141483313494492,-0.5395214556806736
1684006627362564600,4.56196484375,0.8507663010491253,0.09061431878137491,-0.23726701734791297
1684006627372605400,4.572005859375,0.6734571457732552,0.32753181462496034,-0.1351246835496135
1684006627382646200,4.582046630859375,0.699475645932944,0.5680866241543083,-0.19629573816819962
1684006627392687300,4.592087646484375,0.8589674234620244,0.5086936951767215,-0.10719633115206147
1684006627402728100,4.60212841796875,0.9264160393345771,0.36022567732335303,-0.24593114836640703
1684006627412768900,4.61216943359375,1.0489041803991233,0.24593353257931114,-0.6089568136561495
1684006627422809800,4.622210205078125,1.1080205439479276,0.2361345292752634,-1.0115284918745047
1684006627432850900,4.632251220703125,1.1393198966392597,0.2661409378536298,-1.3402919768616988
1684006627442891600,4.6422919921875,1.2130270004868011,0.3232774735139282,-1.5735292433883261
1684006627452932600,4.6523330078125,1.2698630095801748,0.34002685548214623,-1.7840299606180567
1684006627462973400,4.662373779296875,1.299588203428657,0.3255586624643847,-1.902746677364034
1684006627473014200,4.67241455078125,1.275871396224099,0.24327659601231982,-1.8659236431715216
1684006627483055300,4.68245556640625,1.2177064418148464,0.09719562523869925,-1.7988059520656838
1684006627493096100,4.69249658203125,1.2439795733991685,-0.026964187574267433,-1.730043411405388
1684006627503136900,4.702537353515625,1.2476433517202519,-0.18656539910181982,-1.6402275560799344
1684006627513178000,4.712578369140625,1.181317329352746,-0.259621620294408,-1.5362446307799018
1684006627523218900,4.722619384765625,1.0448079108757968,-0.35149192819796393,-1.4446601867668862
1684006627533259600,4.73266015625,0.7497119903206012,-0.4958543777854003,-1.2800703048966646
1684006627543300600,4.742700927734375,0.3568880559199022,-0.630607605054562,-1.1858134270156298
1684006627553341600,4.752741943359375,-0.15034937857816266,-0.7896728514469571,-1.011186361312127
1684006627563382400,4.762782958984375,-0.6042435168274741,-0.9567461013920141,-0.8564400674326678
1684006627573423300,4.77282373046875,-0.9647696017675904,-1.1057329176934767,-0.7545452117951257
1684006627583464100,4.782864501953125,-1.2428652048318616,-1.1962852477177486,-0.624042511144823
1684006627593505200,4.792905517578125,-1.3902456761294215,-1.1954574584887914,-0.52259969702968
1684006627603546000,4.802946533203125,-1.2532042264179897,-1.086536407512981,-0.4740538597493376
1684006627613586900,4.8129873046875,-0.9165358542825955,-0.9453125000019291,-0.4467768668687821
1684006627623627600,4.823028076171875,-0.5595698357222502,-0.7832937241000473,-0.5099182127815527
1684006627633668800,4.833069091796875,-0.27967953679409596,-0.6483335494487367,-0.47776842101771544
1684006627643709600,4.843110107421875,-0.068863153390765,-0.5426206589255773,-0.4561538696753533
1684006627653750400,4.85315087890625,0.09544610969840815,-0.44632244116604436,-0.5353412626480365
1684006627663791300,4.863191650390625,0.200432658248039,-0.3832406999178336,-0.521995067709954
1684006627673832100,4.873232421875,0.260725259698538,-0.34140110015605823,-0.593121528527254
1684006627683873200,4.883273681640625,0.30149722096941034,-0.298628806926399,-0.8902535439097523
1684006627693914000,4.893314453125,0.23128509536063283,-0.2713937757895585,-1.1299405097939026
1684006627703954900,4.903355224609375,0.1781857014463435,-0.2452468871511517,-1.2925679683617979
1684006627713995600,4.91339599609375,0.15457606320339937,-0.2747077941823182,-1.403733730395019
1684006627724036800,4.923437255859375,0.21212279782417573,-0.3254308700730419,-1.3909950255914785
1684006627734077600,4.93347802734375,0.2636741400718971,-0.37557888013393514,-1.2593836782936798
1684006627744118400,4.943518798828125,0.3378177882062851,-0.23200702666919742,-1.0455372333406192
1684006627754159600,4.953559814453125,0.27765703183880164,0.008715629504191741,-0.817108154332121
1684006627764200400,4.963600830078125,0.24474942686918233,0.1874046326642864,-0.4373002051623369
1684006627774241200,4.9736416015625,0.15694141375894735,0.19358158116284235,-0.13983106615511232
1684006627784282000,4.983682373046875,0.12068557744826297,0.20421123511556247,0.05927610400935414
1684006627794323100,4.9937236328125,0.18859350676425926,0.18757057193109256,0.17381095880992412
1684006627804364000,5.003764404296875,0.27447497828114054,0.009268760637041079,0.22801828380539518
1684006627814404800,5.01380517578125,0.2022477387850603,-0.11174964915534483,0.20618677144555436
1684006627824445600,5.023845947265625,0.039183139806506576,0.04149532318491177,0.3404769896206068
1684006627834486400,5.033886962890625,0.017693042698042023,0.4055724145445592,0.32006025317948683
1684006627844527600,5.043927978515625,0.0020987986948886794,0.9627809524144354,0.2961907387410288
1684006627854568400,5.05396875,-0.17573881150878787,1.2988457679814105,0.2556118965362984
1684006627864609200,5.064009521484375,-0.08635091776664688,1.3426804543435864,0.3646488188577793
1684006627874650000,5.074050537109375,0.19441628464567157,1.1689076424133649,0.4582557676333516
1684006627884691100,5.084091552734375,0.5564612149831917,0.8318080902253552,0.4504628182853367
1684006627894732000,5.09413232421875,0.8489894868235718,0.498905658739016,0.20665311823097438
1684006627904772800,5.104173095703125,0.9439231157154452,0.37874364858365356,-0.022656440847857583
1684006627914813600,5.114214111328125,0.6306611298898137,0.0717067717539291,-0.26361799233598016
1684006627924854600,5.124255126953125,0.18514370931727595,-0.1602420807151751,-0.2792410850949985
1684006627934895600,5.1342958984375,-0.1171450614983255,-0.09053134923766078,-0.3065023422045555
1684006627944936400,5.144336669921875,-0.27365422254402805,0.23161840439150236,-0.2722220421161817
1684006627954977500,5.1543779296875,-0.3848639726829442,0.47889184954906744,0.0020418166800124527
1684006627965018300,5.164418701171875,-0.26348388195402933,0.4983510970680679,0.3700747489247114
1684006627975059100,5.17445947265625,-0.03669762612384444,0.48449993128633406,0.49098539365047583
1684006627985100000,5.184500244140625,0.18724322316075706,0.5246338843922971,0.3323569297962902
1684006627995141000,5.19454150390625,0.34569418416351944,0.41282463093046634,0.04304170611654876
1684006628005181900,5.204582275390625,0.4720405340583893,0.028162002632950246,-0.42272710804369984
1684006628015222600,5.214623046875,0.47370493397598745,-0.5797424316519442,-0.9979557991530807
1684006628025263600,5.224663818359375,0.3326526880953632,-1.3362245560191408,-1.5500471593494443
1684006628035304600,5.234705078125,-0.07931768880935387,-2.1880187987832516,-1.9344666004106315
1684006628045345500,5.244745849609375,-0.5937455892131146,-3.0232057570922706,-2.131776809624279
1684006628055386300,5.25478662109375,-1.115919590018223,-3.7285623549809825,-2.1753861904096885
1684006628065427100,5.26482763671875,-1.5541779995261624,-4.067004203700657,-2.227021217393585
1684006628075468000,5.274868408203125,-1.48215448870226,-4.207229614241669,-1.901079893112942
1684006628085509000,5.284909423828125,-1.1134071350407158,-3.866675376926619,-1.5422787666787028
1684006628095549900,5.2949501953125,-0.5750989912915591,-2.765175819371146,-1.424080848847179
1684006628105590600,5.3049912109375,-0.008572459221387453,-1.074697494438596,-1.5091254711053192
1684006628115631600,5.315031982421875,0.6830518246778096,0.16467761998541317,-1.3542475700338372
1684006628125672600,5.325072998046875,1.207403421349465,0.9803128242681423,-1.2135388851254976
1684006628135713500,5.33511376953125,1.478664159749634,1.459057807864813,-1.0921795367296585
1684006628145754300,5.34515478515625,1.5795601605945442,1.7546014786598676,-1.0550932883173785
1684006628155795400,5.35519580078125,1.561339855212375,1.771652698546845,-0.8212027549973473
1684006628165836200,5.365236572265625,1.5157083272569303,1.4988017081914298,-0.37503767009129535
1684006628175877000,5.37527734375,1.3903313876294265,0.91770458212489,0.19168996813036068
1684006628185917900,5.385318359375,1.2877165079245936,0.3342857360535304,0.6821489334812461
1684006628195959000,5.395359375,1.2190030812490185,0.035330772443908615,0.8429846763931567
1684006628205999800,5.405400146484375,1.0757551191929973,-0.03175354014313233,0.7045183182132264
1684006628216040600,5.41544091796875,0.9263906479815942,-0.0899724960320922,0.6482281684310525
1684006628226081500,5.42548193359375,0.7540506125075842,-0.10922527306539331,0.6085896492218033
1684006628236122600,5.43552294921875,0.6709985136186531,-0.1760854722203777,0.505956649754331
1684006628246163400,5.445563720703125,0.7061827181938463,-0.1735095978235682,0.3877706529048701
1684006628256204200,5.4556044921875,0.8252970577176963,-0.19972324381756307,0.27483034127017547
1684006628266245000,5.4656455078125,0.9763141870822551,-0.21378612525575788,0.06435155877306953
1684006628276286100,5.4756865234375,1.1041690111013822,-0.18856716162975212,-0.15879201891612704
1684006628286327000,5.485727294921875,1.2519779203955284,-0.1882486341466071,-0.3991155625217826
1684006628296367800,5.495768310546875,1.3174507618119797,-0.1861848830526937,-0.5871286392710247
1684006628306408600,5.50580908203125,1.3499761819579805,-0.22063636783806082,-0.71846318256348
1684006628316449500,5.515849853515625,1.3716530800354714,-0.16255855555247894,-0.852893114126535
1684006628326490600,5.525890869140625,1.4264380932256553,-0.13144016257724667,-0.9637260436783328
1684006628336531400,5.535931884765625,1.536206722349209,-0.11282253277858807,-0.9839787481891629
1684006628346572200,5.54597265625,1.6069414614635935,-0.13749694827017764,-0.9685239791234818
1684006628356613000,5.556013427734375,1.7229204179192,-0.15273857120961173,-0.9056580067725185
1684006628366654100,5.566054443359375,1.7934374808748166,-0.1799640656184878,-0.8840146064359429
1684006628376695000,5.576095458984375,1.8053655625954563,-0.18085956576193887,-0.8414242268054403
1684006628386735800,5.58613623046875,1.8137052059300947,-0.22006130224237974,-0.8425707816390532
1684006628396776900,5.59617724609375,1.8353831767872033,-0.2640323638816954,-0.915909290300519
1684006628406817600,5.606218017578125,1.8177106380736616,-0.28882598869646464,-0.9632043837432271
1684006628416858600,5.616259033203125,1.7534713743450063,-0.399319648632214,-1.031766653062068
1684006628426899400,5.6262998046875,1.6668150424374495,-0.5017499923493339,-1.0585684777370001
1684006628436940500,5.6363408203125,1.5072998999208091,-0.47900295257800396,-1.0912127494199308
1684006628446981300,5.646381591796875,1.2390077114711397,-0.5561456680925234,-0.9629690647199781
1684006628457022100,5.656422607421875,0.9635279178724392,-0.41554546356025157,-0.8321008681096833
1684006628467063000,5.66646337890625,0.7286975383411373,-0.294178008988833,-0.617161989261868
1684006628477104000,5.67650439453125,0.6214045286832393,-0.19465732579016165,-0.31386280063283917
1684006628487144900,5.686545166015625,0.6127010583402627,-0.08845424635488244,-0.061215877705700486
1684006628497185600,5.696586181640625,0.6551531553777715,0.06013107298589976,0.11433553689636905
1684006628507226600,5.706626953125,0.7314167617241785,0.1576862335033994,0.23161745060213706
1684006628517267600,5.71666796875,0.8522887824967279,0.23030471810546385,0.31870889678354525
1684006628527308500,5.726708984375,0.9033808112006678,0.15870666507757245,0.3494019509172906
1684006628537349300,5.736749755859375,0.9207405449243008,0.09635448455952533,0.32900285723512396
1684006628547390100,5.74679052734375,0.9481707812797463,0.03157901773051871,0.23189973817343215
1684006628557431200,5.75683154296875,0.9834971428481225,0.045754432679984545,0.0514826774347198
1684006628567472000,5.76687255859375,0.9851816891327868,-0.01887512212372346,-0.11396503449161133
1684006628577512900,5.776913330078125,0.9521895647127924,-0.10233974450726943,-0.2786545753176701
1684006628587553600,5.7869541015625,0.8744971154967575,-0.18296337132679782,-0.44473123545387705
1684006628597594800,5.7969951171875,0.7748473285516279,-0.26063537599565123,-0.5475087165969761
1684006628607635600,5.8070361328125,0.6816797257172649,-0.36160659788265553,-0.6109578610518978
1684006628617676500,5.817076904296875,0.631400465911761,-0.3710699080077829,-0.5871734618917743
1684006628627717300,5.82711767578125,0.6272929907726397,-0.3873214720975313,-0.4886221885544168
1684006628637758400,5.83715869140625,0.5696062445570534,-0.3581542968407813,-0.3615574835657183
1684006628647799200,5.84719970703125,0.49701207861591196,-0.2694168090224426,-0.32083463658246647
1684006628657840000,5.857240478515625,0.5253934860045841,-0.22170829769716344,-0.3426980971911895
1684006628667880900,5.86728125,0.6007685661228358,-0.1505718230923336,-0.3317761420388942
1684006628677922000,5.877322265625,0.71543782939855,-0.12048816666013727,-0.3023948669559119
1684006628687962800,5.88736328125,0.7984149454261904,-0.11703586564496099,-0.34055948267935543
1684006628698003600,5.897404052734375,0.82801735388733,-0.15429592141667406,-0.36208391191834005
1684006628708044500,5.90744482421875,0.8028852939430974,-0.18409252166052667,-0.4416813850858337
1684006628718085600,5.91748583984375,0.7896875739370385,-0.1874179840882443,-0.5196394920714491
1684006628728126400,5.92752685546875,0.7682784796933361,-0.19523334503052808,-0.5887777806913475
1684006628738167200,5.937567626953125,0.7213324306893608,-0.18853282930068113,-0.6561694143951314
1684006628748208000,5.9476083984375,0.6851524114969125,-0.17688465120563518,-0.6322381495474153
1684006628758249100,5.9576494140625,0.6406465768367572,-0.15330982212957978,-0.6244351864354375
1684006628768290000,5.9676904296875,0.6349328159839474,-0.15093421926009376,-0.6041779517440187
1684006628778330800,5.977731201171875,0.6438782214572041,-0.1718683242879137,-0.48008799540735253
1684006628788371900,5.987772216796875,0.6036496162783324,-0.18289756786303976,-0.33420133574978983
1684006628798412600,5.997813232421875,0.5525500772930225,-0.1631565094897248,-0.20485448827298053
1684006628808453600,6.00785400390625,0.48140200967652064,-0.12261295310285246,-0.1271762848326405
1684006628818494400,6.017894775390625,0.43091151132320843,-0.0946016312433844,-0.06980657585967225
1684006628828535200,6.027935546875,0.37309384331986883,-0.04840564726452121,-0.03266668334995883
1684006628838576300,6.037976806640625,0.3675338030100988,-0.05736827849381392,0.026742458386913193
1684006628848617100,6.048017578125,0.3592375816183091,-0.04529571539350737,0.06083822262439852
1684006628858658000,6.058058349609375,0.3805732131296324,-0.0008049011528188674,0.08884525283043017
1684006628868698800,6.06809912109375,0.4161539374966885,0.005023002667552426,0.0616760253849246
1684006628878739900,6.078140380859375,0.43934303510695744,0.057674407950712325,-0.057179451000611926
1684006628888780600,6.08818115234375,0.49491202830912184,0.08352661125701805,-0.05165719984159587
1684006628898821600,6.098221923828125,0.5685083865322806,0.05952835096786249,-0.07915210713585771
1684006628908862400,6.1082626953125,0.5847845672864911,0.06414699554293807,-0.0545001028399643
1684006628918903500,6.118303955078125,0.5988993644627199,0.07806015014886902,-0.011568069512724573
1684006628928944300,6.1283447265625,0.5064956545956238,0.051702499272517924,5.865099688030222e-05
1684006628938985100,6.138385498046875,0.4095633029001459,0.11753654484693242,0.020962715015866048
1684006628949026000,6.14842626953125,0.29149210454493096,0.16094493860831321,-0.017410278180887823
1684006628959067100,6.158467529296875,0.1958754658940197,0.102214813359593,0.026981830481160422
1684006628969107900,6.16850830078125,0.1048972009450489,-0.009791374290016646,0.07033634188954632
1684006628979148600,6.178549072265625,0.08552330740907034,-0.03746509546213561,0.0634274482690502
1684006628989189600,6.18858984375,0.11850857736842613,0.0013875961728383032,0.011854648535524042
1684006628999230600,6.198631103515625,0.1979216934033423,0.032574653641082967,-0.0014138223028590192
1684006629009271500,6.208671875,0.25390034921709526,0.030250549280511824,-0.021784305561827887
1684006629019312300,6.218712646484375,0.26216620208503055,-0.03569507608685415,-0.09384965901139719
1684006629029353400,6.22875390625,0.2507208584872486,-0.11465549474404614,-0.09161090847669968
1684006629039394200,6.238794677734375,0.18377894154070476,-0.1755838394928035,-0.1499195099233683
1684006629049435100,6.24883544921875,0.13030517099263056,-0.17164039606985768,-0.20875406259988755
1684006629059475900,6.258876220703125,0.10289102792229823,-0.16986846918464987,-0.2165508270034264
1684006629069517000,6.26891748046875,0.06730610129237168,-0.15378379822204463,-0.2285809517184512
1684006629079557800,6.278958251953125,0.024682462335986605,-0.1659727095309549,-0.19071531307044018
1684006629089598600,6.2889990234375,0.008396565758766178,-0.21063899990982188,-0.10611009611066484
1684006629099639500,6.299039794921875,0.052933931329482056,-0.17419147489538794,-0.11428308486656547
1684006629109680600,6.3090810546875,0.15666455031506757,-0.10035133369252355,-0.11940574650971532
1684006629119721400,6.319121826171875,0.28948646782423887,-0.03228473649275349,-0.058197021413636356
1684006629129762200,6.32916259765625,0.370075166236294,0.055961608748262316,-0.007071018176358025
1684006629139803100,6.339203369140625,0.35690730812102855,0.05085182194506303,0.06433629988923965
1684006629149843900,6.349244384765625,0.31348866218290816,0.05042362205269208,0.11782360067634255
1684006629159885000,6.359285400390625,0.2670230864935028,0.02644634232975309,0.1184706687141323
1684006629169925800,6.369326171875,0.2697101234073267,0.047606468256845835,0.13778305054207493
1684006629179966600,6.379366943359375,0.29711443191365755,0.04249477383330719,0.1801033021378088
1684006629190007500,6.389407958984375,0.36961978671002504,0.06802749630349027,0.24741411213319323
1684006629200048600,6.399448974609375,0.42732167239753654,0.10243129731592113,0.2920970916604363
1684006629210089400,6.40948974609375,0.46756732451765853,0.1078786850647036,0.2933883667699741
1684006629220130200,6.419530517578125,0.5207821130237433,0.15070438403251862,0.2778320312407093
1684006629230171300,6.42957177734375,0.5583516954791695,0.16440105436713393,0.24814939513013085
1684006629240212100,6.439612548828125,0.5735953450426214,0.16588020336671755,0.2774252891166427
1684006629250253000,6.4496533203125,0.5131770372699518,0.12004375453942745,0.25869846340912667
1684006629260293800,6.459694091796875,0.42347955706016227,0.10551643356981442,0.195382595069583
1684006629270334900,6.4697353515625,0.3544158339952918,0.07716941848308735,0.15440607077206792
1684006629280375600,6.479776123046875,0.3101095556844244,0.056464195366109665,0.11668348318721902
1684006629290416600,6.48981689453125,0.3116106986966415,0.02691173550063032,0.0658988952741382
1684006629300457400,6.49985791015625,0.25754815356921884,-0.025453567409203456,0.07284116761483578
1684006629310498600,6.50989892578125,0.23878407482205136,-0.04140186300244111,0.04466629020106275
1684006629320539300,6.519939697265625,0.25512129074737444,-0.03573608398450221,0.04062747956161896
1684006629330580100,6.52998046875,0.3273590207124118,-0.03482723240950051,0.07419157026152273
1684006629340621000,6.540021484375,0.4024714232116887,-0.0034151078231524634,0.06446313866122279
1684006629350662100,6.5500625,0.4158313275172127,-0.04336357117472524,0.05911588666272976
1684006629360702900,6.560103271484375,0.4425072075078095,-0.0664529800925509,0.05572748169671454
1684006629370743600,6.57014404296875,0.42508590204831675,-0.07764911657564459,0.004950523448031144
1684006629380784600,6.58018505859375,0.4562432170932635,-0.09124851229923694,-0.13005971911470052
1684006629390825600,6.59022607421875,0.4865473807636861,-0.0765781403547866,-0.21610832220489185
1684006629400866600,6.600266845703125,0.4531345069568293,-0.1046848297350454,-0.3316774368559728
1684006629410907300,6.6103076171875,0.37799462673971645,-0.13468647006838322,-0.40059733379690005
1684006629420948100,6.6203486328125,0.28716382385347894,-0.14061260233725403,-0.44702315338912507
1684006629430989200,6.6303896484375,0.17612135410111254,-0.14398860929648044,-0.49707913397871506
1684006629441030100,6.640430419921875,0.12101748578053592,-0.16125488272409616,-0.48230624203137207
1684006629451070900,6.65047119140625,0.043963611047241356,-0.18030357374235928,-0.48367476475464677
1684006629461112000,6.660512451171875,-0.009228646629782497,-0.15857124317400834,-0.4912157058044957
1684006629471152800,6.67055322265625,-0.015255600344001469,-0.09898567187069253,-0.4645550251259615
1684006629481193600,6.680593994140625,0.011149793842405716,-0.06565570822765524,-0.4205546378723366
1684006629491234600,6.690634765625,0.08616051077199655,0.019588470357303073,-0.33584856993234935
1684006629501275600,6.700676025390625,0.1811112464343432,0.016829490695468526,-0.1431772708984893
1684006629511316400,6.710716796875,0.27232456212234046,0.08024120323161463,0.077289104537612
1684006629521357200,6.720757568359375,0.3407604992330394,0.1307115555846758,0.2938280106420622
1684006629531398100,6.730798583984375,0.3744394779575623,0.2131185531070479,0.416959285693475
1684006629541438900,6.74083935546875,0.3802572786891805,0.26099491121926593,0.5424313544687487
1684006629551480000,6.75088037109375,0.38853999963445957,0.3053827285896619,0.627577305025732
1684006629561520800,6.760921142578125,0.4361265599202159,0.36283016212327757,0.6142778397891483
1684006629571561600,6.770962158203125,0.4626752137694506,0.36244201670100656,0.6100139618410765
1684006629581602600,6.7810029296875,0.4821841122278661,0.34033012393606255,0.600136756900003
1684006629591643600,6.7910439453125,0.45428121086797035,0.28495597838185177,0.5255761146443784
1684006629601684400,6.801084716796875,0.3608173430384431,0.21331787105987196,0.37790298452097804
1684006629611725200,6.811125732421875,0.2786101998567869,0.15155029294801892,0.2476935385850705
1684006629621766100,6.82116650390625,0.16101892295120757,0.0572261811873964,0.047768115977893766
1684006629631807200,6.83120751953125,0.0427685977175823,-0.0573301314242962,-0.1383206843845661
1684006629641848000,6.841248291015625,-0.06805507084966048,-0.14695835101424054,-0.3223719595838718
1684006629651888800,6.851289306640625,-0.17582255599638005,-0.25894546496698534,-0.5298435686847763
1684006629661929900,6.861330322265625,-0.25437012315139235,-0.3479404449620643,-0.7079820634506038
1684006629671970700,6.87137109375,-0.32515433427253404,-0.42359638218394446,-0.8333833219109307
1684006629682011600,6.881411865234375,-0.3813664912630506,-0.4742231369091341,-0.9748454094408575
1684006629692052400,6.891452880859375,-0.37381756306670166,-0.5425910949560124,-1.0378403665570592
1684006629702093600,6.901493896484375,-0.3556802867369559,-0.5777759551567604,-1.0623018740960268
1684006629712134300,6.91153466796875,-0.321159333030844,-0.6270332336279996,-1.0788717269725414
1684006629722175200,6.921575439453125,-0.23899398746057948,-0.6784496307155337,-1.068537473631933
1684006629732216000,6.931616455078125,-0.20765185350273666,-0.6627454758217094,-1.0718898772123187
1684006629742257100,6.941657470703125,-0.1844863594100174,-0.5608243943063622,-1.0646364688203307
1684006629752297900,6.9516982421875,-0.15795382864344795,-0.48011684413592226,-1.0414521694343841
1684006629762338700,6.9617392578125,-0.10696840285851406,-0.4394435881753177,-0.9684326649367552
1684006629772379600,6.971780029296875,-0.021784841960872013,-0.36693859090931635,-0.8883593081351431
1684006629782420600,6.981821044921875,0.10037696370756277,-0.35094356523226894,-0.7555565833188802
1684006629792461600,6.99186181640625,0.2163230180424075,-0.3603506087931778,-0.6299839019431933
1684006629802502300,7.00190283203125,0.297168970084798,-0.2662582398880663,-0.5548481940769447
1684006629812543200,7.011943603515625,0.34224578741698425,-0.22688961014576192,-0.4544372560057374
1684006629822584200,7.021984619140625,0.36986601354129783,-0.185080528255869,-0.37257027626950195
1684006629832625100,7.032025390625,0.3479478655452565,-0.17428970352323456,-0.3237526416264793
1684006629842665900,7.04206640625,0.29968300452041274,-0.2112541199223495,-0.27488279345852645
1684006629852707000,7.052107421875,0.18442916872670628,-0.2935266493598868,-0.18798065170986666
1684006629862747800,7.062148193359375,0.08625304702276916,-0.4378376007857281,-0.0873363017787381
1684006629872788600,7.07218896484375,-0.046750664830142265,-0.4888591766191425,-0.06856107710083106
1684006629882829600,7.08222998046875,-0.16116845593226445,-0.5971460342718816,-0.01878142363985174
1684006629892870600,7.09227099609375,-0.28979140508645546,-0.6956129074858926,0.012079715884269222
1684006629902911400,7.102311767578125,-0.47288590671155284,-0.7293014527534397,-0.0043764113720767585
1684006629912952200,7.1123525390625,-0.7097349763681637,-0.7486019134684286,-0.10627508168002289
1684006629922993100,7.1223935546875,-0.9252631664334143,-0.6367454528294041,-0.22917795175008882
1684006629933034200,7.1324345703125,-1.0364840031372577,-0.4469032286968032,-0.36130881308089946
1684006629943075000,7.142475341796875,-0.9752732515547833,-0.26778888691361596,-0.4523532391536243
1684006629953115800,7.15251611328125,-0.8828284741064886,-0.1926946638168742,-0.43100810034538534
1684006629963156600,7.16255712890625,-0.8704383374018871,-0.11130809784514756,-0.4142923354737991
1684006629973197700,7.17259814453125,-0.9395486115909141,-0.06887912757594647,-0.39027571666778355
1684006629983238600,7.182638916015625,-1.0239405632682457,-0.01754474630887027,-0.361545801170648
1684006629993279400,7.1926796875,-1.176680922605439,0.03303146362421529,-0.284636735939474
1684006630003320200,7.202720703125,-1.3057329654565146,0.0897607802541534,-0.21375155441313431
1684006630013361300,7.21276171875,-1.4240100383885148,0.1908521653121106,-0.3317122459182214
1684006630023402200,7.222802490234375,-0.9626412390636212,0.28126335152266335,-0.07232475282074488
1684006630033443000,7.232843505859375,-0.6356298923053145,0.3175992967007367,0.06216382985305011
1684006630043483800,7.24288427734375,-0.5977586508384436,0.25681209568665997,0.1398735048040359
1684006630053524900,7.25292529296875,-0.6819293499501852,0.28066921236473985,0.1415305137647188
1684006630063565700,7.262966064453125,-0.4307260512701394,0.2674789428793802,0.19631743429208268
1684006630073606600,7.273007080078125,0.1476283072875922,0.34200286879511266,0.4494452477116068
1684006630083647600,7.283048095703125,0.7372493743875094,0.3109130857792505,0.7085983752084805
1684006630093688600,7.2930888671875,1.1319599151481015,0.25815486916117675,0.8656222820866115
1684006630103729300,7.303129638671875,1.2509911059664929,0.3224821089989831,0.8587093353218277
1684006630113770200,7.313170654296875,1.1318588257565416,0.4225120545015951,0.7676348685072497
1684006630123811200,7.323211669921875,0.7748684884081876,0.49339962006655075,0.5619239807259779
1684006630133852100,7.33325244140625,0.2834048271977365,0.6322717665753544,0.4106097221185916
1684006630143892900,7.343293212890625,-0.18477082255557475,0.8236942292151899,0.388928651996134
1684006630153933700,7.353334228515625,-0.4239656924934543,1.021876811971356,0.43643546111100606
1684006630163974800,7.363375244140625,-0.4098746775928932,1.15798330317335,0.5222077369211432
1684006630174015600,7.373416015625,-0.3025925159358715,1.1991848946879684,0.6652088165288178
1684006630184056600,7.383456787109375,-0.14503550531615547,1.218069076690078,0.6889374255064713
1684006630194097300,7.393497802734375,0.04941630358045154,1.2081499100422093,0.706549167687395
1684006630204138400,7.403538818359375,0.21101760869802202,1.0791845320904747,0.7188105582275638
1684006630214179200,7.41357958984375,0.35441875452375887,0.9201130867976941,0.7217698097872071
1684006630224220100,7.423620361328125,0.40910291663243337,0.7694730757859902,0.621274232829078
1684006630234260900,7.433661376953125,0.4049217701307624,0.6754255293277563,0.4383618830979681
1684006630244302000,7.443702392578125,0.364780187495181,0.5426692963001789,0.28956532485902986
1684006630254342800,7.4537431640625,0.35925865156410725,0.41687488563746683,0.11396503434542019
1684006630264383600,7.4637841796875,0.23118877413634759,0.31011390688900453,-0.15940356246415194
1684006630274424600,7.473824951171875,0.05807352079417586,0.19146823892373396,-0.5580861568394176
1684006630284465600,7.483865966796875,-0.0692682266302495,0.14940071099313287,-0.8810961247144498
1684006630294506400,7.49390673828125,-0.12426304830068238,0.18148326876084328,-1.079553604270129
1684006630304547200,7.50394775390625,-0.19479584704934544,0.2354288100652787,-1.1993384361362398
1684006630314588100,7.513988525390625,-0.3974854946906923,0.23873806006748702,-0.9438047408881872
1684006630324629200,7.524029541015625,-0.4984521866265136,0.2903022766139014,-0.6147084236778743
1684006630334670000,7.5340703125,-0.5575892925996767,0.3339576719953183,-0.2800471784056368
1684006630344710800,7.544111328125,-0.6257309915007068,0.35022258747966195,0.089139461511873
1684006630354751600,7.554152099609375,-0.618732929149388,0.38699531551401645,0.3858478068227909
1684006630364792800,7.564193115234375,-0.6113226413494207,0.39435482027601315,0.6440103055085658
1684006630374833600,7.57423388671875,-0.558639526294284,0.336698532037586,0.899550437971828
1684006630384874400,7.58427490234375,-0.5689008235921541,0.2479476928912475,1.071614265446992
1684006630394915200,7.594315673828125,-0.5159513949650256,0.16199588770166248,1.148990869529329
1684006630404956300,7.604356689453125,-0.41915893558358025,0.11947059630143589,1.1271626949930709
1684006630414997200,7.6143974609375,-0.3499281406043296,0.10572910323655506,1.020476579659979
1684006630425038000,7.6244384765625,-0.3101580141960715,0.13991641999261398,0.8440721034538661
1684006630435078800,7.634479248046875,-0.2426276207454518,0.20770931225154804,0.6866917609923643
1684006630445119900,7.644520263671875,-0.21934008605672567,0.33276367185149475,0.633735895146592
1684006630455160800,7.65456103515625,-0.19362711909255073,0.40736961363996865,0.5787506103923309
1684006630465201600,7.66460205078125,-0.16752886774949405,0.49147224441023096,0.5658619403270703
1684006630475242600,7.67464306640625,-0.20005178451610714,0.5182552338773069,0.5818738936802847
1684006630485283600,7.684683837890625,-0.23452210439941426,0.4422893525269041,0.5945422648793494
1684006630495324300,7.694724853515625,-0.2757134437727978,0.33298301683965187,0.615519762025525
1684006630505365200,7.704765625,-0.3205227853333388,0.21907711016574988,0.6309792994798842
1684006630515406300,7.714806640625,-0.3463611601876986,0.2177028655761944,0.6802246570634998
1684006630525447100,7.724847412109375,-0.40917706486237526,0.24017906182422577,0.620881319101889
1684006630535487900,7.734888427734375,-0.5097124577187562,0.3363122941914097,0.6017868520435825
1684006630545528800,7.74492919921875,-0.6060442925359172,0.4051189422723842,0.5509347916065542
1684006630555569800,7.75497021484375,-0.6596055030292943,0.4367618561060032,0.4773924351541768
1684006630565610600,7.765010986328125,-0.6353619098543102,0.4336767196107555,0.4212114812142319
1684006630575651600,7.775052001953125,-0.5303504468200956,0.4847326278707281,0.28423881546610935
1684006630585692300,7.7850927734375,-0.3563640117548429,0.5452394483752248,0.13875484459743623
1684006630595733400,7.7951337890625,-0.12627077099194264,0.6015672683967405,-0.042725801386137914
1684006630605774300,7.805174560546875,0.14828681946046574,0.5801792144385823,-0.23237466802228596
1684006630615815100,7.815215576171875,0.37727308288366374,0.529447555693199,-0.3139653205113413
1684006630625855900,7.82525634765625,0.549604892805017,0.4948968885769184,-0.408841133243027
1684006630635897000,7.83529736328125,0.551214694991349,0.5479602812880813,-0.309303522086297
1684006630645937800,7.845338134765625,0.5166501998850883,0.5329818725307319,-0.22619867328156956
1684006630655978600,7.855379150390625,0.37720370295814143,0.4830408095896932,-0.06723976128832701
1684006630666019600,7.865419921875,0.13394618025467536,0.45469284072347105,0.14927935596787684
1684006630676060600,7.8754609375,-0.10041999812597512,0.38033962234613394,0.31908321369897963
1684006630686101400,7.885501708984375,-0.3384060859347567,0.24296474459012782,0.51256561271798
1684006630696142300,7.895542724609375,-0.582001447542419,0.13078117359874833,0.6050472259997408
1684006630706183300,7.905583740234375,-0.8625576496073236,-0.047200202913228725,0.5978276729252445
1684006630716224200,7.91562451171875,-0.95879387862,-0.16140460964310296,0.2783300877464547
1684006630726265000,7.92566552734375,-0.8505203724790591,-0.2274398804045137,-0.14664387711505206
1684006630736305800,7.935706298828125,-0.5275437832497851,-0.24702644353191416,-0.40462493895804647
1684006630746346900,7.945747314453125,-0.24849605576376602,-0.2804841995213749,-0.46792030345272856
1684006630756387800,7.9557880859375,0.10916709890188438,-0.3665294646705581,-0.5096659661225922
1684006630766428600,7.9658291015625,0.48035144814766967,-0.38570594780185186,-0.4784619808379822
1684006630776469400,7.975869873046875,0.7615038158009205,-0.4312696457663807,-0.4090099335039885
1684006630786510600,7.985910888671875,0.9918427465901833,-0.43844604480192545,-0.3432512282838152
1684006630796551300,7.99595166015625,1.111289262697545,-0.3326234818995821,-0.35632205001630335
1684006630806592200,8.00599267578125,1.002907753068108,-0.2379989625626291,-0.4092702865366296
1684006630816633000,8.016033447265626,0.803613185861838,-0.15944099418398688,-0.43279743191135983
1684006630826674100,8.026074462890625,0.6593202351555556,-0.05406570448970929,-0.49408364308178276
1684006630836714900,8.036115234375,0.6097729207068849,0.013249397349760092,-0.5081424714780499
1684006630846755800,8.04615625,0.5459537507014901,0.11885452270196754,-0.5214738845666325
1684006630856796600,8.056197021484374,0.4265019892026224,0.08829975122898472,-0.5248126982326571
1684006630866837600,8.066238037109375,0.19441270833012936,0.09611988072786322,-0.5658993720032558
1684006630876878600,8.07627880859375,-0.09563326840107578,0.041302680973174584,-0.44411468500234397
1684006630886919300,8.08631982421875,-0.27885937706236197,-0.045599937544133544,-0.3748643398595198
1684006630896960400,8.09636083984375,-0.35358405118742975,-0.21711349492658905,-0.3738224506332759
1684006630907001300,8.106401611328126,-0.24308192739154283,-0.29337596901272767,-0.4632842540170993
1684006630917042100,8.1164423828125,-0.01782989510537534,-0.37163925166950496,-0.6319835185345833
1684006630927082900,8.1264833984375,0.17068159576157726,-0.3938312531992861,-0.8426964283408424
1684006630937124000,8.1365244140625,0.30380964274613687,-0.314641952484212,-1.0329492091868455
1684006630947164800,8.146565185546875,0.18920028203944253,-0.21129322049820232,-1.1247856617216445
1684006630957205600,8.156606201171876,-0.04782044889546586,-0.010316848616185923,-1.1695230006891066
1684006630967246800,8.166647216796875,-0.31765818591879297,0.07495975482292537,-1.1179878711404525
1684006630977287600,8.17668798828125,-0.22054624556262925,-0.12721633916627056,-1.051617860802841
1684006630987328400,8.186728759765625,0.32388377189197404,-0.6103878020877173,-0.9073104858009606
1684006630997369300,8.196769775390624,0.5599034428700291,-1.071998596222064,-0.7700984478510603
1684006631007410400,8.206810791015625,0.2697464228575246,-1.1869974135995929,-0.6484537123543944
1684006631017451200,8.2168515625,-0.27488684648036293,-1.0000324248188137,-0.2739572526468829
1684006631027492000,8.226892333984376,-1.5308341981151152,-0.6886491775245592,0.2978734970876902
1684006631037532800,8.236933349609375,-3.0002443789586484,-0.2493648530549169,0.8161234856479278
1684006631047573900,8.246974365234376,-3.7419366836124888,-0.1896238326800492,1.446285724694899
1684006631057614800,8.25701513671875,-2.4638819694354726,-0.5259838104586702,1.3164563179108135
1684006631067655600,8.267055908203124,-0.4085814951503727,-0.8529424667344012,0.6969680787344236
1684006631077696400,8.277096923828125,0.8317542671875964,-0.9759798048896151,0.17192268375411573
1684006631087737600,8.287137939453125,1.2184126377840774,-0.7932195661760045,-0.5200991630761889
1684006631097778400,8.2971787109375,1.1658222675423,-0.493543624783284,-1.0096149446051386
1684006631107819200,8.307219482421875,0.5552225707554881,-0.25024795530424154,-1.3536863327498787
1684006631117860300,8.3172607421875,-0.38268256196446604,-0.14275550837260265,-1.2787535189806507
1684006631127901100,8.327301513671875,-1.1032193898031015,-0.038286208914748536,-0.8695797920986447
1684006631137941900,8.33734228515625,-1.1621630192331538,0.06746482854401331,-0.5062971116516071
1684006631147982800,8.347383056640625,-0.6831257342282598,0.05512905134589844,-0.25156974774000973
1684006631158023900,8.35742431640625,-0.10185885427546423,0.015413284286243067,-0.09334516529597635
1684006631168064600,8.367465087890626,0.08659100535893988,0.027921676609050455,-0.09759616846225087
1684006631178105600,8.377505859375,-0.06261944785032134,0.10893344883719776,-0.3178782464103878
1684006631188146400,8.387546630859376,-0.24951410305547891,0.128953933765533,-0.7517714499961495
1684006631198187400,8.397587890625,-0.20927357681871564,0.01190376269652789,-1.2538869381479465
1684006631208228300,8.407628662109374,-0.0037115811542281973,-0.12215900421278682,-1.4715638159348108
1684006631218269100,8.41766943359375,0.1828614472706643,-0.21127128601106734,-1.5456137657632776
1684006631228309900,8.42771044921875,0.23865807068939054,-0.2512550353608972,-1.4850871562491967
1684006631238351000,8.43775146484375,0.16639363766534748,-0.2952127456448687,-1.2840609551239015
1684006631248391900,8.447792236328125,0.07959842677170521,-0.3841257095358906,-1.0437164306597293
1684006631258432600,8.4578330078125,0.13904881485619813,-0.44872093208558284,-0.7307238578362264
1684006631268473600,8.4678740234375,0.18474054328291722,-0.443591117904226,-0.43811750424542506
1684006631278514600,8.4779150390625,0.13157188891919824,-0.402673721230116,-0.1805782318608085
1684006631288555400,8.487955810546875,0.06932425509016737,-0.24044227605672425,-0.0037674902877649756
1684006631298596300,8.49799658203125,0.10178172590758226,-0.10305690755253447,0.054257392853226345
1684006631308637100,8.50803759765625,0.12916135786303773,-0.007321357705863404,0.034296035707750264
1684006631318678200,8.51807861328125,0.1155190468797774,0.008519172699555256,0.050848484003314195
1684006631328719000,8.528119384765626,0.031572818690513337,0.006715774534252536,0.03429460521827753
1684006631338759900,8.53816015625,-0.04670059664474698,-0.010104179393000621,0.02075529100843953
1684006631348800900,8.548201416015624,-0.1834734679366071,-0.03222560885439836,-0.044350147107938775
1684006631358841800,8.5582421875,-0.2915815116418759,-0.03572940836769529,-0.0889153480219037
1684006631368882600,8.568282958984375,-0.4038335083589909,0.0009374619939236186,-0.16036462794840337
1684006631378923400,8.57832373046875,-0.49054133910849124,-0.03206443796350428,-0.16260957726572098
1684006631388964600,8.588364990234375,-0.5978654622682034,-0.039048194882358375,-0.157546043327707
1684006631399005400,8.59840576171875,-0.6832993029782019,-0.0295763016118443,-0.22820806494207468
1684006631409046200,8.608446533203125,-0.6692357064013263,-0.01787185677876248,-0.2711358071607904
1684006631419087000,8.6184873046875,-0.6350750923144901,-0.037355422954825565,-0.30793285369390794
1684006631429128100,8.628528564453125,-0.6487864256684587,-0.10256767292133386,-0.24152135848182546
1684006631439168900,8.6385693359375,-0.6703567505479172,-0.20173072798584182,-0.19225788117176792
1684006631449209800,8.648610107421876,-0.6546131372341362,-0.28947925570717914,-0.15552616117356116
1684006631459250600,8.658651123046875,-0.6054370403232376,-0.3322763443579761,-0.1671781539330681
1684006631469291600,8.668692138671876,-0.4699723720699272,-0.3943567276446439,-0.22451162346051046
1684006631479332600,8.67873291015625,-0.3451604843326515,-0.4178819657872017,-0.3864974974050591
1684006631489373400,8.688773681640624,-0.1709910630644526,-0.4217643738248507,-0.5399944781877334
1684006631499414200,8.698814697265625,0.009947419146539436,-0.3914651872185772,-0.6652622223754139
1684006631509455300,8.708855712890625,0.12108695510530709,-0.28884124752311247,-0.6954987049279712
1684006631519496100,8.718896484375,0.17826831344762303,-0.1906681062734932,-0.6339967250392597
1684006631529536900,8.728937255859375,0.24237418170633554,-0.13068389895373905,-0.4605460168280987
1684006631539578000,8.738978515625,0.23844420900940325,-0.1258392333425014,-0.22176742539295863
1684006631549618900,8.749019287109375,0.18766069421395193,-0.1761569976265693,-0.011464595836936676
1684006631559659600,8.75906005859375,0.08321571346451277,-0.3028488158435538,0.1397171020470429
1684006631569700800,8.76910107421875,-0.009420871830099134,-0.380956649736912,0.12589406957629712
1684006631579741600,8.77914208984375,-0.0688942671071505,-0.3879833220201724,0.06693410880641182
1684006631589782400,8.789182861328126,-0.08569991593265937,-0.34703540811590133,-0.12154388421274417
1684006631599823300,8.7992236328125,-0.09281587606110099,-0.2284002304607126,-0.3055057526092194
1684006631609864400,8.8092646484375,-0.09151804443202965,-0.17938613910231488,-0.46589660646415326
1684006631619905200,8.8193056640625,-0.09272003169509269,-0.1588754653580408,-0.6217346190743942
1684006631629946000,8.829346435546874,-0.09217834476575251,-0.20392513277523966,-0.7399897574082127
1684006631639986900,8.83938720703125,-0.0980634688689927,-0.2427968977669297,-0.8074309826884132
1684006631650028000,8.849428466796875,-0.13241863243873972,-0.25424671183044745,-0.8578178880951789
1684006631660068800,8.85946923828125,-0.13812208173657478,-0.2270708084444033,-0.8703873157654896
1684006631670109600,8.869510009765625,-0.15711343278688697,-0.18567466739925767,-0.8458905219685955
1684006631680150400,8.87955078125,-0.13626599316948054,-0.11169528951747362,-0.8321020604789359
1684006631690191600,8.889592041015625,-0.11566901204677578,-0.04589748392021997,-0.8078339099391233
1684006631700232400,8.8996328125,-0.05764663212255898,0.0633735658398395,-0.7290763855978668
1684006631710273200,8.909673583984375,-0.03153705580578977,0.08061027531007245,-0.5793278216334669
1684006631720314000,8.91971435546875,-0.032639622742432955,0.06324672696264991,-0.3942637444341643
1684006631730355100,8.929755615234376,-0.10549950598992698,-0.028693199277974413,-0.16165709496222777
1684006631740396000,8.93979638671875,-0.2137340307511644,-0.1096553802667987,0.10015439986124615
1684006631750436800,8.949837158203126,-0.27700436112512145,-0.13276958455558027,0.34339284898556727
1684006631760477900,8.959878173828125,-0.22201108929258365,-0.09592342385085804,0.46117448801477595
1684006631770518600,8.969919189453124,-0.09481978420160012,-0.0013093948454870991,0.4880681036949341
1684006631780559600,8.9799599609375,0.04825675483843614,0.07561206808926331,0.4976315497923593
1684006631790600400,8.990000732421874,0.11321163178378692,0.1141281128677462,0.4624314308343471
1684006631800641500,9.000041748046876,0.11459267142716864,0.15916633620659937,0.42049407959662827
1684006631810682300,9.010082763671877,0.017645001480030377,0.1372623442143632,0.35301876068469284
1684006631820723100,9.02012353515625,-0.1271102428735187,0.11038303372969221,0.34044885627761
1684006631830764000,9.030164306640623,-0.2590076923315937,0.07369613653605782,0.3959999084302722
1684006631840805000,9.040205322265624,-0.3616782426532306,0.08137416826825832,0.4618387221073359
1684006631850845900,9.050246337890623,-0.3890783786676036,0.14196968061093812,0.6127071382190522
1684006631860886600,9.060287109375,-0.39008378993954257,0.19087409969260907,0.7242679595882561
1684006631870927800,9.070328125,-0.33977675452002515,0.2519006729111831,0.8560299873721035
1684006631880968600,9.080369140625,-0.30071246614111613,0.31805133816936876,0.883305072816993
1684006631891009500,9.090409912109376,-0.272782921690585,0.3777189254400414,0.8648777007561572
1684006631901050300,9.10045068359375,-0.20193588725160339,0.41459560383727684,0.8439316749447406
1684006631911091400,9.11049169921875,-0.12714016443303205,0.4290657044049621,0.7708425522498306
1684006631921132200,9.12053271484375,0.006989717440741825,0.4548969268434764,0.6162843704265598
1684006631931173000,9.130573486328124,0.12991690639159115,0.4665918350291154,0.41043853745320535
1684006631941214100,9.140614501953126,0.2198536397010508,0.474251747137115,0.26998376861603934
1684006631951255000,9.1506552734375,0.22600460044979262,0.44741821300451035,0.12349891665387254
1684006631961295800,9.1606962890625,0.2333443163247745,0.42660236344122016,0.004390239695794737
1684006631971336600,9.170737060546877,0.18223369120787994,0.37862968444336814,-0.09906196602890992
1684006631981377600,9.180778076171874,0.11850547792826037,0.27956771857384793,-0.14425563825637688
1684006631991418600,9.19081884765625,0.0824186801521897,0.2362356185715292,-0.17790794373248708
1684006632001459400,9.20085986328125,0.09042000774909172,0.1533260345540486,-0.1409811973444381
1684006632011500200,9.210900634765624,0.13905715950395975,0.16235542292670035,-0.12667322165333963
1684006632021541300,9.220941650390625,0.1955766677983806,0.10211753851242233,-0.1392879485037934
1684006632031582100,9.230982421875,0.17189764969197235,0.053828239534868066,-0.11525773998332164
1684006632041623000,9.2410234375,0.12317800524111228,0.06903171524338887,-0.09788513188247323
1684006632051663800,9.251064208984374,0.06223249441944934,0.1464395523100898,-0.03542327885600001
1684006632061704900,9.261105224609375,-0.07494449601349217,0.18340396882580873,0.0667834282523797
1684006632071745600,9.27114599609375,-0.18888497358314937,0.18735408780097101,0.18479967116399262
1684006632081786600,9.28118701171875,-0.2490396498148233,0.2104549407459258,0.2969927787811752
1684006632091827400,9.291227783203125,-0.18474793415743956,0.25964355477347867,0.43604278552283204
1684006632101868500,9.301268798828126,-0.1108732223444255,0.31599521636846356,0.5657219887703474
1684006632111909300,9.311309814453123,-0.05535268778611178,0.41517734516600036,0.5825195312486745
1684006632121950100,9.3213505859375,-0.05135416988783443,0.5166330336241703,0.6108317375062551
1684006632131991000,9.331391357421875,-0.18002104754535875,0.4833946227791109,0.6428570747328871
1684006632142032000,9.341432373046874,-0.332118034411051,0.37346458429251167,0.7200326920347354
1684006632152072900,9.351473388671875,-0.4155857562482958,0.14031696316452277,0.8201622961926122
1684006632162114000,9.361514404296877,-0.576745510079431,-0.007420539982009341,0.9103713036145111
1684006632172154800,9.37155517578125,-0.7709689141774337,0.027227401707960654,0.8903303146550765
1684006632182195600,9.381595947265623,-0.7665884495671058,0.19370841987695603,0.8977317809872956
1684006632192236500,9.391636962890624,-0.6986775397058876,0.3838500977142708,0.8037176131669422
1684006632202277600,9.401677978515623,-0.6895897388960949,0.5219316482771824,0.776525020603743
1684006632212318400,9.41171875,-0.6576936244817193,0.6158552168997588,0.659946441584156
1684006632222359200,9.421759521484375,-0.45300388345795656,0.6926722527057335,0.5244569778418787
1684006632232400000,9.431800537109376,-0.20288777351858941,0.7982540131238556,0.30273914337618724
1684006632242441100,9.441841552734376,0.043099164990706706,0.8478412629501203,0.12576913846173388
1684006632252482000,9.45188232421875,0.1809203624033725,0.7884850501744171,-0.06578302392726362
1684006632262522800,9.461923095703124,0.21038126960338963,0.6789388655538889,-0.25414133065638655
1684006632272563600,9.471964111328123,0.25592100617363156,0.4617519379110775,-0.46875381453226933
1684006632282604600,9.482005126953124,0.24655354020403142,0.1652660369597236,-0.6585159300712349
1684006632292645600,9.4920458984375,0.2558470965024706,-0.034314155671081974,-0.8862469194845599
1684006632302686400,9.502086669921876,0.295101284953207,-0.19924354551604115,-1.025454759555396
1684006632312727200,9.512127685546876,0.30497097966543224,-0.3251523973197371,-1.1452972888391624
1684006632322768300,9.522168701171877,0.3164848089227004,-0.34697628022223315,-1.1849722861536152
1684006632332809100,9.53220947265625,0.27709913247915474,-0.36089992524714726,-1.1265008450171885
1684006632342850000,9.54225048828125,0.16905367368021226,-0.42458152773782953,-1.090558767386955
1684006632352890800,9.552291259765624,0.0807628632840594,-0.5859518050917745,-0.8756375312243813
1684006632362931900,9.562332275390624,-0.14868211747595184,-0.8760528564549785,-0.6366791724293083
1684006632372972600,9.572373046875,-0.3622719050149889,-1.1947317123460353,-0.3221733571703271
1684006632383013600,9.5824140625,-0.6780937910760932,-1.4833087921964052,-0.011290073425470181
1684006632393054600,9.592455078125,-1.0768080950430956,-1.6047716140548853,0.31536579122858516
1684006632403095600,9.602495849609374,-1.3357424735061243,-1.3569602968113341,0.389973640498765
1684006632413136300,9.61253662109375,-1.557720303670894,-1.0473794938126175,0.7630066872367864
1684006632423177400,9.622577880859374,-1.7381649018523893,-0.3005762101576001,1.2044353484485302
1684006632433218200,9.63261865234375,-1.5772804021953402,0.5305070877811471,1.5171656608685231
1684006632443259100,9.642659423828125,-1.0422717331821962,1.0304632186141034,1.7509531974535104
1684006632453299900,9.6527001953125,-0.3534927367664077,1.2343273161221417,1.810862064547017
1684006632463341000,9.662741455078123,0.3234708310027113,1.2011318207639905,1.6114826202978454
1684006632473381800,9.6727822265625,0.8151561617560649,1.0161228181213475,1.224579334217994
1684006632483422600,9.682822998046875,1.191440343761388,0.6805887222517831,0.6982464790297267
1684006632493463600,9.69286376953125,1.3607344627913327,0.31497001643762385,0.24514055250006506
1684006632503504600,9.702905029296875,1.347308516412725,-0.08040714262610889,-0.12379980072584408
1684006632513545400,9.71294580078125,1.1038587093130998,-0.3765850066725203,-0.4366269110132952
1684006632523586200,9.722986572265626,0.6492814421289431,-0.5787048339383625,-0.6405868531935215
1684006632533627100,9.73302734375,0.056775808410280584,-0.7207927703359867,-0.6647319793089378
1684006632543668100,9.743068603515624,-0.509738564491893,-0.6932582855032982,-0.6359903813032414
1684006632553709000,9.753109375,-0.9002332688713747,-0.5559606551839873,-0.5701494216433183
1684006632563749800,9.763150146484374,-0.9048962594021003,-0.34699821466143316,-0.4611845016424122
1684006632573790900,9.77319140625,-0.6139575242785694,-0.15239524829438708,-0.3254575729677386
1684006632583831700,9.783232177734376,-0.1700398326035033,-0.036290168646867224,-0.2702665327943761
1684006632593872600,9.79327294921875,0.17321753495136788,0.056739807021745685,-0.24054837212491628
1684006632603913600,9.80331396484375,0.40128177390318925,0.12917232509929522,-0.2010419368963686
1684006632613954600,9.81335498046875,0.48139292000030803,0.08538913717259108,-0.18831920619781642
1684006632623995300,9.823395751953123,0.4679962397831832,-0.026841163616376746,-0.17200970646059552
1684006632634036100,9.8334365234375,0.3948374391422606,-0.07855224594890442,-0.183416127978569
1684006632644077200,9.8434775390625,0.3558096290126931,-0.09399890906550094,-0.12963080394218512
1684006632654118100,9.8535185546875,0.37590092429700284,-0.09969329825183268,-0.15654611588260556
1684006632664158900,9.863559326171876,0.5229662657341381,-0.07703495023082024,-0.05223035817926457
1684006632674199700,9.87360009765625,0.729674697004596,0.019288063057729083,-0.04391384124176561
1684006632684240800,9.88364111328125,0.9421663283898487,0.11737728120487118,-0.02901029576697873
1684006632694281600,9.89368212890625,1.0652254818236893,0.10250377647643051,-0.008013248513270434
1684006632704322600,9.903722900390624,1.0969753264844166,0.1254119874278375,0.030835628663354587
1684006632714363300,9.913763671875,1.0147067307640856,0.1500253675940398,0.06564378736772185
1684006632724404400,9.9238046875,0.8279964924153644,0.18563938147847958,0.0769829749173702
1684006632734445200,9.933845703125,0.5979505778409396,0.13871669781259266,0.10985088355122875
1684006632744486100,9.943886474609377,0.3053008318194122,-0.021703720114116632,0.13089847571190022
1684006632754527200,9.953927490234374,-0.054053142721839746,-0.12351036069747381,0.0924458503830497
1684006632764568000,9.963968505859375,-0.318831682158485,-0.2291860580754352,-0.03919601452074545
1684006632774608800,9.97400927734375,-0.5073780416453015,-0.3860588072868267,-0.3226470946741578
1684006632784649900,9.98405029296875,-0.550217449621345,-0.5121688844325595,-0.5748865604052066
1684006632794690700,9.994091064453125,-0.4778343736489243,-0.6165809631381005,-0.7688231468492057
1684006632804731600,10.004132080078126,-0.28678104289149237,-0.7181529998669489,-0.8684022426124304
1684006632814772400,10.0141728515625,-0.09676157692511868,-0.7473249434848567,-0.911563396457889
1684006632824813600,10.0242138671875,0.04673334970948494,-0.618055343631706,-0.9958770273667803
1684006632834854300,10.034254638671875,0.2111100704699138,-0.516880035365286,-0.9322929381530473
1684006632844895200,10.044295654296874,0.3404609561090248,-0.3387422560993296,-0.8885545730836861
1684006632854936000,10.05433642578125,0.4416172801502555,-0.2082128523320432,-0.7838442325319966
1684006632864977100,10.06437744140625,0.5379135012544993,-0.1087083817132334,-0.637959957101149
1684006632875017900,10.074418212890626,0.6501650810908207,-0.045014381262924875,-0.5371305943099685
1684006632885058700,10.084459228515623,0.7607967854280014,-0.026739120332914312,-0.3692734240907102
1684006632895099600,10.0945,0.8196641204936889,0.034444808788601025,-0.3044118880518716
1684006632905140600,10.104541015625,0.8803269267049506,-0.05267524716260755,-0.1967768668506405
1684006632915181600,10.114581787109374,0.9329612254233064,0.010713577253188162,-0.2161626815169296
1684006632925222300,10.124622802734375,0.8953996897302074,-0.026764869839360696,-0.21942615509266686
1684006632935263400,10.134663818359376,0.867838323155559,-0.0645418166881569,-0.23279833797944605
1684006632945304200,10.14470458984375,0.7882698775604723,-0.14112472528076714,-0.26881885541928124
1684006632955345100,10.154745361328125,0.6809324026918828,-0.2279396056930741,-0.35647749889780384
1684006632965385900,10.164786376953124,0.5775923729930224,-0.30798625943317026,-0.48793792714905637
1684006632975427000,10.174827392578123,0.4719446301925335,-0.38822364811248533,-0.5671448708276124
1684006632985467800,10.1848681640625,0.37927109016224675,-0.39205169680105384,-0.667971610954129
1684006632995508600,10.194908935546875,0.3480494616942437,-0.3672962189297633,-0.6946702003993659
1684006633005549700,10.2049501953125,0.29729443787924126,-0.3472766876371607,-0.7211287021341936
1684006633015590600,10.214990966796876,0.2897357939201446,-0.3437595366706391,-0.7088916302903407
1684006633025631400,10.22503173828125,0.30186730623102387,-0.29931545269577,-0.6341319084223088
1684006633035672200,10.23507275390625,0.3430778981093754,-0.2426595688572298,-0.5876803398109126
1684006633045713300,10.24511376953125,0.3933569789441218,-0.21449947373010153,-0.5074648858517835
1684006633055754200,10.255154541015624,0.4426618813857015,-0.15742206565890718,-0.41734361646307394
1684006633065795000,10.2651953125,0.5003552436860706,-0.2053594588249442,-0.22446131702116395
1684006633075836100,10.275236572265625,0.5875583886158329,-0.10974407203750322,-0.14409232134269703
1684006633085876900,10.28527734375,0.6490679979770358,-0.04540061953200162,-0.04727458949300354
1684006633095917700,10.295318115234377,0.6874360442691497,-0.00042343121124083455,0.05134534819542247
1684006633105958600,10.30535888671875,0.7454045414994306,0.04414558405096534,0.12510323523245295
1684006633115999600,10.315400146484375,0.7488086223042535,0.08587646480104474,0.15726375577280063
1684006633126040600,10.32544091796875,0.7121179104502047,-0.061676025409109374,0.2358841896967105
1684006633136081300,10.335481689453124,0.696565925968094,-0.006443023801496859,0.21761465079092893
1684006633146122200,10.3455224609375,0.6822306513436152,-0.01170253760936814,0.17192316056686438
1684006633156163200,10.355563720703126,0.6647133827297778,-0.04381847375141866,0.1299853324989989
1684006633166204100,10.3656044921875,0.6420813799633737,-0.03578090656485495,0.020243167912321273
1684006633176244900,10.375645263671874,0.6001341938575142,-0.0974264144684827,-0.06852865214491972
1684006633186286000,10.385686279296875,0.5435482263725672,-0.16384887692227013,-0.1357893944542307
1684006633196326800,10.395727294921874,0.5083086490514303,-0.2181854247053517,-0.19564461702935268
1684006633206367600,10.40576806640625,0.44745033975719406,-0.23405265812792359,-0.279015302724429
1684006633216408800,10.41580908203125,0.4118809105485429,-0.25688743583924234,-0.27367305758025445
1684006633226449600,10.42585009765625,0.39007282252468617,-0.24839305864844016,-0.28487968443869993
1684006633236490400,10.435890869140623,0.3792970180445932,-0.2492427826771371,-0.2958257197462443
1684006633246531200,10.445931640625,0.3675816654606514,-0.23774623870053838,-0.3132936952982934
1684006633256572300,10.45597265625,0.3974449037139848,-0.2163906098471027,-0.25853061688023443
1684006633266613200,10.466013671875,0.4309662579424877,-0.17558002464010927,-0.22640895835873956
1684006633276654000,10.476054443359375,0.4476087094932866,-0.12345504756484442,-0.18965005879247485
1684006633286694800,10.48609521484375,0.4381498694617306,-0.06715965261216053,-0.173973083520613
1684006633296735900,10.49613623046875,0.4052226542795145,-0.0303621291407724,-0.15322566038921223
1684006633306776800,10.50617724609375,0.39855039133283515,-0.005615234486762583,-0.09437179571261425
1684006633316817600,10.516218017578124,0.39164239172963783,-0.011509895195191126,-0.08267736426499864
1684006633326858600,10.526259033203123,0.3678067921438377,-0.028730392421955853,-0.025552272897348613
1684006633336899600,10.5362998046875,0.3369110228099924,0.022898673936998626,-0.03691244123676633
1684006633346940300,10.5463408203125,0.3017574547650243,0.04326534266575338,-0.040547370852925924
1684006633356981200,10.556381591796876,0.2721840738376042,0.03284740449082524,0.01737976081659344
1684006633367022300,10.566422607421876,0.20847785487353243,0.04870414727276395,-0.014822482918824893
1684006633377063100,10.57646337890625,0.18391346917372603,-0.01343822482082831,0.00982141486041302
1684006633387103900,10.58650439453125,0.14324724680324832,-0.055894851811743695,0.05721902847297107
1684006633397145000,10.59654541015625,0.11777734758948243,-0.10022830976701962,0.07027578363101121
1684006633407185800,10.606586181640624,0.055929660739671296,-0.12771892540165153,-0.0026583672451128463
1684006633417226600,10.616626953125,0.015038251750896845,-0.17608642584111633,-0.11734056468254071
1684006633427267600,10.62666796875,-0.02158468951945632,-0.17408084870579757,-0.19011402124458537
1684006633437308600,10.636708984375,0.0067672729232750315,-0.15070343012870813,-0.20726108547988265
1684006633447349400,10.646749755859377,0.07285332676347804,-0.12977981573216724,-0.10591673850244274
1684006633457390300,10.656790771484374,0.11712646481685826,-0.08568191536573991,0.0406661031836501
1684006633467431300,10.666831787109375,0.1518275737783373,-0.05413055431917123,0.06450223925007487
1684006633477472200,10.67687255859375,0.16062390804367968,-0.006318092300819188,0.10494899738848235
1684006633487513000,10.686913330078124,0.20967912679443637,0.07613944991312421,0.12136507020688592
1684006633497553800,10.696954345703125,0.25360536574128717,0.13394260417843007,0.08147048962158146
1684006633507594900,10.706995361328126,0.3227005004900258,0.15333747869728537,0.07803535450666312
1684006633517635800,10.7170361328125,0.34771120555478363,0.16088008884168278,0.13888263700963493
1684006633527676600,10.727076904296876,0.37148976322053867,0.12159538266051077,0.1573743819256633
1684006633537717400,10.737117919921875,0.3864684104929666,0.10420322404716165,0.2442722321127611
1684006633547758600,10.747158935546874,0.4138746260232329,0.12457942966013087,0.2849535942683176
1684006633557799300,10.75719970703125,0.40653800960792236,0.10422420505583731,0.326852321679672
1684006633567840200,10.767240478515625,0.3859633206194982,0.0812320707981446,0.29649686813554504
1684006633577881300,10.77728173828125,0.32691204549089337,0.03203773486127777,0.2607674598075374
1684006633587922100,10.787322509765623,0.24243724335260813,-0.021646499784518883,0.16798877711957583
1684006633597962900,10.79736328125,0.16884338853192107,-0.1219472884408707,0.031109809919400464
1684006633608004000,10.807404296875,0.0661882161490355,-0.15705394746029544,-0.16014337532568063
1684006633618044800,10.8174453125,0.005834698666437064,-0.18434238434124442,-0.2914917469194811
1684006633628085600,10.827486083984375,-0.05208718772532427,-0.22251701348140127,-0.3377087115121233
1684006633638126600,10.83752685546875,-0.0673357248811404,-0.250082016021742,-0.3188562391808506
1684006633648167600,10.847568115234376,-0.03382682796476745,-0.17541027062249676,-0.2948150633310985
1684006633658208400,10.85760888671875,0.002788186161486689,-0.17450237276753602,-0.15753293039672459
1684006633668249300,10.867649658203124,0.07710266116877483,-0.013381958030949468,-0.03888702392551742
1684006633678290400,10.877690673828123,0.1391628981419127,0.06727981559284267,0.08916234980766892
1684006633688331200,10.887731689453124,0.17256963249152454,0.09212684631732473,0.2330393790497483
1684006633698372000,10.8977724609375,0.19594037523069324,0.15149974825960993,0.2701487540853936
1684006633708412800,10.907813232421876,0.17436707028374313,0.02361679070525582,0.35776901234888436
1684006633718453900,10.917854248046876,0.1765418051833418,0.041383743253601446,0.3260779380571969
1684006633728494800,10.927895263671877,0.16556155670483386,0.07287120822682536,0.252674579551674
1684006633738535600,10.93793603515625,0.14669752116468746,0.06622219099238161,0.19265890119503765
1684006633748576400,10.947976806640623,0.13239514831989718,0.07405757904108973,0.11546564098272276
1684006633758617600,10.958017822265624,0.131773591059628,0.0606527327725209,0.09171104440349183
1684006633768658400,10.968058837890624,0.13748955738909113,0.16508388514907685,0.037739276957572856
1684006633778699200,10.978099609375,0.0705429314774781,-0.07817172995756823,0.11665010443645166
1684006633788740300,10.988140625,0.05167031294472464,-0.02302741996469673,0.06494808202367788
1684006633798781100,10.998181396484377,0.004485130379121631,-0.03472518912223137,0.018908023736677233
1684006633808821900,11.008222412109374,-0.02714228618680631,-0.029609680005404634,-0.03801202786829253
1684006633818863000,11.018263427734375,-0.038408160312293174,-0.0691051483632103,-0.09382486339312816
1684006633828903900,11.02830419921875,-0.04648280146961387,-0.07953929907535068,-0.09912014011869655
1684006633838944600,11.038344970703124,-0.011821508335109341,-0.10131549836399228,-0.13444805142570665
1684006633848985600,11.048385986328125,-0.0012006757734960372,-0.08973121643991663,-0.1338129043514086
1684006633859026600,11.058427001953126,0.011633992216487648,-0.06416225434443616,-0.14249849328584863
1684006633869067400,11.0684677734375,0.014952302031794209,-0.06958770760792686,-0.13215923311023345
1684006633879108300,11.0785087890625,0.01826238649111579,-0.0866680144794556,-0.1502013206853457
1684006633889149400,11.0885498046875,0.012108206837090062,-0.06347465523992821,-0.153882026668288
1684006633899190200,11.098590576171874,-0.0031878948591462604,-0.06418609633739521,-0.1975207327628365
1684006633909231000,11.10863134765625,0.005592346166565296,-0.06247043604490903,-0.20506381987698388
1684006633919271900,11.11867236328125,0.028495430921843125,-0.09132194523272094,-0.19589924812348947
1684006633929312900,11.12871337890625,0.02524554718510163,-0.0984249114089887,-0.20793294910678567
1684006633939353800,11.138754150390625,0.04808711999229005,-0.10531902315604132,-0.19370818147514468
1684006633949394600,11.148794921875,0.05416405193164751,-0.09078693379331106,-0.19595813755070454
1684006633959435400,11.1588359375,0.07920825476054218,-0.08343505872868945,-0.18383574483703513
1684006633969476600,11.168876953125,0.08052051049445277,-0.08547210688794218,-0.19047856333190605
1684006633979517400,11.178917724609375,0.0961685181178891,-0.08726692194410944,-0.20603656753871297
1684006633989558200,11.18895849609375,0.10696375375915315,-0.09123325347946096,-0.19512844082967545
1684006633999599300,11.198999755859376,0.12223935122469783,-0.11629104615163209,-0.1372358799817764
1684006634009640100,11.20904052734375,0.12307882314874907,-0.1173000335769241,-0.14836335176752966
1684006634019680900,11.219081298828126,0.10990798462387025,-0.08765220654646441,-0.16161036499615442
1684006634029722000,11.229122314453123,0.10206723206004577,-0.06085109704478114,-0.16060996064785651
1684006634039762900,11.239163330078124,0.07600903530403015,-0.06035232554467493,-0.11493468287122606
1684006634049803600,11.2492041015625,0.0765823126327355,-0.06459903716357324,-0.06309652326944941
1684006634059844600,11.259244873046876,0.07733511924585389,-0.0852794648437267,-0.005157947621082456
1684006634069885600,11.2692861328125,0.04768550396389408,-0.08925819400143753,-0.009713172964845302
1684006634079926400,11.279326904296877,0.04046046730028096,-0.05091094972101291,-0.014646053314478534
1684006634089967300,11.28936767578125,0.03431427485773319,-0.02021121974995431,-0.07848238934340915
1684006634100008400,11.29940869140625,0.0572059154526164,-0.02761936190425738,-0.07770895946419391
1684006634110049200,11.30944970703125,0.05882310870578943,-0.07258415234561036,-0.05585241319112326
1684006634120090000,11.319490478515624,0.05334830280999177,-0.0532636642279143,-0.03676009171409421
1684006634130130900,11.32953125,0.0878840685312085,-0.05548858645954692,-0.029794692934750584
1684006634140172000,11.339572265625,0.09647417081070618,-0.02715301518858986,0.026184558901147223
1684006634150212800,11.34961328125,0.13404846185166153,-0.015910148588969854,0.061864852827909544
1684006634160253600,11.359654052734374,0.15531110763139702,0.0090656280148542,0.08924341211126804
1684006634170294600,11.369695068359375,0.18842375284396917,0.007521629237214456,0.06146812444381632
1684006634180335600,11.37973583984375,0.20870602147677986,0.03167057030838155,0.05262374882172588
1684006634190376400,11.38977685546875,0.19007563594626967,0.03406238553665146,0.03202629078279899
1684006634200417500,11.39981787109375,0.17653834835909885,0.027016639765240734,0.040062904334120554
1684006634210458300,11.409858642578126,0.1523125172368919,-0.01521587382450284,0.1113467215897172
1684006634220499100,11.4198994140625,0.15700340264301627,-0.02374458318600825,0.12733173374971446
1684006634230540000,11.4299404296875,0.18275690083305007,-0.036948204137493904,0.16873741155210742
1684006634240581000,11.4399814453125,0.170367002542214,-0.019416809154431853,0.07745075211947976
1684006634250621900,11.450022216796874,0.19986855998821684,0.01657772067410681,0.058319568542622484
1684006634260662600,11.46006298828125,0.17136293662252922,0.061201095567124,-0.05010676375684736
1684006634270703800,11.470104248046876,0.1595197916993126,0.06026363367300181,-0.09327816969348242
1684006634280744600,11.48014501953125,0.09902578581290665,0.04749679564038319,-0.14544105530026338
1684006634290785500,11.490185791015625,0.05281305310971876,0.006717681981120436,-0.2276277541659847
1684006634300826300,11.500226806640624,0.030442058919944063,-0.07085418702334528,-0.28960251813523996
1684006634310867400,11.510267822265623,0.024438560044943883,-0.16568660734914,-0.35503864294563814
1684006634320908200,11.52030859375,0.06932055944138281,-0.23023223885699257,-0.4304111002828819
1684006634330949000,11.530349365234375,0.1118132472386229,-0.24134349818317485,-0.49867105486990443
1684006634340990100,11.540390625,0.1424021126069183,-0.23034572597725173,-0.5100810528351623
1684006634351031000,11.550431396484376,0.17783057700285415,-0.1599168777552181,-0.46317625050226313
1684006634361071800,11.56047216796875,0.19931864749825817,-0.12516593922631947,-0.3282372950393965
1684006634371112600,11.570512939453126,0.2210108041369338,-0.0760307311286024,-0.17721009271561516
1684006634381153600,11.58055419921875,0.26433807614117005,-0.029469490128659858,0.11852788908223744
1684006634391194600,11.590594970703124,0.32453906525643034,0.09188556654327007,0.3414609432646138
1684006634401235400,11.6006357421875,0.3826850651859619,0.15481853483060065,0.5065832137702527
1684006634411276500,11.6106767578125,0.41011279805395084,0.24013233171524706,0.6168177126476997
1684006634421317300,11.6207177734375,0.4463697075892397,0.31196117411888125,0.7387869357439135
1684006634431358100,11.630758544921877,0.4248462319758582,0.3516340256412682,0.7616009713247633
1684006634441399200,11.640799560546874,0.41477096087229853,0.3409366607456162,0.7953836919105602
1684006634451440000,11.65084033203125,0.36719512951247485,0.3749828338478421,0.8188748359481707
1684006634461480900,11.66088134765625,0.36791944518779857,0.3965749740153578,0.84641170496006
1684006634471521600,11.670922119140624,0.36242991691306914,0.3800525666750682,0.8614287377916778
1684006634481562800,11.680963134765625,0.40300446735973705,0.46731948861081846,0.8641309736802558
1684006634491603600,11.691004150390626,0.4601929784247593,0.479914665213858,0.8591461180197092
1684006634501644500,11.701044921875,0.47391641149588654,0.4376783370856603,0.8697652815624961
1684006634511685600,11.7110859375,0.4721766709607396,0.39553642279793216,0.8179020883454102
1684006634521726400,11.721126708984375,0.44575810448772896,0.31580638887955864,0.6692490577777547
1684006634531767200,11.731167724609374,0.38461571928838467,0.24399185178658359,0.5055923461885246
1684006634541808000,11.74120849609375,0.3468117715219385,0.1848831177523581,0.35342121109678837
1684006634551849100,11.75124951171875,0.3064709306748779,0.10780143731224953,0.2104558944604954
1684006634561890000,11.761290283203126,0.3077632785240335,0.034164428817393726,0.08591604237099705
1684006634571930800,11.771331298828123,0.3088700771906579,-0.03616523754755726,-0.022877216408568105
1684006634581971900,11.781372314453124,0.3226611615020005,-0.06329250331372632,-0.15620446217173506
1684006634592012600,11.7914130859375,0.32219827166323567,-0.05730533600330858,-0.308771610233218
1684006634602053600,11.801453857421874,0.2846319079449727,-0.03972244259947583,-0.4233527183170604
1684006634612094600,11.8114951171875,0.26448085908985763,-0.03159523005653192,-0.4553918839471529
1684006634622135500,11.821535888671876,0.23339778191398988,0.0028371810720865306,-0.46710038192169245
1684006634632176300,11.83157666015625,0.21671470996830608,-0.042758941678824346,-0.36702728257340833
1684006634642217100,11.841617431640625,0.2692747712550373,-0.037793159494161684,-0.2022616863031127
1684006634652258200,11.85165869140625,0.3549281658697069,0.014477729887183816,-0.09634637832133916
1684006634662299100,11.861699462890623,0.48906669033406613,0.07786178588975363,0.03407621389519296
1684006634672339900,11.871740234375,0.6055073738580141,0.15423011791005578,0.11049652096381221
1684006634682381000,11.881781494140624,0.729855656572063,0.2595787049858769,0.16408777240631922
1684006634692421800,11.891822265625,0.7741109728018594,0.30609321594637656,0.20664119730176914
1684006634702462600,11.901863037109376,0.7867953778653732,0.3064060212006088,0.2569293975473202
1684006634712503500,11.91190380859375,0.7294113039257053,0.2894668578261475,0.2745943070450449
1684006634722544600,11.921945068359374,0.590474963139255,0.27193546309127387,0.2527990342028068
1684006634732585400,11.93198583984375,0.40617364646414694,0.3125610351393028,0.1047854424691708
1684006634742626200,11.942026611328124,0.17284834390894285,0.2996625899307167,-0.04982900622004423
1684006634752667300,11.952067626953124,-0.09570125484074256,0.2362756728841308,-0.1737959384290369
1684006634762708100,11.962108642578125,-0.3589225709481163,0.13736915576811592,-0.34773159025217215
1684006634772749000,11.9721494140625,-0.6097756624325451,0.0014009475594174282,-0.5703940390949934
1684006634782790100,11.9821904296875,-0.8820430039129379,-0.07200622541639366,-0.7936575412782323
1684006634792830900,11.992231201171874,-1.1288409234169112,-0.1732740403261654,-1.0437321664317911
1684006634802871600,12.002272216796875,-1.3621126414083016,-0.29625987996996933,-1.2440488337517646
1684006634812912600,12.01231298828125,-1.571248888831025,-0.41156482694379326,-1.4171679020522074
1684006634822953600,12.02235400390625,-1.6049044131407089,-0.5160684585748904,-1.4731724262432233
1684006634832994600,12.032394775390625,-1.4927670956792227,-0.5971231461088322,-1.5419976709773806
1684006634843035300,12.042435791015626,-1.2052698136707296,-0.5846586227413351,-1.590440511754887
1684006634853076400,12.052476806640623,-0.8498363494619412,-0.5385160446398337,-1.434177160262808
1684006634863117200,12.062517578125,-0.47601351134964914,-0.47095775603509543,-1.2673647405197077
1684006634873158100,12.072558349609375,-0.1407053619830878,-0.35114383708269187,-0.9802534580987996
1684006634883198900,12.082599365234374,0.18581676501124597,-0.2514057160099018,-0.5980076788329011
1684006634893240000,12.092640380859375,0.454355508031274,-0.1292963028846809,-0.2987332343005222
1684006634903280800,12.10268115234375,0.67806744578506,-0.001085281448730956,-0.24373292933907426
1684006634913321600,12.11272216796875,0.9203085900513918,0.0897464752752532,0.02941370018296913
1684006634923362700,12.12276318359375,1.1058630942310663,0.31104564667521545,0.3629956246407558
1684006634933403600,12.132803955078124,1.2378700972485326,0.44398498525217034,0.6417798996995863
1684006634943444400,12.1428447265625,1.245329856863794,0.6247949599109769,0.7293066979475366
1684006634953485600,12.152885986328124,1.1927766798237107,0.7221660615120167,0.7502915858916254
1684006634963526300,12.1629267578125,1.0454392432797397,0.7984819412149492,0.6902685165392802
1684006634973567200,12.172967529296876,0.8016843796308475,0.7893896102604497,0.5920016765334963
1684006634983608200,12.183008544921876,0.4674791096129015,0.6998825073166189,0.4479393957801129
1684006634993649100,12.193049560546877,0.12625432010122128,0.5325469972676832,0.3033430578022664
1684006635003689900,12.20309033203125,-0.2470061779038318,0.37849330910733275,0.09909176827024727
1684006635013730700,12.213131103515623,-0.5869401098528859,0.17107963574611082,-0.12042927747877155
1684006635023771800,12.223172119140624,-0.9439164994470912,-0.1277265547452891,-0.28246569639492347
1684006635033812600,12.233213134765624,-1.211863279314654,-0.33139228815712796,-0.45993518825708973
1684006635043853600,12.24325390625,-1.398206710732563,-0.4016008376980516,-0.6009113787172516
1684006635053894600,12.253294921875,-1.5117764473446635,-0.5340900421707587,-0.7539436815880282
1684006635063935400,12.263335693359377,-1.466415166855615,-0.6544170380021708,-0.8632485867075033
1684006635073976200,12.273376708984374,-1.3118386267833373,-0.7268314361987048,-0.9409825801833672
1684006635084017100,12.28341748046875,-1.0489733218586696,-0.7703294755413825,-1.0229122638419483
1684006635094058200,12.29345849609375,-0.8066527842830467,-0.6915378569962359,-1.0112390516604182
1684006635104099000,12.30349951171875,-0.5363197326636815,-0.6790761947132375,-1.0568447112898571
1684006635114139800,12.313540283203125,-0.36328852188686656,-0.6009349822755354,-1.07830786691554
1684006635124180900,12.323581298828126,-0.19650042047473743,-0.5453844070199737,-1.0736048221359822
1684006635134221700,12.3336220703125,-0.09647643580794224,-0.45491695416003447,-1.026253938743132
1684006635144262600,12.3436630859375,-0.12464308733437954,-0.4512958527085262,-1.007797002776585
1684006635154303400,12.353703857421875,-0.19577360159507318,-0.39140415189615385,-0.9112582206540163
1684006635164344600,12.363744873046874,-0.3122555017473646,-0.39996337886479966,-0.7919709683482276
1684006635174385300,12.37378564453125,-0.5070766212505252,-0.3386106491996233,-0.7381582258880083
1684006635184426400,12.383826904296876,-0.6218788623804379,-0.3539686202932669,-0.5210342407337923
1684006635194467200,12.39386767578125,-0.738596916137633,-0.3537607193521645,-0.3503441810392763
1684006635204508100,12.403908447265623,-0.814380645696464,-0.34807300569953764,-0.24608159064391574
1684006635214548900,12.41394921875,-0.9527498483496384,-0.3752174376154387,-0.2967705727266636
1684006635224590000,12.423990478515623,-1.0876442195329503,-0.46409893027240606,-0.257030486966773
1684006635234630800,12.43403125,-1.2604761124142565,-0.5147075653458653,-0.22619867330950882
1684006635244671600,12.444072021484375,-1.376582503290668,-0.593843460105662,-0.3116595745385649
1684006635254712800,12.454113037109376,-1.4356904029019886,-0.6577081680627668,-0.46213030820554835
1684006635264753600,12.464154052734376,-1.45379889013285,-0.7650766373169597,-0.7166147230866597
1684006635274794400,12.47419482421875,-1.400004982972324,-0.8338937759161988,-0.8440303802458534
1684006635284835200,12.484235595703124,-1.3290790318465113,-0.8642158508532825,-0.901842117344864
