time,seconds_elapsed,z,y,x
1684180227861846600,0.0432470703125,1.1728334474777711e-12,1.208160003892467e-10,4.16419058844601e-11
1684180227871888300,0.053288818359375,-0.021317481995285333,0.1405115126665503,-0.9300389289218755
1684180227881929600,0.063330078125,0.03571987151034048,0.4635763167489525,-0.4703834056648991
1684180227891971000,0.073371337890625,-0.37942314146121153,-0.8570418358116569,0.8791909216883373
1684180227902012300,0.083412841796875,-0.10156345363652154,0.24700307849134728,0.2106575967062792
1684180227912053900,0.093454345703125,-0.4309720992729302,0.5359690189072968,0.4701547622804101
1684180227922095300,0.10349560546875,-0.5419545174334545,-0.5640084743085805,0.7529959678289279
1684180227932136600,0.113537109375,-0.42389917379718933,0.5826873778884718,-0.48027229308612546
1684180227942178200,0.12357861328125,-1.0323910713271631,-0.352112531780728,0.0640854835220237
1684180227952219600,0.133619873046875,-0.8627467154219896,-0.3310985566624337,-0.5456779003387067
1684180227962260900,0.143661376953125,-0.8176541327285516,-0.04656147959775197,-0.6398599147099683
1684180227972302300,0.15370263671875,-0.729539394425743,-0.7905271053388183,-0.358654260582781
1684180227982343900,0.163744140625,0.15126800547202052,-0.2832825183139592,-0.5915844441967255
1684180227992385200,0.17378564453125,0.29993581775725814,-0.5440411567897229,0.10054922105155617
1684180228002426600,0.183826904296875,0.5348739623993329,-0.4369261264908826,-0.3794670104183118
1684180228012467900,0.193868408203125,0.5227651595646114,-0.3480260371788218,0.029881000445243673
1684180228022509600,0.203909912109375,-0.22972106933701242,-0.7431857585504025,-0.26686477672173525
1684180228032550800,0.213951171875,-1.939934730569835,-1.312943220320915,-1.9183397293323703
1684180228042592200,0.22399267578125,-0.6467199324500609,-0.7372760773499908,-0.6610555647670218
1684180228052633600,0.234033935546875,0.2807960511610681,-0.44243431079770096,1.268824577259383
1684180228062675100,0.244075439453125,-0.37827730182551295,-0.23670005814072043,1.3466501236684219
1684180228072716500,0.254116943359375,-2.2297859193128207,-0.24518656727082308,0.6697449684592433
1684180228082757800,0.264158203125,-0.7289991378124943,-0.03290247902612851,1.4906358718734163
1684180228092799200,0.274199462890625,-0.6476230622660785,-0.34589529031832683,1.596751213059023
1684180228102840800,0.2842412109375,-0.1142745018130335,-0.5755248069332037,0.6283102036088244
1684180228112882100,0.294282470703125,-0.8119945524580832,-1.382091283855133,-1.526508808286624
1684180228122923400,0.30432373046875,0.3698625564498067,-1.9354987146135048,-0.8783245086548006
1684180228132964800,0.314365234375,0.5284447670520719,-1.6564218999189426,-1.060212612138499
1684180228143006400,0.32440673828125,0.02365159989963058,-1.4534201620611247,-1.0531959533888733
1684180228153047700,0.3344482421875,-0.32043552400086645,-1.0994751454967941,-0.9248566626968299
1684180228163089100,0.344489501953125,-0.39299154287513055,-0.7775213718388095,-0.7248096466514796
1684180228173130600,0.354531005859375,-0.39442491536336965,-0.44805026051496927,-0.8168234824060824
1684180228183172000,0.364572509765625,0.16131448762378311,-0.352473735737655,-0.2312030793275414
1684180228193213400,0.37461376953125,0.13356304180021417,-0.255843639344076,-0.2025818825309072
1684180228203254600,0.384655029296875,-0.2544751167512706,-0.07970619207857738,-0.11318254485433211
1684180228213296300,0.39469677734375,-0.6916279794409618,0.20850157743589315,-0.386218547882783
1684180228223337600,0.404738037109375,0.060832023669747645,0.37221074115544533,-0.1129169464903819
1684180228233379000,0.414779296875,0.2583918571272345,0.6204705237549616,0.04934072476709825
1684180228243420300,0.42482080078125,0.07536268250803166,0.7852375507376527,-0.11477184296204741
1684180228253461900,0.4348623046875,-0.12154674533893377,0.9545960425945308,0.3024535178608769
1684180228263503300,0.444903564453125,-0.32679605477298596,0.230621338016523,0.5431079864466871
1684180228273544600,0.454945068359375,-0.012203216516278478,0.3901700975432365,0.20433855054778596
1684180228283586000,0.464986328125,0.423366546581981,0.6880073548008674,-0.14227724067370087
1684180228293627600,0.475028076171875,0.24662637715239089,0.40888833999368707,0.012360096014098914
1684180228303668900,0.4850693359375,0.24837875357029715,-0.0822339057963033,0.14544010168662286
1684180228313710300,0.495110595703125,0.5531711579122693,-0.4776356219365739,0.4859366416980483
1684180228323751600,0.505152099609375,0.4127330780485344,0.08970451354630854,0.2561697960035352
1684180228333793200,0.515193603515625,0.006797313858353865,0.2365603445934393,-0.30927944175902644
1684180228343834600,0.52523486328125,0.26941680919621624,1.0818920135919112,-1.582290649504125
1684180228353875900,0.5352763671875,0.576472759337872,1.5633289814018336,-2.906551837827758
1684180228363917200,0.545317626953125,0.30483531944052505,0.1949059963117832,-1.7043132782635257
1684180228373958800,0.555359130859375,0.5084688663581813,-0.9736366272038159,-1.5033831596011242
1684180228384000200,0.565400634765625,-0.5808293819769416,-1.8172497748614382,-2.135184764861947
1684180228394041600,0.57544189453125,0.3751251696427462,-1.6267557143894908,-2.098921775771985
1684180228404083100,0.5854833984375,1.3355002404424556,-1.41292905814856,-1.4460802078260186
1684180228414124500,0.59552490234375,1.1319310665154163,-1.2069749832129015,-0.6671223640455635
1684180228424165800,0.605566162109375,0.7301303148396843,-1.1060762404773044,-0.10109424592914436
1684180228434207200,0.615607666015625,-0.09388148785397178,-0.27075099944429387,0.44351196287050615
1684180228444248800,0.625649169921875,-1.0348389149213741,0.3933877943206208,0.4675283432537916
1684180228454290100,0.6356904296875,-1.4178866147455065,0.4332013130158614,0.34071350102252074
1684180228464331400,0.64573193359375,-1.1328901052386773,0.17910099033307628,0.707889556961685
1684180228474372800,0.655773193359375,-0.5501226186549626,0.030834197981156934,1.1439342497722436
1684180228484414400,0.665814697265625,0.22468554969300053,-0.17352724082282106,1.1744108198927135
1684180228494455600,0.675856201171875,0.8438968657041056,-0.6736097335958912,1.058208465612149
1684180228504497100,0.6858974609375,1.330412268708112,-0.9544749258758002,0.8181924819184385
1684180228514538400,0.695938720703125,0.7905158400167209,-1.0541324615995398,0.7839403151788452
1684180228524580000,0.70598046875,0.44982632999874567,-0.9830775261541496,0.6983547210172264
1684180228534621400,0.716021728515625,0.34669175756052095,-0.7297539711503587,0.6793966293309858
1684180228544662600,0.72606298828125,0.27387279266974796,-0.7933273316305037,0.7020854950359839
1684180228554704000,0.7361044921875,0.07946389910783253,-0.839690208386573,0.7778244019964217
1684180228564745600,0.74614599609375,-0.16486775871177817,-0.5637898445843148,0.8125591277395253
1684180228574787000,0.7561875,-0.25715780259429616,-0.8313040733903585,1.2631692884693633
1684180228584828300,0.766228759765625,-0.09358084215451709,-0.726418018488502,1.382971763656586
1684180228594869900,0.776270263671875,0.1124767065346543,-0.5802459717567673,1.0117740630731378
1684180228604911300,0.786311767578125,0.5069713591968154,-0.7155189515667643,0.6698226927078902
1684180228614952600,0.79635302734375,0.76814031593104,-0.8348827361598001,0.5452585221058597
1684180228624994000,0.806394287109375,1.031884432031286,-0.840718746255382,-0.06187057500049744
1684180228635035600,0.81643603515625,0.9826472997469795,-0.871912002634432,-0.7053847312390974
1684180228645076900,0.826477294921875,0.7854242324830221,-0.6950926780110854,-1.1439218519808452
1684180228655118300,0.8365185546875,0.6718819738756963,-0.7579936981630342,-1.5043449401932891
1684180228665159600,0.84656005859375,0.7549297213480195,-0.875014782063075,-1.805720329434937
1684180228675201200,0.8566015625,0.8519928455299265,-0.7408890724571859,-1.6000661850184783
1684180228685242600,0.866642822265625,0.7789006827561187,-0.6628966332309988,-1.1164340971779285
1684180228695283900,0.876684326171875,0.6517722606514508,-0.4578695295889227,-0.874471187653547
1684180228705325200,0.8867255859375,0.6343114377033754,-0.2263636588656216,-0.4585080145964142
1684180228715366800,0.896767333984375,0.4228108822672982,-0.14419221865901255,0.008316993604182265
1684180228725408200,0.90680859375,0.02157986153188805,-0.14004278181380442,-0.021733284061101716
1684180228735449600,0.916849853515625,0.08079564579593693,-0.5920243263421533,0.06835460658849514
1684180228745490900,0.926891357421875,0.40601864452909986,-0.8092298508106579,0.04163455965562799
1684180228755532500,0.936932861328125,0.6933228374396133,-0.9963831902799748,0.2220869065394173
1684180228765573800,0.94697412109375,0.8456427455100165,-1.0422277450862993,0.0436372757153649
1684180228775615200,0.957015625,0.779147505827433,-1.102309227017203,-0.0025978087490152323
1684180228785656800,0.96705712890625,0.7159504295199487,-0.8933839798144667,-0.25597524637937613
1684180228795698100,0.977098388671875,0.5512840747524319,-0.8140377998401763,-0.07762289049625383
1684180228805739400,0.987139892578125,0.5293437838545704,-1.1818709371839733,0.3906431197655764
1684180228815780800,0.99718115234375,0.39469683177334997,-1.3646340370408925,0.3882656097909761
1684180228825822400,1.007222900390625,0.5701894760368285,-1.4446015357380662,0.6919898986221775
1684180228835863700,1.01726416015625,1.180208087123578,-1.0439558028393188,0.41861724850030807
1684180228845905100,1.027305419921875,1.441837668456287,-0.8730068206831434,0.437027931185837
1684180228855946600,1.03734716796875,1.5400649309193943,-0.9250001907036677,0.46893978115410045
1684180228865988000,1.047388427734375,0.8953739406593284,-0.9437913894590563,0.07861232762453776
1684180228876029400,1.0574296875,-0.5393998623447339,-0.7902264594428725,-0.7015547753154722
1684180228886070600,1.06747119140625,-1.3153504134329823,-0.9620099065784633,-1.3895349502458232
1684180228896112000,1.077512451171875,-0.7954391836089089,-1.2465739250966525,-1.532967567461789
1684180228906153600,1.087553955078125,0.38267555846932405,-1.5873074531554507,-1.1462426184492436
1684180228916195000,1.097595458984375,1.4236091375329623,-1.951248645933583,-0.4932684899269867
1684180228926236300,1.10763671875,1.7576924563866883,-1.389175891783559,-0.12272167204960052
1684180228936277900,1.11767822265625,1.6590921878834857,-1.1475691795295433,0.6044769288846621
1684180228946319300,1.1277197265625,0.6813746095512365,-0.9544596671444364,1.0849437714497157
1684180228956360600,1.137760986328125,-0.35503363609686894,-0.8751597404296542,1.0325927735466292
1684180228966402000,1.14780224609375,0.04603618379269465,-0.8422331810754033,0.7021770478505868
1684180228976443600,1.157843994140625,0.8975369334926712,-1.0480976104641542,0.3797693252908869
1684180228986484900,1.16788525390625,1.7438902855339322,-1.1631746292202998,-0.1945285797352517
1684180228996526300,1.1779267578125,1.9965494871052547,-1.3170042038462173,-0.6376800536947058
1684180229006567900,1.18796826171875,1.6272099016943724,-0.8900737763152233,-1.2462544440198267
1684180229016609200,1.198009521484375,1.5345854757713946,-0.4412536620562404,-1.5446615219091142
1684180229026650600,1.208051025390625,1.1581128836837005,0.10371732719342049,-1.5167369842614813
1684180229036691900,1.21809228515625,0.5620148182127159,0.7756671905326655,-1.04000234613662
1684180229046733600,1.2281337890625,0.37714025384612515,1.0643877983218977,-0.4710645677099675
1684180229056774800,1.23817529296875,0.5895661710700895,0.8001122474994625,0.1411123276872868
1684180229066816200,1.248216552734375,1.1814106703534626,0.07784605019317399,0.47921085359076077
1684180229076857600,1.2582578125,1.4239718914582458,-0.32342672355911917,0.5077447890621093
1684180229086899100,1.268299560546875,1.4203275442132222,-0.4761710167003426,0.6419658660161255
1684180229096940500,1.2783408203125,1.0138550995719526,-0.1779184340904898,0.5590586662857455
1684180229106981800,1.28838232421875,0.918942093689265,-0.11692905440272526,0.7056627273909691
1684180229117023200,1.298423583984375,0.6336791514190112,-0.06443834319873633,0.355243682843432
1684180229127064800,1.308465087890625,0.2473244517334584,0.16625738154306444,-0.45963954937048673
1684180229137106100,1.318506591796875,-0.1233260780724575,0.47478389754324185,-1.0533390045978956
1684180229147147400,1.3285478515625,0.13447606552456787,0.8437933920361977,-1.1374998092938775
1684180229157188800,1.338589111328125,0.7434509993049622,1.183727264458078,-1.1660709379833076
1684180229167230400,1.348630859375,0.7173072695870875,0.9863710402292238,-1.014129638632242
1684180229177271600,1.358672119140625,0.6368739603762859,1.109713554280086,-0.8278551100854492
1684180229187313100,1.36871337890625,0.41808652864766965,0.9518318176292391,-0.3733263014940507
1684180229197354600,1.378755126953125,0.14167726044985804,0.2794198990450624,0.28793954851945125
1684180229207396000,1.38879638671875,-0.20116075865524843,-0.36667060849441246,0.4614639282756546
1684180229217437400,1.398837646484375,-0.014973312617823944,-0.6178483962748196,0.06567955009538927
1684180229227478600,1.408879150390625,-1.6276249885962775,-1.6121668817076302,-0.3695735931908842
1684180229237520300,1.418920654296875,-1.9033589363938492,-0.762761115923201,-0.9980063437523901
1684180229247561600,1.428962158203125,0.030027150969211328,1.7966279983683464,-1.6077017784488246
1684180229257603000,1.43900341796875,1.6035867930276941,2.7074460981811663,-1.0316805839669423
1684180229267644600,1.449044921875,3.8597941399309663,3.1616330147033445,-0.7291202546706109
1684180229277685900,1.45908642578125,5.001979827730558,2.591530084729993,-0.022469997400093825
1684180229287727300,1.469127685546875,3.180237770108689,1.0602579116259778,0.9226355552903301
1684180229297768600,1.4791689453125,0.19958424556324458,0.6467876433478615,0.6436877250515779
1684180229307810200,1.489210693359375,-2.1167154312955674,-0.9539666174564244,1.1516623497633032
1684180229317851600,1.499251953125,-2.256296157889126,-1.369072437402628,1.3495826722515858
1684180229327892900,1.509293212890625,-1.4529842137378253,-1.6451907156636791,1.3031592367437663
1684180229337934300,1.519334716796875,-0.6468724011967937,-1.0859818456715853,1.209903240202522
1684180229347975900,1.529376220703125,-0.5446186066306385,-0.3822197913467546,1.4058065414646037
1684180229358017200,1.53941748046875,-0.322097361171454,0.8592367172096147,0.8967618943397728
1684180229368058600,1.549458984375,-0.0018391014264492235,2.0558767319150433,0.4786720276466893
1684180229378100100,1.55950048828125,0.29826486114221834,3.3916738033058893,-0.09049701685143717
1684180229388141600,1.5695419921875,0.0851712821704508,2.6913414001887235,-0.17172193523332804
1684180229398182800,1.579583251953125,-1.1998175382731828,-0.29560613632402266,1.8537030221123798
1684180229408224200,1.58962451171875,-1.3522958754430465,-0.36606931693474964,2.3011102677682733
1684180229418265800,1.599666259765625,-0.980798900069718,0.44301176069632703,1.739274024894785
1684180229428307100,1.60970751953125,-0.8148813247286363,0.25716257111197505,0.6050167083114213
1684180229438348500,1.619748779296875,-0.5004040598986209,-0.7016296387763999,-0.8898744582664805
1684180229448390100,1.62979052734375,0.5292537212409405,-0.8537926672288728,-0.8144516944110294
1684180229458431400,1.639831787109375,1.0192729234577802,-1.3247065542170546,0.46800041208469967
1684180229468472800,1.649873046875,1.5901482105682812,-1.2968273163700543,2.0164761541873006
1684180229478514100,1.65991455078125,1.7388024331313445,-0.6962141988730981,2.4518885613722863
1684180229488555400,1.669955810546875,1.3738486768110445,-0.0742850303897836,1.1173472403748876
1684180229498597000,1.67999755859375,0.3908715546749281,0.5494408607050759,-0.05337047566346087
1684180229508638400,1.690038818359375,-0.8814704418307756,0.42819166182065,-0.47779369348509304
1684180229518679700,1.700080078125,-1.2729380131555312,0.4834909438405294,-0.4742259978964667
1684180229528721300,1.710121826171875,-1.0374571085938968,0.6806192397278119,-1.0423612594382436
1684180229538762600,1.7201630859375,-1.0323231219104925,0.6687436102970621,-1.2501182556868224
1684180229548804000,1.730204345703125,-0.8600798844788117,0.3699922560488831,-1.1285185813766316
1684180229558845400,1.740245849609375,-0.40554440007649606,-0.09340000157776006,-0.8707690240076181
1684180229568887000,1.750287353515625,0.131083428823445,0.24404478086964976,-0.826634883860781
1684180229578928300,1.76032861328125,-0.020398065549516602,0.4304966926939679,-0.4668045043294551
1684180229588969600,1.7703701171875,-0.22768762724541108,0.3033018111427411,-0.3595461846369934
1684180229599011200,1.78041162109375,-0.08665910355827047,0.2964091301359294,-0.49265146253859504
1684180229609052600,1.790452880859375,0.14715848870097678,0.4149436951566212,-0.5777626038741901
1684180229619093900,1.800494384765625,0.5586922168808403,0.2722845077754345,-0.4602904320307482
1684180229629135300,1.81053564453125,0.7931349874018098,0.023407936103856077,-0.19002580628305707
1684180229639176900,1.820577392578125,1.0139890909440445,0.23423004147410814,-0.5565962792695194
1684180229649218200,1.83061865234375,0.7946065662811189,0.2671847342898475,-0.98112964635646
1684180229659259600,1.840659912109375,0.8562990425387407,-0.9234828950350178,-0.609952449667551
1684180229669300900,1.850701416015625,1.019334554596285,-1.2823863029555889,-0.5463552473623543
1684180229679342600,1.860742919921875,1.146347403578589,-0.7602763174774347,-0.4515409469850007
1684180229689383900,1.8707841796875,1.3278706073818118,-0.5937252045759797,-0.2891864776839022
1684180229699425200,1.88082568359375,1.4800505638788881,-0.5120668412998777,-0.42089271552254626
1684180229709466800,1.8908671875,1.2492953540102802,-0.46655464189842744,-0.48142957685357596
1684180229719508100,1.900908447265625,1.1574900149821525,-0.7407598495828617,-0.22578620915188086
1684180229729549600,1.910949951171875,0.8906534315926347,-1.1683044433171172,0.4077959059908965
1684180229739590800,1.9209912109375,2.119425296715902,-1.8655529021828527,1.771339416518164
1684180229749632400,1.93103271484375,2.990433931182398,-1.8149118423469368,3.2213187217797676
1684180229759673800,1.94107421875,2.528514862098574,-1.605713844235367,3.6421723366353413
1684180229769715100,1.951115478515625,1.408087372801154,-1.3267383575318914,3.4696612358288323
1684180229779756600,1.9611572265625,-0.5257069467950585,-0.8420600891012915,2.740857601183612
1684180229789798100,1.971198486328125,-2.0490131378523335,-0.45475006110994975,2.031933784447068
1684180229799839400,1.98123974609375,-2.8026247024804114,-0.35037994389035704,1.6720032693328566
1684180229809880800,1.99128125,-2.4334015845998658,-0.0647811888881428,1.422850132083488
1684180229819922400,2.00132275390625,-2.007257699988194,-0.4470462798130199,1.2479848861392133
1684180229829963600,2.011364013671875,-1.2126019001332344,-0.06417751305636497,0.5133023263249268
1684180229840005000,2.021405517578125,-1.153523802631625,0.39014434822819277,-0.30321073543211535
1684180229850046400,2.03144677734375,-1.0184278488700038,0.8142895698998508,-0.42315435410951924
1684180229860088000,2.04148828125,-1.52621078502527,0.5842480658676422,-0.005192279844971726
1684180229870129300,2.05152978515625,-1.7923959495106079,0.5029020309611082,0.05044364931409586
1684180229880170600,2.061571044921875,-1.7676575183727088,0.35966444030242095,0.11660099030200552
1684180229890212300,2.07161279296875,-1.3320268392906967,0.7305021286453304,0.06550931944368028
1684180229900253600,2.081654052734375,-0.9864249229216084,2.300512790629008,0.1453905105472469
1684180229910295000,2.0916953125,-1.0481020212660659,1.9801282883930873,0.6336622237748119
1684180229920336600,2.101737060546875,-0.898177802657144,1.5214691162419451,-0.08271551124598171
1684180229930377900,2.1117783203125,-0.9507361650324051,0.4486207963602972,-0.6810021400173105
1684180229940419200,2.121819580078125,-0.31306469450262586,-0.08440685271036531,-1.1322522163520319
1684180229950460600,2.131861083984375,0.6057283879369791,-0.27764844893027785,-1.540287494707229
1684180229960502200,2.141902587890625,0.9258701801426169,-0.6414470672753878,-1.651391506098266
1684180229970543600,2.15194384765625,0.7812739611038292,-1.1116538048144202,-1.6427426337901618
1684180229980584900,2.1619853515625,0.5633877514590685,-1.4919905662925153,-1.6496987343067095
1684180229990626200,2.172026611328125,0.5685456991140818,-1.396702766419346,-1.656745910569412
1684180230000667800,2.182068115234375,0.6713920832646497,-1.013485431735684,-1.3394832610372926
1684180230010709200,2.192109619140625,0.5447368621083047,-0.7829446792016809,-0.7806978225267273
1684180230020750600,2.20215087890625,0.2535042763483787,-0.8081960677977081,-0.3114342691414597
1684180230030792100,2.212192626953125,0.19268941874532516,-0.8730158804942817,0.016633510601433518
1684180230040833500,2.22223388671875,0.16582202906237115,-1.1201524735632136,-0.01773500428171011
1684180230050874800,2.232275146484375,0.20697259910152863,-1.471014976515602,-0.1225395202236205
1684180230060916100,2.242316650390625,0.2214348315262368,-1.4818916320869726,-0.10190391541425144
1684180230070957700,2.252358154296875,0.06259322162442074,-1.4143705369275408,0.07884693136406673
1684180230080999100,2.2623994140625,-0.5607414245346998,-1.667875289898089,0.3369245530608902
1684180230091040400,2.27244091796875,-1.0583162309037124,-1.8312497138641537,0.582796096798538
1684180230101082000,2.282482421875,-0.9121148586067276,-2.224218368447948,0.9409580229847593
1684180230111123400,2.292523681640625,-0.3704137801909403,-2.2663836477835844,1.293714046622738
1684180230121164600,2.302565185546875,0.1905255319085887,-1.661504745407315,1.1227173805723638
1684180230131206100,2.3126064453125,0.19404768937849132,-1.4133458137766632,0.8012313842918856
1684180230141247600,2.32264794921875,-0.051675081282032465,-1.243074894000765,0.1261548994108408
1684180230151289000,2.332689453125,0.051365852283377235,-0.5907158852840624,-0.8161621095453183
1684180230161330400,2.342730712890625,-0.11409711834474286,-1.0889315604168828,-1.0968456266618458
1684180230171371600,2.352772216796875,0.4722249507097814,-0.46027088157053253,-1.5610318185325147
1684180230181413300,2.362813720703125,1.6372575760126922,0.18563222878004626,-1.2375421523284313
1684180230191454600,2.37285498046875,2.085822582268835,1.1506748200880061,-1.8445425033012894
1684180230201496000,2.382896484375,1.16723918896746,0.5049543380977694,-1.6801662446407823
1684180230211537600,2.39293798828125,0.6363704205131075,0.5791258810761785,-1.3637070655765073
1684180230221578900,2.402979248046875,0.9562914370337688,0.8296356200604803,-1.1778073309419939
1684180230231620300,2.413020751953125,1.472226142930983,2.3806409837018854,-1.0123991967490056
1684180230241661900,2.423062255859375,0.8979923724593694,0.749451160347736,-1.290986061225261
1684180230251703200,2.433103515625,1.16901707652332,-0.6605601310911328,-1.3940644264689523
1684180230261744600,2.44314501953125,1.2682952882183811,-0.7561292647857529,-1.3357415198607294
1684180230271785900,2.453186279296875,0.9018175600690691,-0.4758205413598994,-1.0028004645527067
1684180230281827600,2.463227783203125,0.5359911919340827,-0.5081114768483538,-0.7961549759533141
1684180230291868800,2.473269287109375,0.22608256340197758,-0.6988978385263342,-0.7338232995565186
1684180230301910200,2.483310546875,-0.09147715552098443,-1.0249576569351802,-0.657099723873382
1684180230311951600,2.49335205078125,-0.46819043159965196,-0.9385399819477038,-0.6965169906325027
1684180230321993100,2.5033935546875,-0.6218328476130502,-0.6583065985801136,-0.7831721306360844
1684180230332034600,2.513434814453125,-0.5042054652586156,-0.75702285777928,-0.7989697455429875
1684180230342075800,2.523476318359375,-0.4706535339101327,-0.7057895660687414,-0.485965251983415
1684180230352117400,2.533517822265625,-0.7047755717751042,-0.37964725488019585,-0.17218875887649235
1684180230362158800,2.54355908203125,-0.809033393886149,-0.11017465592536275,-0.05316209790230594
1684180230372200100,2.5536005859375,-0.6497809888146405,0.21901988981407464,-0.09866428366490684
1684180230382241500,2.563641845703125,-0.41090750694661754,0.9832410812125305,-0.22796869278073198
1684180230392283100,2.573683349609375,-0.4240851401208534,0.9112405775708101,-0.15692377091812518
1684180230402324400,2.583724853515625,-0.2109520434880948,0.5286507607254554,-0.22231912618483501
1684180230412365700,2.59376611328125,0.0209147930895658,0.6533980368772057,-0.10397958765116115
1684180230422407300,2.603807861328125,0.09238743790194848,0.621861457878489,0.049412727336068704
1684180230432448600,2.61384912109375,0.10701417919129624,0.2560400962650613,0.30633306505499563
1684180230442490000,2.623890380859375,0.12271237367331597,0.38470745078324575,0.3987736701602128
1684180230452531400,2.633931884765625,0.04591941841086077,0.608272075718984,0.20293712605608166
1684180230462573000,2.643973388671875,0.026685237807097306,0.8253917693623262,0.03492403020094813
1684180230472614300,2.6540146484375,-0.08195352558122988,0.9453530310373092,-0.23145103458903207
1684180230482655600,2.66405615234375,-0.029341220867477983,0.9904861451530379,-0.47984552384475215
1684180230492697300,2.67409765625,-0.0015559194635555514,1.032622337230483,-0.6947083472410318
1684180230502738600,2.684138916015625,-0.06413912760917083,1.1664309502263628,-0.5035157202836771
1684180230512780000,2.694180419921875,-0.008763313212329168,1.502413272876235,-0.04737806313857612
1684180230522821300,2.7042216796875,0.056528091571909016,1.1765193938307337,0.18543529506646386
1684180230532862900,2.71426318359375,0.029277563268429098,0.5965843200297599,0.4178552626314786
1684180230542904200,2.7243046875,-0.06340837489188492,0.5459446908002007,0.3211908341233648
1684180230552945600,2.734345947265625,0.06170868886817229,0.7219724656278508,-0.029607772782627887
1684180230562987200,2.7443876953125,0.2936823369693799,1.1732954978641101,-0.17170429237722115
1684180230573028600,2.754428955078125,-0.11050891886432218,0.3887295722840013,-0.26557683936798115
1684180230583069900,2.76447021484375,-0.3735060691140159,-0.2782421112222404,-0.2733707427263943
1684180230593111200,2.77451171875,-0.7382566930657467,-0.6512646673867573,-0.2042555807663088
1684180230603152800,2.78455322265625,-0.9161665439733401,-0.652628421762506,-0.14819240582717336
1684180230613194200,2.794594482421875,-1.1453173159651397,-0.6798696517622345,-0.1920270918912493
1684180230623235600,2.804635986328125,-1.5240547656510592,-0.802851676994569,-0.44998407373342764
1684180230633277100,2.814677490234375,-1.8237655161904027,-1.0045714378521466,-0.8811717033092413
1684180230643318400,2.82471875,-1.499735593738268,-1.2940945625669873,-1.2298479081526186
1684180230653359800,2.83476025390625,-0.4783644675189611,-1.440369605960499,-1.2841911314646133
1684180230663401100,2.844801513671875,0.09848022447035787,-1.5045113563697523,-1.0881891249985003
1684180230673442700,2.854843017578125,0.1417908669536958,-1.54626035689417,-0.9205517769202843
1684180230683484100,2.864884521484375,-0.061753034532452754,-1.8704938889439424,-0.7664108276926508
1684180230693525400,2.87492578125,-0.2487213611517089,-2.2105250358921213,-0.3186964988949841
1684180230703567000,2.884967529296875,-0.7072505950630781,-1.814714908772127,0.37606191648137655
1684180230713608400,2.8950087890625,-1.1336307525414515,-1.7160620689086648,0.43657398217609794
1684180230723649600,2.905050048828125,-1.1240758896103065,-1.2907934189807073,0.42170667648642896
1684180230733691300,2.915091796875,-0.8660848140111768,-0.9260935784865936,0.44399309171304235
1684180230743732600,2.925133056640625,-0.02151894565279656,0.18025970469209374,0.5033164026108446
1684180230753774000,2.93517431640625,0.7995717525257497,0.5493545531378458,0.5541062355197027
1684180230763815300,2.9452158203125,1.319546461178137,-0.26948928834048713,0.4874887466633567
1684180230773856900,2.95525732421875,1.489493250823819,-1.4698171615581697,0.42440080656486867
1684180230783898300,2.965298583984375,1.7726179361553913,-1.8626060487112994,0.3328733443850895
1684180230793939600,2.975340087890625,2.085736989960942,-1.8533706663108898,0.21078968045376648
1684180230803981000,2.98538134765625,2.264441013358188,-1.141159057787267,-0.1590595246495819
1684180230814022600,2.995423095703125,2.2349982260338033,-0.14428138736886115,-0.6395611761707981
1684180230824063900,3.00546435546875,2.072197914247885,0.2233614920935695,-0.8281598091457585
1684180230834105300,3.015505615234375,1.8388308285627843,0.2868800164248013,-0.9088506697466514
1684180230844146900,3.02554736328125,1.8327872752637526,0.5563273429584005,-1.0493149758578977
1684180230854188200,3.035588623046875,1.6552499533270721,0.6865844726670299,-0.8699049948884796
1684180230864229600,3.0456298828125,1.1683888435097636,0.5394172669246524,-0.9601478577127304
1684180230874271200,3.055671630859375,0.6045531035383774,0.18684816343268948,-1.1743721961860594
1684180230884312600,3.065712890625,0.22798347471672348,-0.01935529705792229,-0.9478759764299892
1684180230894353800,3.075754150390625,-0.08604431151637491,-0.07078552257325849,-0.343714237315845
1684180230904395200,3.085795654296875,-0.2048127650547411,-0.36853599562737993,0.2913632392830519
1684180230914436800,3.095837158203125,-0.04537987707880581,-0.5228462220549355,0.7234110830827025
1684180230924478100,3.10587841796875,0.16108798986513576,-0.36265563950539004,1.1353287696228131
1684180230934519500,3.115919921875,-0.05064535141677201,-0.9469165802420259,1.7511911391832418
1684180230944561100,3.12596142578125,0.5547919274716413,0.42778062809076767,1.106731414862733
1684180230954602400,3.1360029296875,0.8670679330078945,0.5659241676519372,0.6965155603307923
1684180230964643800,3.146044189453125,0.5307183265300599,0.1955022811874138,0.5362672804771285
1684180230974685100,3.15608544921875,0.976253747989121,0.05469608299533217,0.0594959257381308
1684180230984726600,3.166127197265625,1.8987786769095771,1.0473790168994208,-0.6362228393633484
1684180230994768000,3.17616845703125,2.0510499477484783,1.199491500744231,-0.44844865787570487
1684180231004809400,3.186209716796875,1.9026097061150238,0.9607944489948838,-0.3076190948131864
1684180231014851000,3.19625146484375,1.8625795842238977,0.3274397849386757,0.41931009289960147
1684180231024892300,3.206292724609375,2.1000704765434524,-0.02544307713497735,1.0775241853516422
1684180231034933600,3.216333984375,2.200783729547452,-0.24545192728723184,1.3453798293503094
1684180231044975000,3.22637548828125,1.7314389942994381,-0.6417503358281363,1.2409868239275939
1684180231055016600,3.2364169921875,1.154581308355145,-0.6032619476898579,1.2472767828160347
1684180231065058000,3.246458251953125,0.8668333887253068,-0.2597370148208923,1.1727542876365058
1684180231075099300,3.256499755859375,1.3839230535820102,-0.092473983900807,0.9909420013086675
1684180231085140900,3.266541259765625,2.2579934597358275,-0.2390165329330004,0.7202119828059484
1684180231095182300,3.276582763671875,2.5431671141545067,-0.40054702768588935,0.500918388318718
1684180231105223600,3.2866240234375,2.1245284081643416,-0.47049617781092723,0.03172063836319562
1684180231115264900,3.296665283203125,1.363790750587337,-0.4012155533084511,-0.43426942820786263
1684180231125306600,3.30670703125,0.4606289267375539,-0.30853843703283707,-0.7337698936604676
1684180231135347900,3.316748291015625,-0.11216235156459842,-0.07631683341567339,-0.7383742333156914
1684180231145389200,3.32678955078125,-0.06182277201025343,-0.10110092164055294,-0.42415046697785064
1684180231155430800,3.336831298828125,0.6390754581314495,-0.3644266127920553,-0.09140396113820427
1684180231165472200,3.34687255859375,2.683068036947478,0.1962556838730283,-0.44099235526221586
1684180231175513600,3.356913818359375,2.7105960845993744,-0.5668935776429691,-0.28128099442325466
1684180231185554900,3.366955322265625,2.580852747097815,0.20796585093003145,-0.5690488814844545
1684180231195596500,3.376996826171875,2.164955139100615,1.9456453324956975,-0.42664623253806017
1684180231205637800,3.3870380859375,0.7619652748978817,0.5527811051499179,-0.7413001060319881
1684180231215679200,3.39707958984375,0.4797247648195391,0.41125488272116356,-0.9106485843490096
1684180231225720800,3.40712109375,0.40803727502550463,-0.046987533547275646,-0.6618919371677447
1684180231235762100,3.41716259765625,0.3292267323046597,-0.9873390198668226,0.21401643759518302
1684180231245803400,3.427203857421875,0.39643785349820865,-1.3867235182852755,1.553330421462271
1684180231255845000,3.437245361328125,0.601115643971997,-0.7219715118751815,2.0825190544734205
1684180231265886400,3.447286865234375,0.5351462364568941,0.09152698511397904,1.3396410940609593
1684180231275927700,3.457328125,0.565975248794537,0.8863773347019669,0.2477889060768937
1684180231285969100,3.467369384765625,1.1465430259996272,1.5357027053521721,-0.5155782699511282
1684180231296010600,3.4774111328125,1.533709525946573,0.9273490905646772,-0.6773698331248941
1684180231306052000,3.487452392578125,1.7977502346974992,0.1765708923229469,-0.6826081275027641
1684180231316093400,3.49749365234375,1.9469976425916382,-0.12917327898242384,-0.6471617222267791
1684180231326134600,3.50753515625,1.781571746005937,0.03902339939128606,-0.45614337921313647
1684180231336176300,3.51757666015625,1.6602221727015034,0.466242790152023,-0.21981954580094185
1684180231346217600,3.5276181640625,1.523461341827428,1.3013925553037462,-0.17093086227432622
1684180231356259000,3.537659423828125,1.23930883423302,2.1320409774909215,-0.1281843186636827
1684180231366300600,3.547700927734375,1.0331457853507788,2.684816360446865,-0.21922564517269658
1684180231376341900,3.557742431640625,0.7729348541742418,2.0540351867081195,-0.3403618336134082
1684180231386383300,3.56778369140625,0.7240186929593859,0.6004781721758976,-0.6472733020221544
1684180231396424900,3.5778251953125,0.8953386545249316,-0.9010457992776014,-0.9698307513438065
1684180231406466200,3.58786669921875,1.0467897655257088,-2.3901090622207644,-0.9070065020554573
1684180231416507600,3.597907958984375,0.9066282510111058,-3.7505235670608377,-0.20964932441729026
1684180231426549200,3.607949462890625,0.6418896913010181,-4.022296905564869,0.949680089863685
1684180231436590600,3.617990966796875,0.9561270476262983,-1.4919357298625682,2.4619464873698176
1684180231446631900,3.6280322265625,0.5819346309135041,0.32905864705005894,3.426138401010745
1684180231456673200,3.638073486328125,-0.572102606297804,0.09192371357027809,3.2217078208634824
1684180231466714800,3.648115234375,-0.4166672229437028,1.072855949429753,2.442558288451305
1684180231476756100,3.658156494140625,-0.3374769687900781,0.7766733169566781,1.7938747405638433
1684180231486797600,3.668197998046875,-0.09625220308421731,0.21452522270847513,0.7359263896008372
1684180231496839100,3.678239501953125,0.43671593065663966,0.3052206040652469,0.08212447166297035
1684180231506880400,3.68828076171875,0.9063336253141828,0.5985155104691904,-0.4075725077612946
1684180231516921800,3.698322265625,1.019527911993745,0.1278495787692352,-0.6336827278309313
1684180231526963100,3.708363525390625,1.0586402417590626,-0.24198818211125905,-0.5992207525485403
1684180231537004600,3.718405029296875,0.9222397803628599,-0.28013133992036343,-0.4105868340458508
1684180231547046100,3.728446533203125,0.6640202401751383,-0.10414600365049584,-0.09515213973269758
1684180231557087400,3.73848779296875,0.18904057139942657,-0.02961349494598123,0.0681059359311818
1684180231567129000,3.748529296875,-0.03475415700244453,-0.03677463526695049,0.25569772724194273
1684180231577170400,3.75857080078125,0.007268846193082395,-0.1781368254016018,0.3505067825803098
1684180231587211600,3.768612060546875,0.25096613174551674,-0.1410675049897263,0.4325139523386869
1684180231597253000,3.7786533203125,0.6324923038532765,0.2856559753550635,0.5459032059188861
1684180231607294600,3.788695068359375,0.8296576142161476,-0.2182178496362372,0.31985712067385785
1684180231617336000,3.798736328125,0.9654144049741435,-0.6459293366317418,-0.07047867767263494
1684180231627377300,3.80877783203125,0.9558748603508644,-1.0043249129040284,-0.35423731815454845
1684180231637418900,3.8188193359375,1.1936312915531506,-1.0636024474238792,-0.5264623166506367
1684180231647460300,3.828860595703125,1.3764215706657625,-1.1579666136434952,-0.6634700299400267
1684180231657501600,3.838902099609375,1.4896783827682076,-0.9963712691319825,-0.454579353158026
1684180231667543200,3.848943603515625,1.5170599222407357,-1.0169448852747933,-0.30911445600652837
1684180231677584600,3.85898486328125,1.417156338611154,-1.138052940540791,-0.18118095390765654
1684180231687625900,3.8690263671875,1.2928355930623185,-0.9011802674209662,-0.004687547669412695
1684180231697667600,3.87906787109375,1.1120522021523145,-0.5372991561852676,0.16924428948140374
1684180231707708800,3.889109130859375,0.9166060686115531,0.0002603531377638273,0.3312706946805405
1684180231717750200,3.899150634765625,0.7968051434270386,0.024373054400770117,0.2877082824889086
1684180231727791600,3.90919189453125,0.5792317986087993,-0.34145450589528126,0.2628948687485566
1684180231737833100,3.919233642578125,0.36190879334674353,-0.649799346917067,0.25862836831827063
1684180231747874600,3.92927490234375,0.31478893748330256,-0.7539377210788333,0.15864086147073309
1684180231757915800,3.939316162109375,0.3040468692168397,-0.4056739807466303,0.2620403765348241
1684180231767957400,3.94935791015625,0.18801069258153447,-0.13916683184639245,0.47200703623888185
1684180231777998800,3.959399169921875,0.04583644873201968,-0.045447349535405586,0.5502452849497701
1684180231788040100,3.9694404296875,-0.014666557286048666,0.08838367454742813,0.5495378971557278
1684180231798081500,3.97948193359375,0.11034035688788506,0.2505884170387139,0.5827312469240027
1684180231808123100,3.9895234375,0.34911227226065006,0.2747001647388338,0.49816489228939165
1684180231818164400,3.999564697265625,0.6164010763972234,0.2857561110679362,0.5618801117639162
1684180231828205700,4.009606201171875,0.7485493421753593,0.32898712168379635,0.5657496452044378
1684180231838247300,4.019647705078125,0.8402815462015825,0.2585105896312182,0.6033370494795668
1684180231848288600,4.029689208984375,0.9017423389565123,0.3808784484057299,0.5502827167849756
1684180231858330000,4.03973046875,0.6179536581167524,0.22624969496129882,0.5587093831572351
1684180231868371400,4.049771728515625,0.49689686306700903,0.22862339024264958,0.650338411429241
1684180231878413000,4.0598134765625,0.47592926033190797,0.22996234906045104,0.6698980330141906
1684180231888454300,4.069854736328125,0.4208034278221954,0.07970333091707239,0.617403268749285
1684180231898495600,4.07989599609375,0.5176984071840276,0.07399559017801767,0.7906303406691055
1684180231908537300,4.089937744140625,0.8240576981096941,0.124177932791776,1.0022819043362703
1684180231918578600,4.09997900390625,1.1045880318591597,0.10129928577351244,1.2170903681793679
1684180231928620000,4.110020263671875,1.2657241820995138,0.15582847608070036,1.2978091240164022
1684180231938661600,4.12006201171875,1.2152873276385805,0.2113151551153582,1.164493322352633
1684180231948702900,4.130103271484375,0.9096596241117445,0.2589874266298265,1.0172514916194357
1684180231958744200,4.14014453125,0.3010516166965635,0.08206176747891858,0.8236484527370088
1684180231968785800,4.150186279296875,-0.5007967948617352,-0.244344711384787,0.5701742171618938
1684180231978827200,4.1602275390625,-1.406367063429648,-0.5484533310209332,0.5011951923319972
1684180231988868600,4.17026904296875,-2.3965294359774787,-0.8930110930575317,0.6906504630100162
1684180231998909900,4.180310302734375,-2.9147176742774326,-1.051958084071865,0.9136817454272697
1684180232008951500,4.190351806640625,-2.7782256605043782,-0.6144008635594799,1.217853307763839
1684180232018992800,4.200393310546875,-2.161156892842007,-1.4122695922998552,0.7565569876178944
1684180232029034200,4.2104345703125,-1.2241082192604071,-1.010711669973083,0.9310505389544687
1684180232039075800,4.22047607421875,-0.4171288013273629,-0.6334438324555347,0.8012886047329706
1684180232049117100,4.230517578125,0.15600872042690883,-0.4537792206126266,0.8592760562616737
1684180232059158400,4.240558837890625,0.6314709186320663,-0.11185836807034884,1.229020595595848
1684180232069200000,4.250600341796875,1.2792987823911643,0.25440788275650483,1.0601561067989933
1684180232079241400,4.260641845703125,1.4916864632101674,-0.5537605284850503,0.5674896239849456
1684180232089282700,4.27068310546875,1.630555033611882,-0.3506250381027925,0.3552749156056586
1684180232099324100,4.280724365234375,1.771256685349466,-0.034896850584604636,0.31861090664497244
1684180232109365600,4.29076611328125,1.7828102111997628,0.10186862952371767,0.3215739727157376
1684180232119407000,4.300807373046875,1.9530807733201594,0.1455469133326755,0.21063327795856476
1684180232129448400,4.310848876953125,2.4850027561197106,-0.29834556582461913,-0.4898147583412173
1684180232139490000,4.320890380859375,3.236391782840288,-0.39593887329778626,-0.7455797195685342
1684180232149531300,4.330931640625,3.750814438039624,-0.11001300798301179,-0.877989292299306
1684180232159572600,4.34097314453125,3.897793054676387,-0.2862844468182731,-1.4085050819793774
1684180232169614300,4.3510146484375,4.010453701023942,-0.3637847899878447,-1.9560563564340523
1684180232179655600,4.361055908203125,3.9451830387066993,-0.5927801132728755,-2.2061777114455534
1684180232189696900,4.371097412109375,3.7862172126020193,-0.5865297316275394,-1.9858549832850148
1684180232199738600,4.381138916015625,3.245674133395575,-0.6058416366673383,-1.735298037551668
1684180232209779900,4.39118017578125,2.331007957379115,-0.7461957930374092,-1.3318805693553362
1684180232219821200,4.4012216796875,1.5949535369400798,-0.7252111436132851,-0.821177482566015
1684180232229862600,4.411262939453125,1.010212659721598,-0.4996757508168456,-0.6523237228318223
1684180232239904200,4.4213046875,0.18461227407945774,-0.3562812806242457,-0.5310375691018416
1684180232249945600,4.431345947265625,-0.5296838282846335,-0.19086456291748494,-0.6985406874755575
1684180232259986900,4.44138720703125,-0.9801125527422411,-0.036459922757826474,-1.0314767360559518
1684180232270028500,4.451428955078125,-1.1447494031742156,-0.09554386148524956,-1.4946575165872913
1684180232280069800,4.46147021484375,-1.0358538627704583,0.024448394831030673,-2.0765321253995155
1684180232290111200,4.471511474609375,-0.77734374998863,0.08185958858119884,-2.5862126351764263
1684180232300152800,4.48155322265625,-0.7125833035304595,-0.43719768523799946,-3.0861234663848314
1684180232310194100,4.491594482421875,-0.43155717850856246,-0.6813068391027568,-3.7083888052979206
1684180232320235400,4.5016357421875,0.19379985336920957,-0.3442049026223822,-3.959112167216485
1684180232330277000,4.511677490234375,0.45561969269503994,-0.015464782765561319,-3.793253421656901
1684180232340318400,4.52171875,0.29968786243633255,0.297901153598151,-3.4478175639051796
1684180232350359700,4.531760009765625,-0.14100670805228444,0.24150562294087846,-2.9184975624199665
1684180232360401100,4.541801513671875,-0.4312167166800116,-0.10889530176983522,-2.425541400823826
1684180232370442600,4.551843017578125,-0.36734199525002326,-0.5085487364799935,-1.9407550095332162
1684180232380484000,4.561884521484375,0.00400280947988201,-0.6574335099670979,-1.7172150611420165
1684180232390525400,4.57192578125,0.24736118324610956,-0.38267517080447927,-1.561980605080207
1684180232400567000,4.58196728515625,0.5667723416590478,-0.06474399556533848,-1.2814819812050762
1684180232410608300,4.5920087890625,0.6004787683369499,-0.11107921615756164,-0.9131307602463129
1684180232420649600,4.602050048828125,0.3881393671357478,-0.4232940673637373,0.14680767054332122
1684180232430691200,4.612091552734375,0.5766754151247053,-1.0561656950496336,1.3084344863431903
1684180232440732600,4.622133056640625,0.9782015682571616,-1.2311506271872128,1.886813878938052
1684180232450773900,4.63217431640625,0.5602831839765827,-0.701668739190998,1.760335683877399
1684180232460815300,4.642215576171875,-0.43419170375023675,-0.2814826965920162,1.551640272244601
1684180232470856900,4.65225732421875,-1.5271133184946393,0.02933692919915357,1.4873015880941993
1684180232480898200,4.662298583984375,-2.157550334784212,0.34170627609854587,0.9065346717848023
1684180232490939600,4.672340087890625,-2.0703229904915412,0.4313240051200992,-0.6952388286839917
1684180232500981200,4.682381591796875,-1.2039372920046048,0.4671173096042566,-1.6083843707926342
1684180232511022600,4.6924228515625,-0.40283012395016166,0.3421277998309095,-1.749331474254995
1684180232521063900,4.70246435546875,0.28621935849111274,0.07364463818942245,-1.429558634727036
1684180232531105500,4.712505859375,0.8283765314344446,-0.09897041315930195,-0.8859994412849506
1684180232541146800,4.722547119140625,1.1118532419893146,-0.3889532089720024,-0.10468816743637573
1684180232551188100,4.732588623046875,1.2324926853400893,-0.5806093214235897,0.7010293005890739
1684180232561229700,4.742630126953125,1.6573835611946346,-0.19723510755720725,1.3655116558545293
1684180232571271100,4.75267138671875,1.340271949835572,-0.5854539871643488,1.859270811120593
1684180232581312400,4.762712890625,0.2600648402088448,-0.6038150785441337,1.6455051899283502
1684180232591353800,4.772754150390625,-0.5053018331462839,-0.5399246215169916,1.5683634279808967
1684180232601395400,4.782795654296875,0.5217157600941155,2.0154771803779754,1.0244772434266713
1684180232611436600,4.792837158203125,0.30633270741578894,2.7217760086312595,1.237052202190902
1684180232621478100,4.80287841796875,-0.021041154789304916,1.844030857098218,1.2063353061507327
1684180232631519600,4.812920166015625,-1.1915040015910603,-1.1544055940232045,0.5458440781065353
1684180232641561000,4.82296142578125,-1.5779093505028943,-3.7568864821885857,-0.6917448045251074
1684180232651602400,4.833002685546875,-0.5860939025929692,-3.783134460543903,-2.4369671345654553
1684180232661644000,4.84304443359375,0.11813938619396396,-1.9309663772516754,-3.804122447902685
1684180232671685300,4.853085693359375,0.07253730303130053,-0.4075078963931664,-3.8015234470224324
1684180232681726600,4.863126953125,-0.2041705846910194,-0.1378345488988832,-2.1814222335483393
1684180232691768200,4.873168701171875,-0.20639312267231708,-0.16708946228893215,-0.8230302332572849
1684180232701809600,4.8832099609375,-0.29009687886876634,-0.2827205659036985,-0.34134292609298883
1684180232711850900,4.893251220703125,-0.0895032882176248,-0.26439189913148753,-0.21088719370502992
1684180232721892300,4.903292724609375,0.17005205150772137,-0.16745376589923916,-0.009543657313216374
1684180232731933900,4.913334228515625,0.16946196548237502,-0.0994529724248123,0.06637716299930459
1684180232741975200,4.923375732421875,-0.09846413145158144,0.07056331631245627,0.10617709156624955
1684180232752016600,4.9334169921875,-0.33716535574700857,0.28381252300217263,0.24951839457407932
1684180232762058200,4.94345849609375,-0.48357260218219006,0.49913120261220845,0.2971527576145401
1684180232772099600,4.9535,-0.5699567795781177,0.15528678877425386,0.2536640168686976
1684180232782140800,4.963541259765625,-0.31932759282899387,0.052224159353720226,0.23916840549653637
1684180232792182400,4.973582763671875,-0.0465054511077651,0.01613330834043298,0.24679231631275647
1684180232802223800,4.983624267578125,0.11423945417900087,-0.10572338116464619,0.30565762522877943
1684180232812265100,4.99366552734375,0.3073786498748534,-0.3056612013789711,0.3536431790187749
1684180232822306600,5.003706787109375,0.48835313316277545,-0.24696254739187093,0.5159831046601624
1684180232832348100,5.01374853515625,0.7055039404792663,-0.20313358312245083,0.7013661861525834
1684180232842389400,5.023789794921875,0.8913735150687196,-0.08703613289526503,0.9240038394543757
1684180232852430800,5.0338310546875,0.9208793638749074,0.03586006172760793,0.9054675101461195
1684180232862472400,5.043872802734375,0.7968484163786947,0.14690780633042766,0.8043115140029437
1684180232872513600,5.0539140625,0.6876529454330362,0.0684261322886773,0.7491698265547037
1684180232882555100,5.06395556640625,0.4924486876353895,0.1851835250945255,0.8371217249907196
1684180232892596600,5.0739970703125,0.2606837749025458,0.02340507512636785,0.7582376003244748
1684180232902638000,5.084038330078125,0.125483751376355,-0.10437774647826896,0.48270034791644956
1684180232912679300,5.094079833984375,0.10906946666581865,-0.1414909362979426,0.29895901685842025
1684180232922720900,5.104121337890625,0.14485788342123768,-0.018280983011133418,0.1403591632530596
1684180232932762300,5.11416259765625,0.1606419087060589,0.1279983519540488,0.21717882146761575
1684180232942803600,5.1242041015625,0.20536041256614368,0.2100448607362988,0.3614356519302847
1684180232952845000,5.134245361328125,0.28374314314560395,0.2061538694780012,0.42397952079968787
1684180232962886600,5.144286865234375,0.34555649757113743,0.09424018858434868,0.25235438351443645
1684180232972927900,5.154328369140625,0.39085102073141775,0.13068008418001445,0.10872626305841648
1684180232982969600,5.164369873046875,0.43284106261447197,-0.005795478864215206,0.10371088989887178
1684180232993010900,5.174411376953125,0.44075405601664724,0.09851074224722678,0.1453304290760573
1684180233003052200,5.18445263671875,0.3717296124073414,0.2014942169862026,0.2158694265886848
1684180233013093800,5.194494140625,0.1950309275795908,0.2617464064870389,-0.15706086153192544
1684180233023135200,5.20453564453125,0.2215455770523029,0.4378910065356463,-0.5582063199023385
1684180233033176600,5.214576904296875,0.3516248464638419,0.6039457320498277,-0.7448532580906014
1684180233043217800,5.2246181640625,0.43888700010831316,0.6740016936963926,-0.7701895237213484
1684180233053259400,5.234659912109375,0.4619719980542065,0.7122220993555538,-0.719423532503427
1684180233063300800,5.244701171875,0.5546356439599529,0.7329378127829894,-0.6765217779785029
1684180233073342100,5.254742431640625,0.6017131805724716,0.7603902815824318,-0.6169533728784162
1684180233083383600,5.2647841796875,0.6741805077543102,0.6970777512236229,-0.5662972926682739
1684180233093425100,5.274825439453125,0.6463197469261511,0.6456289291299354,-0.4159617425549423
1684180233103466400,5.28486669921875,0.6037441491881403,0.5884828568611353,-0.2184994222031725
1684180233113508000,5.294908447265625,0.5905880926825774,0.6039466858486167,-0.07495832455601485
1684180233123549400,5.30494970703125,0.5779886246850153,0.6175069808657337,0.08213639261220355
1684180233133590600,5.3149912109375,0.582324981628229,0.5833625791575935,0.22174644466944762
1684180233143632300,5.32503271484375,0.6843829154838056,0.5183343885427137,0.26734018335721005
1684180233153673600,5.335073974609375,0.8213469982668136,0.4562311173456524,0.37368369117623923
1684180233163715000,5.345115478515625,0.9542969465736599,0.366359710752575,0.38713216791936855
1684180233173756300,5.35515673828125,1.0406644345342313,0.32079219823810823,0.42962050438574084
1684180233183797900,5.3651982421875,1.0248388051967339,0.2789335250685636,0.5224957465072642
1684180233193839300,5.37523974609375,0.8163712620949201,0.23748874664445183,0.6659839151852184
1684180233203880600,5.385281005859375,0.581566691537258,0.2587423324434794,0.7877440453458987
1684180233213922200,5.395322509765625,0.26704096801918,0.24619770043154912,0.9708631039643394
1684180233223963600,5.405364013671875,-0.14692652222512323,0.11163520812028253,1.1767983436490712
1684180233234004900,5.4154052734375,-0.4648866654915535,-0.0408267975701104,1.3411056995411381
1684180233244046600,5.425447021484375,-0.66927862174468,-0.06539821620394567,1.4136185646111517
1684180233254087900,5.43548828125,-0.7280563115441366,-0.048528671272332145,1.3017637728605478
1684180233264129200,5.445529541015625,-0.6586017608868053,-0.06685638427803535,1.1158156395791785
1684180233274170800,5.4555712890625,-0.5567568540999351,-0.055031776573249744,0.8963203429460533
1684180233284212100,5.465612548828125,-0.4722826480441795,0.052012443575468345,0.6239857673578564
1684180233294253600,5.47565380859375,-0.4681614638425926,0.17556095126567312,0.4152894021378934
1684180233304295100,5.485695556640625,-0.4821106194316972,0.30630397791139835,0.25663948052008795
1684180233314336400,5.49573681640625,-0.43406093121599626,0.3665008545314689,0.18618512140416632
1684180233324377800,5.505778076171875,-0.45942997941351144,0.2945127487059523,0.2632448672820055
1684180233334419400,5.51581982421875,-0.6685081719829195,0.1948032379069263,0.285061359435507
1684180233344460600,5.525861083984375,-0.5435707567819414,0.6155214309749376,0.40314054479206435
1684180233354502100,5.53590234375,-0.683461189269842,-0.1906118392535566,0.44781851756743374
1684180233364543600,5.545944091796875,-0.3299491404489219,-0.49005317675286336,0.24701571470422662
1684180233374585000,5.5559853515625,-0.21908342842368894,-0.7918539047650904,0.28929853426383345
1684180233384626400,5.56602685546875,-0.11957323561414647,-1.091364860615157,0.4825143814747516
1684180233394668000,5.576068359375,-0.06866002073132339,-1.1275930404746297,0.7476482392471742
1684180233404709300,5.586109619140625,-0.0044007302301034175,-1.042667388838105,1.0384683609260126
1684180233414750600,5.596151123046875,0.015499353420139503,-1.0043535230864638,1.1715645790082425
1684180233424792200,5.606192626953125,-0.2868093253098151,-1.0739412307426512,1.2577967644089696
1684180233434833600,5.61623388671875,-0.5968533754628612,-1.2369680404126067,1.4301815033903085
1684180233444874900,5.626275390625,-0.7855858802347723,-1.1717977525357508,1.6849074363995036
1684180233454916300,5.636316650390625,-0.4579980373538643,-0.6326274870985004,1.671378374095555
1684180233464957900,5.646358154296875,0.2093291283139775,-0.10601806641101827,1.198762655241621
1684180233474999200,5.656399658203125,0.6909297109132191,0.05855560310620412,0.5470352171782064
1684180233485040600,5.66644091796875,0.9556820393337149,0.3935422896542784,0.024173021368494713
1684180233495082200,5.676482666015625,1.2797343731073965,1.2387552261628132,-0.2917845250169835
1684180233505123600,5.68652392578125,0.7234222889025174,0.7111635208610607,-0.13218355180994512
1684180233515164800,5.696565185546875,0.5023099778889546,0.8610162734853217,-0.14076566700672521
1684180233525206400,5.70660693359375,0.19888639455767648,1.0153055190800482,-0.11922788630555906
1684180233535247800,5.716648193359375,-0.2511048316520654,0.8437852858822578,-0.3161079883570537
1684180233545289100,5.726689453125,-0.5812222957466112,0.5159149169642113,-0.43525242811147574
1684180233555330700,5.736731201171875,-0.6453541517675014,0.11446094530034542,-0.4777561424810342
1684180233565372100,5.7467724609375,-0.41050195682231655,-0.20634651195506162,-0.3747329713162511
1684180233575413400,5.756813720703125,0.03668797010500398,-0.3014755247927209,-0.36272215836387944
1684180233585455000,5.76685546875,0.5913068055227378,0.06161880484278839,-0.5215913058092874
1684180233595496400,5.776896728515625,1.0131244659626568,0.4496316908708442,-0.5445134638780682
1684180233605537600,5.786938232421875,1.2117209434669753,0.4834671020252529,-0.4148943425258628
1684180233615579300,5.796979736328125,1.3088412285230693,0.3503141402464489,-0.3721039295376981
1684180233625620600,5.80702099609375,1.3161749840470767,0.12472820283195857,-0.35482835769515364
1684180233635662000,5.8170625,1.3085920811074787,-0.11624717709312934,-0.32766008388814394
1684180233645703600,5.82710400390625,1.2851853369983555,-0.3245992661640651,-0.2722315788275015
1684180233655744900,5.837145263671875,1.2243295906406255,-0.357294082562229,-0.17726373667796774
1684180233665786300,5.847186767578125,1.0543984174507062,-0.25567340857594145,-0.19556093208331607
1684180233675827900,5.857228271484375,0.8654417992122497,-0.1541147231382988,-0.26405000688233266
1684180233685869200,5.86726953125,0.6876896024648483,-0.15786170954965054,-0.41253948215226255
1684180233695910600,5.87731103515625,0.5836459993501002,-0.18554496767379763,-0.5564788579104684
1684180233705952200,5.8873525390625,0.6608107089516484,-0.1297712326370632,-0.6367425919335622
1684180233715993600,5.897393798828125,0.7792013289396584,-0.1864538193207948,-0.7203891277095527
1684180233726034900,5.907435302734375,0.8372457025918649,-0.2713899612836341,-0.7946829794451664
1684180233736076500,5.917476806640625,0.7706744074247355,-0.3913669585384493,-0.8115935326132651
1684180233746117800,5.927518310546875,0.6860070227348619,-0.23117160801552467,-0.8843778370901147
1684180233756159200,5.9375595703125,0.6801314355034225,-0.03288459778798044,-0.9255759715649922
1684180233766200600,5.947600830078125,0.6014587283354749,-0.08543300624514875,-0.9341547489184929
1684180233776242100,5.957642578125,0.6168702840811175,-0.08479595165949576,-0.9138269425475317
1684180233786283400,5.967683837890625,0.6837571263289761,-0.028737068136759504,-0.9074742794283404
1684180233796325000,5.977725341796875,0.7946198583348695,0.0014200210550141892,-0.8577432631182439
1684180233806366400,5.987766845703125,0.9801104663851479,0.6010017395883915,-0.8155651092802936
1684180233816407700,5.99780810546875,0.9649770259965686,0.3337659835208063,-0.5776323079508974
1684180233826449300,6.007849609375,1.0676423311953844,0.23721408851628642,-0.5030369758288793
1684180233836490600,6.01789111328125,1.1239069700222635,0.1744108201155569,-0.35305798052007137
1684180233846532000,6.027932373046875,1.2338714599388254,0.011644363368938131,-0.16479349145507527
1684180233856573400,6.037973876953125,1.3548216821367818,-0.0571002958652338,-0.0981457232698805
1684180233866615000,6.048015380859375,1.3938333988657097,-0.14688110352526387,-0.06501412392125984
1684180233876656300,6.058056640625,1.4862450361402806,-0.19886398304734018,-0.08842456337357196
1684180233886697900,6.068098388671875,1.4632096291270433,-0.19493007658842973,-0.21889829633582675
1684180233896739200,6.0781396484375,1.4355895520230142,-0.1445283889335146,-0.48863732813711774
1684180233906780600,6.088180908203125,1.3994786739652891,-0.20696067818060737,-0.7522128819142142
1684180233916822200,6.09822265625,1.341554045740567,-0.35272788986412146,-0.9911995529750703
1684180233926863600,6.108263916015625,1.2867450714220214,-0.4883346557063645,-1.074607730010281
1684180233936904900,6.11830517578125,1.2768805028236196,-0.7071104049610697,-1.0604808330218214
1684180233946946200,6.1283466796875,1.2347569465827262,-0.8372087478021201,-0.996300101309054
1684180233956987800,6.13838818359375,1.1823654173740257,-0.7741155623357429,-0.8370622396707478
1684180233967029200,6.1484296875,1.0981076956764722,-0.5970497131329559,-0.6838712691785251
1684180233977070800,6.15847119140625,0.9644452332021015,-0.35854530337949864,-0.5544971227890084
1684180233987112100,6.168512451171875,0.7810145019634511,-0.13261222843708145,-0.37315404401844227
1684180233997153500,6.178553955078125,0.5804590583865022,0.037637710481188004,-0.22558665278560427
1684180234007195100,6.188595458984375,0.4473000170248313,0.1951160430385783,-0.19568777099075077
1684180234017236400,6.19863671875,0.40012496712686596,0.36131381984144545,-0.22874391081451806
1684180234027277700,6.20867822265625,0.40868070729716754,0.48116397853414783,-0.27095818513324516
1684180234037319100,6.218719482421875,0.2690384386849106,0.2991437912618545,-0.40629124631337227
1684180234047360600,6.228760986328125,0.3479572832912167,0.25565814966867334,-0.49028277405486953
1684180234057402000,6.238802490234375,0.6150403021550361,0.20034599304298933,-0.4289283752260381
1684180234067443600,6.248843994140625,0.8055419923519008,0.19558238989354038,-0.3002015352571227
1684180234077485000,6.258885498046875,0.9104908704822797,0.1838598251640559,-0.25637316710224245
1684180234087526300,6.2689267578125,0.9832733869471073,0.17771530149175555,-0.2324073315551093
1684180234097567900,6.27896826171875,1.116180181653733,0.2406587601113831,-0.09842073924088818
1684180234107609300,6.289009765625,1.1427545546914941,0.17857360839586842,-0.08643651011222857
1684180234117650600,6.299051025390625,1.0747146605589755,0.31146907815310043,-0.06578481210447322
1684180234127692000,6.30909228515625,0.9493114947886614,0.31349563607368464,0.02569830417803038
1684180234137733600,6.319134033203125,0.7932993174105516,0.23380279547943483,0.03740608688920942
1684180234147774900,6.32917529296875,0.602691471598704,0.08997249588241324,0.0014408826522685073
1684180234157816600,6.339216796875,0.40891897683875267,-0.07725715653033333,-0.00703084466508088
1684180234167857800,6.34925830078125,0.2995107770374762,-0.173709869362498,0.10132205481444555
1684180234177899200,6.359299560546875,0.22042530779365904,-0.186738967887392,0.16926240913825058
1684180234187940800,6.369341064453125,0.21446985009824526,-0.117941856471397,0.3200357555811618
1684180234197982100,6.379382568359375,0.18707188946064002,-0.08418369284840994,0.47899413102553096
1684180234208023600,6.389423828125,0.2099653781238295,0.03749656667514948,0.634158194092127
1684180234218064800,6.39946533203125,0.25383305555229435,0.17503833770245417,0.8213062285400642
1684180234228106400,6.4095068359375,0.28927910321985995,0.25532245632944,0.9146011471805995
1684180234238147800,6.419548095703125,0.3550112546858994,0.35002422326860255,1.0732970236983643
1684180234248189400,6.42958984375,0.41759008173098705,0.3318433760890857,1.1275982857106237
1684180234258230600,6.439631103515625,0.4660230279620416,0.15566062930233976,0.9892877936899082
1684180234268272000,6.44967236328125,0.48156118402323056,0.06672763818546223,0.8173750041863396
1684180234278313600,6.459714111328125,0.3090329766027911,-0.8518619537805221,0.09419989581527101
1684180234288355000,6.46975537109375,0.30494874707779285,-0.5992736815303501,0.4095574916627603
1684180234298396300,6.479796630859375,0.2664269805179193,-0.2567453383261436,0.5650869608587146
1684180234308437900,6.48983837890625,0.25791579495151434,-0.021072387681821122,0.5705912710788499
1684180234318479300,6.499879638671875,0.2775808572778651,0.20603561404627582,0.5474487544237451
1684180234328520600,6.509921142578125,0.3993713259999982,0.3492231368257858,0.37856799367700267
1684180234338562200,6.519962646484375,0.4441801308648419,0.3366813659847231,0.1707843988891413
1684180234348603600,6.53000390625,0.4316242336060054,0.29800701147594044,0.019843675176553235
1684180234358644900,6.54004541015625,0.3940496444712819,0.20052719118443288,-0.027311494528372
1684180234368686600,6.5500869140625,0.3544550538166582,0.1086597442610251,-0.059430405531092564
1684180234378727900,6.560128173828125,0.29347997914528523,0.062218666127183235,-0.10504353036348119
1684180234388769200,6.570169677734375,0.26831334837745296,0.10175132764081635,-0.05717253673625979
1684180234398810800,6.580211181640625,0.18258404733916034,0.10428619393960678,0.10215559586429988
1684180234408852100,6.59025244140625,0.08276981115225218,0.06041526785969262,0.3165602089464726
1684180234418893600,6.6002939453125,0.057018220564888054,-0.03441810619391333,0.5179705620011044
1684180234428935100,6.61033544921875,0.04198902838312519,-0.2110471726161475,0.5754336715951944
1684180234438976400,6.620376953125,0.07452982650867071,-0.37117576584897644,0.7208721041822458
1684180234449018000,6.63041845703125,0.1175543069156156,-0.5144758224235345,0.8793098329767033
1684180234459059400,6.640459716796875,0.1492151023342682,-0.5975542068486147,1.0126464365779477
1684180234469100600,6.650501220703125,0.229831695565775,-0.5794868467712895,1.153052210630393
1684180234479142100,6.66054248046875,0.3260039688350907,-0.531921386867207,1.1837579011127497
1684180234489183600,6.670583984375,0.47033327811091863,-0.46681404117977265,1.222825407997462
1684180234499225000,6.68062548828125,0.5893213750196075,-0.4010601043162198,1.281183838757068
1684180234509266600,6.6906669921875,0.6619973181720478,-0.41358566276089903,1.3404376507113571
1684180234519308000,6.700708251953125,0.6340641378395212,-0.4612541197137434,1.4459941388387152
1684180234529349300,6.710749755859375,0.5215829612075501,-0.47951030726917837,1.5286175011561662
1684180234539390900,6.720791259765625,0.3600964545384198,-0.36837673193334064,1.4708112479194981
1684180234549432200,6.73083251953125,0.13371884815548915,-0.1597204207866449,1.353400111246761
1684180234559473600,6.7408740234375,-0.10832345480109672,0.01699447622611875,1.2435266972925718
1684180234569515200,6.75091552734375,-0.37782701843742095,0.13335514052177488,1.1508418321895733
1684180234579556600,6.76095703125,-0.6380861997120109,0.2256565093803911,1.115402579396495
1684180234589597900,6.770998291015625,-0.8396871089349264,0.17738628381597435,1.0910063982885976
1684180234599639600,6.781039794921875,-0.892830729509501,0.11822128305973999,1.0703902244208066
1684180234609680800,6.791081298828125,-0.8124935031152845,0.02936172479916052,1.088665723714295
1684180234619722200,6.80112255859375,-0.580001473439124,-0.07463645927746147,1.2685625554121858
1684180234629763800,6.8111640625,-0.2784081400526148,-0.14837741869056126,1.400690436187329
1684180234639805100,6.82120556640625,0.060546159789169114,-0.17786979682851506,1.5445240734499255
1684180234649846400,6.831246826171875,0.35931271305128865,-0.05168533330785457,1.4400556087730718
1684180234659888000,6.841288330078125,0.6168111562923773,-0.09552097308047108,1.424014687595742
1684180234669929400,6.851329833984375,0.8558742999772737,-0.0562772750993514,1.3380267618800272
1684180234679970700,6.86137109375,0.988026797779652,0.017604828021588043,1.09185576447537
1684180234690012300,6.871412841796875,1.059816360638583,0.06843090056406119,0.9410241842604053
1684180234700053600,6.8814541015625,0.9234361052684189,0.11297893532807245,0.8140205143456579
1684180234710095000,6.891495361328125,0.7597011923704328,0.20374774917611427,0.5326133370379876
1684180234720136600,6.901537109375,0.5109795927739487,0.17820072162102063,0.2866203784227843
1684180234730178000,6.911578369140625,0.24917161461521567,0.0652666092345653,0.009590744997694071
1684180234740219300,6.92161962890625,0.02201974388062714,-0.0345849991388111,-0.2907383442133954
1684180234750260900,6.931661376953125,-0.19069781899009683,-0.14992904679844335,-0.5940434934588101
1684180234760302300,6.94170263671875,-0.3951092958822448,-0.2232408525069406,-0.8470386266211148
1684180234770343900,6.951744140625,-0.6000139712929938,-0.2759780883591921,-1.1945885419073812
1684180234780385200,6.96178564453125,-0.8029290436785583,-0.28670501717157937,-1.4842972755439008
1684180234790426600,6.971826904296875,-1.0158647298818644,-0.25089263916770943,-1.8165906668723804
1684180234800467900,6.981868408203125,-1.1920559406087599,-0.18783187876466204,-2.18429136274254
1684180234810509600,6.991909912109375,-1.2462465764437785,-0.12106800088039422,-2.434589385897289
1684180234820550800,7.001951171875,-1.2753067015038078,-0.06877708445112687,-2.465116024151331
1684180234830592400,7.011992919921875,-1.237160325141157,0.06317138686341084,-2.519529580930386
1684180234840633800,7.0220341796875,-1.1156711578345115,0.16784000392965837,-2.5386195181432742
1684180234850675100,7.032075439453125,-0.8867295980599736,0.24103832253560947,-2.4770112039083907
1684180234860716600,7.0421171875,-0.5994200706508203,0.13052082045860455,-2.4018704892174956
1684180234870758100,7.052158447265625,-0.23714831457635313,-0.007815361021691405,-2.316913366479283
1684180234880799400,7.06219970703125,0.19151610136097336,-0.17181777954953595,-2.3549923895170304
1684180234890841000,7.072241455078125,0.5536031724835182,-0.376743316569491,-2.4019093514178858
1684180234900882400,7.08228271484375,0.7825927734321779,-0.5551404954180651,-2.6048507690363087
1684180234910923600,7.092323974609375,0.8908413649442217,-0.8610725403644821,-2.700627803771284
1684180234920965300,7.10236572265625,0.891138672656028,-1.1771240233866,-2.6993944645364247
1684180234931006600,7.112406982421875,0.8200215696230064,-1.2211837768871476,-2.538203954710799
1684180234941048200,7.12244873046875,0.6183727978601772,-0.8164339065194481,-2.08713531490873
1684180234951089600,7.132489990234375,0.40313044198889203,-0.13015460968815826,-1.4848985673807351
1684180234961130900,7.14253125,0.17000484453025094,0.41683769212008165,-0.8992891311049044
1684180234971172600,7.152572998046875,-0.03577005870993534,0.7142963408644133,-0.4668481349988293
1684180234981213900,7.1626142578125,-0.26339983942070244,0.8241996765826674,-0.0204994678134379
1684180234991255200,7.172655517578125,-0.4740878343070815,0.8350467682184827,0.4153012037020759
1684180235001296800,7.182697265625,-0.6353539228861668,0.7444391250345168,0.6910504102221862
1684180235011338200,7.192738525390625,-0.8176779747517662,0.5572109221519894,0.943835735327492
1684180235021379600,7.20277978515625,-0.8353441953833304,0.2828311918945157,0.916377663579549
1684180235031421100,7.212821533203125,-0.66073513034526,0.16737842549983126,0.6660767794051138
1684180235041462400,7.22286279296875,-0.19559872149634153,0.21784591677695928,0.3971039056584236
1684180235051503800,7.232904296875,0.375161647817364,0.26223468766918934,0.06493830690798422
1684180235061545400,7.24294580078125,0.9374411107300537,0.2318201065682374,-0.24066424367978123
1684180235071586700,7.252987060546875,1.433663129702884,0.10388374331644126,-0.481201171798713
1684180235081628300,7.26302880859375,1.7219746111319016,-0.036703109730513696,-0.5863509177200861
1684180235091669600,7.273070068359375,1.6730914116271318,-0.09118270879458719,-0.6543174981610543
1684180235101711000,7.283111328125,1.338713884253333,-0.01622676849585676,-0.5491710901118485
1684180235111752400,7.29315283203125,0.8347967861616904,0.2097129821573925,-0.25161731245720625
1684180235121794000,7.3031943359375,0.5308668612099167,0.5481090544454327,0.15285420422997498
1684180235131835300,7.313235595703125,0.3817912339512681,0.7668285369947624,0.482694506629549
1684180235141876900,7.32327734375,0.3659845589723409,0.863286972051792,0.6159681081814653
1684180235151918300,7.333318603515625,0.48568677905579466,0.820467948817455,0.5560176372695161
1684180235161959600,7.343360107421875,0.7186141014750423,0.8389883040700953,0.47290837753364123
1684180235172001200,7.353401611328125,0.9376850127800268,0.8662042617833173,0.36679637436276086
1684180235182042600,7.36344287109375,1.0716921091531983,0.8686285018128421,0.19192063821986285
1684180235192083900,7.373484375,1.0465328692112221,0.829237937838558,-0.11455953127444986
1684180235202125600,7.38352587890625,0.904210925140561,0.7307987212073662,-0.3362417222401043
1684180235212166800,7.393567138671875,0.8111261129967636,0.8189201355613215,-0.30502796179490904
1684180235222208400,7.40360888671875,0.6598004103397777,0.7272529602817182,-0.3002409935699817
1684180235232249800,7.413650146484375,0.303910136150924,0.401125907906495,-0.13400173183189268
1684180235242291100,7.42369140625,-0.14307284359733782,0.27346229548940876,0.21319067470364322
1684180235252332600,7.433733154296875,-0.35301494593501026,0.16509628303940854,0.6112871765434346
1684180235262374100,7.4437744140625,-0.7237772942818548,-0.0955924987833901,0.9604612588776394
1684180235272415400,7.45381591796875,-1.3087974786195204,-0.4803485870949248,1.0293337107044924
1684180235282457000,7.463857421875,-1.761577129382778,-0.7251338957473952,0.7817845344449506
1684180235292498400,7.473898681640625,-1.903949141621748,-0.7546377181724402,0.3758643268506359
1684180235302539600,7.483940185546875,-1.7631508111382757,-0.6840400694661808,-0.007277071374707011
1684180235312581300,7.493981689453125,-1.4463301897809533,-0.5057621002962186,-0.3109658361136841
1684180235322622600,7.50402294921875,-1.0608347653390626,-0.26470184334622143,-0.5580751298817315
1684180235332664000,7.514064453125,-0.6498513222607484,0.015836715723611644,-0.7919782994900987
1684180235342705600,7.52410595703125,-0.23719882960218805,0.18828010552771696,-1.0693278311804486
1684180235352746900,7.534147216796875,0.08784389498244648,0.3174848556163216,-1.341670990044519
1684180235362788600,7.54418896484375,0.2992410659889909,0.3794565200233583,-1.5898537635799106
1684180235372829900,7.554230224609375,0.46617257591226996,0.41957092296613996,-1.6793341636366026
1684180235382871200,7.564271728515625,0.5115572215291493,0.4426479338925254,-1.6336910725137788
1684180235392912800,7.574313232421875,0.404182553230233,0.3771524427750107,-1.38731122007886
1684180235402954200,7.5843544921875,0.15771722798610988,0.3210058211680095,-1.057959556530335
1684180235412995600,7.59439599609375,-0.0820882320969057,0.32160663618711416,-0.747306108507375
1684180235423037100,7.6044375,-0.22593307494485834,0.29748630509146445,-0.5564878582041446
1684180235433078400,7.614478759765625,-0.27720570564415564,0.32297801962739064,-0.5245673060029508
1684180235443120000,7.6245205078125,-0.277939319734475,0.4173831938817384,-0.6328693031232587
1684180235453161400,7.634561767578125,-0.21734333033541703,0.5402336120709246,-0.80101370809821
1684180235463202700,7.64460302734375,-0.153577566177545,0.6701660155534204,-0.9841582180769255
1684180235473244100,7.65464453125,-0.07072925571041053,0.8431587219888118,-1.079465150871629
1684180235483285600,7.66468603515625,-0.022247076074161327,0.9757223130986223,-1.1492931842711527
1684180235493327000,7.6747275390625,0.014854431071616915,1.032379150378674,-1.1246995925776258
1684180235503368600,7.68476904296875,0.04441666595114858,1.0063629151579325,-1.0440484285979943
1684180235513410000,7.694810302734375,0.06115269661865817,0.9386100768950373,-0.9292483924324935
1684180235523451300,7.704851806640625,0.0058417319760713255,0.8744802473956319,-0.8162554501671041
1684180235533492900,7.714893310546875,-0.012949943589539164,0.818495750429202,-0.7000442148606617
1684180235543534300,7.7249345703125,-0.020329237073941023,0.7678680420857473,-0.5485152601351582
1684180235553575600,7.73497607421875,-0.019563674849338703,0.6672353745212708,-0.42297977191054376
1684180235563617200,7.745017578125,-0.04951047903490926,0.5759677885796218,-0.34410142908556945
1684180235573658600,7.755058837890625,-0.08008360858972359,0.49850368498805614,-0.2853805422517494
1684180235583700100,7.7651005859375,-0.07708299151040326,0.4322977064821302,-0.22829627998437932
1684180235593741600,7.775141845703125,-0.03851497162793427,0.429990768515569,-0.16185009478636217
1684180235603782800,7.785183349609375,0.007895469696099645,0.37473297119707527,-0.09621804954111735
1684180235613824400,7.795224853515625,0.06485438335891736,0.2527580259765241,-0.06034928558331432
1684180235623865800,7.80526611328125,0.06366419793703024,0.11961746210082527,0.03533977276927221
1684180235633907100,7.8153076171875,0.03660130500698053,0.03782463082022794,0.169994771338879
1684180235643948600,7.82534912109375,-0.012631535571576601,-0.032984733466424894,0.30846047395306886
1684180235653990100,7.835390380859375,-0.1151320936206738,-0.08561038961970868,0.4476798772457387
1684180235664031600,7.84543212890625,-0.21762812131029288,-0.11071014394894155,0.5400228499989396
1684180235674073000,7.855473388671875,-0.30678510677391335,-0.11356353758326919,0.603611350053426
1684180235684114400,7.8655146484375,-0.3523926736350951,-0.1783485411144822,0.5928068161228082
1684180235694156000,7.875556396484375,-0.3845682144289501,-0.24315929411620257,0.595000863083166
1684180235704197300,7.88559765625,-0.3694611788307591,-0.31299304966966,0.5444183945761971
1684180235714238600,7.89563916015625,-0.3955717086420698,-0.3377809525445383,0.5015690924102088
1684180235724280200,7.9056806640625,-0.476776003725037,-0.3271636962550606,0.5658364297859454
1684180235734321600,7.915721923828125,-0.6148123742381055,-0.3146514894298982,0.6428766846010965
1684180235744363200,7.925763671875,-0.8160749673519264,-0.6011552811557571,0.6817799210304974
1684180235754404600,7.935804931640625,-0.8893223999504242,-1.1046714782911249,0.6631134151742304
1684180235764445900,7.94584619140625,-0.9094442127321624,-1.6717166900706548,0.5917016863437797
1684180235774487600,7.955887939453125,-0.9676408767990419,-1.84339714045528,0.5881659388505156
1684180235784528800,7.96592919921875,-1.0342808962148593,-1.8019456863746084,0.5922797917071613
1684180235794570200,7.975970458984375,-1.0004702806219945,-1.6837577819803433,0.5173819064793885
1684180235804611800,7.98601220703125,-0.718351364045672,-1.5223407745085973,0.22463417059388194
1684180235814653100,7.996053466796875,-0.3036955595994353,-1.3013677596384605,-0.29443216319867654
1684180235824694400,8.0060947265625,0.021070480220753578,-0.8256368638558692,-0.6247103213157362
1684180235834736000,8.016136474609375,0.11022114764970468,-0.2964744568173678,-0.7942662239404
1684180235844777400,8.026177734375,-0.010821104096604674,0.18351268765334705,-0.7584735154402006
1684180235854819000,8.036219482421876,-0.2210741042677601,0.48822307588378,-0.5600309371940616
1684180235864860300,8.0462607421875,-0.3834838868612481,0.6396713258489544,-0.3964623213517396
1684180235874901600,8.056302001953124,-0.4907925129055449,0.6688890457518283,-0.31913113599027576
1684180235884943300,8.06634375,-0.6050519943370429,0.5829219819109281,-0.3094757795380462
1684180235894984600,8.076385009765625,-0.8638743759714711,0.4178819655271142,-0.2840639354454399
1684180235905026000,8.08642626953125,-1.2529361248059023,0.27919483174413723,-0.5779215097062534
1684180235915067600,8.096468017578125,-1.6379350423922396,0.20715999608495383,-1.0856362581167716
1684180235925108900,8.10650927734375,-1.8119732141933895,0.12699222577739813,-1.4923342465833613
1684180235935150600,8.116551025390624,-1.6884257791728374,0.1528940199867427,-1.704550027971142
1684180235945191900,8.12659228515625,-1.2630940676081375,0.34409046174667773,-1.8168400526482966
1684180235955233200,8.136633544921875,-0.6596606373446855,0.6739120483773399,-1.7336931228794343
1684180235965274800,8.14667529296875,0.02616924042638567,1.041981697180744,-1.573909759494068
1684180235975316100,8.156716552734375,0.7085402609367678,1.3863887786510851,-1.3461812735659073
1684180235985357700,8.166758056640624,1.271097421685596,1.5784521103228892,-1.1089230775291274
1684180235995399100,8.176799560546876,1.688300013718098,1.5759334564938123,-0.7802671195124657
1684180236005440400,8.1868408203125,1.9698665142185847,1.4156970978720607,-0.4295160769329029
1684180236015482000,8.19688232421875,2.1746273040725583,1.0582065583276952,-0.1230757236132632
1684180236025523400,8.206923828125,2.3034701347795394,0.552257537843263,0.11720955378040679
1684180236035564600,8.216965087890625,2.371951103243584,-0.06339931481749486,0.3503499030797293
1684180236045606300,8.2270068359375,2.331786394134327,-0.48522377009157347,0.5564950704621006
1684180236055647600,8.237048095703125,2.1242284774475273,-0.6631917952404723,0.857568502416747
1684180236065689300,8.247089599609374,1.7809209824397618,-0.6905994416423923,1.1581472158494388
1684180236075730600,8.257131103515626,1.3634753226889214,-0.6133127213432623,1.241227269132846
1684180236085772000,8.26717236328125,0.8613640070565857,-0.5278205872776263,1.2103165387297359
1684180236095813600,8.2772138671875,0.40720689283601547,-0.4946918488329316,1.1261823176868129
1684180236105854900,8.28725537109375,-0.07411241518162102,-0.4188890457975182,1.0206131936131677
1684180236115896200,8.297296630859375,-0.6089748144140846,-0.3605489732138079,0.9517265558702995
1684180236125937800,8.307338134765626,-1.3112820386458686,-0.19298362745646067,0.7448928356101711
1684180236135979200,8.317379638671875,-1.9856765270306989,-0.12615680684689212,0.14092636109603376
1684180236146020800,8.327421142578125,-2.600287437386677,-0.14078998574580942,-0.6307244302240581
1684180236156062100,8.337462646484376,-3.0311226845357524,-0.14896965030181467,-1.3188651799434463
1684180236166103600,8.34750390625,-3.1836724281131628,-0.11749839793490156,-1.7251855135703915
1684180236176145100,8.35754541015625,-3.023184537885255,0.013499259917476976,-1.8670176267521137
1684180236186186400,8.3675869140625,-2.5482399463281418,0.1318454742946645,-1.8147398232877665
1684180236196228000,8.37762841796875,-1.7926720379990415,0.23762798310203423,-1.728766679699641
1684180236206269400,8.387669677734374,-0.9845616816515113,0.2330942153837934,-1.4430845977127362
1684180236216310600,8.397711181640625,-0.24005758754510761,0.18543338788238972,-1.1619946956990739
1684180236226352300,8.407752685546875,0.2972325980356985,0.17112827303010147,-0.9190348386935141
1684180236236393600,8.4177939453125,0.6269548535090953,0.21643447863396087,-0.7050380707091448
1684180236246435000,8.42783544921875,0.8362687826544012,0.21874141685525508,-0.48288476470966585
1684180236256476600,8.437876953125,1.0034663676871707,0.19739913936766476,-0.3081194161932308
1684180236266517900,8.44791845703125,1.1548422574932298,0.140522003130976,-0.16854810725375516
1684180236276559600,8.4579599609375,1.3685367108020687,0.0817003249945867,-0.03091609492274204
1684180236286600900,8.468001220703124,1.6401990652452654,-0.06493568417631489,0.054238319377384284
1684180236296642200,8.478042724609375,1.8149627448130374,-0.1463165283479917,-0.006095409480520414
1684180236306683800,8.488084228515625,1.8802430629338813,-0.10054206853133153,-0.168519973822073
1684180236316725200,8.49812548828125,1.800654053701047,-0.042551040783306265,-0.2897790671493711
1684180236326766800,8.508167236328125,1.6891025305891387,0.010763168497844158,-0.42926871761248625
1684180236336808100,8.51820849609375,1.540994882565887,0.08781909940374868,-0.5550282001409974
1684180236346849500,8.528249755859376,1.3398854732773156,0.02841091154134944,-0.5809322595027051
1684180236356891100,8.53829150390625,1.0007042884335047,-0.021597862183038264,-0.5714360475765787
1684180236366932400,8.548332763671874,0.6140537261992638,-0.1006040573875023,-0.5595904587733982
1684180236376973700,8.5583740234375,0.2231520117266604,-0.09401035311071476,-0.5520467759104267
1684180236387015300,8.568415771484375,-0.1331406831978793,-0.10473060598411646,-0.4838651418557029
1684180236397056600,8.57845703125,-0.4963960647435816,-0.11585044857796716,-0.42186582097348985
1684180236407098300,8.588498779296875,-0.8115456104769457,-0.05313110365708292,-0.31759333619243973
1684180236417139600,8.5985400390625,-1.0360786913367186,0.08354949942882826,-0.17074918738559777
1684180236427181000,8.608581298828126,-1.0887687207131767,0.12957382199395437,-0.043802619095693975
1684180236437222600,8.618623046875,-0.9228054882129353,0.12833786017553608,0.02441596996126614
1684180236447263900,8.628664306640625,-0.6051858663747711,0.0631875992700998,0.06894445405036356
1684180236457305600,8.638705810546876,-0.22071650621434213,0.04393577576811836,0.10109162333562607
1684180236467346900,8.648747314453125,0.137923360007043,0.0010366439602191608,0.07514107221658037
1684180236477388200,8.65878857421875,0.4186235070367905,0.008507728438083464,0.06510710711650669
1684180236487429800,8.668830322265626,0.6206398010590494,-0.007814407272227574,0.03493022931290794
1684180236497471200,8.67887158203125,0.7795976400303632,0.02372169492299545,-0.07244348519684193
1684180236507512600,8.688912841796874,0.880733728326322,0.07901763912939265,-0.1919584275559324
1684180236517554100,8.69895458984375,0.9401422739687588,0.1698722838107115,-0.2922621965999441
1684180236527595400,8.708995849609375,0.9453414677541973,0.25314044943994746,-0.38036131866503775
1684180236537637000,8.719037353515626,0.9031689168491578,0.312122344969782,-0.5041577817173966
1684180236547678400,8.729078857421875,0.8168153166945681,0.3634481431897055,-0.6411660909615693
1684180236557719700,8.7391201171875,0.6975681184988471,0.3521661757564179,-0.735809445480342
1684180236567761300,8.74916162109375,0.5903111695453568,0.29751873025151304,-0.8783820866332024
1684180236577802600,8.759203125,0.494149506125623,0.22112274154607378,-0.915594577777463
1684180236587844300,8.76924462890625,0.3983995317467556,0.137345313981887,-0.9499623776255322
1684180236597885600,8.7792861328125,0.3252014518478192,0.003294944695589713,-0.9029113054401285
1684180236607927000,8.789327392578125,0.2604801058280283,-0.09011554713693025,-0.8105956317191858
1684180236617968600,8.799368896484374,0.23260360956198198,-0.20731258388668433,-0.6668871640708
1684180236628009900,8.809410400390625,0.26237618916539723,-0.24303627025743174,-0.46557557594060955
1684180236638051600,8.819451904296875,0.29843610541888865,-0.18079757687546857,-0.28340661512753007
1684180236648092800,8.8294931640625,0.3593156933515736,-0.1569938660387284,-0.0702118873031403
1684180236658134200,8.83953466796875,0.3707911371735128,-0.17159557332120462,0.10254383100428353
1684180236668175800,8.849576171875,0.4166152478217955,-0.2149753570547124,0.30669510367646696
1684180236678217100,8.859617431640626,0.4391955136095803,-0.23215675356400645,0.5063780547268096
1684180236688258600,8.869658935546875,0.45747175811144336,-0.2232074738047556,0.6752727030664682
1684180236698300100,8.879700439453124,0.45702597502914266,-0.23348045357942757,0.872687578142336
1684180236708341400,8.889741943359375,0.48512363431490524,-0.13149070747816527,1.0884590147886217
1684180236718383000,8.899783447265625,0.5337282420078091,-0.010580062904059892,1.202643632843109
1684180236728424400,8.90982470703125,0.5592947601225452,0.026472091602311836,1.3230875731110512
1684180236738465600,8.9198662109375,0.542801618512518,0.013326644873546017,1.3780884743187598
1684180236748507300,8.92990771484375,0.5043260453409607,0.029002189670389474,1.4082370995484617
1684180236758548600,8.939948974609376,0.49077343935807566,-0.010053634752318626,1.4062552451688204
1684180236768590300,8.94999072265625,0.4963563979585325,-0.05115032202167449,1.3007882833664324
1684180236778631600,8.960031982421874,0.5480450987560949,-0.13017654412467528,1.192831993013257
1684180236788672900,8.9700732421875,0.6189085840718704,-0.1085805892995971,1.0968044995580382
1684180236798714600,8.980114990234375,0.7361493706331634,-0.1132421492726055,0.9338418244394274
1684180236808755900,8.99015625,0.7957956790543378,-0.1680984497100254,0.7999711036426296
1684180236818797600,9.000197998046875,0.8213167785029574,-0.2158117295839199,0.6954789162016088
1684180236828838800,9.0102392578125,0.8219665885483028,-0.29462432851188963,0.6083688735893953
1684180236838880200,9.020280517578126,0.795131683297781,-0.3590145110293556,0.6146866082635284
1684180236848921800,9.030322265625,0.7499968409249361,-0.3899354934640825,0.6187528372874408
1684180236858963100,9.040363525390624,0.6865409613629035,-0.4590139388905786,0.6249258518201841
1684180236869004600,9.050405029296876,0.5647939442123392,-0.3870372772364953,0.5974454879710693
1684180236879046100,9.060446533203123,0.4547651408704727,-0.26983165746018445,0.51238572596912
1684180236889087400,9.07048779296875,0.35452228792237517,-0.10268592829497045,0.46527349953661673
1684180236899129000,9.080529296875,0.254093795905072,0.023386001484398653,0.3514816761271239
1684180236909170400,9.09057080078125,0.12691822657743976,0.06528282162475686,0.23652100559285563
1684180236919212000,9.1006123046875,0.00244128705518798,0.023183822684209945,0.22803211211030808
1684180236929253300,9.11065380859375,-0.1484474241212323,-0.00487422939530604,0.2784667015513895
1684180236939294600,9.120695068359376,-0.274806380433528,-0.13602256777665908,0.3977116346377795
1684180236949336200,9.130736572265626,-0.33793407683855514,-0.23146533969852723,0.5807294846043793
1684180236959377600,9.140778076171877,-0.3061134814960143,-0.32451152800629934,0.8215060233665056
1684180236969418900,9.1508193359375,-0.1624196768750943,-0.3793182373447953,1.042927861360659
1684180236979460600,9.16086083984375,0.0229584463318505,-0.38410377512895233,1.2425146103805207
1684180236989501900,9.17090234375,0.20143578950049032,-0.43932151783228196,1.4178646803765427
1684180236999543500,9.18094384765625,0.3708364368302679,-0.48978996281214054,1.5685596464355989
1684180237009584800,9.190985107421875,0.5295985937541214,-0.5114965437870796,1.6966760158550465
1684180237019626400,9.20102685546875,0.6260699628584118,-0.5377378463700556,1.7802484035787842
1684180237029667800,9.211068115234376,0.7142324446483596,-0.6255779266330425,1.840266466201608
1684180237039709100,9.221109619140623,0.7077969311978106,-0.7030477525232577,1.9003139732888223
1684180237049750600,9.231151123046876,0.6986149548776104,-0.733984947150668,1.8803689480597467
1684180237059792000,9.2411923828125,0.6429832578108625,-0.6773185731253133,1.795198321340006
1684180237069833600,9.251234130859377,0.5521402359768869,-0.6209640503252702,1.59234571465226
1684180237079875000,9.261275390625,0.498947978153937,-0.5292911527870807,1.2225528955101987
1684180237089916300,9.271316650390624,0.45528811224667326,-0.35065078737575467,0.8156354426271603
1684180237099957900,9.2813583984375,0.4281761945704511,-0.08845996846245341,0.44392251963571516
1684180237109999300,9.291399658203124,0.4004645048422738,0.16343402867150916,0.15220594396494325
1684180237120040900,9.301441162109375,0.37244883194751244,0.38633537306339494,-0.09938216199492621
1684180237130082200,9.311482666015625,0.3641092776737061,0.6642560958674802,-0.33868002899574984
1684180237140123600,9.32152392578125,0.36672627936392016,0.9112710952550311,-0.5665962695866189
1684180237150165200,9.331565673828123,0.3712223469952531,1.1559171676923994,-0.8565840720637251
1684180237160206600,9.34160693359375,0.3936102986476986,1.3834667205296,-1.1782727242751032
1684180237170248100,9.3516484375,0.40234741559747095,1.5028285981382925,-1.5085473059222898
1684180237180289500,9.36168994140625,0.42145341651862617,1.592825889554233,-1.815346240911706
1684180237190330800,9.371731201171874,0.39681908475889366,1.6005420686050094,-2.0588178634517553
1684180237200372400,9.381772705078124,0.3863894642414815,1.556797027597628,-2.2398226260898637
1684180237210413700,9.391814208984377,0.3922657669042982,1.447219848654467,-2.3505969047040876
1684180237220455300,9.401855712890624,0.37002041948474496,1.2602357865180693,-2.3202252388906346
1684180237230496600,9.41189697265625,0.32999294993968975,1.010609626724147,-2.1210556031333723
1684180237240538000,9.4219384765625,0.2681344150165232,0.7078313826891036,-1.9624047278517007
1684180237250579600,9.43197998046875,0.2215131522417868,0.29699325565675705,-1.7168653010501007
1684180237260621000,9.442021484375,0.13044294712844637,-0.18806171431248794,-1.3924090863743446
1684180237270662600,9.45206298828125,0.0011301038901546082,-0.5297842027001086,-1.0542292594308058
1684180237280703900,9.462104248046876,-0.15347486733171284,-0.8378381728968868,-0.5423908232997494
1684180237290745300,9.472145751953123,-0.3538371323746604,-1.0898780822881042,-0.14297246933174593
1684180237300786900,9.482187255859374,-0.5750751496234235,-1.2806901932061037,0.20403695104696604
1684180237310828200,9.492228515625,-0.851696908508293,-1.4128170014066759,0.4078342915019217
1684180237320869600,9.50227001953125,-1.1172317267515872,-1.3888540269279033,0.5509586334775102
1684180237330911200,9.5123115234375,-1.350090146105075,-1.2621078490132907,0.6869169474868257
1684180237340952600,9.522352783203123,-1.4930620193359183,-1.042436599761658,0.7459459305194841
1684180237350994100,9.53239453125,-1.4688496590488496,-0.8636760712095499,0.6985447406375183
1684180237361035400,9.542435791015626,-1.3447493314407064,-0.6899948120108219,0.43506860725287355
1684180237371077000,9.5524775390625,-1.1460797787636539,-0.5095262527841865,0.12578439722750165
1684180237381118400,9.562518798828124,-0.9099590778794482,-0.2962141036406746,-0.2501025199312134
1684180237391159600,9.57256005859375,-0.6731477974819426,-0.0791130065427419,-0.6174132823625916
1684180237401201300,9.582601806640625,-0.415223181279729,0.12963104247974744,-0.9348959922860751
1684180237411242600,9.59264306640625,-0.19268178938804736,0.2798175811833685,-1.2069649696621794
1684180237421284300,9.6026845703125,-0.017024993797723466,0.3812475204110555,-1.4215824603109428
1684180237431325600,9.61272607421875,0.11920511733581281,0.47237682353259863,-1.554529190186027
1684180237441367000,9.622767333984376,0.1664745807737531,0.5605640412487405,-1.6605513096402569
1684180237451408600,9.63280908203125,0.14765632152310362,0.6148557662473841,-1.5982427596380873
1684180237461449900,9.642850341796876,0.026694774633532994,0.6521530151664192,-1.506358385074818
1684180237471491600,9.652891845703126,-0.10711216924112658,0.5864925383887067,-1.3681895731185372
1684180237481532800,9.662933349609377,-0.2544242145105399,0.4920492171678264,-1.186598539244591
1684180237491574200,9.672974609375,-0.3393776416359706,0.4309072494181628,-0.9695775508218081
1684180237501615800,9.68301611328125,-0.40369760990576303,0.4005470274884946,-0.7490463257019728
1684180237511657100,9.6930576171875,-0.37017345428500376,0.31485557559754435,-0.544557809873037
1684180237521698700,9.70309912109375,-0.27013051528328474,0.248033523473125,-0.38741421711601604
1684180237531740100,9.713140380859375,-0.11163926130001016,0.22872829439176096,-0.34891271593227935
1684180237541781400,9.723181884765625,0.05639564992095034,0.249655723422996,-0.3826971053033747
1684180237551823000,9.733223388671876,0.21623396863166186,0.2056856155805464,-0.46411967285422817
1684180237561864400,9.7432646484375,0.3285248280392005,0.10182952876681582,-0.597048044233942
1684180237571906000,9.753306396484374,0.44506406789347885,0.09584331516799315,-0.7135484218767405
1684180237581947300,9.76334765625,0.5834316016498752,0.03732109075841163,-0.7702097892739413
1684180237591988900,9.773389404296877,0.7484321595878953,0.010546684265986745,-0.6881675720531523
1684180237602030300,9.7834306640625,0.9089275597410952,0.06127548229739569,-0.6173200608176634
1684180237612071600,9.793471923828124,1.027570843808909,0.1801557541796877,-0.4474122524737865
1684180237622113200,9.803513671875,1.0872372389846614,0.3220539093372445,-0.26301383966034625
1684180237632154600,9.813554931640626,1.0723265408092229,0.4227437972119253,0.060472250125520086
1684180237642196100,9.823596435546875,0.9879008530332472,0.5178880690087814,0.2921879292881423
1684180237652237600,9.833637939453125,0.8704096079196783,0.5832920073793681,0.5646595956352615
1684180237662278800,9.84367919921875,0.7390531301418007,0.6068296433498435,0.7785785197995538
1684180237672320400,9.853720947265623,0.6687015293554676,0.528686523482815,0.788487553513847
1684180237682361800,9.86376220703125,0.6849510669790152,0.367932319503947,0.6371053455798458
1684180237692403400,9.8738037109375,0.7272737026300322,0.12905406953477022,0.4252655505484775
1684180237702444600,9.88384521484375,0.7518588305028995,-0.018576621987664108,0.25084471706306
1684180237712486100,9.893886474609374,0.6719752550113164,-0.1254606246510808,0.10296535501383845
1684180237722527600,9.903927978515624,0.5736583472364281,-0.1963205337713337,-0.030938386979842195
1684180237732569000,9.913969482421876,0.44507837296286623,-0.27151870731155003,-0.04017066958775001
1684180237742610600,9.924010986328126,0.17511808862008346,-0.3726701734543978,-0.014010667868964391
1684180237752652000,9.93405224609375,-0.28642582884676926,-0.462255477756718,0.003152847407203557
1684180237762693600,9.944093994140625,-0.7999982834041512,-0.7060146331056524,0.03145098678635507
1684180237772734900,9.95413525390625,-1.1545166970136924,-0.8725566864973371,0.29512524591810674
1684180237782776200,9.9641767578125,-1.3155298232895145,-0.9907503128206965,0.6994123460029029
1684180237792817800,9.97421826171875,-1.3936501741655025,-0.9503917692436474,1.185145735736148
1684180237802859200,9.984259521484375,-1.3068007230456897,-0.7677192688035593,1.6616046428551614
1684180237812900800,9.99430126953125,-1.1807056664424125,-0.5425729753120403,2.012147903353192
1684180237822942100,10.004342529296874,-1.0396536588772072,-0.3439292906116526,2.02347326273405
1684180237832983700,10.014384033203124,-0.9387378692842224,-0.24316883087302943,1.8845641612992576
1684180237843025100,10.024425537109376,-0.9448926447851019,-0.1228075027856785,1.7910010814187103
1684180237853066400,10.034466796875,-1.1240975856354243,-0.042798996035508526,1.508905887514258
1684180237863108000,10.04450830078125,-1.3910984992914217,-0.0013713836930353785,1.1907920836985837
1684180237873149400,10.0545498046875,-1.532497882889908,-0.027667999329874095,0.9289679525932707
1684180237883191000,10.06459130859375,-1.5634918212468836,-0.08598899833496233,0.7103198767157579
1684180237893232300,10.0746328125,-1.4458773137065566,-0.22158622743408996,0.545716524269761
1684180237903273900,10.08467431640625,-1.1952462194922047,-0.350290298509656,0.41237974161865726
1684180237913315200,10.094715576171875,-0.893589496743804,-0.39050197605227494,0.26813983902707217
1684180237923356600,10.104757080078125,-0.5824267863386327,-0.35657405849726653,0.2253222465467714
1684180237933398200,10.114798583984374,-0.28732299792418764,-0.2630395888710517,0.26886272427297614
1684180237943439600,10.12483984375,-0.09458398821890154,-0.18923950178878127,0.4196977615318643
1684180237953481100,10.134881591796876,-0.009481668586062596,-0.06613636007752012,0.5672397613994032
1684180237963522600,10.1449228515625,-0.01704096779790491,0.03680038457563601,0.6374034881151471
1684180237973563800,10.154964111328123,-0.11519670492991456,0.17451953887295188,0.6094169616296371
1684180237983605400,10.165005859375,-0.2848083971780177,0.2893857955118693,0.5273847579412766
1684180237993646800,10.175047119140626,-0.4968702792430139,0.35008335117337486,0.41380357730500283
1684180238003688400,10.1850888671875,-0.6740076541173071,0.40659904473720965,0.309463500931594
1684180238013729600,10.195130126953124,-0.7347307204572067,0.4326124191139556,0.2164232729935275
1684180238023771300,10.205171630859375,-0.622644185941426,0.4450683594023754,0.11059117325933368
1684180238033812600,10.215213134765625,-0.421380519898208,0.37515926373625796,0.10201311129608374
1684180238043854000,10.22525439453125,-0.21662282936831467,0.31188487999297815,0.17138433447415102
1684180238053895600,10.2352958984375,-0.08331155769186627,0.2246246338226011,0.2962567804661579
1684180238063936900,10.24533740234375,0.04568195344477474,0.1854267121599633,0.49200415625233584
1684180238073978600,10.25537890625,0.1280815601950788,0.1896333694005228,0.6831033229764988
1684180238084019900,10.265420166015623,0.18438005445311595,0.21320056913502586,0.8926105499840311
1684180238094061200,10.275461669921874,0.2374954222774758,0.16761970514670566,1.0194413663849768
1684180238104102800,10.285503173828126,0.3619408607772404,0.10329532641969846,1.1707494259608253
1684180238114144200,10.295544677734377,0.5069659946673413,0.022747039749372828,1.3084192275683817
1684180238124185800,10.305586181640624,0.6400872469389615,-0.0068483352266118964,1.4567282200649347
1684180238134227100,10.31562744140625,0.7787806988244497,0.01950263986069231,1.5252388716728318
1684180238144268500,10.3256689453125,0.9283480642662097,0.044674873353791715,1.5170063970858798
1684180238154310100,10.33571044921875,1.010863781001657,0.05496215821866789,1.574909925465917
1684180238164351400,10.345751708984375,1.0142356158292052,0.06317234055467802,1.6180191040168956
1684180238174393000,10.35579345703125,0.8845773937222827,0.06739807138827002,1.4941425323764976
1684180238184434400,10.365834716796876,0.6952612399199303,0.08198070527065227,1.3173923492403656
1684180238194476000,10.37587646484375,0.4766027928658588,0.05163288126163759,1.1259918212153557
1684180238204517300,10.385917724609374,0.2298841476784491,0.08821010594531846,0.8750901223006984
1684180238214558900,10.395959228515624,0.023049354637826407,0.07383823410596382,0.6280286313143717
1684180238224600200,10.406000732421877,-0.1387567520211514,0.1178789139979887,0.4290230273287895
1684180238234641600,10.4160419921875,-0.2149546145661475,0.1504631041752343,0.30769729608677915
1684180238244683200,10.42608349609375,-0.24383759485171125,0.13539314282741113,0.21220827115042212
1684180238254724600,10.436125,-0.2278543710838831,0.1585073471536561,0.164548873848107
1684180238264766100,10.44616650390625,-0.1979045868130957,0.2221508027030292,0.18819499009312787
1684180238274807500,10.456207763671877,-0.1625523566232478,0.27840709685119525,0.2252571584493345
1684180238284849100,10.46624951171875,-0.12807965274533673,0.2820339203436181,0.27980327607660954
1684180238294890400,10.476290771484376,-0.09641075120152026,0.24046039576422018,0.37758541096715836
1684180238304931800,10.486332275390623,-0.039099097288853,0.20664596556069184,0.4391462802132948
1684180238314973400,10.496373779296874,-0.011835694298479789,0.116479873534766,0.4736030101662254
1684180238325014600,10.5064150390625,0.032316684693377534,0.07815170280239646,0.5397872925293341
1684180238335056300,10.516456787109377,0.03266549116467501,0.027587890767900223,0.5937654971800447
1684180238345097600,10.526498046875,0.0010666847755065904,0.033930778620236864,0.561912059863758
1684180238355139000,10.536539306640623,-0.038476943841051096,0.05121898661478479,0.5242087842615442
1684180238365180600,10.5465810546875,-0.052273631217188025,0.06749916087832,0.5545022486598112
1684180238375221900,10.556622314453126,-0.042828440708684204,0.08785057067651048,0.525239467582565
1684180238385263600,10.566663818359377,0.01735115049168376,0.21921348570704566,0.41188001628875426
1684180238395304900,10.576705322265624,0.03660976875648223,0.20553302770554333,0.41600632662473097
1684180238405346600,10.586746826171876,-0.007933974197432974,0.19307041170571104,0.4479017258007108
1684180238415387800,10.596788330078123,-0.07663798337344706,0.25073051450324346,0.4384944438955257
1684180238425429400,10.606829833984374,-0.09011852731680237,0.2748870848632484,0.3179147242555357
1684180238435470800,10.61687109375,-0.1414089203031787,0.24108886725558623,0.27429223072407044
1684180238445512100,10.62691259765625,-0.1400206088036829,0.22032546997054875,0.16401576993974068
1684180238455553600,10.6369541015625,-0.1764641998944847,-0.03298568720443012,0.23684000972127528
1684180238465595100,10.646995361328123,-0.20952367775938957,-0.16862010965872715,0.22690343846459196
1684180238475636600,10.657037109375,-0.265873611097989,-0.09849166869092393,0.02700471872133318
1684180238485678000,10.667078369140626,-0.3964077234591772,0.07333564739723898,-0.40995502486218155
1684180238495719300,10.67711962890625,-0.5921756027808877,0.21468257910443433,-0.8188192843475892
1684180238505760900,10.687161376953124,-0.688244760051311,0.2633457185149732,-1.196676731197314
1684180238515802300,10.69720263671875,-0.6835525632727105,0.2334861753792428,-1.4424390792219333
1684180238525843900,10.707244384765623,-0.553478121736182,0.14442634572630253,-1.499309062772246
1684180238535885200,10.71728564453125,-0.3415774106562726,-0.022430419879605423,-1.3279995918856862
1684180238545926800,10.7273271484375,-0.15735161309389872,-0.02977085113254312,-1.1861546039676696
1684180238555968200,10.73736865234375,0.06222796442163044,-0.046720504856785604,-1.006539583276735
1684180238566009600,10.747409912109376,0.21962934734513878,-0.13242721573627864,-0.7861986159183538
1684180238576051100,10.757451416015623,0.3311902880078452,-0.2077350615686844,-0.604951858510579
1684180238586092500,10.767492919921876,0.4490452705446102,-0.26788616193403,-0.36751556402750934
1684180238596134100,10.777534423828126,0.5002214907940463,-0.28689670555814223,-0.2095351218603464
1684180238606175400,10.787575927734377,0.4845162630014289,-0.2940769193665056,-0.2914745808025744
1684180238616217000,10.797617431640624,0.2827555238907105,-0.5615072248746137,-0.43626260748765294
1684180238626258400,10.80765869140625,-0.043233394789004016,-0.8404493333189578,-0.7907180785913485
1684180238636300000,10.817700439453125,-0.42380902161779155,-1.0579061509562444,-1.121849775263629
1684180238646341300,10.82774169921875,-0.7906459569825075,-1.3246240616006622,-1.246126651840208
1684180238656382600,10.837782958984375,-1.1847862003448126,-1.5330228803977932,-1.0067577363130316
1684180238666424200,10.84782470703125,-1.6178345679905706,-1.493696212714389,-0.6511590480383949
1684180238676465600,10.857865966796876,-1.9490271805087942,-1.220538139312004,-0.23518919948081596
1684180238686507200,10.867907470703123,-2.0863075257507653,-0.8662595748478765,0.057901859213491315
1684180238696548600,10.877948974609374,-1.9603261947890465,-0.49518966667556863,0.22793626785351354
1684180238706589900,10.887990234375,-1.6272351742471798,-0.1311845779802161,0.28487110133261023
1684180238716631600,10.898031982421877,-1.1599820852072296,0.13253784174816083,0.2411937713936117
1684180238726672800,10.9080732421875,-0.6803358794497842,0.3389453887951051,0.18373346323828432
1684180238736714400,10.91811474609375,-0.2329869717706857,0.3851203917782858,0.11584258071336183
1684180238746755800,10.92815625,0.11627193535091,0.33091354375404186,0.10030269610423355
1684180238756797400,10.93819775390625,0.33801698688889115,0.23848629013329958,0.14946317664964573
1684180238766838600,10.948239013671875,0.4848089517193255,0.15092849727569607,0.2249758244635731
1684180238776880300,10.95828076171875,0.508032440974901,0.10893440259464583,0.2858908176537866
1684180238786921600,10.968322021484376,0.43188393116919765,0.0911512373736115,0.3959243298074356
1684180238796963000,10.97836328125,0.30434429636965044,0.02374553670664479,0.4561660289846076
1684180238807004600,10.988405029296874,0.12342308456821813,0.004698753526932992,0.5217452050153083
1684180238817045900,10.9984462890625,-0.09721091394327117,-0.04989814764414613,0.49770116789942015
1684180238827087600,11.008488037109377,-0.26855257147307326,-0.006507873516198263,0.425775289534096
1684180238837128900,11.018529296875,-0.3915135859276214,0.007750511111016551,0.3382411001693329
1684180238847170600,11.02857080078125,-0.408051520495732,0.011848449715341224,0.2121446132187998
1684180238857211800,11.0386123046875,-0.26695057744689127,0.012900352572676162,0.09814238544054206
1684180238867253200,11.048653564453126,-0.08464284254736358,-0.010587692370438752,-0.006104946190693355
1684180238877294800,11.058695068359375,0.0795398726627623,0.017872810379577872,-0.038651227774597514
1684180238887336100,11.068736572265625,0.09418464461812005,0.01945972443167866,-0.043167591094969926
1684180238897377600,11.078778076171876,0.01476092638343041,-0.01278495793820504,-0.0011355875577924452
1684180238907419100,11.0888193359375,-0.035612739731030706,-0.04765605915685041,0.058406829691176054
1684180238917460600,11.098861083984374,-0.014878749904421364,-0.16869068152081268,0.09719061845496259
1684180238927502000,11.10890234375,0.08126705136916458,-0.21066188806829092,0.12655663506607498
1684180238937543600,11.118944091796877,0.3001426458521309,-0.15243244180711704,0.06842541712135593
1684180238947584900,11.1289853515625,0.5286362767279816,0.0031375883960904297,0.0169367791213802
1684180238957626300,11.139026611328124,0.6729964018221964,0.22227287289318104,-0.0037922858370761296
1684180238967667900,11.149068359375,0.7719376087560679,0.330319404652305,-0.06027913096496436
1684180238977709200,11.159109619140626,0.8001307248379648,0.4111251830317021,-0.009213686012535022
1684180238987750800,11.169151123046875,0.772129118454749,0.44108009346571275,0.08857631674240113
1684180238997792200,11.179192626953125,0.638493537942293,0.40850353244054766,0.21570086477970662
1684180239007833800,11.189234130859376,0.4791018962610643,0.3565073013602136,0.28863406175435913
1684180239017875100,11.199275634765623,0.28294920920304206,0.2539911271062208,0.39874458314082317
1684180239027916600,11.209317138671874,0.1289545744523662,0.1680097578279134,0.5482516288281153
1684180239037958100,11.2193583984375,-0.0002529770214863412,0.09150505075535485,0.6650584937765149
1684180239047999400,11.22939990234375,-0.07270433017058416,0.007927894707535988,0.8322854041750357
1684180239058041000,11.23944140625,-0.13442090144461577,-0.020459175136957684,0.9322479963419535
1684180239068082400,11.249482666015624,-0.16509398825026092,0.013381958184721763,1.0438146590079576
1684180239078124000,11.2595244140625,-0.16838121414001989,-0.03869628910383654,1.1236265897086781
1684180239088165300,11.269565673828126,-0.1649745703007475,-0.1765499116382914,1.1434525250912386
1684180239098206600,11.27960693359375,-0.09021663656415739,-0.38064289109158167,1.1148954631672952
1684180239108248200,11.289648681640625,0.04302510618297295,-0.450192451635046,1.0381923912855164
1684180239118289600,11.29968994140625,0.21439647660680303,-0.43133640277761714,0.9483044147552468
1684180239128331200,11.309731689453123,0.3753052354254145,-0.3817701339052217,1.0341384410187133
1684180239138372600,11.31977294921875,0.5061247349816392,-0.3323354720166812,1.1984468698644952
1684180239148414100,11.329814453125,0.6201290488404564,-0.27095699309260785,1.3067362308231698
1684180239158455500,11.33985595703125,0.698099374828853,-0.2693042755445604,1.371080517720818
1684180239168497100,11.3498974609375,0.7493225335467001,-0.27702713021494646,1.4916903972591915
1684180239178538400,11.359938720703123,0.7658630012416359,-0.29872035982300205,1.6510846614926815
1684180239188579800,11.369980224609376,0.732767820398063,-0.3030939101615447,1.7599985599774512
1684180239198621400,11.380021728515626,0.6689959168546391,-0.2542839051022534,1.8444478511918685
1684180239208662600,11.39006298828125,0.5823443531613995,-0.2119579314245208,1.853730082453104
1684180239218704300,11.400104736328124,0.44520762566833877,-0.22392082217023856,1.8240720034386546
1684180239228745600,11.41014599609375,0.30739092840310867,-0.3115186691152007,1.727004766401855
1684180239238787200,11.420187744140623,0.1519382299677204,-0.4482688904126088,1.5436799524639
1684180239248828600,11.43022900390625,0.032315671538375876,-0.4407110213834683,1.1792516708577474
1684180239258870200,11.4402705078125,-0.04759487509550441,-0.28709697728522,0.7473155259388111
1684180239268911600,11.45031201171875,-0.09283030036724514,-0.11006259911751369,0.3859322070652668
1684180239278953100,11.460353515625,-0.11652041976695984,0.01368618025150074,0.19152545919229458
1684180239288994600,11.470394775390623,-0.08133229624230476,0.06742477419863628,0.11673831950032018
1684180239299035800,11.480436279296876,0.040597438805525854,0.01539993295423222,0.06613993628478884
1684180239309077400,11.490477783203126,0.15560433273532984,-0.006011962837409294,0.10142970086400245
1684180239319118800,11.500519287109377,0.22277256848327714,-0.03028011321162994,0.11916422836537519
1684180239329160400,11.510560791015624,0.269832551387987,0.009491920566476408,0.13584971425754075
1684180239339201600,11.52060205078125,0.2143450675860139,0.017699241813354562,0.17285013211373348
1684180239349243300,11.530643798828123,0.17536866672020668,-0.027027130044118004,0.18722295745419626
1684180239359284600,11.54068505859375,0.1582732796013314,-0.06728458397289513,0.23901486402320926
1684180239369326300,11.5507265625,0.17493584760609307,-0.12457561477263222,0.32096982019323134
1684180239379367600,11.56076806640625,0.16541263448928398,-0.14857196813499104,0.49216353904366567
1684180239389408900,11.570809326171876,0.15406921497553802,-0.1917943954533297,0.5705662965068676
1684180239399450600,11.580850830078123,0.11539861553183144,-0.2326555251624214,0.6256259679991354
1684180239409491900,11.590892333984376,0.1356700659224353,-0.2531261445250321,0.6595885754666101
1684180239419533600,11.600933837890626,0.1417334080820744,-0.2756862640248879,0.752177476888008
1684180239429574800,11.610975341796877,0.10521665232562107,-0.2602148056499638,0.8173389434963043
1684180239439616400,11.621016845703124,0.07467797388764863,-0.20015811904088185,0.8599054812865908
1684180239449657800,11.63105810546875,0.09301543225380103,-0.14558219925703947,0.804593682418901
1684180239459699400,11.641099853515623,0.11203482732829373,-0.11528587342872358,0.7214605808256601
1684180239469740600,11.65114111328125,0.1987140179053525,-0.08777904521831686,0.6087776422896177
1684180239479782100,11.661182373046875,0.24225127701840365,-0.07020092011105664,0.5472521781967208
1684180239489823600,11.67122412109375,0.24566870910414493,-0.08358001709908498,0.47011637691615
1684180239499865000,11.681265380859376,0.2014462353466912,-0.03784942626950659,0.3869287969253708
1684180239509906600,11.69130712890625,0.18673008664889715,-0.025774955716287965,0.31673169141256136
1684180239519948000,11.701348388671876,0.1915996075176069,-0.053898811374689486,0.2382731437992551
1684180239529989600,11.711389892578126,0.1910532713707666,-0.06042385096120655,0.16825437544691635
1684180239540030900,11.721431396484377,0.15914559361596503,-0.010397911091672185,0.09706115712492847
1684180239550072600,11.731472900390624,0.12078917028557311,-0.0011987686341148988,0.06694555277726502
1684180239560113800,11.74151416015625,0.11255985489916698,-0.025051116880927225,0.032655954296205325
1684180239570155200,11.7515556640625,0.11517369728684031,-0.04849052427440578,0.0015428066121880581
1684180239580196800,11.76159716796875,0.16963678614821992,-0.06212425249577216,0.006275653752828062
1684180239590238100,11.771638427734375,0.16044104097167733,-0.03326034549882566,0.02036619192087014
1684180239600279700,11.78168017578125,0.12811750160958435,-0.045033455013320345,-0.0011394022863279712
1684180239610321100,11.791721435546876,0.043339252465248196,-0.03553199775160232,-0.022199630691627514
1684180239620362600,11.80176318359375,-0.039182901312802824,-0.04028797163682368,-0.01928138735764251
1684180239630404000,11.811804443359376,-0.07782900340660374,-0.059004783480702,-0.02550721169307885
1684180239640445600,11.821845947265626,-0.054446518517594765,-0.05610942854687757,-0.000795602725546441
1684180239650487000,11.831887451171877,0.005733788114337956,-0.03668785080756841,-0.0328638552102049
1684180239660528300,11.8419287109375,0.07994502783360753,-0.0410957336683546,-0.04074406625493261
1684180239670569900,11.85197021484375,0.10316699736923918,0.020475387506012938,-0.06972694403160293
1684180239680611200,11.86201171875,0.09832262997309041,0.06447505938257507,-0.08433628079505712
1684180239690652800,11.87205322265625,0.036960959562166766,0.04414367666242032,-0.06632399569305017
1684180239700694200,11.882094482421875,-0.048331975858254855,-0.018189430071003158,-0.17395400997772695
1684180239710735800,11.89213623046875,-0.11956506961874219,-0.03939151778657693,-0.1997954845641198
1684180239720777100,11.902177490234376,-0.14490091817766992,0.019946098309348414,-0.20863223067758754
1684180239730818700,11.91221923828125,-0.06401085852775198,0.08073902147244524,-0.23823761950713873
1684180239740860100,11.922260498046874,0.009538590990092995,0.11928367609883608,-0.28096151361158567
1684180239750901400,11.9323017578125,0.0608405470588048,0.08881759643172935,-0.33195066459677697
1684180239760943000,11.942343505859377,0.07357883466819325,0.0987386702215944,-0.28737020508377337
1684180239770984400,11.952384765625,0.06665819883439475,0.03538608546952182,-0.18668341640857974
1684180239781026000,11.96242626953125,0.04446685317907728,0.02237796797705973,-0.13219046599422565
1684180239791067300,11.9724677734375,-0.002502083825279811,-0.011732101461631905,-0.059719085768797656
1684180239801108900,11.98250927734375,-0.07502013450956783,-0.04763507843859471,0.02791309354213538
1684180239811150300,11.992550537109375,-0.12138193857678357,-0.06631660460588049,0.08332228673968482
1684180239821191900,12.00259228515625,-0.07766121636230378,-0.03975868216182721,0.11647367473757597
1684180239831233200,12.012633544921876,0.002317547784195187,-0.006426811128040256,0.1607127190076451
1684180239841274800,12.02267529296875,0.07685399063368559,-0.03236579908527052,0.20147871957313243
1684180239851316100,12.032716552734374,0.11700010300344633,-0.05306720736498229,0.21758055690393588
1684180239861357600,12.0427578125,0.13224428894816653,-0.04981040951969725,0.19996237749573437
1684180239871399100,12.052799560546877,0.11797833443013721,-0.034769058239246864,0.21503210065822312
1684180239881440400,12.0628408203125,0.0863194464450858,-0.015220642181281944,0.20340919501239674
1684180239891482000,12.07288232421875,0.03367620709695113,-0.005314826893618446,0.19147109995157044
1684180239901523400,12.082923828125,-0.010310172984220071,-0.0025329589598819193,0.16775250433262434
1684180239911565000,12.09296533203125,-0.026708543147206745,-0.025613784875220657,0.14439463618714585
1684180239921606300,12.1030068359375,-0.03290051214115604,-0.010571479787872035,0.11186742779974583
1684180239931647900,12.11304833984375,-0.010746896141833084,-0.02405738823379519,0.07999491694500133
1684180239941689300,12.123089599609376,-0.012350797745205346,-0.002041816724467016,0.0488431454701344
1684180239951730900,12.13313134765625,0.01714801800231912,0.06896495830289363,0.037510871899890115
1684180239961772200,12.143172607421874,0.05113732806345645,0.11513996109787744,0.02923822400278096
1684180239971813800,12.153214111328126,0.07946872694386009,0.1179885863790832,0.01466441150665337
1684180239981855200,12.163255615234377,0.08294677738203884,0.11349773404304168,0.03632879263227761
1684180239991896600,12.173296875,0.06461030249774778,0.08068561546294324,0.09101796156573098
1684180240001938100,12.18333837890625,0.06508642423032325,0.012949943712719961,0.13357019425466227
1684180240011979400,12.1933798828125,0.0509878396217545,-0.030240058931392488,0.15224504465687747
1684180240022021000,12.20342138671875,0.04581511015235781,-0.02807807912652554,0.16842341429845487
1684180240032062400,12.213462890625,0.035396039472372055,-0.004832267807704342,0.1491086483190815
1684180240042104000,12.22350439453125,0.015367507981642253,-0.02672863021170685,0.14187049860371004
1684180240052145300,12.233545654296876,-0.014151215363020674,-0.05768203730925264,0.17231535898645658
1684180240062186900,12.24358740234375,-0.05062085386111299,-0.07393074026684317,0.15478587154674647
1684180240072228300,12.253628662109374,-0.06814503669126414,-0.12044906616062287,0.14889550205794289
1684180240082269600,12.263669921875,-0.11859357348558194,-0.09545612336299461,0.14491891848548027
1684180240092311200,12.273711669921877,-0.18190252778167584,-0.08018016820028376,0.1241745947430971
1684180240102352600,12.2837529296875,-0.20508217820388208,-0.046086311408666154,0.07735157014978217
1684180240112394200,12.293794677734375,-0.2096577884095244,-0.04534816749015091,0.04528331745712524
1684180240122435600,12.3038359375,-0.17747247217717005,-0.058601379275176634,0.018300056599437446
1684180240132477100,12.31387744140625,-0.1448463797727527,-0.047991752622146,0.001068830487139809
1684180240142518400,12.3239189453125,-0.0886964201928473,-0.03512001035544285,0.005129575693468058
1684180240152560000,12.33396044921875,-0.042843937883135265,0.03166675562545319,-0.014336824382487004
1684180240162601400,12.344001708984376,0.004534959774455686,0.04769611354106567,-0.0020492076265993487
1684180240172643000,12.35404345703125,0.029767930647190438,0.06566905972245501,0.010571002911321391
1684180240182684300,12.364084716796874,0.07046091547799388,0.043184280355752495,0.04218935972312989
1684180240192725900,12.374126220703126,0.07443684333818254,0.0491991042879528,0.10418128973165147
1684180240202767300,12.384167724609377,0.044707953799654226,0.015034675567090231,0.17693972584052992
1684180240212808600,12.394208984375,0.05959856501738199,-0.02328777322410122,0.22247338283552182
1684180240222850200,12.404250732421875,0.0427898168791322,-0.05161094674199573,0.2201404572361155
1684180240232891600,12.4142919921875,0.0136568548117513,-0.06541442862668992,0.25556778913207157
1684180240242933200,12.42433349609375,-0.0015279650346645092,-0.0907993317027715,0.29271531097639775
1684180240252974600,12.434375,-0.0331753492328837,-0.045127868689388416,0.2726273537699038
1684180240263016100,12.44441650390625,-0.06400543451814947,-0.0284519196857426,0.33060133449320056
1684180240273057500,12.454457763671876,-0.06090259544570289,-0.051971435576537287,0.31669604764753184
1684180240283099100,12.46449951171875,-0.08581107852003826,-0.03971767412330773,0.3028318882746782
1684180240293140400,12.474540771484374,-0.081928551153498,-0.08648300171663204,0.2843619585485225
1684180240303181700,12.48458203125,-0.08020567890207884,-0.15592479711484059,0.25415492055245453
1684180240313223300,12.494623779296877,-0.07581216090178979,-0.10874843596007576,0.24767065051083814
1684180240323264900,12.504665283203124,-0.06883704672701724,-0.08814811702250767,0.2103323936104698
1684180240333306300,12.514706787109375,-0.06368982786486954,-0.0842094422538713,0.21082973476313946
