time,seconds_elapsed,z,y,x
1684006622844162200,0.043562744140625,-1.3174743063646555e-10,9.52373942852712e-11,-4.394688875117975e-11
1684006622854203300,0.053603759765625,-0.05507564553889821,3.385535687048471e-05,0.04054236413358786
1684006622864244100,0.06364453125,0.06060171131611199,-0.007694721270368831,0.05123543734179055
1684006622874285000,0.073685302734375,0.2984795570408022,-0.07115936279865819,0.09186720841574786
1684006622884325800,0.083726318359375,0.7398924828143691,-0.25572443000567857,0.2858328818915952
1684006622894366900,0.093767333984375,0.9985151290252114,-0.378798961706148,0.42021250707494767
1684006622904407700,0.10380810546875,1.2046813964779153,-0.3485698701432768,0.4616308211679281
1684006622914448600,0.113848876953125,0.8264064789306709,-0.4470562936045921,0.5288279057533186
1684006622924489600,0.12389013671875,-0.35983848568431837,-0.6205620765972489,0.41019344335982255
1684006622934530600,0.133930908203125,-1.0039415360747748,-0.5944294931316029,0.17586183544786294
1684006622944571300,0.1439716796875,-1.495913982397462,-0.5579667090747544,0.513588428473686
1684006622954612100,0.154012451171875,-0.9935350417637255,0.10411930087073246,1.4873166084727485
1684006622964653000,0.164053466796875,-0.7453889847312726,0.5685420036227736,1.0404868126366906
1684006622974694100,0.174094482421875,-0.20587778078911753,0.2337565421930997,0.5771002770137124
1684006622984734900,0.18413525390625,-0.11270236968580291,-0.07632923126492669,-0.05392312992752639
1684006622994775700,0.194176025390625,0.4300880431255968,0.007636070240280412,-0.3090839384262378
1684006623004816600,0.204217041015625,1.155116081283974,0.05226659785494513,-0.6052012442770779
1684006623014857600,0.214258056640625,1.3733072282601415,0.018187522900729572,-1.0179491041949824
1684006623024898600,0.224298828125,1.7284874917343183,0.9588251114396732,-1.4501821994576738
1684006623034939300,0.234339599609375,0.8237714768803139,-0.7247371672431342,-0.8243160246344868
1684006623044980100,0.244380615234375,0.5726914405699418,-0.47304630268426245,-1.1425056457360248
1684006623055021200,0.254421630859375,0.27335977568558006,0.1544842719287923,-1.3499102592099128
1684006623065062100,0.26446240234375,0.17210960382018273,-0.7515287398821784,-0.7131552696156523
1684006623075102900,0.27450341796875,0.8035130500938759,0.5953860282825126,-0.7591357230997829
1684006623085143700,0.284544189453125,0.5870232581470474,0.06497192395233836,-0.7249560355745757
1684006623095184800,0.294585205078125,0.3861203194403294,-0.3218550681448955,-1.1252489090278561
1684006623105225600,0.3046259765625,0.18736934669238703,-0.19528055173865777,-2.114795208009237
1684006623115266600,0.3146669921875,0.4407725334411724,-0.7452712058432877,-3.0824449062217782
1684006623125307300,0.324707763671875,1.0225381851182764,-0.386887550390493,-0.5068821906527191
1684006623135348100,0.33474853515625,1.0348253249069665,-0.008773803587242475,-0.9416999816537984
1684006623145389200,0.34478955078125,1.1141233443637208,0.9395203590288377,-3.283046007217862
1684006623155430100,0.35483056640625,1.9780364036760003,-0.6825857162478532,-3.6676845551730066
1684006623165470900,0.364871337890625,1.8657941817022203,-1.6383180617446607,-2.034042358536502
1684006623175512000,0.374912353515625,1.9777212144240164,-1.5033893584374083,-1.4895834921969298
1684006623185552800,0.384953125,0.7720699310606557,-1.261256218063154,-0.9172277450447608
1684006623195593600,0.394994140625,0.05092906945157211,-0.4903907775841738,-0.4198141097555166
1684006623205634600,0.405034912109375,-1.745358943943017,0.08365631117851927,0.29538583751838615
1684006623215675600,0.415075927734375,-3.869286060260016,0.691293239531218,0.9161291122914179
1684006623225716400,0.42511669921875,-5.814670562831046,0.8045494555321939,3.1843290327985385
1684006623235757200,0.43515771484375,-5.368652343837801,2.261121034586886,4.906133651768185
1684006623245798100,0.445198486328125,-4.513327598517442,2.417681217194528,5.823378562879925
1684006623255838900,0.4552392578125,-2.4677257537494364,2.3401832580703865,4.586303710843002
1684006623265880000,0.4652802734375,-0.7070332766529001,1.509682416866805,2.5965003967660643
1684006623275920800,0.4753212890625,-0.19350230684607322,0.15727567665119618,1.5373725891537138
1684006623285961600,0.485362060546875,-0.19383716581868124,-1.0625271797052074,1.9903497697767947
1684006623296002600,0.49540283203125,0.4879261254206716,-0.8500232697230711,2.688444137449845
1684006623306043600,0.50544384765625,2.2519190310878163,-0.3607525825848664,0.6109046934345753
1684006623316084400,0.51548486328125,2.9978728293713384,-0.7250862121195764,-0.8054094314342816
1684006623326125200,0.525525634765625,1.9677633046778462,-0.917278289706444,-0.6007928847042238
1684006623336166100,0.53556640625,1.145228266702575,-0.29091691978874185,-0.5918979644162862
1684006623346207200,0.545607666015625,0.3912137747397199,0.2665560245425249,-0.9177923202642732
1684006623356248000,0.5556484375,-0.11737322806936822,0.2896208764196898,-0.9658575058777978
1684006623366288800,0.565689208984375,-1.4403913021595645,0.8445403576071698,-0.5687503813923652
1684006623376329600,0.57572998046875,-1.0000586510446743,0.8979921342754527,-0.59038543701353
1684006623386370700,0.585771240234375,-0.7217913270078329,0.8784565925742644,-1.3596448899356908
1684006623396411600,0.59581201171875,0.44492298348832604,-0.12462973588327077,-4.256790161111131
1684006623406452400,0.605852783203125,1.8691779374606259,-0.491539716747822,-4.9137883185526325
1684006623416493200,0.6158935546875,2.2107398509249223,-0.5922560691464707,-3.826942443806654
1684006623426534300,0.625934814453125,2.027924060827536,0.35091614727076587,-2.2243385314242645
1684006623436575200,0.6359755859375,1.7269868851428085,1.0708792208706277,-1.3799390792170803
1684006623446616000,0.646016357421875,1.509850382820329,1.4899139404138213,-1.1646718978308674
1684006623456656800,0.65605712890625,1.8181490898997712,1.494001746079656,-1.3359718322436471
1684006623466697900,0.666098388671875,1.0810625554008015,0.9339439869962463,-1.8108167648803928
1684006623476738700,0.67613916015625,0.4179652333364326,0.716598987615484,-2.173826217527206
1684006623486779600,0.686179931640625,0.5788311958096374,0.8655937909561395,-1.4918785095603706
1684006623496820400,0.696220703125,1.5770639180375003,0.9947264194953325,0.005607604970366843
1684006623506861200,0.70626171875,0.5414630174460119,0.731847643812516,-1.6260399818798186
1684006623516902300,0.716302734375,-0.006154775714789872,1.0172570944520187,-1.9624032974764538
1684006623526943200,0.726343505859375,-2.063440799794226,0.8766859770494895,-2.443307876434865
1684006623536984000,0.73638427734375,-3.7856416702550293,0.6883752345601589,-2.6052160262048254
1684006623547024800,0.74642529296875,-3.096471309844154,0.4117822647819829,-2.218378067010618
1684006623557065900,0.75646630859375,-0.8025425673136011,-0.4165902139347689,-1.5617561340778696
1684006623567106700,0.766507080078125,0.5725049375182262,-1.274838924483654,-1.4034862517871252
1684006623577147600,0.7765478515625,1.3026807308117418,-1.8898632525509877,-1.012331962737754
1684006623587188600,0.786589111328125,1.6837525367871649,-2.1549072266158493,-0.4513607024606509
1684006623597229600,0.7966298828125,0.910137772583145,-2.3603963852412537,-0.14668464661004255
1684006623607270300,0.806670654296875,-0.3015348911633984,-2.1349616049419797,0.08056926730162821
1684006623617311200,0.816711669921875,-0.7357869745694164,-1.344559907995275,0.5257177352376433
1684006623627352000,0.82675244140625,-0.7808827758642924,-1.1186125279383365,0.9337053297862974
1684006623637393100,0.83679345703125,-0.7650204895652573,-0.5686228275026918,0.09754562386251887
1684006623647433900,0.846834228515625,-0.7604702115984486,-0.3812904358634201,-0.24201583843348617
1684006623657474700,0.856875244140625,-0.6863806842626331,-1.1768808365320684,0.5163822174013585
1684006623667515600,0.866916015625,0.008873462541517997,-2.008458137529265,1.2265253066953328
1684006623677556600,0.87695703125,0.4546319246468392,-1.7954936026868873,1.7751598358489973
1684006623687597600,0.886997802734375,0.489614665510443,-1.528430938779155,2.094783782975094
1684006623697638300,0.897038818359375,0.3504545986741955,-1.3932814597677015,1.7153844834658512
1684006623707679200,0.90707958984375,-0.08956146242368893,-1.4098105431825363,1.3593168259969173
1684006623717720200,0.91712060546875,-0.5433678626978328,-1.1711263656664845,1.3404130935126244
1684006623727761100,0.927161376953125,-1.1922073363468149,-0.8054618835790808,1.4150695802008868
1684006623737801900,0.937202392578125,-1.3568532466936238,-0.20277309412653483,1.2273159027742644
1684006623747842700,0.9472431640625,-0.23476284748398782,-0.9141998290385288,-0.027881622388702353
1684006623757883600,0.957283935546875,0.2747166753426199,0.2789907455342874,-0.22322034830416423
1684006623767924600,0.967324951171875,0.13104987157154907,0.6988215446559232,0.3253307340644164
1684006623777965600,0.977365966796875,-0.2472823858747848,0.7733397483111423,1.2629752159450143
1684006623788006300,0.98740673828125,0.2307812571865576,0.7388072013566647,0.8230352403092268
1684006623798047400,0.99744775390625,0.8333100675973241,1.0676703452972125,0.2735090256226537
1684006623808088200,1.007488525390625,0.6918874381842731,1.3908362389918694,0.9377584457934952
1684006623818129100,1.017529541015625,0.5596196054824547,1.4428572654732486,2.304734706932679
1684006623828169900,1.0275703125,0.5323659776040798,1.4715976715670709,3.2497324943511305
1684006623838210700,1.037611083984375,0.5976516603798097,1.3117842674504527,4.807703971939263
1684006623848251800,1.04765234375,0.44759994727037106,1.2229733465915693,4.5409636497583765
1684006623858292600,1.057693115234375,0.11985337745460982,1.2817568777509099,2.1893134117097204
1684006623868333600,1.06773388671875,-0.2574750185416837,-0.41059350971118685,1.1957616805688696
1684006623878374300,1.077774658203125,-0.05012750628806662,1.4918332099387352,-0.8144307137636388
1684006623888415400,1.08781591796875,0.1845712661644089,-1.342361926899879,-1.1516175270483422
1684006623898456200,1.097856689453125,0.26268351090378855,0.1618700026113421,-1.9673123359079743
1684006623908497100,1.1078974609375,0.4240313766940872,1.6630916595275185,-1.590386867354169
1684006623918537900,1.117938232421875,0.5704854725850331,-1.0065522194723358,-1.2525067330522903
1684006623928579000,1.1279794921875,0.6244933010115921,-0.8029141426750376,-1.2805438040501342
1684006623938619800,1.138020263671875,1.501291632650135,-2.9645347595435365,1.479231357597735
1684006623948660600,1.14806103515625,2.646760701959953,1.2549328803890654,-0.27835273755613155
1684006623958701600,1.158101806640625,2.021509647389399,-0.17737722393088232,0.8897528647872359
1684006623968742300,1.168142822265625,1.5488805771380085,-1.3361577986120998,1.6470785140353283
1684006623978783400,1.178183837890625,1.4021484853416044,-1.3145132065315244,1.6611337662228092
1684006623988824200,1.188224609375,0.7146920561015084,-1.3763470650713692,1.7138824462297995
1684006623998865100,1.198265380859375,-0.23882913577649142,-1.4941163062580687,2.046540260155209
1684006624008905900,1.208306396484375,-1.3146204947571003,-1.0321121215803377,2.5141925811513923
1684006624018947000,1.218347412109375,-2.200813293398214,-0.7405323981682229,2.8871936799547213
1684006624028987800,1.22838818359375,-3.0349936484765965,-0.177434444466456,3.1696772576480945
1684006624039028600,1.238428955078125,-3.0825390815878286,0.9194264412804405,2.183484554353373
1684006624049069600,1.248469970703125,-2.56440997125061,-0.3969354630129364,1.0530409813593598
1684006624059110600,1.258510986328125,-1.5150156021201562,-1.254967212829664,1.0827713012778604
1684006624069151400,1.2685517578125,-1.2054678201044937,-2.0489797591482213,0.6231746672562335
1684006624079192200,1.278592529296875,0.036829650403332706,-2.101923465689406,2.7753353118162103
1684006624089233100,1.288633544921875,-0.9182078838143968,-0.9420385360952342,-0.12408399588689598
1684006624099274200,1.298674560546875,-1.1151545048216815,1.0543727875180309,0.5230884552646319
1684006624109315000,1.30871533203125,-0.12762978682895046,2.42279720299368,-0.17253780373058483
1684006624119355800,1.318756103515625,-0.038894176468762996,2.3096175192388313,-1.1574792861864567
1684006624129396600,1.328797119140625,0.2862064539250503,1.4877967833077674,-1.968273162780139
1684006624139437700,1.338838134765625,0.5482522846012767,0.9283885955242112,-2.5121893881968504
1684006624149478600,1.34887890625,1.7241711616902042,0.68094396592323,-2.289505958530498
1684006624159519400,1.358919921875,2.9535508155031627,0.7248654364953001,-2.496454954136769
1684006624169560200,1.368960693359375,4.012691021024896,0.9276189802578131,-3.2564418315798824
1684006624179601100,1.37900146484375,4.764275550956435,0.8227729798293311,-3.6340470314237847
1684006624189642200,1.38904248046875,4.50778627386421,0.8300662040537479,-3.2708158491110737
1684006624199683000,1.39908349609375,3.5779314042525336,0.619650363943841,-2.1318595409177523
1684006624209723800,1.409124267578125,2.878075599676982,0.29273939136873567,-1.2390713690605617
1684006624219764600,1.4191650390625,1.8481407165436188,0.7812514305387528,-0.3455877304195221
1684006624229805700,1.4292060546875,1.4228565692034412,0.920421123609423,-0.350634097958886
1684006624239846600,1.4392470703125,1.233385562928569,0.8777427673249444,-0.562097549288892
1684006624249887400,1.449287841796875,1.2180987597177082,0.62628078462087,-0.9326024056248415
1684006624259928200,1.45932861328125,1.2091194391633495,0.40776538844765237,-1.135674476528194
1684006624269969300,1.46936962890625,0.8888990283814495,0.16405296330941543,-1.2175831796183703
1684006624280010200,1.47941064453125,0.43998992438972423,-0.2496156694029965,-1.2751579283628034
1684006624290051000,1.489451416015625,-0.22466945652726286,-0.37153530130993767,-1.3119678497666432
1684006624300091800,1.4994921875,-1.7774597406413202,0.06269121169800534,-1.0334329605754513
1684006624310132900,1.509533203125,-6.284811496750331,-0.5550231934504521,-1.2472023963509224
1684006624320173700,1.51957421875,-8.390475273103613,-2.144290447364641,-1.593715191048253
1684006624330214600,1.529614990234375,-5.401520728996873,-1.619520187382131,-0.015381813055668471
1684006624340255400,1.53965576171875,-0.7942390441907874,0.1670150756989102,0.5377769470348818
1684006624350296600,1.54969677734375,3.066023349785172,0.9130430221087649,0.04253053666808821
1684006624360337300,1.55973779296875,2.2202076910853545,-0.9692058563941405,0.07822036744366284
1684006624370378200,1.569778564453125,1.0405912400634154,-1.6637930870468833,0.006863117188191166
1684006624380419000,1.5798193359375,-2.688928127277524,-2.119239807090188,1.0996108055530311
1684006624390459800,1.589860107421875,-3.987878799386363,-0.6564459800954852,2.0286431311868642
1684006624400500900,1.5999013671875,-2.142098188294833,0.7732601167055625,1.1919798850983987
1684006624410541700,1.609942138671875,-0.17942285525253396,0.7988295555108255,0.5019803048025966
1684006624420582600,1.61998291015625,1.76852512356914,1.8016266823560736,0.7115707397248051
1684006624430623400,1.63002392578125,2.341767788020047,1.7216444015487784,1.3170166014785478
1684006624440664600,1.64006494140625,0.8068995475755307,-2.036466598599884,2.549386978154228
1684006624450705300,1.650105712890625,0.27091482281902635,-3.449086189283662,2.3832411767364254
1684006624460746200,1.660146484375,-0.9353655577829597,-3.136724471985329,2.0605511664579645
1684006624470787000,1.6701875,-1.7205066680858463,-1.7433514594531645,1.9187922476860975
1684006624480828100,1.680228515625,-0.0893058776709436,-0.5121097566282167,4.541104793625718
1684006624490868900,1.690269287109375,0.39546981459813096,-0.8389916418459653,4.695839881947087
1684006624500909700,1.70031005859375,-0.3254639506825672,-1.5441265106160451,4.240447521122776
1684006624510950600,1.71035107421875,-0.7116129993929141,-1.6614370347157499,1.8258590697260877
1684006624520991600,1.72039208984375,-0.6472287773554327,-2.306171417430837,-0.7302155494744639
1684006624531032600,1.730432861328125,0.12771409732964395,-2.146115303007073,-1.5936505795298286
1684006624541073300,1.7404736328125,0.2450895309495635,-1.4590063095967267,-3.8685989378560484
1684006624551114200,1.7505146484375,0.26397633550349525,-0.997586250185263,-5.380761146657679
1684006624561155000,1.760555419921875,0.32412540916214777,0.9616651535652235,-6.026852607711697
1684006624571196100,1.770596435546875,0.200047493106065,2.3585410119032777,-6.240939140326742
1684006624581236900,1.78063720703125,0.25845062732892776,2.4907288551232143,-5.441881656709013
1684006624591277700,1.79067822265625,0.5710133312546112,1.5665550232837322,-3.649886608224581
1684006624601318600,1.800718994140625,0.7569712997198597,0.8977637290611964,-2.033183813121872
1684006624611359600,1.810760009765625,1.0723124741569336,0.8328075408914741,-1.1974081993149843
1684006624621400600,1.82080078125,1.5959429742323066,1.0533943176099156,-1.062698841043318
1684006624631441300,1.830841796875,2.0615808963319506,0.6402249337521728,-1.1464567184233807
1684006624641482200,1.840882568359375,2.3474888800142484,-0.29210472115002384,-1.1106328964719474
1684006624651523200,1.850923583984375,2.198890447591904,-1.0843544007146282,-1.3234519959727395
1684006624661564100,1.860964599609375,1.739886403105033,-1.1195802688633385,-1.675404548672678
1684006624671604900,1.87100537109375,1.304189205273796,-0.6059474945571208,-1.8422024251833464
1684006624681645700,1.881046142578125,0.6177701950350926,0.21797609316640854,-1.7605619430215975
1684006624691686800,1.891087158203125,0.1706821917586648,1.1294093131094733,-1.5841560363557599
1684006624701727600,1.901128173828125,-0.364341497280407,1.700192451504831,-1.3576116560795481
1684006624711768600,1.9111689453125,-1.4918394087867837,0.07468891140703468,-1.758674144627371
1684006624721809300,1.921209716796875,-2.5339984893591834,-1.4244880675523783,-1.3340530396816028
1684006624731850400,1.931250732421875,-2.722435951222509,-1.3318443299213412,-1.0140180586593495
1684006624741891200,1.941291748046875,-3.049081802315604,-0.9697480202842194,0.20609617229624053
1684006624751932100,1.95133251953125,-3.801550865142619,-1.6449117661131238,1.5494327543691389
1684006624761972900,1.961373291015625,-2.4088039398938923,-0.9070997237868703,1.5475425720241363
1684006624772013700,1.9714140625,-0.9421694278514334,-0.8051037787447645,1.9834403990038978
1684006624782054800,1.981455322265625,0.3727470635800372,-0.7261815070738985,2.4098043440705488
1684006624792095600,1.99149609375,1.8865344525819887,0.5254836083873883,3.4313302039659312
1684006624802136600,2.001536865234375,1.467592239504607,0.19409418109194002,1.3230476378837968
1684006624812177300,2.01157763671875,0.7538936138392803,0.47628450379030757,-0.5724716188429054
1684006624822218400,2.021618896484375,0.12104392060202615,0.6811542511186364,-1.3614020346440863
1684006624832259200,2.03165966796875,-0.4687600134530009,0.5102281570754915,-1.364931583404388
1684006624842300100,2.041700439453125,-0.624297141961853,0.15644931799344522,-0.9268765450001157
1684006624852340900,2.0517412109375,-0.5302186011206299,-0.23322963706284403,-0.5106449127118473
1684006624862382000,2.061782470703125,-0.5137546062817367,-0.6861691473895203,-0.19046211237302263
1684006624872422800,2.0718232421875,-0.2885494231707429,-0.05087995521812441,0.4035220147341944
1684006624882463600,2.081864013671875,0.016573786786194533,0.9171290399433943,0.8315801620171336
1684006624892504600,2.09190478515625,0.089893102619018,1.226648330670474,0.6335635185437745
1684006624902545600,2.101946044921875,-0.07013571269882544,1.841121673675661,0.040138244652184595
1684006624912586400,2.11198681640625,-0.35502195351619587,2.6727347373346673,-0.49924516686401127
1684006624922627200,2.122027587890625,-0.5394957063941399,3.059634685481328,-1.5017623899612578
1684006624932668100,2.132068359375,-0.7997348308493996,3.4788599014368633,-2.91650080683063
1684006624942709200,2.142109619140625,-0.8215085266972771,3.444484233741609,-3.6925144194763333
1684006624952750000,2.152150390625,0.0627566577595708,5.038815975301586,-3.4717140198382
1684006624962790800,2.162191162109375,0.5345106126022677,3.0067267417416956,-3.349476337396373
1684006624972831600,2.172232177734375,0.8949567079475458,0.7057814597445345,-2.894473552665261
1684006624982872600,2.18227294921875,1.1525366305635247,-0.7221479417068002,-2.373280048454144
1684006624992913600,2.19231396484375,0.8951147795897818,-1.4922456742174757,-1.3754315376749497
1684006625002954400,2.202354736328125,-0.07590436942250349,-2.477355956893681,-0.5311150550767608
1684006625012995200,2.212395751953125,-0.9072277544972976,-2.628452300948612,0.016026020169461638
1684006625023036100,2.2224365234375,-1.2754732369550643,-0.8751554488616593,1.7947978973879073
1684006625033077200,2.2324775390625,-1.387908697190054,-0.7450609207013646,2.112518310421038
1684006625043118000,2.242518310546875,-0.8652962447397107,-1.0460634231356958,1.7251341341833064
1684006625053158800,2.252559326171875,-0.21609854693048747,-0.3521385192087295,1.3488943576922268
1684006625063199600,2.26260009765625,0.17837274074766823,0.2859325408627763,1.213771104806873
1684006625073240600,2.272640869140625,0.24377870569026058,0.607182502716567,0.9529912470753861
1684006625083281600,2.282681884765625,0.005174756035776944,1.7669243813216073,0.004573106783244944
1684006625093322400,2.292722900390625,-0.4023560285898585,2.91984558092866,-0.894770622392781
1684006625103363200,2.302763671875,-0.7233281134383616,3.1794848441400334,-1.3585026263605031
1684006625113404300,2.3128046875,-0.658922314672525,3.2453212738525377,-1.5647886992257583
1684006625123445200,2.322845458984375,-0.4605596064558212,4.933738231595731,-1.4952515362859828
1684006625133486000,2.332886474609375,-1.8624672890403504,4.7099666594165575,-1.0370132922133484
1684006625143526800,2.34292724609375,-2.827004432730127,0.993572235128325,-0.009990215274450156
1684006625153567900,2.35296826171875,-1.0985999108150335,0.42311286921712077,1.186837434934841
1684006625163608800,2.363009033203125,-1.10302138331003,-3.47634983069084,0.8308639526657859
1684006625173649600,2.373050048828125,-0.34876561170860526,-5.641729354791562,1.284539461047176
1684006625183690400,2.3830908203125,0.08972620980701032,-6.720680236895204,1.281817436086773
1684006625193731200,2.393131591796875,0.6747374534376716,-7.7053852081288845,1.36338639251137
1684006625203772300,2.4031728515625,1.6520037649283972,-7.580001830987528,1.6732444763647156
1684006625213813200,2.413213623046875,1.8694167137232964,-5.36819362635967,1.1395225525920443
1684006625223854000,2.42325439453125,0.9830389023714831,-0.7442045211907473,0.8876152039834717
1684006625233894800,2.433295166015625,0.7286944389291184,3.4991369248731092,1.0291702747890583
1684006625243935900,2.44333642578125,0.9099667071764695,1.0596790314690983,1.088053941866762
1684006625253976800,2.453377197265625,1.3695189953493336,-0.4388360977057355,0.7584707737097642
1684006625264017600,2.46341796875,3.0648472309209387,-1.6950368881578495,0.3515722751432571
1684006625274058400,2.473458740234375,2.192682743134909,-3.5409889221772466,0.10350751873936717
1684006625284099200,2.483499755859375,1.846148848521529,-1.7763833998542815,-0.4282600879975186
1684006625294140300,2.493540771484375,0.9555299283179988,-6.417546272131673,-0.1845517159149482
1684006625304181200,2.50358154296875,-0.6795392037397957,-7.178561210504592,-0.3233439922507384
1684006625314222000,2.513622314453125,-1.6947400569533935,-4.479425430263826,-1.4950046540143294
1684006625324262800,2.523663330078125,-2.93272089950826,-2.4855365753177066,-2.648263692885648
1684006625334303900,2.533704345703125,-3.4720189570858837,-0.6455717086115839,-3.8710227012716283
1684006625344344800,2.5437451171875,-3.703854083965524,-0.6760568618465921,-4.377377510008942
1684006625354385600,2.553785888671875,-2.2054901121512787,1.9135484696138532,-3.192611455825243
1684006625364426600,2.5638271484375,-1.477951049655639,3.2831091881863146,-2.9350392820099804
1684006625374467600,2.573867919921875,-0.48127365119790705,4.231866359717485,-2.3518936635137555
1684006625384508300,2.58390869140625,0.2711780071222655,4.245032787293626,-1.7165598869957785
1684006625394549200,2.593949462890625,0.5391581058850038,3.4015178680520535,-1.1715366840865136
1684006625404590000,2.603990478515625,0.47265982617796887,2.3863801956847412,-0.6791813373097844
1684006625414631100,2.614031494140625,0.5120379925129889,1.7469606400055095,-0.2186841963102006
1684006625424671900,2.624072265625,0.8835544584521179,1.4133377075413467,0.2349708080001857
1684006625434712800,2.634113037109375,1.264835596082062,1.306878089882737,0.6334578992334471
1684006625444753600,2.644154052734375,1.3799369334848026,1.285586833948229,1.0929152965292108
1684006625454794600,2.654195068359375,1.1638375521285027,1.0631904603476696,1.4645140170886077
1684006625464835600,2.66423583984375,0.7684466838975099,0.5550975798875915,1.4923474787334725
1684006625474876300,2.67427685546875,0.19841456420286874,0.007110595736451269,1.2423112392633362
1684006625484917200,2.684317626953125,-0.3924312591575348,-0.6634292603228779,0.9024691582793772
1684006625494958300,2.694358642578125,-0.882138967577727,-1.473918914800255,0.23817062381528387
1684006625504999100,2.7043994140625,-0.9549317360788799,-0.907143592874351,0.2970798014417705
1684006625515039900,2.7144404296875,-0.9150564671997709,0.07073783870299388,0.9978158473585114
1684006625525080800,2.724481201171875,-0.7238061428052485,0.4957532882832016,1.5590808393029554
1684006625535121600,2.73452197265625,-0.5509266853798477,0.6445350647478518,1.7771763800113511
1684006625545162600,2.74456298828125,-0.34285688385012275,0.3366775512203093,1.5316572188031465
1684006625555203600,2.75460400390625,-0.2445778846032027,-0.055500030492918365,0.9853448867885162
1684006625565244300,2.764644775390625,-0.2408730984723729,-0.22484493254048865,0.3267128467936392
1684006625575285400,2.774685791015625,-0.12468385697930967,-0.3392019271961233,-0.21586370458276605
1684006625585326300,2.7847265625,-0.0013797283348639608,-0.3786993026876066,-0.5998272894674106
1684006625595367100,2.794767578125,0.0660405159821825,-0.22508049006227035,-0.818473577349463
1684006625605407900,2.804808349609375,0.08131313324902383,-0.04105377182737094,-1.04050540926186
1684006625615448800,2.81484912109375,-0.022710800129057917,0.10550403593096931,-1.1429238321013007
1684006625625489800,2.82489013671875,-0.22054505345550401,0.1923999785472077,-1.0549757479772952
1684006625635530600,2.83493115234375,-0.45909595478768056,0.2132463455361335,-0.7678554057558519
1684006625645571600,2.844971923828125,-0.6889023780706075,0.2177009582155385,-0.44656109811387457
1684006625655612300,2.8550126953125,-0.8480317593649237,0.264270782554649,-0.07656097425358017
1684006625665653400,2.8650537109375,-0.8960433005689324,0.3281383515475566,0.25575065615084736
1684006625675694300,2.8750947265625,-0.6526706218365136,0.4237356185745186,0.45729207990105225
1684006625685735100,2.885135498046875,-0.3703110216844853,0.5749187469462447,0.514908790566669
1684006625695775900,2.89517626953125,-0.1879601479548728,0.6379899979278393,0.5342144967573891
1684006625705817000,2.905217529296875,-0.1445884705926295,0.46043777464763175,0.5647149085644628
1684006625715857800,2.91525830078125,-0.29021668452790617,0.20798778533753534,0.6498403549552981
1684006625725898600,2.925299072265625,-0.6556363105259368,-0.06313228611647141,0.5994281768632856
1684006625735939600,2.93533984375,-1.0436391830329872,-0.46055412292211856,0.3084583282300797
1684006625745980300,2.945380615234375,-1.4483000039204679,-0.5194816590166497,0.21037054053088353
1684006625756021400,2.955421875,-1.7116676569553995,-0.7319231034246462,0.13520145425788535
1684006625766062300,2.965462646484375,-2.2747397422517017,-1.0864295960682648,-0.06452083586701772
1684006625776103100,2.97550341796875,-2.7696008682847486,-1.402770996096046,0.023053646020909025
1684006625786144200,2.985544677734375,-2.7448046207115753,-1.6181364060368586,0.4017233848111923
1684006625796185000,2.99558544921875,-2.0252075195037214,-1.4403953551552287,0.891413211683293
1684006625806225800,3.005626220703125,-1.102056026313349,-1.0961065293043901,1.0525660515360789
1684006625816266600,3.0156669921875,-0.3649042844433341,-0.5748853682506734,1.0789537431176357
1684006625826307800,3.025708251953125,0.035688519554823134,0.08311080945125987,0.8448796272463258
1684006625836348600,3.0357490234375,0.34833598134534416,0.47766685490785166,0.6787428856486271
1684006625846389400,3.045789794921875,0.64363038531327,0.738239288390976,0.38232183472294495
1684006625856430300,3.05583056640625,0.8594168425816712,0.9458017349174354,-0.14049482341240915
1684006625866471100,3.06587158203125,1.0504302977878561,0.98962163937546,-0.5285439491345886
1684006625876512200,3.07591259765625,1.1200170517564587,0.8299856187633409,-0.6378672121600651
1684006625886553000,3.085953369140625,0.9945428371705342,0.5848827360995744,-0.6584980489204502
1684006625896593800,3.095994140625,0.6610735655130558,0.3696050644784003,-0.6340057851036843
1684006625906634600,3.10603515625,0.15896499156410349,0.1509380341992361,-0.45811319341717766
1684006625916675800,3.116076171875,-0.2925060986022578,0.046039581376340254,-0.252276420626402
1684006625926716600,3.126116943359375,-0.47691357122186734,0.04307746875657494,-0.21652555471335777
1684006625936757400,3.13615771484375,-0.22563564787930426,0.04940509787702471,-0.3091521262066739
1684006625946798300,3.14619873046875,0.28289711487426517,-0.10631370544455934,-0.4365897178435189
1684006625956839300,3.15623974609375,0.7353134751321156,-0.25430011743797326,-0.5185725689408595
1684006625966880200,3.166280517578125,1.0758252143879126,-0.3758716584518585,-0.5585780144079064
1684006625976921000,3.1763212890625,1.2876769305368299,-0.3596057892444963,-0.5747013092318778
1684006625986961800,3.1863623046875,1.4144606590638784,-0.3426799774972749,-0.5777571200868032
1684006625997002900,3.1964033203125,1.4329856634311136,-0.2470149994042579,-0.5092272759729184
1684006626007043800,3.206444091796875,1.3268263340816964,-0.16169548044337445,-0.47055578232111467
1684006626017084600,3.216485107421875,1.1649675370611061,-0.03436756132692748,-0.421500205982323
1684006626027125400,3.22652587890625,0.9749498963050514,0.10858058932422589,-0.36224937453039385
1684006626037166600,3.23656689453125,0.751172244546239,0.2693576812579953,-0.28833198548504146
1684006626047207300,3.246607666015625,0.3840679527635549,0.41201496131942467,-0.1925716399345854
1684006626057248200,3.256648681640625,-0.02122265090913702,0.40478038802001187,0.08908224096079774
1684006626067289000,3.266689453125,-0.4533016085769283,0.32371330261988057,0.41917657853332635
1684006626077330100,3.27673046875,-0.8340545892954094,0.29581069935778476,0.5837864874872686
1684006626087370900,3.286771240234375,-0.8828057646625206,0.20212745663824006,0.6659135818884132
1684006626097411800,3.296812255859375,-0.466496616597201,0.1508378980797398,0.5523438453247685
1684006626107452600,3.30685302734375,0.23084920644586124,0.08975505832032851,0.3994822501847111
1684006626117493400,3.316893798828125,0.9142795801420422,0.009637832629036377,0.18378543866854577
1684006626127534600,3.326934814453125,1.3686772586222908,-0.10341072084745807,-0.003562450576519224
1684006626137575300,3.336975830078125,1.5902585983246702,-0.10334777847697996,-0.1075205803640255
1684006626147616200,3.3470166015625,1.6755769252657846,-0.14577293392845875,-0.12181615819977733
1684006626157657000,3.357057373046875,1.6402640342650214,-0.09475326522141338,-0.14297723783810593
1684006626167698100,3.367098388671875,1.5026872158465383,-0.014973640324705561,-0.18065023425111187
1684006626177738900,3.377139404296875,1.2819783687484312,0.02384758001070365,-0.06382656091496405
1684006626187779800,3.38718017578125,0.9963874817370352,0.011701583873542887,0.03651905075674188
1684006626197820600,3.397220947265625,0.6734728813392015,-0.0181808471963436,0.10816860209258497
1684006626207861600,3.407261962890625,0.3932630717846859,-0.049142837532615426,0.11321973800787032
1684006626217902600,3.417302978515625,0.2100142687425541,-0.06672191611532906,-0.047817230245078605
1684006626227943300,3.42734375,0.12304638327526109,-0.17569351200379768,-0.1613578797627453
1684006626237984200,3.437384521484375,0.10267141462290291,-0.21554946909646477,-0.26764345172713183
1684006626248025300,3.44742578125,0.10083145653566872,-0.23622035968703092,-0.34706735617161644
1684006626258066100,3.457466552734375,0.10052434363998644,-0.2996845246088684,-0.3996517658332881
1684006626268106900,3.46750732421875,0.08966712653936723,-0.3412075041175458,-0.4753913878737815
1684006626278147800,3.477548095703125,0.0933344959361583,-0.29868125914213967,-0.46893405918414915
1684006626288188800,3.48758935546875,0.14708927272077885,-0.27744770049377976,-0.44502639776345265
1684006626298229600,3.497630126953125,0.23078320921818066,-0.2272739411345474,-0.3988161088036896
1684006626308270600,3.5076708984375,0.2969108223377107,-0.21742725358589485,-0.2562780379339233
1684006626318311300,3.517711669921875,0.365475982417651,-0.1665868759787236,-0.11313676827019788
1684006626328352400,3.5277529296875,0.3945408761859191,-0.1178894043791412,0.05908918378192423
1684006626338393300,3.537793701171875,0.4115893243403309,-0.08332157142800788,0.17654323584423404
1684006626348434100,3.54783447265625,0.4288172722534801,0.016017913908841053,0.29918289181416935
1684006626358474900,3.557875244140625,0.462678909263829,0.09627819052688424,0.37662267689938433
1684006626368515800,3.567916259765625,0.4577534197600992,0.2511215210825804,0.3479561804293997
1684006626378556800,3.577957275390625,0.49000415195475705,0.33248233792543597,0.3785662649679591
1684006626388597600,3.587998046875,0.5252516270552934,0.3303775787154757,0.47658014295247403
1684006626398638600,3.598038818359375,0.4957549275124198,0.40710067757180435,0.46703195572129425
1684006626408679300,3.608079833984375,0.47286325684644603,0.41438198089507566,0.5626831054136333
1684006626418720400,3.618120849609375,0.37542527915542573,0.3523387910300447,0.6102838515349237
1684006626428761300,3.62816162109375,0.3394735454348072,0.32577514654884904,0.6162652969858949
1684006626438802100,3.638202392578125,0.319435954009518,0.23651790609137738,0.5302281380782548
1684006626448843200,3.64824365234375,0.29419362553795186,0.13976383218177074,0.3860387801719318
1684006626458884000,3.658284423828125,0.33114677659396063,0.06186962126527085,0.18633604054646408
1684006626468924800,3.6683251953125,0.3443906307811763,-0.03748226172094728,0.005932807845559384
1684006626478965600,3.678365966796875,0.3458872438828383,-0.08858394620279476,-0.15915012355919303
1684006626489006600,3.688406982421875,0.3377769589591066,-0.14159393304240708,-0.22512149802553308
1684006626499047600,3.698447998046875,0.3100738525887604,-0.17257308949804123,-0.311448097203477
1684006626509088400,3.70848876953125,0.22217845912149467,-0.18614006034097863,-0.3340373040492709
1684006626519129300,3.71852978515625,0.14379632475893497,-0.1394376755381996,-0.3027856349750319
1684006626529170100,3.728570556640625,0.0635530948939782,-0.12331771844292805,-0.2369301319169783
1684006626539211200,3.738611572265625,0.01532769204699722,-0.08275699617575509,-0.1437339782458903
1684006626549252000,3.74865234375,-0.0007107256355200835,-0.017863273522213164,-0.0663685797743951
1684006626559292800,3.758693359375,-0.008328795364566976,0.044915199258414966,0.014023303920454346
1684006626569333600,3.768734130859375,0.04262280467165082,0.10308933250194355,0.09720325464458325
1684006626579374800,3.778775146484375,0.12597352262774064,0.14501380917361356,0.12404966350647346
1684006626589415600,3.78881591796875,0.18246394403010474,0.184247016865963,0.21479940415696366
1684006626599456400,3.79885693359375,0.19098120910444144,0.18315029152597304,0.2789506911305876
1684006626609497300,3.808897705078125,0.20404577245928138,0.18950843801501446,0.3382163047429107
1684006626619538400,3.818938720703125,0.19290995600327884,0.23848438263341876,0.4468498229356649
1684006626629579200,3.8289794921875,0.16924577952684666,0.2890949248729696,0.4999895096846669
1684006626639620000,3.8390205078125,0.13972663886806272,0.2942724226860553,0.5270204543080435
1684006626649660800,3.849061279296875,0.05751770729514246,0.29023170474614396,0.6063737869269213
1684006626659701900,3.859102294921875,-0.07655900705398201,0.3219165802003544,0.6313991545169433
1684006626669742800,3.86914306640625,-0.1835778951983802,0.2966423033440324,0.7577142714076163
1684006626679783600,3.87918408203125,-0.2752575873528834,0.33524131783868855,0.7076935768430479
1684006626689824400,3.889224853515625,-0.3178580702123665,0.33306789403535486,0.7359700202918767
1684006626699865600,3.899265869140625,-0.33451813477053927,0.3448543549102856,0.6500821113596557
1684006626709906400,3.909306640625,-0.3573080600120434,0.29033088686024605,0.6023206712127053
1684006626719947200,3.91934765625,-0.34825563432091766,0.3099012374495267,0.5010638236868048
1684006626729988000,3.929388427734375,-0.3536743821069247,0.34833621967420936,0.39484882358235973
1684006626740029100,3.939429443359375,-0.3344568909028085,0.3581886291276523,0.3592286109517597
1684006626750069900,3.94947021484375,-0.2818122506912525,0.26221275328429305,0.3247334957233443
1684006626760110800,3.95951123046875,-0.24802917254140291,0.21542358400638825,0.2424335478723291
1684006626770151600,3.969552001953125,-0.21600067611900967,0.17713928227956233,0.21703076344389613
1684006626780192600,3.979593017578125,-0.18044322724153672,0.14246940604480984,0.25210547451392273
1684006626790233600,3.989634033203125,-0.17916357526531482,0.12542057032614132,0.25474619864593634
1684006626800274400,3.9996748046875,-0.15302062037902836,0.1468687057127688,0.3055810928892549
1684006626810315200,4.009715576171875,-0.10301417114959735,0.20843124391107584,0.3731284142304441
1684006626820356000,4.01975634765625,-0.07505559933854421,0.21959209438075547,0.45637655246298436
1684006626830397100,4.029797607421875,-0.03804022063247136,0.26590538009779346,0.5337495803317936
1684006626840437900,4.03983837890625,0.005646050138275159,0.3373575210648937,0.6359007357145071
1684006626850478800,4.049879150390625,0.032707989373230155,0.4430913926140164,0.7202880382860676
1684006626860519900,4.059920166015625,0.062479495987030384,0.49553298954153124,0.8439090250238984
1684006626870560600,4.069961181640625,0.05275762083091742,0.4884672165350205,0.9918262959425913
1684006626880601600,4.080001953125,0.13379096981306327,0.4011831282861592,1.157651662719215
1684006626890642400,4.090042724609375,0.2196558713831019,0.3763275147477017,1.2681403161327678
1684006626900683400,4.100083740234375,0.289427280556826,0.33307933818197744,1.3294808864847305
1684006626910724300,4.110124755859375,0.3806274533132517,0.2807683944680825,1.5158181191372153
1684006626920765100,4.12016552734375,0.5113975405111797,0.18889522549350185,1.6201784609554366
1684006626930805900,4.130206298828125,0.567773461352884,0.10762977614054563,1.705358505099408
1684006626940847000,4.140247314453125,0.6042495965601458,0.07379341106652851,1.8808448314865969
1684006626950887900,4.150288330078125,0.5873441695392744,-0.14728641504820625,2.093845367524404
1684006626960928600,4.1603291015625,0.5509878993168013,-0.4114341736545998,2.209028959217993
1684006626970969600,4.170369873046875,0.4630404113626046,-0.6165618894708591,2.282436847652427
1684006626981010400,4.18041064453125,0.33700859551049944,-0.8099250794849518,2.3326139450608756
1684006626991051400,4.190451904296875,0.21495765463755626,-0.9078779220161394,2.240114450346435
1684006627001092300,4.20049267578125,0.10415506366406914,-0.9442386628827579,2.095684528321354
1684006627011133100,4.210533447265625,-0.007917940500340009,-0.9605751037924767,1.9023845194504057
1684006627021173900,4.22057421875,-0.10345411314748268,-0.9117498398259464,1.5550773142212426
1684006627031215000,4.230615478515625,-0.2564925550240333,-0.854702949537921,1.0869109631614433
1684006627041255900,4.24065625,-0.512756049552535,-0.8148946761780739,0.5937964915182273
1684006627051296600,4.250697021484375,-0.8051638006320386,-0.7366752624294612,0.05870437638644043
1684006627061337600,4.260738037109375,-1.2077057362533976,-0.6244478226076734,-0.4789364338251376
1684006627071378600,4.270779052734375,-1.5797314644200178,-0.5092163086287287,-0.9192368983947391
1684006627081419400,4.28081982421875,-1.8855960368794524,-0.3648633956797894,-1.1828546525480579
1684006627091460300,4.290860595703125,-2.1707720756520947,-0.1940355301453284,-1.4343996049099321
1684006627101501100,4.300901611328125,-2.3021471501251902,-0.03267955779752812,-1.5510101318573553
1684006627111542200,4.310942626953125,-2.201330423291078,0.10447216034683754,-1.3960571289432444
1684006627121583000,4.3209833984375,-1.9147260188709407,0.2672939300589426,-0.9729940890677282
1684006627131623900,4.331024169921875,-1.3755242823616032,0.5555000306444676,-0.3730244636186739
1684006627141664600,4.341065185546875,-0.7344624996653591,0.9923372269956453,-0.003843069124423475
1684006627151705800,4.351106201171875,0.030422121276291684,1.1777486801360992,0.4093315599935732
1684006627161746600,4.36114697265625,0.510120511018452,1.2550444602952708,0.5940501689030584
1684006627171787400,4.371187744140625,0.5937513113202038,1.1887707709602522,0.6737008094438016
1684006627181828300,4.381228759765625,0.4247164726730245,1.0605363846042142,0.6606540678703902
1684006627191869400,4.391269775390625,0.14880341294008118,0.7390241622305864,0.7120096681945766
1684006627201910200,4.401310546875,-0.05251681810049694,0.32484626783109016,0.611778736147958
1684006627211951000,4.411351318359375,-0.18463888771640327,-0.0692596436532207,0.363077163815511
1684006627221991900,4.421392333984375,-0.2897307275634094,-0.35713672619669096,0.03140830992913332
1684006627232032900,4.431433349609375,-0.3111282586138848,-0.6106119156058936,-0.30823230743403224
1684006627242073800,4.44147412109375,-0.17601025106729754,-0.7893733979369414,-0.6004376410840614
1684006627252114600,4.451514892578125,0.12207579611615206,-0.9171524049007305,-0.9344425202373252
1684006627262155400,4.461555908203125,0.4847621918209913,-0.9000186920163453,-1.300379514803384
1684006627272196600,4.471596923828125,0.8744997979636769,-1.1118116379689738,-1.3918533323804272
1684006627282237400,4.4816376953125,1.1350822448241618,-1.2759399413231716,-1.4293382167723696
1684006627292278200,4.4916787109375,1.3460744618775564,-1.3498497008680987,-1.4766945837285261
1684006627302319000,4.501719482421875,1.5529274942257945,-1.3091487883900788,-1.4790840149294715
1684006627312360100,4.511760498046875,1.814693331638935,-1.2263202668483049,-1.4591646196084835
1684006627322400900,4.52180126953125,1.9597384930580986,-1.0086784362389092,-1.3318071365596191
1684006627332441800,4.53184228515625,1.8405544756544916,-0.7409744263185755,-1.1128220558179867
1684006627342482600,4.541883056640625,1.6234004497209047,-0.4754371643992967,-0.8738958836762918
1684006627352523600,4.551924072265625,1.2310545444196035,-0.19141483304326426,-0.5395214556524689
1684006627362564600,4.56196484375,0.8507663010798766,0.0906143188688261,-0.23726701750979806
1684006627372605400,4.572005859375,0.6734571457629358,0.3275318145843757,-0.13512468333162536
1684006627382646200,4.582046630859375,0.6994756460203422,0.56808662415052,-0.19629573817574036
1684006627392687300,4.592087646484375,0.8589674233783909,0.5086936951512453,-0.10719633107479257
1684006627402728100,4.60212841796875,0.9264160394216283,0.36022567763017554,-0.2459311485227928
1684006627412768900,4.61216943359375,1.0489041805783574,0.24593353260165435,-0.6089568137667921
1684006627422809800,4.622210205078125,1.1080205441546098,0.23613452921970143,-1.0115284919057657
1684006627432850900,4.632251220703125,1.1393198966674831,0.26614093777744463,-1.3402919769233546
1684006627442891600,4.6422919921875,1.2130270003631112,0.3232774734387219,-1.573529243420224
1684006627452932600,4.6523330078125,1.2698630092775571,0.3400268555261135,-1.7840299607996941
1684006627462973400,4.662373779296875,1.2995882034208943,0.32555866241066433,-1.9027466774134456
1684006627473014200,4.67241455078125,1.2758713960985475,0.2432765960937076,-1.865923643252037
1684006627483055300,4.68245556640625,1.2177064419958654,0.09719562522112601,-1.7988059521383615
1684006627493096100,4.69249658203125,1.2439795731251941,-0.026964187673099414,-1.7300434113145349
1684006627503136900,4.702537353515625,1.247643351545689,-0.18656539913772027,-1.6402275561706896
1684006627513178000,4.712578369140625,1.1813173294154307,-0.25962162011510853,-1.5362446307313067
1684006627523218900,4.722619384765625,1.0448079108810262,-0.3514919279948007,-1.4446601867442825
1684006627533259600,4.73266015625,0.7497119905057453,-0.49585437762522755,-1.2800703048266262
1684006627543300600,4.742700927734375,0.3568880558264176,-0.6306076050905037,-1.185813426976674
1684006627553341600,4.752741943359375,-0.15034937859557723,-0.7896728515688617,-1.0111863613008938
1684006627563382400,4.762782958984375,-0.6042435169440303,-0.9567461013171296,-0.8564400671527003
1684006627573423300,4.77282373046875,-0.9647696018527315,-1.1057329177251551,-0.7545452118231516
1684006627583464100,4.782864501953125,-1.2428652047658058,-1.196285247873046,-0.6240425110276792
1684006627593505200,4.792905517578125,-1.3902456760705868,-1.1954574585404192,-0.5225996972605771
1684006627603546000,4.802946533203125,-1.2532042264274852,-1.0865364074782673,-0.4740538596777532
1684006627613586900,4.8129873046875,-0.9165358544543117,-0.9453125000551355,-0.4467768669042547
1684006627623627600,4.823028076171875,-0.5595698357000755,-0.7832937239735211,-0.5099182128446555
1684006627633668800,4.833069091796875,-0.2796795367882937,-0.6483335496094906,-0.4777684211807469
1684006627643709600,4.843110107421875,-0.06886315342074599,-0.542620658896364,-0.45615386964997323
1684006627653750400,4.85315087890625,0.09544610964658547,-0.44632244123546355,-0.5353412627707186
1684006627663791300,4.863191650390625,0.20043265822892548,-0.38324069978655656,-0.5219950675617377
1684006627673832100,4.873232421875,0.26072525974759153,-0.34140110010407415,-0.5931215285020378
1684006627683873200,4.883273681640625,0.3014972209214879,-0.29862880705379735,-0.8902535439816361
1684006627693914000,4.893314453125,0.23128509534019762,-0.27139377596140174,-1.1299405096523565
1684006627703954900,4.903355224609375,0.17818570138209275,-0.24524688730092387,-1.292567968277027
1684006627713995600,4.91339599609375,0.1545760630273682,-0.27470779427196723,-1.4037337301472101
1684006627724036800,4.923437255859375,0.2121227978214706,-0.32543086995105525,-1.3909950255151153
1684006627734077600,4.93347802734375,0.26367413996669176,-0.375578880453524,-1.259383678449207
1684006627744118400,4.943518798828125,0.3378177881153789,-0.23200702675299914,-1.0455372334994402
1684006627754159600,4.953559814453125,0.2776570319859411,0.008715629568496494,-0.8171081542524349
1684006627764200400,4.963600830078125,0.24474942695440563,0.18740463261197585,-0.4373002051606147
1684006627774241200,4.9736416015625,0.15694141393292274,0.19358158123280422,-0.1398310661330401
1684006627784282000,4.983682373046875,0.12068557739341494,0.20421123512825984,0.059276103996843514
1684006627794323100,4.9937236328125,0.1885935067156587,0.1875705718236584,0.17381095884622283
1684006627804364000,5.003764404296875,0.2744749785829572,0.00926876061855987,0.2280182838837881
1684006627814404800,5.01380517578125,0.2022477387773437,-0.1117496490288537,0.20618677147947104
1684006627824445600,5.023845947265625,0.03918313990358191,0.04149532314022402,0.34047698961891976
1684006627834486400,5.033886962890625,0.01769304274644569,0.405572414500363,0.32006025309422853
1684006627844527600,5.043927978515625,0.0020987987668550914,0.9627809525893709,0.2961907387222188
1684006627854568400,5.05396875,-0.17573881145574158,1.2988457680522805,0.25561189660571293
1684006627864609200,5.064009521484375,-0.08635091790245562,1.3426804541051534,0.3646488189798633
1684006627874650000,5.074050537109375,0.19441628466800018,1.16890764236925,0.45825576779617455
1684006627884691100,5.084091552734375,0.5564612150101235,0.8318080900879513,0.45046281822712414
1684006627894732000,5.09413232421875,0.8489894866069698,0.4989056587438034,0.20665311814489204
1684006627904772800,5.104173095703125,0.9439231156910932,0.37874364847469616,-0.022656440755056857
1684006627914813600,5.114214111328125,0.6306611298998134,0.07170677191887807,-0.26361799247920714
1684006627924854600,5.124255126953125,0.1851437091002061,-0.16024208067915233,-0.2792410850277143
1684006627934895600,5.1342958984375,-0.1171450614178294,-0.09053134925535042,-0.3065023423429769
1684006627944936400,5.144336669921875,-0.27365422239869697,0.23161840439841072,-0.2722220421624276
1684006627954977500,5.1543779296875,-0.38486397274354955,0.4788918494359337,0.002041816781780678
1684006627965018300,5.164418701171875,-0.2634838820349713,0.49835109702544483,0.370074748896814
1684006627975059100,5.17445947265625,-0.036697626053384426,0.4844999314018349,0.49098539348211584
1684006627985100000,5.184500244140625,0.18724322302809146,0.5246338844432064,0.3323569298339099
1684006627995141000,5.19454150390625,0.3456941844146557,0.4128246307913432,0.043041705996336714
1684006628005181900,5.204582275390625,0.47204053401037727,0.028162002490893352,-0.4227271079431746
1684006628015222600,5.214623046875,0.47370493402743064,-0.5797424316634855,-0.9979557991215116
1684006628025263600,5.224663818359375,0.33265268811643495,-1.336224555786559,-1.550047159368482
1684006628035304600,5.234705078125,-0.07931768889188376,-2.18801879893863,-1.9344666005743156
1684006628045345500,5.244745849609375,-0.5937455891262083,-3.023205757028909,-2.1317768095979144
1684006628055386300,5.25478662109375,-1.1159195899326315,-3.7285623550570377,-2.175386190404707
1684006628065427100,5.26482763671875,-1.5541779995953449,-4.067004203731425,-2.2270212172933115
1684006628075468000,5.274868408203125,-1.4821544885859788,-4.207229614205802,-1.9010798932334687
1684006628085509000,5.284909423828125,-1.113407135156996,-3.8666753767991104,-1.5422787665900572
1684006628095549900,5.2949501953125,-0.5750989913137633,-2.765175819517041,-1.424080848641737
1684006628105590600,5.3049912109375,-0.008572459298950058,-1.0746974944715793,-1.5091254710099704
1684006628115631600,5.315031982421875,0.6830518244093075,0.16467762007162676,-1.3542475701651553
1684006628125672600,5.325072998046875,1.2074034214987426,0.9803128241968017,-1.21353888512189
1684006628135713500,5.33511376953125,1.4786641597779613,1.4590578079665883,-1.0921795367888005
1684006628145754300,5.34515478515625,1.5795601606964524,1.7546014786613848,-1.0550932883788824
1684006628155795400,5.35519580078125,1.5613398551782007,1.7716526984737457,-0.8212027549686949
1684006628165836200,5.365236572265625,1.5157083272274778,1.4988017083550649,-0.3750376701741046
1684006628175877000,5.37527734375,1.3903313875269392,0.9177045821592295,0.19168996795107
1684006628185917900,5.385318359375,1.2877165079771378,0.33428573593978317,0.682148933392008
1684006628195959000,5.395359375,1.219003081385885,0.03533077228703403,0.8429846763976696
1684006628205999800,5.405400146484375,1.075755119298085,-0.031753540110138256,0.7045183180934614
1684006628216040600,5.41544091796875,0.9263906478802149,-0.08997249595919819,0.6482281685450658
1684006628226081500,5.42548193359375,0.7540506122715902,-0.10922527300945757,0.6085896492099032
1684006628236122600,5.43552294921875,0.6709985137335318,-0.17608547213412848,0.5059566499228375
1684006628246163400,5.445563720703125,0.7061827183308105,-0.17350959765959265,0.3877706527813406
1684006628256204200,5.4556044921875,0.8252970577578393,-0.19972324361615837,0.2748303413499721
1684006628266245000,5.4656455078125,0.976314186972459,-0.2137861250269806,0.0643515586808644
1684006628276286100,5.4756865234375,1.1041690112085094,-0.18856716149345776,-0.158792018783134
1684006628286327000,5.485727294921875,1.2519779204976509,-0.1882486345170638,-0.3991155624801529
1684006628296367800,5.495768310546875,1.3174507618568043,-0.18618488315892745,-0.5871286391447583
1684006628306408600,5.50580908203125,1.3499761819324771,-0.22063636782041368,-0.7184631824623052
1684006628316449500,5.515849853515625,1.3716530801787565,-0.1625585554991316,-0.8528931141743243
1684006628326490600,5.525890869140625,1.4264380931283795,-0.13144016262622193,-0.9637260436775267
1684006628336531400,5.535931884765625,1.5362067223306006,-0.11282253263314436,-0.9839787481536943
1684006628346572200,5.54597265625,1.6069414614568023,-0.13749694823139993,-0.9685239791822902
1684006628356613000,5.556013427734375,1.7229204177240947,-0.1527385711614584,-0.9056580066415757
1684006628366654100,5.566054443359375,1.7934374807787765,-0.17996406555834715,-0.8840146064587947
1684006628376695000,5.576095458984375,1.8053655624251568,-0.18085956582977247,-0.8414242268552071
1684006628386735800,5.58613623046875,1.8137052059094654,-0.22006130223042158,-0.8425707817269604
1684006628396776900,5.59617724609375,1.8353831766900923,-0.26403236378615036,-0.9159092903893014
1684006628406817600,5.606218017578125,1.81771063802404,-0.28882598871176224,-0.9632043839822904
1684006628416858600,5.616259033203125,1.7534713745549575,-0.39931964858218133,-1.0317666529929466
1684006628426899400,5.6262998046875,1.6668150425227606,-0.5017499922510403,-1.0585684775975917
1684006628436940500,5.6363408203125,1.5072999000204736,-0.47900295263702336,-1.0912127496368111
1684006628446981300,5.646381591796875,1.2390077114269553,-0.5561456678832051,-0.9629690646527177
1684006628457022100,5.656422607421875,0.9635279177559559,-0.4155454636279406,-0.8321008681709082
1684006628467063000,5.66646337890625,0.7286975384935748,-0.2941780090551078,-0.6171619892007288
1684006628477104000,5.67650439453125,0.6214045286470766,-0.19465732585905035,-0.3138628004909093
1684006628487144900,5.686545166015625,0.6127010582409561,-0.08845424661217849,-0.061215877616510844
1684006628497185600,5.696586181640625,0.6551531553183898,0.06013107314508261,0.11433553700382698
1684006628507226600,5.706626953125,0.7314167618326856,0.15768623352664704,0.23161745063023886
1684006628517267600,5.71666796875,0.8522887825933865,0.23030471800967367,0.3187088965752583
1684006628527308500,5.726708984375,0.9033808113088589,0.15870666497157523,0.3494019509119686
1684006628537349300,5.736749755859375,0.9207405448507591,0.0963544844608943,0.3290028572712021
1684006628547390100,5.74679052734375,0.9481707811220544,0.0315790177569039,0.23189973835375827
1684006628557431200,5.75683154296875,0.9834971428385042,0.0457544326659482,0.051482677405560416
1684006628567472000,5.76687255859375,0.9851816892116573,-0.018875122173018916,-0.11396503448256304
1684006628577512900,5.776913330078125,0.9521895647767162,-0.10233974448463029,-0.2786545752488641
1684006628587553600,5.7869541015625,0.8744971155741535,-0.18296337132140797,-0.4447312354362968
1684006628597594800,5.7969951171875,0.774847328649456,-0.260635376008009,-0.5475087166774956
1684006628607635600,5.8070361328125,0.6816797257596737,-0.3616065977812858,-0.6109578609984333
1684006628617676500,5.817076904296875,0.6314004659944443,-0.3710699082015822,-0.5871734619842471
1684006628627717300,5.82711767578125,0.6272929907405782,-0.38732147209928985,-0.4886221885409341
1684006628637758400,5.83715869140625,0.5696062445242468,-0.3581542969326411,-0.36155748373855384
1684006628647799200,5.84719970703125,0.4970120787030168,-0.2694168091538303,-0.32083463654696914
1684006628657840000,5.857240478515625,0.5253934861668563,-0.22170829774746056,-0.3426980972709317
1684006628667880900,5.86728125,0.6007685660384863,-0.15057182297133626,-0.33177614207206835
1684006628677922000,5.877322265625,0.7154378294335245,-0.12048816674554962,-0.302394866944949
1684006628687962800,5.88736328125,0.798414945572629,-0.11703586579861847,-0.34055948252119095
1684006628698003600,5.897404052734375,0.8280173539708172,-0.1542959213631299,-0.3620839120193172
1684006628708044500,5.90744482421875,0.8028852939377467,-0.18409252152101466,-0.44168138502334253
1684006628718085600,5.91748583984375,0.7896875739142213,-0.18741798393344888,-0.5196394920521937
1684006628728126400,5.92752685546875,0.7682784795133574,-0.19523334505322087,-0.5887777804477249
1684006628738167200,5.937567626953125,0.7213324307573938,-0.1885328291467522,-0.6561694144656748
1684006628748208000,5.9476083984375,0.6851524113282442,-0.1768846510965492,-0.6322381496351552
1684006628758249100,5.9576494140625,0.640646576916275,-0.1533098221282877,-0.6244351862913237
1684006628768290000,5.9676904296875,0.6349328158815798,-0.15093421935976833,-0.6041779516850445
1684006628778330800,5.977731201171875,0.6438782215879416,-0.17186832431834304,-0.48008799537658176
1684006628788371900,5.987772216796875,0.6036496163350794,-0.18289756771749052,-0.33420133586100037
1684006628798412600,5.997813232421875,0.5525500775423571,-0.16315650948226035,-0.20485448833643527
1684006628808453600,6.00785400390625,0.4814020096584947,-0.12261295333566778,-0.12717628473604198
1684006628818494400,6.017894775390625,0.43091151111006704,-0.09460163111535404,-0.06980657577225409
1684006628828535200,6.027935546875,0.37309384355152675,-0.0484056473729754,-0.032666683279862684
1684006628838576300,6.037976806640625,0.36753380311295775,-0.05736827860393838,0.02674245842493588
1684006628848617100,6.048017578125,0.35923758157472574,-0.04529571532203652,0.0608382224259218
1684006628858658000,6.058058349609375,0.3805732130801221,-0.000804901095715405,0.08884525283872807
1684006628868698800,6.06809912109375,0.4161539375300629,0.005023002631001622,0.06167602524160691
1684006628878739900,6.078140380859375,0.43934303521664386,0.057674407831210396,-0.057179450842244725
1684006628888780600,6.08818115234375,0.49491202821560765,0.08352661134113526,-0.051657199890116516
1684006628898821600,6.098221923828125,0.5685083864957342,0.059528350706149966,-0.07915210718896291
1684006628908862400,6.1082626953125,0.5847845673251512,0.06414699547111896,-0.054500103130423486
1684006628918903500,6.118303955078125,0.598899364545307,0.07806015007830722,-0.011568069390457623
1684006628928944300,6.1283447265625,0.5064956544975926,0.051702499367944695,5.865089316953028e-05
1684006628938985100,6.138385498046875,0.40956330306674715,0.11753654468639659,0.02096271524017522
1684006628949026000,6.14842626953125,0.291492104562555,0.1609449386294862,-0.017410278353052207
1684006628959067100,6.158467529296875,0.1958754660262489,0.10221481323276123,0.026981830584639745
1684006628969107900,6.16850830078125,0.10489720109652148,-0.009791374197562179,0.07033634176314484
1684006628979148600,6.178549072265625,0.08552330721501837,-0.03746509549309391,0.06342744825349132
1684006628989189600,6.18858984375,0.1185085773303093,0.0013875961874388466,0.011854648507445284
1684006628999230600,6.198631103515625,0.19792169322225883,0.03257465349274327,-0.0014138220355566565
1684006629009271500,6.208671875,0.2539003491405895,0.03025054949802552,-0.021784305493150635
1684006629019312300,6.218712646484375,0.26216620195325585,-0.035695075940057115,-0.0938496588108081
1684006629029353400,6.22875390625,0.25072085848006365,-0.11465549472877033,-0.09161090853476808
1684006629039394200,6.238794677734375,0.18377894155621588,-0.17558383937988514,-0.14991950990240155
1684006629049435100,6.24883544921875,0.13030517097805802,-0.17164039626312613,-0.208754062616851
1684006629059475900,6.258876220703125,0.10289102785144426,-0.16986846920125967,-0.21655082692613953
1684006629069517000,6.26891748046875,0.06730610132439131,-0.15378379824172098,-0.2285809516831191
1684006629079557800,6.278958251953125,0.024682462172529944,-0.16597270975989908,-0.19071531293994645
1684006629089598600,6.2889990234375,0.008396566062832109,-0.21063899988825432,-0.10611009615894357
1684006629099639500,6.299039794921875,0.05293393145399674,-0.1741914749715012,-0.11428308497917034
1684006629109680600,6.3090810546875,0.15666455020656708,-0.10035133344563946,-0.1194057463317962
1684006629119721400,6.319121826171875,0.28948646797891026,-0.032284736588608705,-0.05819702154169682
1684006629129762200,6.32916259765625,0.3700751661980739,0.05596160886864474,-0.007071018236261325
1684006629139803100,6.339203369140625,0.3569073082493681,0.05085182189633282,0.0643362999712442
1684006629149843900,6.349244384765625,0.31348866223695276,0.05042362220855844,0.11782360066023298
1684006629159885000,6.359285400390625,0.2670230864775622,0.026446342448289684,0.1184706687019644
1684006629169925800,6.369326171875,0.26971012366754926,0.0476064681806934,0.13778305053082554
1684006629179966600,6.379366943359375,0.29711443195487386,0.04249477392998659,0.18010330213886605
1684006629190007500,6.389407958984375,0.3696197868281461,0.06802749642811069,0.24741411200216995
1684006629200048600,6.399448974609375,0.4273216724305696,0.10243129731776901,0.29209709170869763
1684006629210089400,6.40948974609375,0.46756732449114263,0.10787868501593874,0.29338836665287815
1684006629220130200,6.419530517578125,0.5207821129532532,0.15070438390824611,0.2778320313438097
1684006629230171300,6.42957177734375,0.5583516955311635,0.1644010544608942,0.2481493949440348
1684006629240212100,6.439612548828125,0.5735953450334542,0.16588020322551492,0.27742528919896636
1684006629250253000,6.4496533203125,0.5131770371297042,0.12004375467428328,0.2586984634864817
1684006629260293800,6.459694091796875,0.4234795571058286,0.10551643373637955,0.19538259507850367
1684006629270334900,6.4697353515625,0.3544158339228573,0.07716941838761929,0.15440607083132007
1684006629280375600,6.479776123046875,0.31010955568987064,0.05646419535077732,0.11668348306578588
1684006629290416600,6.48981689453125,0.31161069875709935,0.026911735407206153,0.06589889522243624
1684006629300457400,6.49985791015625,0.25754815346172233,-0.02545356745424456,0.07284116748119783
1684006629310498600,6.50989892578125,0.23878407479552244,-0.04140186321358195,0.04466629042766825
1684006629320539300,6.519939697265625,0.2551212906333199,-0.03573608400594348,0.04062747944959707
1684006629330580100,6.52998046875,0.3273590206240762,-0.03482723228552593,0.07419157025967611
1684006629340621000,6.540021484375,0.40247142323379737,-0.0034151076201407735,0.06446313861118984
1684006629350662100,6.5500625,0.4158313274741016,-0.04336357116888879,0.05911588670748612
1684006629360702900,6.560103271484375,0.4425072074404751,-0.06645298011528633,0.05572748173342971
1684006629370743600,6.57014404296875,0.4250859020332968,-0.07764911649152229,0.004950523298589249
1684006629380784600,6.58018505859375,0.45624321700502996,-0.09124851221357828,-0.1300597191896415
1684006629390825600,6.59022607421875,0.4865473806670506,-0.07657814030830276,-0.21610832212600248
1684006629400866600,6.600266845703125,0.4531345069336611,-0.10468482977654273,-0.33167743686879375
1684006629410907300,6.6103076171875,0.3779946266789557,-0.1346864700419287,-0.4005973338419639
1684006629420948100,6.6203486328125,0.28716382380543165,-0.14061260238142317,-0.4470231533057804
1684006629430989200,6.6303896484375,0.17612135412453206,-0.14398860942281505,-0.49707913394222264
1684006629441030100,6.640430419921875,0.1210174860182045,-0.16125488281182432,-0.4823062420163647
1684006629451070900,6.65047119140625,0.04396361120604393,-0.18030357364209854,-0.4836747647634171
1684006629461112000,6.660512451171875,-0.009228646794792019,-0.15857124323764124,-0.4912157057296991
1684006629471152800,6.67055322265625,-0.015255600117023487,-0.09898567206433039,-0.4645550252196805
1684006629481193600,6.680593994140625,0.011149793719079851,-0.06565570825507208,-0.42055463797450604
1684006629491234600,6.690634765625,0.08616051059932564,0.019588470524152038,-0.33584856971730587
1684006629501275600,6.700676025390625,0.18111124640104947,0.016829490683981253,-0.14317727086214038
1684006629511316400,6.710716796875,0.27232456212215633,0.080241203197453,0.07728910435354594
1684006629521357200,6.720757568359375,0.34076049930285285,0.13071155552960279,0.29382801054311974
1684006629531398100,6.730798583984375,0.37443947787863974,0.213118553194558,0.41695928573953966
1684006629541438900,6.74083935546875,0.38025727866824066,0.260994911018493,0.5424313545770818
1684006629551480000,6.75088037109375,0.38853999975023007,0.30538272859611426,0.6275773048122235
1684006629561520800,6.760921142578125,0.4361265600113171,0.3628301620603077,0.6142778396788882
1684006629571561600,6.770962158203125,0.4626752139395211,0.3624420166577064,0.610013961881791
1684006629581602600,6.7810029296875,0.48218411210666784,0.3403301239167871,0.6001367568450052
1684006629591643600,6.7910439453125,0.4542812108734537,0.2849559784395636,0.5255761148131084
1684006629601684400,6.801084716796875,0.3608173430000162,0.21331787103542016,0.37790298470196737
1684006629611725200,6.811125732421875,0.27861019976990364,0.15155029306205522,0.24769353857772058
1684006629621766100,6.82116650390625,0.16101892292562017,0.057226180900315615,0.04776811599347914
1684006629631807200,6.83120751953125,0.04276859766943021,-0.05733013151727972,-0.13832068449837706
1684006629641848000,6.841248291015625,-0.06805507106217937,-0.146958351233478,-0.3223719597030488
1684006629651888800,6.851289306640625,-0.17582255589686957,-0.25894546517450473,-0.5298435687416908
1684006629661929900,6.861330322265625,-0.25437012324456065,-0.3479404449029651,-0.7079820633275181
1684006629671970700,6.87137109375,-0.32515433432230756,-0.42359638224543783,-0.8333833217818136
1684006629682011600,6.881411865234375,-0.38136649129973527,-0.4742231368985086,-0.9748454093119484
1684006629692052400,6.891452880859375,-0.3738175630596222,-0.5425910950335894,-1.0378403665168752
1684006629702093600,6.901493896484375,-0.35568028684808706,-0.5777759552214562,-1.0623018741067185
1684006629712134300,6.91153466796875,-0.3211593329752604,-0.6270332336285165,-1.078871726960191
1684006629722175200,6.921575439453125,-0.23899398739126776,-0.6784496307718815,-1.0685374736205644
1684006629732216000,6.931616455078125,-0.2076518536256345,-0.6627454758758528,-1.0718898773250078
1684006629742257100,6.941657470703125,-0.1844863591936224,-0.5608243940725401,-1.0646364689223067
1684006629752297900,6.9516982421875,-0.15795382856103848,-0.48011684413114075,-1.0414521694775776
1684006629762338700,6.9617392578125,-0.10696840282597819,-0.4394435883819373,-0.9684326650411889
1684006629772379600,6.971780029296875,-0.021784842177165694,-0.36693859104739246,-0.8883593082382731
1684006629782420600,6.981821044921875,0.10037696370530813,-0.3509435654166736,-0.7555565833563335
1684006629792461600,6.99186181640625,0.21632301811663573,-0.3603506087499048,-0.6299839019814195
1684006629802502300,7.00190283203125,0.2971689701626796,-0.26625823969162016,-0.5548481941568588
1684006629812543200,7.011943603515625,0.3422457874064634,-0.22688961022338552,-0.4544372557534209
1684006629822584200,7.021984619140625,0.36986601343167885,-0.1850805282470578,-0.37257027610690674
1684006629832625100,7.032025390625,0.34794786564540314,-0.1742897034868258,-0.32375264171990037
1684006629842665900,7.04206640625,0.29968300457467956,-0.21125411981744097,-0.2748827933494193
1684006629852707000,7.052107421875,0.18442916868025755,-0.29352664947657947,-0.18798065178926762
1684006629862747800,7.062148193359375,0.08625304695197826,-0.43783760068263655,-0.08733630176521921
1684006629872788600,7.07218896484375,-0.04675066471532763,-0.4888591766433983,-0.06856107711986391
1684006629882829600,7.08222998046875,-0.16116845602451899,-0.5971460342602612,-0.018781423553244747
1684006629892870600,7.09227099609375,-0.2897914051075136,-0.6956129073562809,0.012079715737241913
1684006629902911400,7.102311767578125,-0.47288590672482195,-0.7293014525896441,-0.004376411556222105
1684006629912952200,7.1123525390625,-0.7097349763713346,-0.7486019134944882,-0.10627508151511177
1684006629922993100,7.1223935546875,-0.9252631664118685,-0.6367454528130371,-0.22917795178947659
1684006629933034200,7.1324345703125,-1.036484002899193,-0.4469032288725013,-0.3613088132440348
1684006629943075000,7.142475341796875,-0.9752732514894182,-0.2677888871046751,-0.4523532391216122
1684006629953115800,7.15251611328125,-0.8828284741337358,-0.1926946640357042,-0.4310081006465512
1684006629963156600,7.16255712890625,-0.8704383373480739,-0.11130809786806818,-0.4142923354311631
1684006629973197700,7.17259814453125,-0.9395486117375943,-0.06887912744200618,-0.3902757169229198
1684006629983238600,7.182638916015625,-1.023940563185786,-0.017544746349196887,-0.36154580107055156
1684006629993279400,7.1926796875,-1.176680922460708,0.03303146369136423,-0.2846367358804875
1684006630003320200,7.202720703125,-1.3057329653490464,0.08976078040906622,-0.21375155438900012
1684006630013361300,7.21276171875,-1.4240100383777268,0.19085216528340737,-0.331712245964238
1684006630023402200,7.222802490234375,-0.962641239319111,0.281263351337221,-0.07232475269893157
1684006630033443000,7.232843505859375,-0.6356298922613822,0.3175992964728581,0.062163829913813924
1684006630043483800,7.24288427734375,-0.5977586506445216,0.2568120956264663,0.13987350464456555
1684006630053524900,7.25292529296875,-0.681929349934783,0.28066921241148096,0.14153051392373187
1684006630063565700,7.262966064453125,-0.4307260514158658,0.26747894296163616,0.19631743417583072
1684006630073606600,7.273007080078125,0.14762830735034171,0.34200286868054747,0.44944524764017674
1684006630083647600,7.283048095703125,0.7372493743907055,0.31091308610556273,0.7085983754749114
1684006630093688600,7.2930888671875,1.1319599150860458,0.258154869184722,0.865622282023595
1684006630103729300,7.303129638671875,1.250991106070858,0.32248210899085467,0.8587093352662841
1684006630113770200,7.313170654296875,1.1318588258636881,0.42251205434488043,0.7676348686246257
1684006630123811200,7.323211669921875,0.7748684882522479,0.4933996199948522,0.5619239807725556
1684006630133852100,7.33325244140625,0.2834048271699712,0.6322717666832097,0.4106097222303544
1684006630143892900,7.343293212890625,-0.18477082236022185,0.8236942290857553,0.3889286519218412
1684006630153933700,7.353334228515625,-0.42396569247533217,1.0218768121288635,0.43643546108897624
1684006630163974800,7.363375244140625,-0.40987467752722867,1.1579833030192077,0.5222077369660009
1684006630174015600,7.373416015625,-0.30259251579532576,1.1991848944568284,0.6652088165766241
1684006630184056600,7.383456787109375,-0.14503550527062734,1.218069076533669,0.6889374255016509
1684006630194097300,7.393497802734375,0.04941630360961939,1.2081499099638189,0.7065491676373564
1684006630204138400,7.403538818359375,0.21101760856853677,1.079184532242468,0.7188105583552945
1684006630214179200,7.41357958984375,0.3544187544975022,0.9201130867169095,0.7217698095562946
1684006630224220100,7.423620361328125,0.4091029168120407,0.7694730758196647,0.6212742327747068
1684006630234260900,7.433661376953125,0.40492177008789243,0.6754255294180371,0.4383618831157427
1684006630244302000,7.443702392578125,0.3647801875876553,0.5426692961286301,0.2895653249436681
1684006630254342800,7.4537431640625,0.3592586517393338,0.416874885508158,0.11396503435048877
1684006630264383600,7.4637841796875,0.2311887740761583,0.31011390672534733,-0.15940356245545576
1684006630274424600,7.473824951171875,0.05807352068371714,0.1914682388186964,-0.5580861568831714
1684006630284465600,7.483865966796875,-0.06926822670854485,0.14940071118145662,-0.8810961245329523
1684006630294506400,7.49390673828125,-0.12426304817444724,0.18148326867550957,-1.0795536041023885
1684006630304547200,7.50394775390625,-0.19479584698389701,0.2354288100336787,-1.1993384360009214
1684006630314588100,7.513988525390625,-0.3974854947798131,0.23873805997393344,-0.9438047407360781
1684006630324629200,7.524029541015625,-0.49845218645611156,0.29030227664084424,-0.6147084236594544
1684006630334670000,7.5340703125,-0.5575892925780569,0.3339576720942775,-0.28004717840814486
1684006630344710800,7.544111328125,-0.625730991298929,0.35022258751327995,0.08913946137270391
1684006630354751600,7.554152099609375,-0.6187329292268723,0.3869953154527125,0.3858478069479437
1684006630364792800,7.564193115234375,-0.6113226414450033,0.3943548202596959,0.6440103053527069
1684006630374833600,7.57423388671875,-0.558639526197888,0.3366985320788551,0.899550438000008
1684006630384874400,7.58427490234375,-0.5689008234609348,0.2479476928081944,1.0716142654052516
1684006630394915200,7.594315673828125,-0.5159513950411412,0.16199588762076078,1.1489908695196107
1684006630404956300,7.604356689453125,-0.41915893560970524,0.119470596197267,1.127162694911325
1684006630414997200,7.6143974609375,-0.3499281407482896,0.10572910304144938,1.0204765795992499
1684006630425038000,7.6244384765625,-0.31015801426722167,0.13991642002667917,0.8440721034432136
1684006630435078800,7.634479248046875,-0.242627620712668,0.20770931240198687,0.6866917610338679
1684006630445119900,7.644520263671875,-0.2193400858368473,0.33276367182956074,0.6337358953367576
1684006630455160800,7.65456103515625,-0.19362711916952233,0.40736961363834606,0.578750610383762
1684006630465201600,7.66460205078125,-0.16752886766251482,0.49147224418834534,0.5658619404641156
1684006630475242600,7.67464306640625,-0.20005178452836941,0.5182552337428155,0.5818738937592962
1684006630485283600,7.684683837890625,-0.23452210427284667,0.4422893524542411,0.594542265051874
1684006630495324300,7.694724853515625,-0.27571344357105293,0.33298301703142874,0.615519762114449
1684006630505365200,7.704765625,-0.32052278532155043,0.21907711027291005,0.6309792996720808
1684006630515406300,7.714806640625,-0.34636116033491554,0.21770286575632877,0.6802246570776229
1684006630525447100,7.724847412109375,-0.4091770647589802,0.24017906187815113,0.6208813191108954
1684006630535487900,7.734888427734375,-0.5097124576612001,0.3363122940398764,0.6017868520197711
1684006630545528800,7.74492919921875,-0.6060442925637828,0.40511894223170436,0.550934791592048
1684006630555569800,7.75497021484375,-0.6596055031722236,0.4367618560040295,0.47739243496911155
1684006630565610600,7.765010986328125,-0.6353619100072512,0.4336767197706531,0.4212114812553595
1684006630575651600,7.775052001953125,-0.5303504467100624,0.4847326277945949,0.28423881537554163
1684006630585692300,7.7850927734375,-0.35636401181346017,0.5452394486169931,0.13875484460920437
1684006630595733400,7.7951337890625,-0.12627077097799705,0.6015672683841043,-0.0427258016200531
1684006630605774300,7.805174560546875,0.1482868195274986,0.5801792145246392,-0.2323746682810912
1684006630615815100,7.815215576171875,0.37727308267255033,0.5294475555821203,-0.31396532061279947
1684006630625855900,7.82525634765625,0.5496048927673632,0.4948968887317405,-0.4088411331132951
1684006630635897000,7.83529736328125,0.5512146949268325,0.5479602814284638,-0.3093035222007937
1684006630645937800,7.845338134765625,0.5166501999405111,0.5329818727106449,-0.22619867322560597
1684006630655978600,7.855379150390625,0.37720370277392273,0.48304080966946156,-0.06723976139648136
1684006630666019600,7.865419921875,0.13394618045232057,0.4546928404396926,0.14927935597545772
1684006630676060600,7.8754609375,-0.10041999818700977,0.38033962259360476,0.3190832138462482
1684006630686101400,7.885501708984375,-0.3384060859672352,0.24296474455953057,0.5125656128771409
1684006630696142300,7.895542724609375,-0.5820014477289265,0.13078117369880218,0.6050472261100084
1684006630706183300,7.905583740234375,-0.8625576496994848,-0.04720020292282242,0.5978276729312996
1684006630716224200,7.91562451171875,-0.9587938785758126,-0.16140460957113845,0.27833008773251094
1684006630726265000,7.92566552734375,-0.8505203723207188,-0.22743988051431568,-0.1466438771239852
1684006630736305800,7.935706298828125,-0.5275437831308046,-0.24702644347991656,-0.4046249388442444
1684006630746346900,7.945747314453125,-0.24849605567807806,-0.28048419954966364,-0.4679203031865321
1684006630756387800,7.9557880859375,0.10916709897986959,-0.3665294646705273,-0.5096659659217442
1684006630766428600,7.9658291015625,0.4803514480467852,-0.3857059479564225,-0.47846198079241914
1684006630776469400,7.975869873046875,0.7615038155966587,-0.43126964577187166,-0.4090099335729296
1684006630786510600,7.985910888671875,0.9918427468566023,-0.43844604496533757,-0.34325122836699656
1684006630796551300,7.99595166015625,1.1112892626432282,-0.3326234817423251,-0.3563220501552647
1684006630806592200,8.00599267578125,1.002907752938403,-0.2379989623984981,-0.4092702866022402
1684006630816633000,8.016033447265626,0.8036131857693954,-0.15944099425542538,-0.4327974319603298
1684006630826674100,8.026074462890625,0.6593202352501946,-0.05406570428948714,-0.49408364292068874
1684006630836714900,8.036115234375,0.6097729206724812,0.013249397383257854,-0.5081424712113476
1684006630846755800,8.04615625,0.5459537506051817,0.11885452256973726,-0.521473884638819
1684006630856796600,8.056197021484374,0.4265019895246098,0.08829975124739174,-0.5248126983737648
1684006630866837600,8.066238037109375,0.19441270828383153,0.09611988067699274,-0.5658993721962213
1684006630876878600,8.07627880859375,-0.09563326823941398,0.04130268101396773,-0.4441146850749875
1684006630886919300,8.08631982421875,-0.27885937691657126,-0.04559993761769228,-0.3748643396752247
1684006630896960400,8.09636083984375,-0.3535840510806779,-0.21711349475689914,-0.3738224505481789
1684006630907001300,8.106401611328126,-0.24308192727184816,-0.293375968793381,-0.4632842541395167
1684006630917042100,8.1164423828125,-0.017829895062281265,-0.3716392517162511,-0.6319835185300439
1684006630927082900,8.1264833984375,0.1706815959260856,-0.3938312529561462,-0.8426964281350616
1684006630937124000,8.1365244140625,0.3038096427569419,-0.3146419525114602,-1.0329492093187065
1684006630947164800,8.146565185546875,0.18920028209900863,-0.2112932204242608,-1.1247856617148944
1684006630957205600,8.156606201171876,-0.047820448742538345,-0.010316848734882087,-1.1695230007846844
1684006630967246800,8.166647216796875,-0.3176581859087852,0.07495975492315925,-1.1179878712706952
1684006630977287600,8.17668798828125,-0.22054624547282922,-0.12721633914004,-1.051617860739372
1684006630987328400,8.186728759765625,0.32388377196880846,-0.610387802077464,-0.9073104858823284
1684006630997369300,8.196769775390624,0.559903442996193,-1.0719985962543792,-0.77009844763473
1684006631007410400,8.206810791015625,0.2697464228360152,-1.1869974136867878,-0.6484537123933704
1684006631017451200,8.2168515625,-0.27488684646877876,-1.000032424847696,-0.2739572524636911
1684006631027492000,8.226892333984376,-1.5308341979531346,-0.6886491774782479,0.29787349695975607
1684006631037532800,8.236933349609375,-3.0002443791377393,-0.24936485294482538,0.8161234854748296
1684006631047573900,8.246974365234376,-3.7419366836798176,-0.1896238327261748,1.4462857246196927
1684006631057614800,8.25701513671875,-2.4638819694241163,-0.5259838104453647,1.3164563177884365
1684006631067655600,8.267055908203124,-0.40858149530635685,-0.8529424667902652,0.6969680784791091
1684006631077696400,8.277096923828125,0.8317542672339039,-0.975979805007918,0.1719226837027794
1684006631087737600,8.287137939453125,1.2184126376105389,-0.7932195664791093,-0.5200991631009549
1684006631097778400,8.2971787109375,1.1658222675914574,-0.4935436248163288,-1.0096149445917886
1684006631107819200,8.307219482421875,0.555222570747074,-0.25024795522018084,-1.353686332735821
1684006631117860300,8.3172607421875,-0.3826825619432903,-0.14275550838313078,-1.278753518927017
1684006631127901100,8.327301513671875,-1.10321938993758,-0.03828620894825464,-0.8695797920340194
1684006631137941900,8.33734228515625,-1.1621630193176897,0.06746482840193196,-0.5062971113724799
1684006631147982800,8.347383056640625,-0.6831257344796499,0.055129051145792134,-0.25156974796406917
1684006631158023900,8.35742431640625,-0.1018588542964656,0.015413284304789391,-0.09334516522712277
1684006631168064600,8.367465087890626,0.08659100530464091,0.02792167646446537,-0.09759616857792645
1684006631178105600,8.377505859375,-0.06261944776620995,0.10893344889688114,-0.3178782463686311
1684006631188146400,8.387546630859376,-0.24951410285297446,0.12895393371891367,-0.7517714499972886
1684006631198187400,8.397587890625,-0.20927357665593016,0.01190376296106095,-1.2538869381031688
1684006631208228300,8.407628662109374,-0.0037115812474623183,-0.1221590042111659,-1.4715638159680013
1684006631218269100,8.41766943359375,0.18286144729414047,-0.2112712860663644,-1.5456137656358184
1684006631228309900,8.42771044921875,0.23865807044316156,-0.2512550354799898,-1.4850871562068897
1684006631238351000,8.43775146484375,0.1663936377019483,-0.29521274574286155,-1.2840609550511162
1684006631248391900,8.447792236328125,0.07959842683059097,-0.38412570937632085,-1.0437164304993505
1684006631258432600,8.4578330078125,0.13904881473258707,-0.4487209320839928,-0.7307238577859547
1684006631268473600,8.4678740234375,0.18474054332361725,-0.4435911178399524,-0.43811750404849503
1684006631278514600,8.4779150390625,0.13157188883518914,-0.40267372130781764,-0.180578231827222
1684006631288555400,8.487955810546875,0.06932425498994459,-0.24044227600764273,-0.003767490337776274
1684006631298596300,8.49799658203125,0.10178172586960506,-0.10305690771286133,0.05425739279124778
1684006631308637100,8.50803759765625,0.12916135797393785,-0.00732135779327034,0.034296035745228375
1684006631318678200,8.51807861328125,0.11551904682207423,0.008519172569487673,0.05084848389125695
1684006631328719000,8.528119384765626,0.031572818698956284,0.006715774500086787,0.034294605235902706
1684006631338759900,8.53816015625,-0.046700596718848984,-0.010104179395986543,0.020755291017039736
1684006631348800900,8.548201416015624,-0.18347346778875165,-0.03222560883601596,-0.0443501473915761
1684006631358841800,8.5582421875,-0.2915815114707133,-0.03572940830003673,-0.08891534813196
1684006631368882600,8.568282958984375,-0.40383350854848166,0.0009374618114110325,-0.16036462783895492
1684006631378923400,8.57832373046875,-0.4905413389566819,-0.03206443789388065,-0.16260957702609685
1684006631388964600,8.588364990234375,-0.5978654623608523,-0.03904819492222077,-0.15754604331540548
1684006631399005400,8.59840576171875,-0.6832993031784793,-0.02957630147775029,-0.2282080651317266
1684006631409046200,8.608446533203125,-0.6692357062555113,-0.017871856603494555,-0.271135806984903
1684006631419087000,8.6184873046875,-0.6350750923594385,-0.03735542296146727,-0.3079328537012172
1684006631429128100,8.628528564453125,-0.6487864256678125,-0.1025676726972274,-0.2415213586100962
1684006631439168900,8.6385693359375,-0.6703567504611229,-0.2017307282437828,-0.19225788116735767
1684006631449209800,8.648610107421876,-0.6546131372970662,-0.28947925574413036,-0.15552616137102226
1684006631459250600,8.658651123046875,-0.6054370404409933,-0.3322763442347738,-0.16717815392747815
1684006631469291600,8.668692138671876,-0.4699723720425191,-0.3943567275683125,-0.22451162343725653
1684006631479332600,8.67873291015625,-0.34516048414822936,-0.41788196566931385,-0.3864974976422236
1684006631489373400,8.688773681640624,-0.1709910631605548,-0.4217643738086089,-0.5399944783452345
1684006631499414200,8.698814697265625,0.009947419111780823,-0.39146518712268935,-0.6652622222711022
1684006631509455300,8.708855712890625,0.12108695512579565,-0.2888412475788541,-0.6954987048894012
1684006631519496100,8.718896484375,0.17826831348964992,-0.1906681060677122,-0.6339967250326126
1684006631529536900,8.728937255859375,0.24237418167377314,-0.13068389888736542,-0.46054601671913503
1684006631539578000,8.738978515625,0.23844420905835975,-0.1258392332388247,-0.22176742547413728
1684006631549618900,8.749019287109375,0.18766069404822325,-0.17615699773523036,-0.011464595779642038
1684006631559659600,8.75906005859375,0.08321571359804447,-0.3028488158683002,0.13971710203153748
1684006631569700800,8.76910107421875,-0.00942087173490575,-0.3809566497042236,0.12589406966201908
1684006631579741600,8.77914208984375,-0.06889426706182798,-0.38798332214802206,0.06693410881423709
1684006631589782400,8.789182861328126,-0.08569991570015122,-0.34703540792323967,-0.12154388417512349
1684006631599823300,8.7992236328125,-0.09281587594159402,-0.22840023037922302,-0.30550575256927087
1684006631609864400,8.8092646484375,-0.0915180445757429,-0.17938613903635187,-0.4658966064335364
1684006631619905200,8.8193056640625,-0.09272003173287982,-0.1588754653394342,-0.6217346190734756
1684006631629946000,8.829346435546874,-0.09217834470472841,-0.2039251328503344,-0.7399897574508194
1684006631639986900,8.83938720703125,-0.09806346890033592,-0.2427968980375014,-0.8074309826493342
1684006631650028000,8.849428466796875,-0.13241863242766874,-0.2542467117074014,-0.8578178881093395
1684006631660068800,8.85946923828125,-0.13812208169766857,-0.22707080837252444,-0.8703873156869062
1684006631670109600,8.869510009765625,-0.157113432923561,-0.18567466732278165,-0.8458905220977679
1684006631680150400,8.87955078125,-0.1362659931670961,-0.1116952895557154,-0.8321020602682974
1684006631690191600,8.889592041015625,-0.11566901199249359,-0.045897483870688136,-0.807833909962649
1684006631700232400,8.8996328125,-0.05764663213773791,0.06337356552382178,-0.7290763855828778
1684006631710273200,8.909673583984375,-0.03153705605545515,0.0806102752754956,-0.5793278217977379
1684006631720314000,8.91971435546875,-0.03263962265586492,0.0632467269370077,-0.39426374449087476
1684006631730355100,8.929755615234376,-0.10549950597594998,-0.028693199168754253,-0.16165709497576197
1684006631740396000,8.93979638671875,-0.21373403063906654,-0.10965538032800694,0.10015439976059036
1684006631750436800,8.949837158203126,-0.27700436116019744,-0.13276958473211486,0.34339284890834637
1684006631760477900,8.959878173828125,-0.2220110894606938,-0.09592342375680378,0.46117448815117335
1684006631770518600,8.969919189453124,-0.09481978417585667,-0.0013093949177987426,0.4880681038063237
1684006631780559600,8.9799599609375,0.048256754856963846,0.07561206817528163,0.49763154981837054
1684006631790600400,8.990000732421874,0.11321163191488882,0.11412811276343339,0.462431430749911
1684006631800641500,9.000041748046876,0.11459267136619729,0.15916633612149053,0.42049407951036094
1684006631810682300,9.010082763671877,0.01764500134420085,0.13726234422768485,0.35301876067518384
1684006631820723100,9.02012353515625,-0.12711024296233128,0.11038303372411461,0.34044885650320794
1684006631830764000,9.030164306640623,-0.25900769234127446,0.07369613663971096,0.3959999086373085
1684006631840805000,9.040205322265624,-0.3616782426560502,0.08137416833076233,0.46183872218912636
1684006631850845900,9.050246337890623,-0.3890783787919903,0.1419696807690924,0.6127071381367539
1684006631860886600,9.060287109375,-0.3900837898753992,0.1908740996006684,0.72426795973988
1684006631870927800,9.070328125,-0.33977675426132986,0.25190067287594997,0.8560299873299311
1684006631880968600,9.080369140625,-0.3007124663705482,0.31805133812479136,0.8833050728740185
1684006631891009500,9.090409912109376,-0.2727829217412262,0.3777189255680246,0.8648777006920768
1684006631901050300,9.10045068359375,-0.20193588737269283,0.4145956039216918,0.8439316749405983
1684006631911091400,9.11049169921875,-0.1271401642506055,0.4290657042227035,0.7708425521138094
1684006631921132200,9.12053271484375,0.006989717362424088,0.45489692699133427,0.6162843704031673
1684006631931173000,9.130573486328124,0.129916906388589,0.46659183508867785,0.4104385376574742
1684006631941214100,9.140614501953126,0.21985363966380986,0.47425174708769086,0.2699837683686687
1684006631951255000,9.1506552734375,0.22600460059131064,0.44741821303107265,0.12349891648616687
1684006631961295800,9.1606962890625,0.23334431654576823,0.42660236370811877,0.004390239835020912
1684006631971336600,9.170737060546877,0.18223369122872438,0.37862968441452016,-0.0990619660155366
1684006631981377600,9.180778076171874,0.11850547794133517,0.27956771854143864,-0.14425563814394
1684006631991418600,9.19081884765625,0.08241868006433192,0.23623561856611064,-0.17790794374917604
1684006632001459400,9.20085986328125,0.09042000780642413,0.15332603463788294,-0.14098119735647746
1684006632011500200,9.210900634765624,0.13905715952839487,0.16235542288050084,-0.12667322172264006
1684006632021541300,9.220941650390625,0.19557666796778403,0.10211753842564857,-0.13928794853774248
1684006632031582100,9.230982421875,0.17189764963892257,0.05382823935316678,-0.11525773990279267
1684006632041623000,9.2410234375,0.12317800514376932,0.06903171527926241,-0.09788513197660818
1684006632051663800,9.251064208984374,0.06223249437950448,0.14643955239928882,-0.035423278760438
1684006632061704900,9.261105224609375,-0.0749444961658232,0.18340396867988426,0.06678342818220077
1684006632071745600,9.27114599609375,-0.18888497345936567,0.18735408789744823,0.18479967109037695
1684006632081786600,9.28118701171875,-0.2490396500485261,0.21045494091829342,0.29699277861747003
1684006632091827400,9.291227783203125,-0.1847479342896874,0.2596435546797942,0.43604278569851423
1684006632101868500,9.301268798828126,-0.11087322247744946,0.31599521642873196,0.565721988691769
1684006632111909300,9.311309814453123,-0.05535268801495819,0.41517734527057776,0.5825195311953509
1684006632121950100,9.3213505859375,-0.05135416985138478,0.5166330338802927,0.6108317375263491
1684006632131991000,9.331391357421875,-0.18002104757400642,0.4833946229341252,0.6428570747640858
1684006632142032000,9.341432373046874,-0.3321180342771392,0.3734645842841769,0.7200326919423835
1684006632152072900,9.351473388671875,-0.4155857561554659,0.14031696320857023,0.8201622961881884
1684006632162114000,9.361514404296877,-0.5767455101488943,-0.00742053991940673,0.9103713036140845
1684006632172154800,9.37155517578125,-0.7709689141420506,0.027227401729648076,0.8903303147898929
1684006632182195600,9.381595947265623,-0.7665884496116486,0.1937084198088004,0.8977317810912322
1684006632192236500,9.391636962890624,-0.6986775398530125,0.38385009761623157,0.803717613226374
1684006632202277600,9.401677978515623,-0.6895897389868487,0.5219316481224329,0.7765250205719086
1684006632212318400,9.41171875,-0.6576936245102694,0.6158552169578178,0.6599464417555686
1684006632222359200,9.421759521484375,-0.4530038833641552,0.6926722527368536,0.5244569778296446
1684006632232400000,9.431800537109376,-0.20288777338132236,0.7982540129976764,0.3027391433824278
1684006632242441100,9.441841552734376,0.04309916503743206,0.8478412628808981,0.12576913831625705
1684006632252482000,9.45188232421875,0.18092036250072013,0.7884850502091925,-0.06578302367617372
1684006632262522800,9.461923095703124,0.21038126963043716,0.6789388655455403,-0.25414133069074785
1684006632272563600,9.471964111328123,0.25592100619560637,0.461751938022523,-0.46875381472817923
1684006632282604600,9.482005126953124,0.2465535401379707,0.16526603699248285,-0.6585159302004718
1684006632292645600,9.4920458984375,0.2558470964176159,-0.034314155535875815,-0.8862469197763952
1684006632302686400,9.502086669921876,0.29510128503536676,-0.19924354554835633,-1.0254547596258494
1684006632312727200,9.512127685546876,0.3049709798019464,-0.32515239711028293,-1.1452972889546422
1684006632322768300,9.522168701171877,0.31648480882393293,-0.3469762802843133,-1.1849722862080727
1684006632332809100,9.53220947265625,0.27709913249183526,-0.3608999252853156,-1.1265008450517666
1684006632342850000,9.54225048828125,0.1690536736488378,-0.4245815277984572,-1.090558767404068
1684006632352890800,9.552291259765624,0.08076286314389833,-0.5859518051317127,-0.8756375312152628
1684006632362931900,9.562332275390624,-0.1486821175074402,-0.8760528564226514,-0.6366791724105334
1684006632372972600,9.572373046875,-0.36227190487231,-1.194731712184266,-0.3221733569137738
1684006632383013600,9.5824140625,-0.6780937910029358,-1.4833087919989412,-0.011290073381756797
1684006632393054600,9.592455078125,-1.076808094980112,-1.604771614113723,0.31536579125094394
1684006632403095600,9.602495849609374,-1.3357424736402044,-1.3569602966585952,0.3899736403548781
1684006632413136300,9.61253662109375,-1.5577203036345213,-1.04737949384128,0.763006687102458
1684006632423177400,9.622577880859374,-1.738164901723959,-0.30057621009534763,1.2044353485547572
1684006632433218200,9.63261865234375,-1.5772804023387557,0.5305070876308753,1.517165660967843
1684006632443259100,9.642659423828125,-1.0422717331970834,1.030463218642521,1.7509531972966552
1684006632453299900,9.6527001953125,-0.35349273696311456,1.234327316239952,1.8108620642277231
1684006632463341000,9.662741455078123,0.3234708309708579,1.2011318205980828,1.611482620251779
1684006632473381800,9.6727822265625,0.8151561618348779,1.0161228179985176,1.2245793342927311
1684006632483422600,9.682822998046875,1.1914403437708503,0.6805887222514261,0.6982464790822309
1684006632493463600,9.69286376953125,1.3607344628815063,0.31497001628798804,0.2451405525570278
1684006632503504600,9.702905029296875,1.347308516457873,-0.08040714279611344,-0.12379980073124354
1684006632513545400,9.71294580078125,1.103858709272762,-0.3765850068000281,-0.4366269111990102
1684006632523586200,9.722986572265626,0.6492814422678412,-0.5787048338559249,-0.6405868528998081
1684006632533627100,9.73302734375,0.056775808248269145,-0.7207927704633208,-0.6647319793121544
1684006632543668100,9.743068603515624,-0.5097385644764671,-0.6932582855320153,-0.6359903812937837
1684006632553709000,9.753109375,-0.9002332687478725,-0.5559606550584989,-0.570149421503382
1684006632563749800,9.763150146484374,-0.9048962593075248,-0.3469982147278115,-0.4611845016667051
1684006632573790900,9.77319140625,-0.6139575242792422,-0.1523952484427365,-0.325457572889199
1684006632583831700,9.783232177734376,-0.17003983259838315,-0.036290168818173214,-0.27026653303462644
1684006632593872600,9.79327294921875,0.1732175348537281,0.05673980726986246,-0.24054837238206025
1684006632603913600,9.80331396484375,0.40128177407626775,0.12917232506716228,-0.2010419369219679
1684006632613954600,9.81335498046875,0.48139292003402395,0.08538913730870672,-0.1883192061474581
1684006632623995300,9.823395751953123,0.46799623964228887,-0.026841163502426834,-0.17200970651806693
1684006632634036100,9.8334365234375,0.39483743901463075,-0.07855224606182577,-0.18341612825129158
1684006632644077200,9.8434775390625,0.35580962903819485,-0.09399890901896808,-0.12963080398634044
1684006632654118100,9.8535185546875,0.37590092418999166,-0.09969329833442604,-0.15654611589900272
1684006632664158900,9.863559326171876,0.5229662656947192,-0.07703495014449767,-0.05223035815265705
1684006632674199700,9.87360009765625,0.7296746969370802,0.019288063120076245,-0.043913841279742384
1684006632684240800,9.88364111328125,0.9421663284651943,0.1173772811446306,-0.02901029578648517
1684006632694281600,9.89368212890625,1.0652254818676758,0.10250377651133144,-0.0080132483029844
1684006632704322600,9.903722900390624,1.0969753266663549,0.12541198730458766,0.03083562849270435
1684006632714363300,9.913763671875,1.0147067307950661,0.15002536779426615,0.06564378751146656
1684006632724404400,9.9238046875,0.8279964925112866,0.1856393813188348,0.07698297506561215
1684006632734445200,9.933845703125,0.5979505778581211,0.13871669755656194,0.10985088340678416
1684006632744486100,9.943886474609377,0.3053008318302707,-0.021703719959002894,0.13089847552790862
1684006632754527200,9.953927490234374,-0.054053142705095945,-0.1235103606770319,0.09244585043535535
1684006632764568000,9.963968505859375,-0.3188316821676506,-0.22918605814807194,-0.039196014473400015
1684006632774608800,9.97400927734375,-0.5073780416171475,-0.38605880754936905,-0.32264709470316366
1684006632784649900,9.98405029296875,-0.5502174497511175,-0.5121688842980376,-0.5748865604955972
1684006632794690700,9.994091064453125,-0.4778343737132362,-0.6165809631037904,-0.7688231467014184
1684006632804731600,10.004132080078126,-0.2867810429269184,-0.7181529999702936,-0.8684022425433121
1684006632814772400,10.0141728515625,-0.09676157677206855,-0.7473249436233949,-0.911563396612551
1684006632824813600,10.0242138671875,0.046733349574726565,-0.6180553436536039,-0.9958770274133113
1684006632834854300,10.034254638671875,0.21111007039613097,-0.516880035259387,-0.9322929383117213
1684006632844895200,10.044295654296874,0.3404609561951606,-0.33874225602942915,-0.8885545729335064
1684006632854936000,10.05433642578125,0.4416172802880985,-0.2082128524950467,-0.7838442325816564
1684006632864977100,10.06437744140625,0.5379135013569001,-0.10870838161854303,-0.6379599571374771
1684006632875017900,10.074418212890626,0.6501650810816302,-0.045014381454253315,-0.5371305942459231
1684006632885058700,10.084459228515623,0.760796785333328,-0.02673912064757627,-0.36927342426958043
1684006632895099600,10.0945,0.8196641206988113,0.03444480906406279,-0.30441188813713904
1684006632905140600,10.104541015625,0.880326926625311,-0.05267524710502207,-0.19677686690167315
1684006632915181600,10.114581787109374,0.9329612255279075,0.01071357727132895,-0.21616268161432017
1684006632925222300,10.124622802734375,0.895399689552712,-0.026764869776753675,-0.21942615519310912
1684006632935263400,10.134663818359376,0.8678383232308933,-0.0645418167069895,-0.2327983380379847
1684006632945304200,10.14470458984375,0.7882698775205653,-0.1411247254738995,-0.2688188552973104
1684006632955345100,10.154745361328125,0.680932402550244,-0.22793960561807194,-0.3564774989415227
1684006632965385900,10.164786376953124,0.5775923729167708,-0.30798625943799546,-0.48793792743638237
1684006632975427000,10.174827392578123,0.4719446301602418,-0.3882236480447535,-0.567144870884437
1684006632985467800,10.1848681640625,0.3792710899388122,-0.3920516966984244,-0.6679716110093619
1684006632995508600,10.194908935546875,0.34804946181668844,-0.36729621892331954,-0.6946702004346043
1684006633005549700,10.2049501953125,0.29729443776447395,-0.34727668762260394,-0.7211287020868011
1684006633015590600,10.214990966796876,0.2897357939499968,-0.34375953666104225,-0.7088916302647436
1684006633025631400,10.22503173828125,0.30186730618036495,-0.29931545260072195,-0.6341319085386119
1684006633035672200,10.23507275390625,0.34307789800449384,-0.24265956873940212,-0.5876803399908913
1684006633045713300,10.24511376953125,0.39335697890518934,-0.21449947363487246,-0.5074648857484502
1684006633055754200,10.255154541015624,0.4426618814223833,-0.15742206568197914,-0.4173436164557915
1684006633065795000,10.2651953125,0.5003552438211366,-0.20535945892298066,-0.22446131713892528
1684006633075836100,10.275236572265625,0.5875583886320697,-0.10974407194700085,-0.14409232146230683
1684006633085876900,10.28527734375,0.649067997984974,-0.04540061947668559,-0.04727458948527909
1684006633095917700,10.295318115234377,0.6874360442955865,-0.0004234313233298703,0.051345348324365624
1684006633105958600,10.30535888671875,0.7454045414414077,0.04414558417323614,0.12510323520147745
1684006633115999600,10.315400146484375,0.7488086223565015,0.08587646478790333,0.15726375571955598
1684006633126040600,10.32544091796875,0.7121179103241189,-0.06167602539257365,0.2358841895872519
1684006633136081300,10.335481689453124,0.6965659260482107,-0.006443023534219457,0.21761465068056915
1684006633146122200,10.3455224609375,0.6822306512263987,-0.011702537533933981,0.17192316047170036
1684006633156163200,10.355563720703126,0.6647133827251439,-0.04381847367782477,0.12998533234910228
1684006633166204100,10.3656044921875,0.6420813798823337,-0.03578090655155763,0.02024316783217227
1684006633176244900,10.375645263671874,0.6001341939567971,-0.09742641433803689,-0.068528652171471
1684006633186286000,10.385686279296875,0.5435482262279606,-0.163848876947423,-0.1357893942461772
1684006633196326800,10.395727294921874,0.5083086490487662,-0.21818542494411478,-0.19564461714508422
1684006633206367600,10.40576806640625,0.44745033979362275,-0.23405265811625497,-0.2790153025673466
1684006633216408800,10.41580908203125,0.4118809104282141,-0.2568874357724277,-0.273673057391917
1684006633226449600,10.42585009765625,0.39007282269992455,-0.24839305886247837,-0.2848796844848071
1684006633236490400,10.435890869140623,0.3792970180444247,-0.2492427825831402,-0.295825719700929
1684006633246531200,10.445931640625,0.36758166545491516,-0.23774623869710854,-0.31329369543343116
1684006633256572300,10.45597265625,0.3974449038699396,-0.2163906095828434,-0.2585306167942043
1684006633266613200,10.466013671875,0.4309662580263317,-0.1755800247977684,-0.22640895845601838
1684006633276654000,10.476054443359375,0.4476087092306718,-0.12345504761793749,-0.1896500588124587
1684006633286694800,10.48609521484375,0.43814986953672697,-0.06715965273671726,-0.17397308341458265
1684006633296735900,10.49613623046875,0.40522265427869825,-0.03036212913659664,-0.153225660332423
1684006633306776800,10.50617724609375,0.3985503911097812,-0.005615234226090284,-0.09437179579802406
1684006633316817600,10.516218017578124,0.3916423915288843,-0.01150989534991244,-0.08267736433071138
1684006633326858600,10.526259033203123,0.36780679236176683,-0.028730392523435472,-0.02555227278316566
1684006633336899600,10.5362998046875,0.3369110227179597,0.02289867400418258,-0.03691244121467486
1684006633346940300,10.5463408203125,0.30175745484894084,0.04326534279569652,-0.040547370788625345
1684006633356981200,10.556381591796876,0.2721840738036821,0.03284740446740691,0.017379760764832164
1684006633367022300,10.566422607421876,0.20847785471363994,0.04870414736077794,-0.014822483179245895
1684006633377063100,10.57646337890625,0.18391346920089074,-0.013438224723767976,0.009821414998770709
1684006633387103900,10.58650439453125,0.14324724678082618,-0.055894851623517254,0.05721902844010689
1684006633397145000,10.59654541015625,0.11777734747586398,-0.10022830963782091,0.07027578365169364
1684006633407185800,10.606586181640624,0.05592966091041196,-0.1277189253864853,-0.002658367216519319
1684006633417226600,10.616626953125,0.015038251847662287,-0.1760864258414483,-0.11734056456498362
1684006633427267600,10.62666796875,-0.021584689606372782,-0.1740808486330072,-0.190114021347693
1684006633437308600,10.636708984375,0.006767272904101576,-0.1507034302153338,-0.2072610854899059
1684006633447349400,10.646749755859377,0.07285332677664523,-0.12977981562150523,-0.1059167384676943
1684006633457390300,10.656790771484374,0.1171264647144325,-0.08568191538314009,0.04066610333915084
1684006633467431300,10.666831787109375,0.15182757383102163,-0.05413055424819978,0.06450223922427784
1684006633477472200,10.67687255859375,0.16062390803864934,-0.006318092265037131,0.10494899756748859
1684006633487513000,10.686913330078124,0.20967912667934605,0.07613945011709311,0.1213650702082836
1684006633497553800,10.696954345703125,0.25360536579155746,0.13394260416490153,0.08147048949199821
1684006633507594900,10.706995361328126,0.32270050041821874,0.15333747860089966,0.07803535450644862
1684006633517635800,10.7170361328125,0.34771120549045315,0.160880088741039,0.13888263693401182
1684006633527676600,10.727076904296876,0.37148976324857347,0.12159538269507708,0.15737438198985212
1684006633537717400,10.737117919921875,0.386468410604205,0.10420322419306875,0.24427223206155665
1684006633547758600,10.747158935546874,0.4138746260490923,0.12457942957576389,0.28495359420828564
1684006633557799300,10.75719970703125,0.406538009701836,0.10422420506613739,0.32685232161267913
1684006633567840200,10.767240478515625,0.3859633208030852,0.08123207097047444,0.29649686821644705
1684006633577881300,10.77728173828125,0.32691204556616055,0.03203773506764563,0.2607674598265852
1684006633587922100,10.787322509765623,0.24243724339977366,-0.02164649956189299,0.16798877720807398
1684006633597962900,10.79736328125,0.16884338848705177,-0.12194728860134256,0.03110980984389719
1684006633608004000,10.807404296875,0.06618821615357015,-0.15705394743014722,-0.1601433752719889
1684006633618044800,10.8174453125,0.005834698708860457,-0.18434238437478395,-0.2914917470741603
1684006633628085600,10.827486083984375,-0.05208718781722463,-0.22251701356143827,-0.3377087115200392
1684006633638126600,10.83752685546875,-0.06733572481567163,-0.25008201589301515,-0.31885623948059766
1684006633648167600,10.847568115234376,-0.033826828070177326,-0.17541027057113037,-0.29481506351741094
1684006633658208400,10.85760888671875,0.0027881860296771746,-0.1745023726459291,-0.1575329302203183
1684006633668249300,10.867649658203124,0.07710266110556008,-0.013381958106159667,-0.03888702387712708
1684006633678290400,10.877690673828123,0.13916289803378798,0.06727981568164215,0.08916234973423685
1684006633688331200,10.887731689453124,0.17256963262127095,0.09212684626049729,0.23303937910243305
1684006633698372000,10.8977724609375,0.19594037519422527,0.15149974817536455,0.27014875425501844
1684006633708412800,10.907813232421876,0.1743670702186328,0.02361679088547594,0.35776901258436494
1684006633718453900,10.917854248046876,0.17654180513821496,0.04138374321902982,0.32607793807725244
1684006633728494800,10.927895263671877,0.16556155684887144,0.07287120813406947,0.2526745796795554
1684006633738535600,10.93793603515625,0.1466975210603722,0.06622219079371848,0.1926589013637592
1684006633748576400,10.947976806640623,0.1323951484215994,0.07405757900433547,0.11546564094629622
1684006633758617600,10.958017822265624,0.13177359092790975,0.060652732799374484,0.09171104430055513
1684006633768658400,10.968058837890624,0.13748955717222816,0.1650838851745758,0.03773927694185827
1684006633778699200,10.978099609375,0.07054293166670422,-0.07817173002539489,0.11665010457748723
1684006633788740300,10.988140625,0.051670312830535726,-0.023027420088994756,0.06494808184946979
1684006633798781100,10.998181396484377,0.004485130370584097,-0.03472518914851451,0.018908023964129012
1684006633808821900,11.008222412109374,-0.027142286435199347,-0.029609680133583054,-0.03801202769670084
1684006633818863000,11.018263427734375,-0.03840816008260171,-0.06910514821510069,-0.09382486350479582
1684006633828903900,11.02830419921875,-0.046482801581280896,-0.07953929905187006,-0.09912014001639827
1684006633838944600,11.038344970703124,-0.011821508294708368,-0.10131549833375443,-0.13444805147692723
1684006633848985600,11.048385986328125,-0.0012006760394586286,-0.08973121639024383,-0.13381290447070626
1684006633859026600,11.058427001953126,0.011633992118890242,-0.06416225434280284,-0.14249849336673898
1684006633869067400,11.0684677734375,0.014952301877791403,-0.06958770759428469,-0.1321592331116585
1684006633879108300,11.0785087890625,0.018262386391086995,-0.08666801440773246,-0.15020132058431898
1684006633889149400,11.0885498046875,0.01210820662845322,-0.06347465519506833,-0.15388202675946577
1684006633899190200,11.098590576171874,-0.0031878948770831805,-0.06418609617031265,-0.19752073287115496
1684006633909231000,11.10863134765625,0.005592346017457526,-0.062470436174682197,-0.20506381987339825
1684006633919271900,11.11867236328125,0.02849543100781457,-0.0913219451871658,-0.19589924803205713
1684006633929312900,11.12871337890625,0.025245547406788738,-0.0984249115693085,-0.20793294892096564
1684006633939353800,11.138754150390625,0.04808712015860359,-0.10531902326211702,-0.19370818132397083
1684006633949394600,11.148794921875,0.05416405213633945,-0.09078693391025831,-0.19595813740558057
1684006633959435400,11.1588359375,0.07920825484328922,-0.08343505862739709,-0.1838357449776916
1684006633969476600,11.168876953125,0.08052051073483966,-0.085472106879735,-0.1904785632618257
1684006633979517400,11.178917724609375,0.09616851806393074,-0.0872669220116086,-0.20603656763327613
1684006633989558200,11.18895849609375,0.10696375359256169,-0.09123325359633437,-0.19512844097409393
1684006633999599300,11.198999755859376,0.12223935139617968,-0.1162910461450647,-0.1372358798455851
1684006634009640100,11.20904052734375,0.12307882290328885,-0.11730003356640491,-0.14836335198585363
1684006634019680900,11.219081298828126,0.10990798472389046,-0.08765220649519335,-0.16161036488417915
1684006634029722000,11.229122314453123,0.1020672320278952,-0.06085109708803489,-0.16060996063882516
1684006634039762900,11.239163330078124,0.07600903517855147,-0.06035232548170222,-0.11493468295305062
1684006634049803600,11.2492041015625,0.0765823125210826,-0.06459903718771094,-0.06309652325589875
1684006634059844600,11.259244873046876,0.07733511918584692,-0.08527946478923668,-0.005157947525439543
1684006634069885600,11.2692861328125,0.04768550396321554,-0.08925819401148768,-0.009713172735133361
1684006634079926400,11.279326904296877,0.04046046750388456,-0.05091094988223605,-0.014646053292103287
1684006634089967300,11.28936767578125,0.03431427479227191,-0.02021121972012799,-0.07848238937359775
1684006634100008400,11.29940869140625,0.057205915339557066,-0.0276193618621946,-0.07770895956010353
1684006634110049200,11.30944970703125,0.05882310873857685,-0.07258415223704755,-0.05585241306743198
1684006634120090000,11.319490478515624,0.05334830286367655,-0.05326366420299857,-0.036760091831203094
1684006634130130900,11.32953125,0.08788406859293814,-0.05548858631669594,-0.029794692939427752
1684006634140172000,11.339572265625,0.09647417073728674,-0.027153015171044646,0.026184558916739004
1684006634150212800,11.34961328125,0.13404846187414754,-0.01591014865812175,0.06186485302724865
1684006634160253600,11.359654052734374,0.1553111077478451,0.009065628142404017,0.08924341206444814
1684006634170294600,11.369695068359375,0.1884237528343944,0.00752162944014697,0.061468124485295275
1684006634180335600,11.37973583984375,0.2087060212885002,0.03167057036454199,0.052623748794708956
1684006634190376400,11.38977685546875,0.19007563580315176,0.03406238537922796,0.03202629093702926
1684006634200417500,11.39981787109375,0.1765383480780103,0.0270166397686928,0.0400629042758939
1684006634210458300,11.409858642578126,0.1523125172091223,-0.015215873677715114,0.11134672157039613
1684006634220499100,11.4198994140625,0.15700340274037286,-0.023744583050626464,0.1273317337285196
1684006634230540000,11.4299404296875,0.18275690077099704,-0.036948204027208734,0.1687374115297427
1684006634240581000,11.4399814453125,0.17036700245721462,-0.019416809220629803,0.07745075229051629
1684006634250621900,11.450022216796874,0.1998685598702303,0.016577720706130946,0.05831956873602808
1684006634260662600,11.46006298828125,0.17136293649449297,0.06120109552764425,-0.050106763943816975
1684006634270703800,11.470104248046876,0.15951979154423998,0.06026363381397669,-0.09327816960655029
1684006634280744600,11.48014501953125,0.09902578591048711,0.04749679563507865,-0.14544105532381696
1684006634290785500,11.490185791015625,0.05281305312824276,0.006717681950179712,-0.22762775416800127
1684006634300826300,11.500226806640624,0.03044205885985057,-0.07085418707729331,-0.28960251811854654
1684006634310867400,11.510267822265623,0.02443856002287565,-0.16568660734484178,-0.3550386428006779
1684006634320908200,11.52030859375,0.06932055948474401,-0.23023223867338136,-0.4304111004557732
1684006634330949000,11.530349365234375,0.11181324728149597,-0.24134349818727835,-0.49867105477921203
1684006634340990100,11.540390625,0.14240211254361732,-0.23034572612616483,-0.5100810526837611
1684006634351031000,11.550431396484376,0.1778305769052803,-0.1599168778284925,-0.46317625041759697
1684006634361071800,11.56047216796875,0.19931864737245156,-0.1251659394171089,-0.3282372951457737
1684006634371112600,11.570512939453126,0.22101080414425753,-0.07603073117177059,-0.1772100924872841
1684006634381153600,11.58055419921875,0.2643380761869297,-0.029469490118915483,0.11852788926259936
1684006634391194600,11.590594970703124,0.32453906538724797,0.09188556654927263,0.3414609431818104
1684006634401235400,11.6006357421875,0.3826850651470709,0.1548185347558593,0.5065832136920673
1684006634411276500,11.6106767578125,0.4101127981787357,0.24013233192342226,0.6168177127819274
1684006634421317300,11.6207177734375,0.4463697074387719,0.3119611738664767,0.7387869358997128
1684006634431358100,11.630758544921877,0.42484623182210113,0.35163402548932793,0.7616009712330845
1684006634441399200,11.640799560546874,0.4147709609559548,0.34093666091383173,0.7953836918010874
1684006634451440000,11.65084033203125,0.36719512932246834,0.37498283391504095,0.8188748359638739
1684006634461480900,11.66088134765625,0.36791944494268203,0.3965749740778639,0.8464117049019744
1684006634471521600,11.670922119140624,0.3624299168047412,0.38005256663844966,0.8614287376146087
1684006634481562800,11.680963134765625,0.4030044675347018,0.4673194885231115,0.8641309737152937
1684006634491603600,11.691004150390626,0.4601929782828372,0.4799146651483697,0.8591461181659453
1684006634501644500,11.701044921875,0.4739164115004794,0.43767833705208764,0.8697652817949042
1684006634511685600,11.7110859375,0.4721766709455226,0.39553642277945716,0.8179020881392458
1684006634521726400,11.721126708984375,0.4457581043277912,0.3158063888705614,0.6692490576976952
1684006634531767200,11.731167724609374,0.3846157192928673,0.24399185181563726,0.5055923461111809
1684006634541808000,11.74120849609375,0.3468117713350958,0.1848831175760061,0.3534212113479166
1684006634551849100,11.75124951171875,0.3064709306155848,0.10780143742904974,0.21045589457557545
1684006634561890000,11.761290283203126,0.3077632784609173,0.03416442873292835,0.08591604236607402
1684006634571930800,11.771331298828123,0.30887007721058124,-0.036165237397662274,-0.022877216365370587
1684006634581971900,11.781372314453124,0.3226611613833117,-0.06329250326057463,-0.15620446200710375
1684006634592012600,11.7914130859375,0.3221982717520355,-0.05730533600408138,-0.30877161030675987
1684006634602053600,11.801453857421874,0.2846319078125584,-0.03972244274584816,-0.42335271848006867
1684006634612094600,11.8114951171875,0.26448085889988776,-0.03159523017717108,-0.4553918839673329
1684006634622135500,11.821535888671876,0.23339778184144522,0.0028371812679947074,-0.4671003819006224
1684006634632176300,11.83157666015625,0.21671471001400258,-0.04275894173546814,-0.3670272828938633
1684006634642217100,11.841617431640625,0.26927477126042393,-0.03779315944826369,-0.20226168629821384
1684006634652258200,11.85165869140625,0.3549281657484906,0.014477729811282421,-0.09634637845011966
1684006634662299100,11.861699462890623,0.4890666903203621,0.07786178592080016,0.0340762136698222
1684006634672339900,11.871740234375,0.6055073739177647,0.15423011781457563,0.11049652111005501
1684006634682381000,11.881781494140624,0.7298556566357426,0.2595787048909142,0.1640877723230621
1684006634692421800,11.891822265625,0.7741109728326914,0.30609321587853777,0.20664119725343355
1684006634702462600,11.901863037109376,0.7867953776528349,0.30640602115671955,0.2569293974504767
1684006634712503500,11.91190380859375,0.7294113038906089,0.28946685778868647,0.2745943069126325
1684006634722544600,11.921945068359374,0.5904749632027388,0.27193546278734976,0.2527990340749838
1684006634732585400,11.93198583984375,0.4061736464610355,0.3125610350630123,0.10478544245865389
1684006634742626200,11.942026611328124,0.1728483439329692,0.29966258994005684,-0.04982900619721013
1684006634752667300,11.952067626953124,-0.09570125498800557,0.23627567276319705,-0.17379593849729036
1684006634762708100,11.962108642578125,-0.35892257110149584,0.13736915574227285,-0.34773159032188217
1684006634772749000,11.9721494140625,-0.6097756624663616,0.001400947732675694,-0.5703940390695506
1684006634782790100,11.9821904296875,-0.8820430041225306,-0.07200622561362692,-0.7936575412987286
1684006634792830900,11.992231201171874,-1.1288409232843886,-0.17327404019524412,-1.043732166371721
1684006634802871600,12.002272216796875,-1.3621126412550315,-0.29625988006989873,-1.2440488338933287
1684006634812912600,12.01231298828125,-1.5712488890225855,-0.4115648268988512,-1.4171679018892478
1684006634822953600,12.02235400390625,-1.6049044131958183,-0.5160684585426183,-1.4731724262067376
1684006634832994600,12.032394775390625,-1.4927670955364907,-0.5971231459734163,-1.5419976712112846
1684006634843035300,12.042435791015626,-1.2052698135212323,-0.5846586227108111,-1.590440511724456
1684006634853076400,12.052476806640623,-0.8498363493422821,-0.538516044590591,-1.4341771601827253
1684006634863117200,12.062517578125,-0.47601351156326654,-0.47095775598080064,-1.2673647402645367
1684006634873158100,12.072558349609375,-0.14070536208238024,-0.35114383701800483,-0.980253458157285
1684006634883198900,12.082599365234374,0.1858167648011262,-0.2514057157886891,-0.5980076790006047
1684006634893240000,12.092640380859375,0.45435550811216957,-0.12929630294034647,-0.298733234419329
1684006634903280800,12.10268115234375,0.6780674458203899,-0.0010852813067855713,-0.24373292910099223
1684006634913321600,12.11272216796875,0.9203085899761813,0.08974647513942877,0.029413700146322507
1684006634923362700,12.12276318359375,1.1058630941841905,0.3110456466649544,0.36299562467952834
1684006634933403600,12.132803955078124,1.2378700969768213,0.44398498546937176,0.6417798996025115
1684006634943444400,12.1428447265625,1.2453298567714928,0.6247949598732457,0.7293066977838214
1684006634953485600,12.152885986328124,1.192776679897308,0.7221660614131711,0.7502915859283814
1684006634963526300,12.1629267578125,1.045439243250259,0.7984819411835962,0.6902685165423323
1684006634973567200,12.172967529296876,0.8016843796666184,0.7893896103601029,0.5920016764992688
1684006634983608200,12.183008544921876,0.4674791097067133,0.6998825073075045,0.4479393957931633
1684006634993649100,12.193049560546877,0.12625432013622448,0.5325469971225394,0.3033430576856654
1684006635003689900,12.20309033203125,-0.2470061778483189,0.378493308986165,0.09909176828058008
1684006635013730700,12.213131103515623,-0.5869401098531548,0.17107963555640232,-0.12042927758816159
1684006635023771800,12.223172119140624,-0.9439164995542773,-0.1277265548931516,-0.2824656962001086
1684006635033812600,12.233213134765624,-1.2118632793419866,-0.33139228822505196,-0.4599351881764874
1684006635043853600,12.24325390625,-1.3982067108160445,-0.4016008378089216,-0.6009113790108869
1684006635053894600,12.253294921875,-1.5117764474143163,-0.5340900422023098,-0.7539436817307273
1684006635063935400,12.263335693359377,-1.466415166949509,-0.6544170379391337,-0.8632485865631774
1684006635073976200,12.273376708984374,-1.311838626918181,-0.726831436092946,-0.9409825802803996
1684006635084017100,12.28341748046875,-1.0489733218714274,-0.7703294754097424,-1.022912263901517
1684006635094058200,12.29345849609375,-0.806652784225629,-0.6915378569920434,-1.0112390518839938
1684006635104099000,12.30349951171875,-0.5363197327187528,-0.679076194766288,-1.056844711201802
1684006635114139800,12.313540283203125,-0.36328852171701775,-0.600934982405909,-1.0783078669926542
1684006635124180900,12.323581298828126,-0.19650042040194365,-0.5453844070442563,-1.0736048221353014
1684006635134221700,12.3336220703125,-0.09647643573097262,-0.4549169541752455,-1.0262539386362985
1684006635144262600,12.3436630859375,-0.12464308739085438,-0.4512958526534365,-1.007797002691303
1684006635154303400,12.353703857421875,-0.1957736015464051,-0.39140415195143063,-0.9112582206212568
1684006635164344600,12.363744873046874,-0.3122555018205189,-0.399963378915111,-0.7919709682322823
1684006635174385300,12.37378564453125,-0.5070766211688962,-0.3386106491572608,-0.7381582260689395
1684006635184426400,12.383826904296876,-0.6218788624339852,-0.3539686203587205,-0.5210342408712397
1684006635194467200,12.39386767578125,-0.7385969161741722,-0.3537607193999412,-0.35034418109400867
1684006635204508100,12.403908447265623,-0.8143806459287201,-0.34807300573764705,-0.24608159078253952
1684006635214548900,12.41394921875,-0.9527498483680885,-0.3752174377280376,-0.29677057265188744
1684006635224590000,12.423990478515623,-1.0876442192754383,-0.4640989302998207,-0.25703048709640675
1684006635234630800,12.43403125,-1.2604761123490027,-0.514707565423154,-0.22619867334170846
1684006635244671600,12.444072021484375,-1.3765825034030073,-0.5938434601120708,-0.311659574579665
1684006635254712800,12.454113037109376,-1.4356904030447055,-0.6577081681359065,-0.46213030820031953
1684006635264753600,12.464154052734376,-1.4537988900426326,-0.7650766373734618,-0.7166147232169789
1684006635274794400,12.47419482421875,-1.4000049828491012,-0.833893775873056,-0.844030380305849
