time,seconds_elapsed,z,y,x
1684180065764813000,0.04721337890625,1.5953183103163844e-10,-9.191262270359375e-11,2.747338290638259e-12
1684180065774854100,0.05725439453125,0.05666112893149696,0.08552932746608072,0.08722543718549061
1684180065784895400,0.0672958984375,-0.046098232214507866,0.14092850672606375,0.10481071467554572
1684180065794936800,0.077337158203125,0.018797397633586156,0.06753897661369374,0.007786750879846348
1684180065804977800,0.087378173828125,0.111159324577737,-0.009323835373683254,-0.09681367892084645
1684180065815019200,0.097419677734375,0.010243415747984496,-0.025496005943160458,-0.22283601771419534
1684180065825060600,0.1074609375,0.004834651999780628,-0.025581121378022383,-0.1695885657351235
1684180065835101600,0.117501953125,0.09127712234624072,-0.07504153255255915,-0.17366123215066653
1684180065845143000,0.12754345703125,0.10061788558442723,-0.10418486584125758,-0.19849157322703168
1684180065855184000,0.13758447265625,0.11033010491612545,-0.059282064453118496,-0.10697364790006858
1684180065865225400,0.147625732421875,-0.230033874400619,0.08870410914057802,-0.20461988448416804
1684180065875266700,0.157667236328125,-0.36012268075258275,0.21782970441278043,-0.27536249165061055
1684180065885307800,0.167708251953125,-0.18476104718916622,0.23082876201753083,-0.30130338668369216
1684180065895349200,0.17774951171875,0.9481968879115252,0.09115171424070542,-0.894132137326744
1684180065905390600,0.187791015625,1.4764094352940837,0.4968879223539414,-0.43838834771430274
1684180065915431600,0.19783203125,0.8334612847583137,1.312760949208734,-0.07447671907594723
1684180065925472900,0.207873291015625,0.0773153303668104,-0.0159130097271706,0.4262423515769814
1684180065935514300,0.217914794921875,-0.09097099319278507,-0.30573058133492576,0.311600684991646
1684180065945555400,0.227955810546875,-0.15495491009422296,-0.3353435992887172,0.24901294703708232
1684180065955596600,0.2379970703125,-0.18864679338047918,-0.25704431536628053,-0.171184539766465
1684180065965637800,0.2480380859375,-0.09046077718485493,-0.1805348395971713,-0.06565999988853524
1684180065975679200,0.25807958984375,-0.3573417663329363,-0.07609200474240607,0.07242727263909744
1684180065985720600,0.268120849609375,-0.6118588448047951,-0.028903245891526024,0.03310775771848801
1684180065995761600,0.278161865234375,-0.5300040244040142,-0.07264876354886875,-0.1416363716776253
1684180066005802900,0.288203369140625,-0.3087167740481131,-0.003124237032016195,-0.35353469861757103
1684180066015844300,0.29824462890625,-0.12378501882411891,-0.015244960918373907,-0.630104541688255
1684180066025885400,0.30828564453125,0.20907783517668424,-0.14120912563817511,-0.7343072890026509
1684180066035926600,0.3183271484375,0.3436703682359832,-0.25673294069585845,-0.8800592421223399
1684180066045968000,0.328368408203125,0.22089529041762343,-0.3134484289754314,-0.797014236476761
1684180066056009100,0.338409423828125,-0.05354571337879973,-0.16848802551022163,-0.46516275399217194
1684180066066050600,0.348450927734375,-0.33432650558652854,0.07479381569217619,-0.3755493164250084
1684180066076091600,0.358491943359375,-0.6359317303223463,0.28189754489766683,-0.5913534163882789
1684180066086132900,0.368533203125,-0.5066595077525547,0.1265804767554949,-0.7272634506220705
1684180066096174300,0.37857470703125,-0.11369276033468032,-0.25385332089962215,-0.48642539975236715
1684180066106215300,0.38861572265625,0.32647728911929974,-0.2545011043588541,-0.6633644105338816
1684180066116256600,0.398656982421875,0.37677359579685005,-0.44351720800176747,-0.4859170912698481
1684180066126298000,0.408698486328125,0.2348389625807281,-0.5532815456058204,-0.417791366663765
1684180066136339100,0.418739501953125,-0.1887921093719094,-0.29822134971256226,-0.5081701278852504
1684180066146380500,0.42878076171875,-0.5588625669571654,-0.01840186109778883,-0.3978757858357897
1684180066156421600,0.438822021484375,-1.0167046786266785,0.02074193955736311,-0.10589122779579115
1684180066166462900,0.44886328125,-1.2033716439746271,-0.01066017148560888,-0.061938285811976655
1684180066176504200,0.458904541015625,-1.2904850245122885,-0.05836820605851525,0.307371139374938
1684180066186545300,0.46894580078125,-1.3883846998527403,0.3363952637189919,-0.037554740736504076
1684180066196586600,0.478987060546875,-1.4342448710761395,0.7373964784953035,-0.3470659256109185
1684180066206628000,0.4890283203125,-1.1630601882494347,0.9969089030171693,-0.5037775040683857
1684180066216669100,0.499069580078125,-0.8868390322581665,0.6538510322097034,-0.30780792222387326
1684180066226710400,0.50911083984375,-0.37724211797277574,-0.004355907445386908,-0.1373472214665933
1684180066236751800,0.519152099609375,-0.0007425504976068533,-0.11732578274358577,-0.5830640792879631
1684180066246792900,0.529193359375,-0.011292107243322169,-0.04056358328544733,-1.3711662294359037
1684180066256834200,0.539234619140625,-0.36870965349584367,-0.281476974435272,-1.5304422378620204
1684180066266875300,0.549275634765625,-0.2989372313758202,-0.5813779830802739,-0.7420210837733054
1684180066276916600,0.559317138671875,0.0012479423351366649,-0.6733832359205771,-0.673548221645285
1684180066286958000,0.5693583984375,0.004506349590436583,-0.8264098165905063,-0.646692276097689
1684180066296999100,0.5793994140625,-0.7343873977329962,-0.9511432647578325,-0.20590591423254312
1684180066307040400,0.58944091796875,-0.950078189351181,-0.637652873908053,0.22666549687807608
1684180066317081600,0.59948193359375,-0.8450918791719156,-0.17773771285479067,0.29632759108441353
1684180066327122900,0.609523193359375,-0.8367996215563883,-0.05170249937243586,0.34144020066504277
1684180066337164200,0.619564697265625,-0.7009332775786743,0.22526931757423047,-0.1917119026670547
1684180066347205300,0.629605712890625,-0.5223549603872406,0.46089315423425786,-0.7616539002951148
1684180066357246600,0.63964697265625,-0.383872508933316,0.5735831262453135,-0.813406467400661
1684180066367288000,0.6496884765625,-0.3313242792717046,0.5239853858439717,-0.7533183098513779
1684180066377329100,0.6597294921875,-0.2662908435499763,0.2728166581847722,-0.3702387808886441
1684180066387370400,0.669770751953125,-0.03103137010990368,-0.004657745458440197,0.2658295631282138
1684180066397411600,0.67981201171875,0.20769256355639498,-0.31889152531191656,1.1899967194513699
1684180066407452800,0.689853271484375,0.2819820047733936,-0.41692304608554204,2.001485347760745
1684180066417494200,0.69989453125,0.0653367638652941,-0.8138623237370671,3.0217375755200786
1684180066427535300,0.709935791015625,0.008255958491330663,-1.0018105507197588,3.379792213287717
1684180066437576600,0.71997705078125,-0.205124616582868,-0.43326187134839944,2.7935533522150466
1684180066447618000,0.730018310546875,-0.18155360219826244,-0.16699647897648967,1.8109350205013666
1684180066457659100,0.7400595703125,-0.38321197028033804,-0.44755125053572403,1.3046479225122607
1684180066467700400,0.750100830078125,-0.6198858021721629,-0.8441276549941193,0.818175792806493
1684180066477741700,0.76014208984375,-0.8938384055514,-0.8824415206590993,0.03816986076514024
1684180066487782800,0.770183349609375,-0.9947441816232614,-0.9035639762737553,-0.38952589049837105
1684180066497824200,0.780224609375,-0.8994895218029403,-1.0065207482024143,-0.629401683781896
1684180066507865300,0.790265625,-0.6762331724166679,-1.1474080085103056,-0.6197605132947737
1684180066517906600,0.80030712890625,-0.5540869234315976,-1.223728656677988,-0.313506126435067
1684180066527948000,0.810348388671875,-0.41239595406009943,-1.1682577133325391,-0.05702161791431711
1684180066537989000,0.820389404296875,-0.394730806301566,-1.2331814764919002,0.2026109695548821
1684180066548030400,0.8304306640625,-0.390927791503602,-0.9607038497628827,0.2811303139685906
1684180066558071600,0.84047216796875,-0.3481158018338672,-0.5774545668541063,0.25792503356720053
1684180066568112800,0.85051318359375,-0.46991038318137934,-0.7656779288698472,0.27868986129528767
1684180066578154200,0.860554443359375,-0.47626972203995716,-0.7417101860281243,0.43195438388576596
1684180066588195200,0.870595703125,-0.5124845503998952,-0.7949357032635841,0.5036053658972884
1684180066598236600,0.880636962890625,-0.6414560079840086,-0.8733215333261694,0.29518556603110385
1684180066608277900,0.89067822265625,-0.48261451710634756,-0.9117197990668386,0.037055492333961805
1684180066618319000,0.900719482421875,-0.4136335850054169,-0.8966183662761325,-0.5294671057540394
1684180066628360400,0.9107607421875,-0.17935037622485953,-1.062980175071552,-0.6940436362378675
1684180066638401500,0.9208017578125,0.048546791089962925,-0.6758360863351259,-0.6977586746740981
1684180066648442800,0.93084326171875,0.11492967614701122,-0.24599075329084885,-0.5455756187447321
1684180066658484100,0.940884521484375,-0.21766281131678084,-0.3349666595629189,-0.41845178616931916
1684180066668525200,0.950925537109375,-0.3606669901482711,-0.5643129347636963,-0.43842887869261243
1684180066678566600,0.960967041015625,-0.29746937743432056,-0.7187228202204762,-0.4543972015116834
1684180066688607900,0.97100830078125,-0.1783847807256694,-0.5901260375372083,-0.6930727957592577
1684180066698649000,0.98104931640625,-0.1398210525671277,-0.6323370934697676,-0.5200014114857007
1684180066708690400,0.9910908203125,-0.16779112817872233,-0.6060562135756706,-0.6021738051928329
1684180066718731600,1.001132080078125,-0.00014758108713181902,-0.5309944154163845,-0.6893453596986905
1684180066728772800,1.011173095703125,0.21889185897547953,-0.27400255200390466,-0.8929548263833229
1684180066738814100,1.021214599609375,0.23843073839682777,-0.5873956679176322,-1.0896992683755613
1684180066748855200,1.031255615234375,0.1860644816131867,-0.4630584716303293,-1.4506087303873902
1684180066758896600,1.041296875,0.15915870674742016,-0.716889858110848,-1.4008374215302086
1684180066768937600,1.051338134765625,0.27665901199780374,-0.8112101555056163,-0.8520307542293754
1684180066778979000,1.06137939453125,0.4789135454557107,-0.49845314020526665,-0.5002064703089316
1684180066789020300,1.071420654296875,0.6089837550942908,-0.4659972190359472,-0.028631687215564895
1684180066799061400,1.0814619140625,0.6346609593937225,-0.3512511253593826,0.2766566276996829
1684180066809102800,1.091503173828125,0.48860025407368857,-0.3965992926591284,0.3109750748524719
1684180066819144100,1.10154443359375,0.3906600474482524,-0.47603082664791896,0.23696660989220375
1684180066829185200,1.111585693359375,0.34379172340136144,-0.47023057932407425,0.06361722943644561
1684180066839226600,1.121626953125,0.23095464698368495,-0.6560378075314327,-0.012382507309506513
1684180066849267900,1.131668212890625,0.14384770401288713,-0.6086578368921949,-0.07604169847146293
1684180066859309000,1.14170947265625,0.018088817626145788,-0.22625875474115123,0.0658597946370464
1684180066869350300,1.151750732421875,0.2309434412833131,-0.026147842417285988,0.019549846708408793
1684180066879391400,1.161791748046875,0.13839960101945864,-0.6056175231779353,-0.595852851847787
1684180066889432800,1.171833251953125,-0.07024312012453536,-0.8631758688823725,-1.2737536430292342
1684180066899474100,1.18187451171875,-0.16015768055992385,-0.8403339386487743,-1.5451951025623603
1684180066909515200,1.19191552734375,-0.2905294894173062,-1.0297183989517964,-1.4660506247724023
1684180066919556600,1.20195703125,-0.4882607460482291,-0.8840284346905471,-1.3549523353899207
1684180066929597600,1.211998046875,-0.6122283934315177,-0.7980709075774403,-1.2298917769081175
1684180066939639000,1.222039306640625,-0.7696866989886485,-0.7309927939917111,-1.0339398382914684
1684180066949680300,1.232080810546875,-0.9106171129551055,-0.4806475638362284,-0.946550846088571
1684180066959721400,1.242121826171875,-0.8153634070898214,-0.469589233443525,-0.5676722526087739
1684180066969762700,1.2521630859375,-0.45697879778837663,-0.5529470444307532,-0.08755779269907582
1684180066979804100,1.26220458984375,-0.3375222682347003,0.661557197702334,0.5261006354545084
1684180066989845200,1.27224560546875,-0.7240710259855928,-0.49148893354189865,0.04001045233964773
1684180066999886600,1.282286865234375,-0.3479855062093875,-0.7051734925827848,0.15407419205894868
1684180067009927600,1.292327880859375,-0.34585142132933366,-0.1562476157379061,0.33109474172683956
1684180067019968900,1.302369384765625,-0.3416340351077672,-0.051124572874302276,0.3273868561699072
1684180067030010300,1.31241064453125,-0.09377121926018363,-0.18880367273886073,0.47543573366570546
1684180067040051400,1.32245166015625,0.003538370106163029,-0.29421854014082816,0.814297675971551
1684180067050092600,1.3324931640625,-0.0664832590714742,-0.06821012491864406,0.9503068924403492
1684180067060134100,1.342534423828125,-0.21351814266220645,0.14358472808316333,0.9749383925918214
1684180067070175200,1.352575439453125,-0.3860766887653393,0.22351455686106514,0.5354499817493118
1684180067080216600,1.362616943359375,-0.5899081230184408,0.25149774561236693,0.045303344760401563
1684180067090257600,1.372657958984375,-0.7243306637466017,0.08013629910188677,-0.6656131744912674
1684180067100298900,1.38269921875,-0.868224382412712,-0.08880710614534085,-1.155810356276578
1684180067110340300,1.39274072265625,-0.7956404684868329,-0.08680248263526466,-1.3249201776076962
1684180067120381400,1.40278173828125,-0.5818653108092072,-0.003496646721439004,-1.5114049912457352
1684180067130422600,1.412822998046875,-0.3982975483012301,0.2944173813245586,-1.5538640021105783
1684180067140463800,1.4228642578125,-0.27154564855725033,0.7109322549291358,-1.368611812596692
1684180067150505100,1.432905517578125,-0.2493083475682161,0.45168352111068766,-0.5630011559908056
1684180067160546600,1.44294677734375,-0.16609024986938722,0.27426576618129284,-0.2299947738196479
1684180067170587600,1.452988037109375,0.07622766506147505,0.42866086946091136,-0.5042319298484929
1684180067180628900,1.463029296875,0.001150369607404949,-0.06077623363847968,-0.6100006103860476
1684180067190670300,1.473070556640625,0.029098749290774373,-0.31267261492664866,-0.6960625648459324
1684180067200711300,1.48311181640625,0.22571372989084523,0.043446063960504606,-1.2853503228708174
1684180067210752600,1.493153076171875,0.4224724768089201,0.5361256599851685,-1.1474881173447498
1684180067220793800,1.503194091796875,0.6449124812823709,-0.553141594043762,-1.0379400253101057
1684180067230835100,1.513235595703125,1.0517339706973121,-0.3393654823250758,-1.2430891991913897
1684180067240876500,1.52327685546875,1.399791479192339,0.5093207359723642,-1.528365612005707
1684180067250917600,1.53331787109375,1.3626856805295484,0.8734655380835143,-1.7197904588180957
1684180067260958900,1.543359375,1.0210535526088413,0.5846858024022267,-1.2578344344297379
1684180067271000000,1.553400390625,0.4983737469497064,0.5013241768911869,-0.7749042511904881
1684180067281041300,1.563441650390625,-0.0030710698080113116,0.7246956824202823,-0.4325742722383366
1684180067291082600,1.573483154296875,-0.40271329870620914,0.5006523133896327,-0.2817287443982108
1684180067301123800,1.583524169921875,-0.4734501838916627,-0.04035091405225744,-0.20120763778253958
1684180067311165100,1.5935654296875,-0.21391010281128067,-0.16679143903837182,-0.30381917948479453
1684180067321206400,1.60360693359375,0.07125806813939639,-0.2436475755259413,-0.37660932535699393
1684180067331247600,1.61364794921875,0.16925859449444514,-0.04135227203212944,-0.44621610634346875
1684180067341288900,1.623689208984375,-0.10623645774377516,-0.41720438007730376,-0.4305744171172468
1684180067351330000,1.63373046875,-0.13584470743941493,-0.2757663727787608,-0.46542263034943343
1684180067361371300,1.643771728515625,-0.16589736925913032,-0.2712712287479495,-0.37604236593344625
1684180067371412600,1.65381298828125,0.022238492956482576,-0.4260869025572319,-0.34587621688587056
1684180067381453700,1.663854248046875,0.06891322130570901,-0.5374841690776668,-0.3434228898846744
1684180067391495100,1.6738955078125,-0.20352339731995003,-0.6487140654175352,-0.24622344979598598
1684180067401536400,1.683936767578125,-0.684021472997267,-0.5284862518926927,-0.1215586661331395
1684180067411577600,1.69397802734375,-1.222790956598834,-0.38076591478485877,0.1954774856084491
1684180067421618900,1.704019287109375,-1.441753387342144,-0.4171686173906642,0.39289855974056376
1684180067431660000,1.714060302734375,-1.5179986953847866,-0.42615985872366896,0.2436728478268953
1684180067441701300,1.724101806640625,-1.4832861423564643,-0.5306701661172639,0.3055634498081058
1684180067451742600,1.73414306640625,-1.3404092787640376,-0.7138986587471142,0.46351432801430265
1684180067461783700,1.74418408203125,-1.2884995936784212,-0.768181323847168,0.4962887764724687
1684180067471825100,1.7542255859375,-1.2829654217641226,-0.9339003561433408,0.5384154319153761
1684180067481866400,1.764266845703125,-1.443128347405368,-1.0362010002330275,0.5260829926621943
1684180067491907600,1.774307861328125,-1.7460827827816607,-0.26497268663838724,0.4119200705824751
1684180067501948800,1.784349365234375,-2.506306409824252,-0.507789611859273,0.4377717972068196
1684180067511989900,1.794390380859375,-3.407243013387319,-0.18547916408197915,0.3257446290949375
1684180067522031300,1.804431640625,-3.378826618227048,-0.8739209173943576,-0.028487205382553782
1684180067532072600,1.81447314453125,-2.4846658706481413,-0.22565269458991052,-0.4022316933521233
1684180067542113600,1.82451416015625,-2.1375243665357906,0.49150657657866953,-0.3887701034003855
1684180067552155100,1.834555419921875,-1.3509314060201032,0.22361469251613467,0.0845918653841753
1684180067562196100,1.844596435546875,0.22092962278563663,0.22553586952040208,-0.17104148856836263
1684180067572237600,1.854637939453125,0.5843597650122319,0.5320043563371472,-0.34991979595495704
1684180067582278800,1.86467919921875,-0.39358615883383363,-0.43317699434647916,0.020702362051887822
1684180067592319900,1.87472021484375,-0.02802300441514263,-1.3806343078968062,0.18543291092170158
1684180067602361300,1.88476171875,0.751651287075802,-1.2959899901624983,0.10348844534281587
1684180067612402400,1.894802734375,1.194227695504747,-0.815332412751046,-0.36791133875157467
1684180067622443600,1.904843994140625,0.9053324459963512,-0.702954292305165,-0.8003294467201131
1684180067632485000,1.914885498046875,0.5360249282711584,-0.38729286186149836,-0.9913856984669265
1684180067642526100,1.924926513671875,0.379423141526485,-0.09595108024583826,-0.9054450988389497
1684180067652567600,1.9349677734375,0.4732825756328483,0.3470964431930147,-0.6005206108865238
1684180067662608800,1.94500927734375,0.5770506859203371,0.4911670683337522,-0.29838418952691226
1684180067672649900,1.95505029296875,0.8407851457197602,0.5403766630806014,-0.13105154041800435
1684180067682691200,1.965091552734375,1.3594655990884101,0.7328815459981243,-0.14844369879128236
1684180067692732300,1.9751328125,1.960921645020644,0.8510017395106247,-0.22203731533404333
1684180067702773600,1.985174072265625,2.5383534431762347,0.8416137695524067,-0.29973530760295675
1684180067712815000,1.99521533203125,2.9898419380047927,0.9649457930723386,-0.15871858609443423
1684180067722856100,2.005256591796875,3.1242508887457054,0.9408745765619626,-0.09164285657796854
1684180067732897500,2.0152978515625,2.876785278205772,1.049639701915061,-0.039268970459214826
1684180067742938600,2.0253388671875,2.3112933635047126,0.9073414802012276,0.14743614199694063
1684180067752979900,2.03538037109375,1.6118520497515063,0.6954374311693944,0.20976829525602445
1684180067763021200,2.045421630859375,0.8690592050103766,0.39769554136376434,0.32455873485393555
1684180067773062300,2.055462646484375,0.19993281349062214,-0.15420246115164168,0.5722479820764069
1684180067783103600,2.065504150390625,-0.2944452762390747,-0.4996585845995703,0.6553835867949629
1684180067793145000,2.07554541015625,-0.6529273390933559,-0.7829132081488872,0.6613721846764027
1684180067803186100,2.08558642578125,-0.8139457702823373,-0.9154567719005348,0.37413406371397406
1684180067813227400,2.0956279296875,-0.7783238887596611,-0.8172531129025286,-0.03762865064102617
1684180067823268600,2.1056689453125,-0.5543035269145093,-0.8803577422052679,-0.5481972694354511
1684180067833309900,2.115710205078125,-0.10119807715600315,-0.6551675795285099,-1.0992796422836306
1684180067843351200,2.125751708984375,0.15839761493685467,-0.5871057511722506,-1.374101877200177
1684180067853392300,2.135792724609375,0.5982914567207703,-0.6750516891458657,-1.317139148753771
1684180067863433600,2.145833984375,0.9583885671025383,-0.6671419143231604,-1.0687994956830045
1684180067873474700,2.155875244140625,1.0578718186075946,-0.10895538338562662,-1.0086078643770837
1684180067883516100,2.16591650390625,0.5495224594701036,-0.6856355666747296,-0.9074814320109921
1684180067893557400,2.175957763671875,0.6068106888122489,-0.5460271836588095,-0.9865801333532133
1684180067903598600,2.1859990234375,0.5981358885966535,-0.27844810475867965,-0.9757552146161532
1684180067913639900,2.196040283203125,0.531373739346994,-0.31061553954632176,-0.8649680614833871
1684180067923681200,2.20608154296875,0.6120150685219901,-0.26507472990520625,-0.7246203422644532
1684180067933722300,2.216122802734375,0.8535903096215961,-0.3102312088133098,-0.3665394781905681
1684180067943763600,2.2261640625,1.1814963817919713,-0.3132343291631497,-0.053730249295582976
1684180067953804600,2.236205078125,1.4950495959412515,-0.4512729644135309,0.23316645617536308
1684180067963846100,2.24624658203125,1.7356951236747606,-0.6424875259085662,0.30296349519931953
1684180067973887400,2.256287841796875,1.8495222329967704,-0.6980819702413572,0.3494660852600607
1684180067983928600,2.266328857421875,1.7555103302546005,-0.5754566192719297,0.29942059515852526
1684180067993969800,2.276370361328125,1.5371394157744496,-0.48481464392370877,0.19045090671469114
1684180068004010900,2.286411376953125,1.3228299619337898,-0.39980411537850075,0.20222687727884187
1684180068014052300,2.29645263671875,1.152238488129716,-0.5253849030305281,0.25103425981735955
1684180068024093600,2.306493896484375,1.1315200330249326,-1.227778434603519,0.8396422862604058
1684180068034134600,2.31653515625,1.2603845597643115,-0.6592283247410637,0.6521196366965074
1684180068044176000,2.326576416015625,1.2384232283407317,-0.42972469342709135,0.35157680515121825
1684180068054217400,2.33661767578125,1.1467727423072192,-0.4172353745650223,0.178163051530466
1684180068064258600,2.346658935546875,0.9071773289978923,-0.3901586534180867,0.2325241566324259
1684180068074299800,2.3567001953125,0.6232328414074741,-0.2639493942893457,0.10795402518363685
1684180068084340900,2.3667412109375,0.3848362565438648,-0.23618316659799635,-0.09984660156167242
1684180068094382300,2.37678271484375,0.1306452155855587,0.48499870283085084,0.07832932465473696
1684180068104423600,2.386823974609375,-0.3858089745859621,0.5988712310103055,0.49943423265038994
1684180068114464600,2.396864990234375,-0.4952878356296371,0.23133087155720483,0.39191865916728513
1684180068124506000,2.406906494140625,-0.1479032337689339,-0.06941223131392987,0.1742267607875969
1684180068134547100,2.416947509765625,0.28163564208623304,0.2688474654351107,0.16792917247921244
1684180068144588500,2.42698876953125,0.3518527744587037,0.24088287340493825,0.12073898309096127
1684180068154629800,2.4370302734375,0.38054394737715086,-0.37567806252329494,0.009698152568365937
1684180068164670900,2.4470712890625,0.5013685822908132,0.040721893296677865,-0.008912563306383911
1684180068174712200,2.457112548828125,0.4208241701540725,0.21576023100318645,0.03771090518205631
1684180068184753600,2.467154052734375,0.3109989166164957,-0.03489017474081022,0.10771751391933458
1684180068194794600,2.477195068359375,0.2847315072552685,0.14823532094288366,0.4475512503176133
1684180068204836000,2.487236328125,0.09649354212428851,-0.16505718235107666,0.7732479572535222
1684180068214877100,2.497277587890625,0.04616940038797196,-0.02580547345263284,1.1487023830557574
1684180068224918400,2.50731884765625,0.07304936649532419,0.3066139221075146,1.2702133654993573
1684180068234959800,2.517360107421875,0.22566643373974726,0.48853874220842297,1.3949608803249038
1684180068245000900,2.5274013671875,0.49558538206585456,0.41530609143974057,1.4837543964166389
1684180068255042200,2.537442626953125,0.783616542909574,0.32179546358990646,1.4488584996001854
1684180068265083600,2.54748388671875,1.2772109506773206,0.2567186355820992,1.4096634388623792
1684180068275124600,2.557525146484375,1.5282294750698915,-0.21942424786683704,1.4092292786023333
1684180068285166000,2.56756640625,1.4708694219394847,-0.16416931149665936,1.0922446251595617
1684180068295207100,2.577607421875,1.2809448241995955,0.2093715669257253,0.5923585891309695
1684180068305248400,2.58764892578125,1.0281777383000297,0.14482212071229983,0.012478113269641126
1684180068315289800,2.597690185546875,0.6613786220699813,0.014560699497204023,-0.567872285905294
1684180068325330900,2.607731201171875,0.29693400878508036,-0.06833648690982816,-0.831642389382569
1684180068335372200,2.617772705078125,-0.036051124167996655,-0.08988571151610392,-0.7802231310203234
1684180068345413300,2.627813720703125,-0.2900745569773106,-0.1388282776364934,-0.6992185115631185
1684180068355454600,2.63785498046875,-0.6044218541300981,-0.334203720081723,-0.652913332068058
1684180068365496000,2.647896484375,-0.6366337536153813,-0.33425903324846445,-0.5384340286583368
1684180068375537100,2.6579375,-0.5489395856352351,-0.29746913897810534,-0.48585057263307163
1684180068385578400,2.667978759765625,-0.434852540516506,-0.6010379791588423,-0.5004587174172704
1684180068395619800,2.678020263671875,-0.03157171238192784,-0.4390306473089379,-0.5154082773915764
1684180068405660800,2.688061279296875,0.13469944876326306,-0.16815090193695625,-0.7988204954681778
1684180068415702200,2.6981025390625,0.10911662874965801,0.8492155075382537,-0.5476191045474217
1684180068425743300,2.708143798828125,0.4033208490047454,1.9116091728083837,-0.12459921835419412
1684180068435784600,2.71818505859375,0.9124871491307169,2.413142681150497,0.05782556529745177
1684180068445826000,2.728226318359375,0.8278423547595353,1.560292243966583,0.3964753149217594
1684180068455867100,2.738267333984375,0.41858440637597116,0.47482204436311143,0.5505497455548435
1684180068465908400,2.748308837890625,-0.15243747821222764,-0.8474798202982244,0.7602713108305745
1684180068475949600,2.758349853515625,-0.5714313387061007,-1.798809051525072,0.7968623637904144
1684180068485990800,2.76839111328125,-0.8285356759661672,-2.2057008742469497,0.6028866768265622
1684180068496032200,2.7784326171875,-0.8826503754333599,-2.063354492114327,0.15383815766823808
1684180068506073300,2.7884736328125,-0.7010846733650868,-1.0434656143259646,-0.7322421072417727
1684180068516114600,2.798514892578125,-0.4651088117675199,-0.07404899613181255,-1.422000288870005
1684180068526156000,2.808556396484375,-0.14170584076277606,0.21088409418212287,-0.9821214675393166
1684180068536197000,2.818597412109375,0.09336045379387896,0.31792068479674657,-0.4850699899968062
1684180068546238400,2.828638671875,0.3613519668606161,0.3332576751808736,-0.1656322480065413
1684180068556279500,2.838679931640625,0.5499588252731951,0.28317832936455856,0.1621637343917113
1684180068566320800,2.84872119140625,0.6556648015212686,0.19820022577113047,0.34596467014558074
1684180068576362200,2.858762451171875,0.6845555901694558,0.13727760318489626,0.41492152210469996
1684180068586403200,2.8688037109375,0.6996160745356598,0.1071949003554686,0.4114434717706627
1684180068596444600,2.878844970703125,0.6815363169902404,0.06266403204445921,0.45781755441031147
1684180068606485900,2.88888623046875,0.5992043017740984,0.0730867385084618,0.5209894179940501
1684180068616527000,2.898927490234375,0.46150496591561324,-0.0671911238775995,0.5785458086887032
1684180068626568400,2.90896875,0.396723151260714,-0.011951446461124369,0.6535084248357089
1684180068636609600,2.919010009765625,0.3287219999918234,-0.07204246528770453,0.7480692863676403
1684180068646650800,2.92905126953125,0.28173652293533596,-0.17784214015611155,0.8932197093269177
1684180068656692100,2.939092529296875,0.2688531875433551,-0.15703392028828642,0.9396519661839354
1684180068666733200,2.949133544921875,0.23785589626533188,-0.14160156251106581,0.9773652552322544
1684180068676774600,2.959175048828125,0.1721971183445288,-0.0721483229844069,0.8765907286639509
1684180068686815600,2.969216064453125,0.1418303400779832,-0.025098800580209885,0.7214310169847609
1684180068696857000,2.97925732421875,0.12507370117068986,-0.04077625268177946,0.598445176984203
1684180068706898400,2.989298828125,0.1398942618659227,0.0030403138125681046,0.5253853799303634
1684180068716939400,2.99933984375,0.10910738996333764,-0.046483993514375425,0.47612762458722807
1684180068726980800,3.009381103515625,0.09827294959485872,-0.10556030282217085,0.45992350580294955
1684180068737022100,3.019422607421875,0.07662440843665907,-0.061608314592909684,0.3251492975846242
1684180068747063200,3.029463623046875,0.06366068127902987,0.015810012680974178,0.3582410811754882
1684180068757104600,3.0395048828125,0.0828665643369503,0.17228317260446865,0.5001711844561031
1684180068767145900,3.04954638671875,-0.04744315148687102,0.13576889028027284,0.5298798084286432
1684180068777187000,3.05958740234375,-0.08797674606597594,0.14502429963195893,0.5442264080063223
1684180068787228300,3.069628662109375,-0.10562819984037418,0.3411121370000346,0.5331404208306175
1684180068797269400,3.079669921875,-0.049314118796072344,0.35812950128637816,0.6463038921685598
1684180068807310800,3.089711181640625,0.21153622874589456,0.6373920439504323,0.825631618390658
1684180068817352100,3.09975244140625,0.2375548780986477,0.6576051712217925,0.8265933990540146
1684180068827393200,3.109793701171875,0.2527980803764321,0.6485986710186443,0.8474848270985484
1684180068837434600,3.1198349609375,0.2088468969186347,0.6078271866389926,0.911088466553816
1684180068847475600,3.1298759765625,0.08623445042474932,0.40351009383497827,0.9955456256501239
1684180068857517000,3.13991748046875,0.08330514278323037,0.22706604011809361,0.9407958984910804
1684180068867558300,3.149958740234375,0.11529678845770162,0.04533386244630457,0.8392975328895979
1684180068877599400,3.159999755859375,0.10152194648428964,-0.07444858555890839,0.726122855952268
1684180068887640800,3.170041259765625,0.06559468816246111,-0.050788879423401795,0.58911800376376
1684180068897682100,3.18008251953125,-0.008205473263533188,-0.0411491393405094,0.44228172303021895
1684180068907723200,3.19012353515625,-0.017249606562851887,0.06683635704531746,0.30307126040056204
1684180068917764600,3.2001650390625,0.038206174961411495,0.23447227481019045,0.2615089416461202
1684180068927805600,3.2102060546875,0.1026003806121482,0.3129768372488621,0.3172719479808233
1684180068937847000,3.220247314453125,0.23397313054266838,0.3879766463660768,0.3867499827775587
1684180068947888300,3.230288818359375,0.3482539057728308,0.4449071884426951,0.42360234256154133
1684180068957929400,3.240329833984375,0.5145922900831968,0.6057786939943555,0.39778184887198
1684180068967970700,3.25037109375,0.7215286492899793,0.9063711165750381,0.4916675090853118
1684180068978012100,3.26041259765625,0.9182024001430233,0.9955816267975229,0.6426272391946208
1684180068988053200,3.27045361328125,0.9755031467298044,0.9493436813244289,0.8007009028787737
1684180068998094600,3.280494873046875,1.0030419826964594,0.7103796007074891,0.9760339259154359
1684180069008135900,3.290536376953125,0.9557479024216358,0.5644989014752307,0.9874906540952634
1684180069018176900,3.300577392578125,0.9231015443002584,0.2937374114784984,1.069726705455612
1684180069028218300,3.31061865234375,0.6427122355701146,-0.10185241688811685,0.9228804111136422
1684180069038259400,3.32065966796875,0.4206923246481676,-0.3137874602116687,0.795563459535275
1684180069048300600,3.330701171875,0.4794659019267577,-0.12346076964530579,0.657810926382696
1684180069058342100,3.340742431640625,0.44653779257065607,0.22007370003013008,0.5025672912530542
1684180069068383200,3.350783447265625,0.3041597902598511,0.3588848113059366,0.2811210155517862
1684180069078424600,3.360824951171875,0.15393622213789976,0.5322799682783494,-0.022284269394471513
1684180069088465800,3.3708662109375,0.004634968861190266,0.5681409836255962,-0.22591662402114
1684180069098506900,3.3809072265625,-0.09803061185397327,0.5043897629933688,-0.4500136376048921
1684180069108548300,3.39094873046875,-0.1853948980090789,0.3028898239131763,-0.6222521066991669
1684180069118589400,3.40098974609375,-0.5023989676480253,-0.4683656692051178,-0.7898620365454833
1684180069128630600,3.411031005859375,-0.5033580065486445,-0.5392026901052119,-0.9431478978838397
1684180069138672000,3.421072509765625,-0.7016822099271329,-0.6082239151412797,-1.0074862241684064
1684180069148713100,3.431113525390625,-0.5342416763771135,-0.12281608574565223,-0.8140370845846503
1684180069158754600,3.44115478515625,-0.053656771857558475,0.8252019882212636,-0.6191097498490071
1684180069168795600,3.451196044921875,0.3122581244483215,1.0679044724566327,-0.42875707152535464
1684180069178836900,3.4612373046875,0.3449129463418949,1.077185630923139,-0.13267338269935544
1684180069188878300,3.471278564453125,0.3319294452030452,0.8387680053328107,0.1433970928001613
1684180069198919300,3.48131982421875,0.21778102212129843,0.5227174757834343,0.23819041245365558
1684180069208960600,3.491361083984375,0.02690097706766526,0.15371418017747146,0.05893802642456152
1684180069219002000,3.50140234375,-0.18082208936854605,-0.23135566714067113,-0.13653278355710882
1684180069229043100,3.511443603515625,-0.3916091322428407,-0.5720033646808722,-0.35665094850394985
1684180069239084500,3.52148486328125,-0.6014714241142645,-0.8196954728388608,-0.7617462871979254
1684180069249125800,3.531526123046875,-0.7453267574724075,-1.0075416565635016,-0.9571396113245246
1684180069259166900,3.5415673828125,-0.8739994764970177,-1.0644111634804398,-0.935591816783742
1684180069269208200,3.551608642578125,-0.9214851260614473,-0.9650955200671292,-0.8825972080815153
1684180069279249300,3.561649658203125,-0.9546823501602661,-0.815825462294714,-0.839982748132984
1684180069289290600,3.571691162109375,-0.9885103105717805,-0.7390184403269978,-0.7575991153231535
1684180069299332000,3.581732421875,-0.9790906905221499,-0.6680583954338042,-0.6898558140006201
1684180069309373100,3.5917734375,-0.9542711375738469,-0.6128129960249497,-0.6523917912951072
1684180069319414400,3.60181494140625,-0.9061856270189358,-0.6164827346603775,-0.5554149149205143
1684180069329455800,3.611856201171875,-0.8552753926575467,-0.5162343978687319,-0.5689620970625081
1684180069339496900,3.621897216796875,-0.7852813601242058,-0.43075561524794526,-0.6778612136690366
1684180069349538200,3.631938720703125,-0.665839910603032,-0.3425884247281769,-0.658303737760272
1684180069359579300,3.641979736328125,-0.5094358324695909,-0.2638359071704397,-0.5447472333706735
1684180069369620600,3.65202099609375,-0.32364842297980995,-0.14975261694062142,-0.31445050232700933
1684180069379662000,3.6620625,-0.1592008621323029,-0.015320777802179176,-0.1640552281952957
1684180069389703100,3.672103515625,-0.026903584625041135,0.11061477667893704,-0.09177899359487772
1684180069399744400,3.682144775390625,0.057971358296165114,0.1279420853063945,-0.053884625531914004
1684180069409785800,3.692186279296875,0.10666416591662553,0.1397733688989714,-0.016303539270593054
1684180069419826900,3.702227294921875,0.10761018104892003,0.002941131727733748,0.08566689483471845
1684180069429868200,3.7122685546875,0.035476624877035734,-0.1914424895987197,0.20641148077734275
1684180069439909600,3.72231005859375,-0.056785792182647066,-0.31901359558223846,0.27214717873933
1684180069449950600,3.73235107421875,-0.26867756247407965,-0.4969739913190234,0.29975318915233146
1684180069459992000,3.742392333984375,-0.5078710317531785,-0.7609968185519154,0.2897039651325516
1684180069470033100,3.75243359375,-0.7279311418304917,-0.7452869415439156,0.1984231470471661
1684180069480074400,3.762474853515625,-0.9306492210652287,-0.6366157531032076,0.09681177143474667
1684180069490115800,3.77251611328125,-1.064952611903956,-0.5307226180662741,-0.016965269926175707
1684180069500156800,3.78255712890625,-1.1134374142235448,-0.09073066718576216,-0.2201039789867012
1684180069510198200,3.7925986328125,-1.086188554808468,0.17871952047545167,-0.3471713066639727
1684180069520239600,3.802639892578125,-1.0009996891258317,0.19893264773370672,-0.44314825519554774
1684180069530280600,3.812680908203125,-0.8767423630267398,0.22108936309000993,-0.4953227043730676
1684180069540322000,3.822722412109375,-0.7281154989809935,0.455175399670273,-0.5438235999484332
1684180069550363100,3.832763427734375,-0.6123828292869629,0.8910264969795549,-0.5305196047115711
1684180069560404400,3.8428046875,-0.5472599267441084,1.3225555419984667,-0.5314944982705166
1684180069570445700,3.85284619140625,-0.4783468245619426,1.3841400147609917,-0.4915496109726686
1684180069580486800,3.86288720703125,-0.38452470300432756,1.0954141617814392,-0.36788296700704193
1684180069590528200,3.872928466796875,-0.39392042172723596,0.8032503128248896,-0.3071240186137772
1684180069600569600,3.882969970703125,-0.4817339181655863,0.46270656571702773,-0.43409872061015226
1684180069610610600,3.893010986328125,-0.5415869950638211,0.11271667465726988,-0.5642527341534543
1684180069620652000,3.90305224609375,-0.5594698189819406,-0.40414428711309497,-0.5068956613198858
1684180069630693300,3.91309375,-0.458865880943749,-0.8342895507965523,-0.4411275385597074
1684180069640734400,3.923134765625,-0.21958863729382164,-1.1059036256034371,-0.39678323264580856
1684180069650775700,3.933176025390625,0.11773574346577247,-1.433586120590798,-0.42459368699265104
1684180069660816800,3.94321728515625,0.45460683100812654,-1.6423015593718913,-0.41886281971249983
1684180069670858200,3.953258544921875,0.740159273258184,-1.3670463562037332,-0.38930845246728507
1684180069680899600,3.9632998046875,0.8120446204425313,-0.9120197296207314,-0.5301244259027715
1684180069690940600,3.973341064453125,0.8373355864021781,-0.3436679840891678,-0.7498873473209037
1684180069700981900,3.98338232421875,0.7815466522323574,-0.019714355499070923,-0.9566675424630278
1684180069711023300,3.993423583984375,0.7211248874323822,0.1464719773294123,-1.0369914770266893
1684180069721064400,4.00346484375,0.6479679347692897,0.1382560730143517,-1.0823621751316486
1684180069731105600,4.013506103515625,0.5530731677222211,0.09183692933590472,-1.134517073552606
1684180069741147100,4.02354736328125,0.3746752739788482,0.011800766009649393,-1.189511418407474
1684180069751188100,4.033588623046875,0.13271427158339974,-0.08077049268813359,-1.0911203622858408
1684180069761229600,4.0436298828125,-0.25972497469353373,-0.21288204193437182,-0.8656697273606707
1684180069771270600,4.0536708984375,-1.068771600712029,-0.24941921233897518,-0.5490351916183964
1684180069781311900,4.06371240234375,-2.008684158341848,-0.2017755507249095,0.03786945339420591
1684180069791353300,4.073753662109375,-2.305895090160573,0.01982593545154394,0.8556888103530235
1684180069801394600,4.083794921875,-1.9772120712890051,0.28652477252313086,1.5700142383727893
1684180069811435600,4.093836181640625,-1.3779804705930634,0.6184682845409941,2.1409070491728803
1684180069821477000,4.10387744140625,-0.6994339227499645,0.966502189642501,2.394775152094517
1684180069831518100,4.11391845703125,0.005552530300890284,1.056452751221642,2.278744220750507
1684180069841559600,4.1239599609375,0.722692966445639,1.084507942283421,2.0402991771802235
1684180069851600800,4.134001220703125,1.288903713276392,1.0266857148853696,1.624963283512743
1684180069861641900,4.144042236328125,1.5543533563585965,0.7353487014550552,1.0508706569495572
1684180069871683200,4.154083740234375,1.4307218789599685,0.409798622085461,0.4966716767713951
1684180069881724600,4.164125,1.0190229416796366,0.2753629684279366,-0.2521147728360567
1684180069891765600,4.174166015625,0.43382751945780534,0.26741981508634927,-1.0897520780378214
1684180069901807000,4.18420751953125,-0.050282239932828925,0.17836952215263063,-1.8452694415567297
1684180069911848100,4.19424853515625,-0.32915949807454237,0.05484104169803994,-2.251494169415015
1684180069921889500,4.204289794921875,-0.4081099033642779,-0.04031562800751449,-2.349033117308561
1684180069931930800,4.214331298828125,-0.40293335929272833,-0.18160152437015398,-1.9969747067661772
1684180069941971900,4.224372314453125,-0.4346001147718345,-0.34383869159305813,-1.5543241501514677
1684180069952013200,4.23441357421875,-0.5108730792339051,-0.5308647155703459,-1.0759083032499612
1684180069962054600,4.244455078125,-0.6517220735824316,-0.7035865784557775,-0.5422188043703611
1684180069972095600,4.25449609375,-0.8577207328157667,-0.8180408478031466,-0.12997531873788745
1684180069982137000,4.264537353515625,-1.0271153449709471,-0.8827009202105531,0.18955230725306882
1684180069992178400,4.274578857421875,-1.0966527461959117,-0.9151887894905514,0.47046494491814
1684180070002219400,4.284619873046875,-1.055489659328642,-0.8681297302186521,0.7246338128856906
1684180070012260800,4.2946611328125,-0.9028990268175017,-0.6265401840884784,0.8094179630781417
1684180070022302100,4.30470263671875,-0.6506195068731234,-0.38317680364291085,0.7755181788360439
1684180070032343200,4.31474365234375,-0.4317021370878693,-0.2299928664751884,0.7464206219066192
1684180070042384600,4.324784912109375,-0.2669121027656903,-0.11595249186754518,0.7988508940274205
1684180070052425900,4.334826416015625,-0.19498014464320068,0.01886463158654863,0.8563774824306606
1684180070062467000,4.344867431640625,-0.26436698432468114,0.1625118255481918,0.7224913835494517
1684180070072508300,4.35490869140625,-0.4520219564680264,0.24576091757687332,0.5590912103499107
1684180070082549400,4.36494970703125,-0.617615580715734,0.2640514373360226,0.41114723685550963
1684180070092590800,4.3749912109375,-0.7481042146560464,0.2581453321927858,0.2988585234363892
1684180070102632100,4.385032470703125,-0.7857663632528511,0.28778934473527756,0.222498655186641
1684180070112673200,4.395073486328125,-0.7452082632342812,0.3146333694533342,0.2604498863481592
1684180070122714600,4.405114990234375,-0.6240302323534619,0.32907867432880517,0.30244541156630345
1684180070132755900,4.41515625,-0.45338737980549515,0.3598375320862013,0.3057759998858818
1684180070142797000,4.425197265625,-0.2503862379601099,0.40208053580665415,0.32992982867003395
1684180070152838300,4.43523876953125,-0.03258454788489646,0.45822238917477115,0.3291401863691128
1684180070162879600,4.445280029296875,0.13680291176956708,0.4638652802367972,0.305536270251914
1684180070172920800,4.455321044921875,0.23073863970729652,0.4097833633333467,0.2930079697420858
1684180070182962100,4.465362548828125,0.22743153570919564,0.32967090602044025,0.29651582239060037
1684180070193003200,4.475403564453125,0.15586817264888836,0.1877431868799044,0.3207026720155822
1684180070203044600,4.48544482421875,0.04759120950414003,0.14413356775985897,0.2940206529171952
1684180070213085900,4.495486328125,-0.08994925024159708,0.03866863236337022,0.2745724916650229
1684180070223127200,4.505527587890625,-0.22564184651004537,-0.07595825183141633,0.27188277254346604
1684180070233168300,4.515568603515625,-0.3330626487209931,-0.17825889581724566,0.17842793476027832
1684180070243209600,4.525610107421875,-0.40734851344267015,-0.21568202982665433,0.11662054053011318
1684180070253250700,4.535651123046875,-0.43880641449556806,-0.2982330320387943,0.010244131245453954
1684180070263292100,4.5456923828125,-0.4176995753261174,-0.356577873163804,-0.04739606383023901
1684180070273333400,4.55573388671875,-0.3535958529903818,-0.3167266846589467,-0.1373854875144274
1684180070283374600,4.56577490234375,-0.24408853054042748,-0.32929325097919127,-0.1969594956364301
1684180070293415900,4.575816162109375,-0.09886336316384589,-0.2577552795896401,-0.29389202605808135
1684180070303457200,4.585857666015625,0.0004791022968611919,-0.23838615427765456,-0.31819593907603655
1684180070313498300,4.595898681640625,0.10124671467711002,-0.194824218829801,-0.32187843325347054
1684180070323539600,4.60593994140625,0.1551266909915129,-0.1271619795795311,-0.3773571254192586
1684180070333580600,4.615981201171875,0.17664134491607972,-0.0736865996317546,-0.40812349303811973
1684180070343622100,4.6260224609375,0.13479614273778084,-0.017698288002464098,-0.43844234947867533
1684180070353663400,4.636063720703125,0.06799960137817905,-0.023836135863195024,-0.4429416657175365
1684180070363704800,4.646105224609375,-0.002071976546715126,-0.02761363994328678,-0.4391614198493993
1684180070373745800,4.656146240234375,-0.08683896074848332,-0.04586410531643382,-0.43925404547716645
1684180070383787200,4.6661875,-0.12138354785288377,-0.006787300225382333,-0.4468234777993541
1684180070393828300,4.676228759765625,-0.1433686017898426,0.044161796516251746,-0.3915722370203602
1684180070403869600,4.68627001953125,-0.14295291892475703,0.059084892417084166,-0.2668178080490556
1684180070413911000,4.696311279296875,-0.12038838867969139,0.07627105729767644,-0.19717204579350184
1684180070423952000,4.7063525390625,-0.07740437972363996,0.08973407743767414,-0.1656563280570747
1684180070433993400,4.716393798828125,-0.039881229314841025,0.11005210877850556,-0.12752699851105784
1684180070444034700,4.72643505859375,0.008520245674039315,0.16066169745588982,-0.14427626139914887
1684180070454075800,4.736476318359375,-0.002929330013521575,0.19392967233722705,-0.11867785465377063
1684180070464117200,4.746517578125,-0.012079239028673028,0.17015838621191787,-0.14543068404897724
1684180070474158600,4.756558837890625,-0.016294598684780323,0.15851497661299532,-0.09891760340287377
1684180070484199600,4.76660009765625,-0.05782151233446734,0.0622577666844236,-0.057951450321858076
1684180070494240900,4.776641357421875,-0.08175802219082204,0.0334482192926179,-0.03654611115340424
1684180070504282300,4.7866826171875,-0.11893510825976607,-0.06556606288638933,-0.02948617953394374
1684180070514323400,4.796723876953125,-0.16469025613284902,-0.08292484275210528,0.017461538288968008
1684180070524364600,4.80676513671875,-0.18355965612428204,-0.14949893968052239,0.05873787401556417
1684180070534406100,4.816806396484375,-0.1902132035875159,-0.17264366144764295,0.10616827013005568
1684180070544447200,4.82684765625,-0.19893240930228376,-0.17195415505473155,0.15005064007683375
1684180070554488600,4.836888916015625,-0.18144297602735557,-0.14784622188221525,0.19973480700632798
1684180070564529800,4.84693017578125,-0.18997633456814988,-0.11011600482754373,0.23399364932117397
1684180070574570900,4.856971435546875,-0.19337332258072742,-0.04959678650707692,0.2530908585118326
1684180070584612300,4.8670126953125,-0.16851627823225165,0.019267082115043792,0.23845469953397316
1684180070594653600,4.877053955078125,-0.1652891636473253,0.044531822221017946,0.24005556102185677
1684180070604694600,4.88709521484375,-0.15965557092842908,0.041031837491576593,0.21997499465715106
1684180070614736000,4.897136474609375,-0.14228701591628648,0.00928211218627624,0.1834658384268785
1684180070624777100,4.907177490234375,-0.13461363315540176,0.01807212822928077,0.1757727861475055
1684180070634818600,4.917218994140625,-0.11756408209332353,0.04789352400108199,0.1376378534944958
1684180070644859800,4.92726025390625,-0.08433675758888806,0.05140590672516982,0.11006128780203576
1684180070654900900,4.93730126953125,-0.07532715800910432,0.08559989918215273,0.14248931423437064
1684180070664942300,4.9473427734375,-0.07826340198964465,0.08629226669536265,0.13921618467741967
1684180070674983600,4.957384033203125,-0.08835172652698495,0.09169101707387796,0.1523991823756559
1684180070685024600,4.967425048828125,-0.05339050287713608,0.03817558297275773,0.13979315756137348
1684180070695066000,4.977466552734375,-0.051789402954271195,-0.037962913574119336,0.1512951850244025
1684180070705107400,4.9875078125,-0.038127064647204334,-0.0634136199583196,0.14397430428164157
1684180070715148500,4.997548828125,-0.06691348552092102,-0.02250385284253055,0.14646244059007316
1684180070725189800,5.007590087890625,-0.06706559643174338,0.04130363459689227,0.12785673130252106
1684180070735231200,5.017631591796875,-0.06746435167076144,0.0617303847513584,0.14026319971134904
1684180070745272200,5.027672607421875,-0.056257486390126635,0.09128284469502064,0.10078752044790969
1684180070755313600,5.0377138671875,-0.05725681779024415,0.11572265628517424,0.13522076588970727
1684180070765354900,5.04775537109375,-0.03485894207385781,0.10209655762900696,0.15720629686067808
1684180070775396000,5.05779638671875,-0.048385143464913856,0.07457447056612718,0.1362113951657039
1684180070785437400,5.067837646484375,-0.06896758069996117,0.04986476905083723,0.138888597532227
1684180070795478600,5.077879150390625,-0.10802876944018719,0.013745307877679044,0.11299431335126289
1684180070805519800,5.087920166015625,-0.13930594922023037,0.004077911401950129,0.08966755863026162
1684180070815561100,5.09796142578125,-0.16818237320678872,-0.0007028579868815936,0.02399480346236406
1684180070825602200,5.108002685546875,-0.2494758368833658,-0.04993724812775703,-0.019347071612945205
1684180070835643600,5.1180439453125,-0.35919058329586134,-0.10486507408883501,-0.1638439894492975
1684180070845684900,5.128085205078125,-0.360934496022037,-0.20505237574600335,-0.20852947247564976
1684180070855726300,5.138126708984375,-0.2348369359360577,-0.23911190032149052,-0.1381320952076723
1684180070865767300,5.148167724609375,-0.07284498230062098,-0.2723007203373747,0.027501940669810147
1684180070875808600,5.158208984375,0.07016324998922663,-0.14526844024976587,0.25411045540381694
1684180070885849800,5.168250244140625,0.2565991878194778,0.061510086008099776,0.24185204505842806
1684180070895891100,5.17829150390625,0.46382367624346243,0.21274757377467055,0.11542642128462831
1684180070905932500,5.188332763671875,0.6399457453729714,0.20600032811857108,0.0524756909043178
1684180070915973800,5.198374267578125,0.803567588330283,0.08917045592438967,0.002630949008758175
1684180070926014900,5.208415283203125,0.9117833973103855,-0.06229305266254464,0.008922099945069963
1684180070936056200,5.21845654296875,0.9210003019108992,-0.16278839101373788,0.0560238359840102
1684180070946097300,5.228497802734375,0.762070119489217,-0.21565151199151683,0.0955743789598126
1684180070956138600,5.2385390625,0.4141706228707737,-0.22929763781684995,0.13151001929688394
1684180070966180000,5.248580322265625,-0.0801501273745126,-0.24285411833229184,0.1557972430377453
1684180070976221400,5.258621826171875,-0.5818306207747812,-0.32063770280164483,0.09283769115521882
1684180070986262400,5.268662841796875,-1.0374972819583457,-0.36328506469392174,0.17898595318087004
1684180070996303800,5.2787041015625,-1.501650094904443,-0.24255943292340343,0.5204080343621752
1684180071006344900,5.288745361328125,-1.754259705544891,-0.05796051025953307,0.949715256541181
1684180071016386200,5.29878662109375,-1.7192951440802187,0.060043334964373404,1.296536207113719
1684180071026427600,5.308827880859375,-1.5204836129953063,-0.11830711365983744,1.6150442361596653
1684180071036468600,5.318869140625,-1.2580188513364519,-0.23133754720034105,1.7760099171470314
1684180071046510000,5.328910400390625,-0.9898890255645524,-0.4535722732598568,1.721638321944986
1684180071056551300,5.33895166015625,-0.7907234430088647,-0.5783357620062156,1.5635796785675902
1684180071066592400,5.348992919921875,-0.7522615193426048,-0.8081684112706654,1.4126421213895515
1684180071076633800,5.3590341796875,-0.9350476264900266,-1.021025657764525,1.4752726555438274
1684180071086675100,5.369075439453125,-1.268347621072983,-1.1292457580188124,1.5381855965388014
1684180071096716200,5.37911669921875,-1.55163002032801,-0.9838075636658051,1.5640364884362203
1684180071106757600,5.389157958984375,-1.5597852468380176,-0.7272176742556337,1.3608558179289774
1684180071116798900,5.39919921875,-1.3290057181563766,-0.43620681763199326,0.9379262925181542
1684180071126840000,5.409240478515625,-0.9123811722722295,-0.30113601699419046,0.4180594682779666
1684180071136881300,5.41928173828125,-0.30973029128506285,-0.2632007598156447,-0.15353584286416475
1684180071146922600,5.429322998046875,0.2117204666402296,-0.23986434934389514,-0.708657503095245
1684180071156963800,5.4393642578125,0.7199451923904586,-0.13958549512988458,-1.1169862745925236
1684180071167005100,5.449405517578125,1.1993712186186365,-0.14609622953526852,-1.3893451690692484
1684180071177046400,5.45944677734375,1.2048468589160182,-0.2478027344979031,-1.4474623203172556
1684180071187087600,5.469488037109375,0.7803224326524949,-0.345830917334488,-1.3118693829481398
1684180071197128900,5.479529296875,0.3128049374057065,-0.4940814973599604,-1.321687459860176
1684180071207170200,5.489570556640625,0.26820921895345096,-0.44832897186771326,-1.4549950362189814
1684180071217211300,5.49961181640625,0.6738541126619901,-0.034578323361969636,-1.7540749313169437
1684180071227252600,5.509653076171875,0.9782128333253824,0.5197553633551041,-1.9057447911410088
1684180071237294000,5.5196943359375,0.9735634327659928,0.9220075608220717,-1.912688732089028
1684180071247335100,5.529735595703125,1.1186234951095073,0.962690353563598,-1.8754599094189746
1684180071257376400,5.53977685546875,1.4781514405682736,0.692809104893989,-1.9729785918237832
1684180071267417800,5.549818115234375,1.904224157433774,0.47650909431583666,-2.327160358468119
1684180071277458900,5.559859375,2.1122665405564214,0.40907287601450015,-2.3961505890594155
1684180071287500200,5.569900634765625,2.1695585250619067,0.4823741913180419,-2.250121831788747
1684180071297541600,5.57994189453125,1.991450428971799,0.8670587540045206,-1.8421399593964984
1684180071307582600,5.589983154296875,1.7474746705385036,0.9167222977925996,-1.6086672543379683
1684180071317624000,5.6000244140625,1.4061342477956036,0.9321537017819314,-1.3597573043116435
1684180071327665300,5.610065673828125,1.0787506105000617,0.8793134689442582,-1.1108125449190738
1684180071337706400,5.62010693359375,0.8501427173707323,0.7796297072154479,-0.9516822098749437
1684180071347747800,5.630148193359375,0.5723192692363541,0.7646484375162893,-0.7948266266279288
1684180071357789100,5.640189453125,0.20556020749819198,1.0199823378934674,-0.48293519010322716
1684180071367830200,5.650230712890625,-0.27493262298683024,1.1472358703017516,-0.04148125647966294
1684180071377871600,5.66027197265625,-0.6701319218841204,0.8853282927093613,0.41034960745069193
1684180071387912900,5.670313232421875,-0.8707404137282055,0.6294441221732564,0.7765305042095674
1684180071397954000,5.680354248046875,-0.892555952116494,0.4837026596075308,1.0778844357257575
1684180071407995300,5.690395751953125,-0.8773765564922575,0.4229660034725311,1.2949759959460558
1684180071418036600,5.70043701171875,-0.9638302327123077,0.38992404936148634,1.5449244977184207
1684180071428077700,5.71047802734375,-1.1648287773190955,0.3076000213826686,1.3674640653835062
1684180071438119100,5.72051953125,-1.1334105731119508,0.3188791274818783,0.9530296325330239
1684180071448160400,5.730560791015625,-0.8535157441692026,0.313424110368724,0.264220953111158
1684180071458201800,5.740602294921875,-0.5253924130906121,0.3177585602198953,-0.3009505271873974
1684180071468242900,5.750643310546875,-0.2703546285758693,0.2631464003615378,-0.6603460313523597
1684180071478284200,5.7606845703125,-0.09491336343697276,0.20020198814393803,-0.8170349599643982
1684180071488325300,5.7707255859375,-0.06793773178521569,0.1766805648380223,-0.790404796731446
1684180071498366600,5.78076708984375,-0.0922569035227436,0.132555008047228,-0.6760655641557171
1684180071508408000,5.790808349609375,-0.07337188723921087,0.08441352846169428,-0.54298710821889
1684180071518449300,5.800849609375,-0.07706749446816362,0.024950027432123496,-0.39776945100626904
1684180071528490400,5.810890869140625,-0.1738774777616107,-0.07973003397289784,-0.21043026453364747
1684180071538531800,5.82093212890625,-0.28400182712826705,-0.2062759400051157,0.07165980342683574
1684180071548572800,5.83097314453125,-0.3860433101899117,-0.23327159880048395,0.45074021820032856
1684180071558614200,5.8410146484375,-0.4711525439898796,-0.2496070861534917,0.9290457962756172
1684180071568655600,5.851055908203125,-0.4727809427693509,-0.16709136957393117,1.4715145827376794
1684180071578696900,5.86109716796875,-0.3793361187433897,0.10258293156782715,1.8610743283127311
1684180071588738000,5.871138427734375,-0.2524907589899588,0.46822643261731295,2.225088596233247
1684180071598779300,5.8811796875,-0.1406384707078885,0.9030542373817194,2.3916125296361628
1684180071608820600,5.891220947265625,-0.020745158064492515,1.2920579911353587,2.4017446041633908
1684180071618861700,5.90126220703125,0.1377152203903439,1.6261959075496264,2.152190208392597
1684180071628903100,5.911303466796875,0.2269017696574036,1.7466897965822747,1.570441365139991
1684180071638944400,5.9213447265625,0.34084951882783543,1.7864723205731734,0.9363790750604692
1684180071648985600,5.931385986328125,0.41389024251485607,1.913659095728856,0.401692509614223
1684180071659026900,5.94142724609375,0.5012004375299359,1.9279279707510268,-0.032659292292126114
1684180071669068200,5.951468505859375,0.6018853783609078,1.4811649322330334,-0.2555605172670075
1684180071679109300,5.961509765625,0.6233713031792079,0.939949989227713,-0.4327840805304287
1684180071689150600,5.971551025390625,0.6768786906584429,0.48328971863499637,-0.3513960838551838
1684180071699192000,5.98159228515625,0.5373715161281749,-0.001880645674894421,-0.2585188149383666
1684180071709233100,5.991633544921875,0.07187104222861254,-0.637853622490699,-0.24001789089624323
1684180071719274400,6.0016748046875,-0.6425850390099651,-1.4607868195860303,-0.2692602874312932
1684180071729315800,6.011716064453125,-2.29014754297493,-2.6126537323801156,-0.12137866002961244
1684180071739356800,6.02175732421875,-5.283427715380782,-3.9884662627956358,0.5320307017527636
1684180071749398200,6.031798583984375,-5.081814289116484,-4.41241168977531,1.4951273202262327
1684180071759439600,6.04183984375,-2.2171063425104034,-3.1277322769617286,1.4837274552479878
1684180071769480600,6.051881103515625,-0.013973712903701727,-1.2215757370011415,0.7738431693538736
1684180071779522000,6.06192236328125,1.1669083834496567,0.1846475600686482,0.042190790255153904
1684180071789563300,6.071963623046875,1.6391825676687048,0.9209470749517359,-0.29907071576158134
1684180071799604600,6.082005126953125,1.5425417422610235,1.3037567139868909,-0.44361299258309406
1684180071809645700,6.092046142578125,1.120956897722507,1.493413925119187,-0.6715545654800739
1684180071819687100,6.10208740234375,0.6340359447855468,1.597710609547765,-1.158800363524556
1684180071829728200,6.112128662109375,0.2609198094962025,1.6313180924478767,-1.610462904032713
1684180071839769600,6.122169921875,0.0008034705225448808,1.4819221496238502,-1.8473176956132045
1684180071849810900,6.132211181640625,-0.15243601796310113,1.1326742171414819,-1.8418028355665388
1684180071859852200,6.142252685546875,-0.33251225945096397,0.676574707178915,-1.7402396202164692
1684180071869893300,6.152293701171875,-0.5414756536752958,0.1108531951006758,-1.5894572734825085
1684180071879934600,6.1623349609375,-0.7787809371801141,-0.45017909995636635,-1.3828998803435983
1684180071889976000,6.17237646484375,-0.9570022225444328,-0.9210748671341475,-0.9898703098659684
1684180071900017100,6.18241748046875,-0.7810562847777281,-1.1923971176887167,-0.5325707197752282
1684180071910058400,6.192458740234375,-0.1964582204578696,-1.1449337004622064,-0.14235563571393195
1684180071920099800,6.202500244140625,0.4940679670687016,-0.905468940638936,0.06112648535767063
1684180071930140800,6.212541259765625,1.177947759594661,-0.6218690871101755,-0.08064720030121869
1684180071940182200,6.22258251953125,1.6726088524723972,-0.39871597297996,-0.46725890033096174
1684180071950223600,6.2326240234375,1.9442496298714214,-0.31663322446380476,-0.8159068820993374
1684180071960264600,6.2426650390625,1.9985469579313422,-0.2962732315576245,-1.0411329269195
1684180071970306000,6.252706298828125,1.8709672690291779,-0.14882850629198102,-1.11675834651854
1684180071980347300,6.262747802734375,1.6360735892293743,0.06316471112128288,-1.0229941607776634
1684180071990388400,6.272788818359375,1.2564311026801072,0.22480583173786226,-0.8077456355563905
1684180072000429700,6.282830078125,0.786392986615586,0.34567737581093244,-0.5580091476612332
1684180072010471100,6.29287158203125,0.32827192540373284,0.3016748428574812,-0.36220431321602786
1684180072020512200,6.30291259765625,-0.05059003825123564,0.2316551208242387,-0.21222183094760264
1684180072030553600,6.312953857421875,-0.2805774808909935,0.13798522962781692,-0.18382555252538632
1684180072040594900,6.322995361328125,-0.4068610668339272,0.018146514787218113,-0.3065257966892853
1684180072050636200,6.33303662109375,-0.4019868372561162,-0.011046409681765717,-0.561126232315587
1684180072060677300,6.34307763671875,-0.3318259716745796,-0.019215583811097673,-0.8790455460985841
1684180072070718600,6.353119140625,-0.31122189763939495,-0.03736305223940356,-0.9676349163232947
1684180072080760000,6.363160400390625,-0.28747409583380856,-0.09390926351900865,-0.8813778163307217
1684180072090801100,6.373201416015625,-0.2372674347665495,-0.03584289555427173,-0.8250840903765758
1684180072100842400,6.383242919921875,-0.08337062611068273,0.0863084794198103,-0.7457436323218668
1684180072110883800,6.3932841796875,0.091884374560651,0.21015357958303238,-0.6427173615319227
1684180072120924800,6.4033251953125,0.3206084964918927,0.3236732482652476,-0.4474128484100907
1684180072130966200,6.41336669921875,0.5355033277826208,0.3672523497667682,-0.21652850506360757
1684180072141007600,6.423407958984375,0.7826238868972492,0.28390884396797417,-0.05665463212230094
1684180072151048600,6.433448974609375,0.9993351698087076,0.15534019466642618,0.08240675913512302
1684180072161090000,6.443490478515625,1.137506842750312,0.09886169427037012,0.1455970703888143
1684180072171131300,6.45353173828125,1.2356541157464471,0.12881374364088383,0.2775934338350544
1684180072181172400,6.46357275390625,1.2164685725999351,0.14718246457573136,0.39095073933878305
1684180072191213700,6.4736142578125,1.0309910773184476,0.0823192596959593,0.4610021710905643
1684180072201255100,6.483655517578125,0.7268830537251533,0.013119697539722659,0.5019738673515515
1684180072211296400,6.49369677734375,0.39043784145600086,-0.04861831663188087,0.5139804481746452
1684180072221337600,6.503738037109375,0.09777536979144939,-0.13882255551120828,0.5686182975056294
1684180072231378900,6.513779296875,-0.17309835558975886,-0.2909469604875795,0.5609667302330857
1684180072241420200,6.523820556640625,-0.4511014221625871,-0.38790893563457296,0.5775598884116613
1684180072251461300,6.53386181640625,-0.6032582522355715,-0.4036407470798465,0.604553937946052
1684180072261502600,6.543903076171875,-0.5673475264403745,-0.38608837125843626,0.6730159522774649
1684180072271544000,6.5539443359375,-0.4116053581145643,-0.33527088154988866,0.675317227916718
1684180072281585100,6.5639853515625,-0.2289001047802039,-0.2917804717402619,0.6641576884810463
1684180072291626400,6.57402685546875,-0.07125937921226388,-0.18865871431193143,0.5679267645797889
1684180072301667800,6.584068115234375,0.0718430876901904,-0.1095733642941506,0.42976519465899465
1684180072311708800,6.594109130859375,0.19274492569509116,-0.021022796674717605,0.29059389243971245
1684180072321750200,6.604150634765625,0.2607933282689748,0.0004844665189840056,0.08904010057770348
1684180072331791600,6.61419189453125,0.31695407613178045,0.005169868391307996,-0.09712791426152528
1684180072341832900,6.6242333984375,0.3539817034458987,-0.02130508441584885,-0.24565571537353723
1684180072351874000,6.6342744140625,0.39072307926425826,-0.12185096736183294,-0.33741044999325226
1684180072361915300,6.644315673828125,0.38620287184838925,-0.12909984578996334,-0.37974476807549223
1684180072371956600,6.654357177734375,0.37875726815333666,-0.08876514425929934,-0.3953194617218797
1684180072381997700,6.664398193359375,0.3658494650514231,-0.13702392576322756,-0.2441873551053513
1684180072392039100,6.674439453125,0.38845145699837064,-0.13487052916262013,-0.028463363666677313
1684180072402080400,6.684480712890625,0.43988633150800827,-0.09899044026819193,0.04416108124879787
1684180072412121600,6.69452197265625,0.4728403985902093,-0.053430557341072646,-0.037005782126648824
1684180072422162900,6.704563232421875,0.4969471694346107,0.013504981987058602,-0.20663869385403855
1684180072432204200,6.7146044921875,0.4951178730758933,0.02757072452394103,-0.3190279007942085
1684180072442245300,6.724645751953125,0.46906334153060153,0.003202438340558695,-0.3689633012342946
1684180072452286600,6.73468701171875,0.3559957443042771,-0.0068635942360774,-0.38153719907448425
1684180072462328000,6.744728271484375,0.2464235424961464,-0.045455932496166515,-0.31852716217480415
1684180072472369300,6.754769775390625,0.13821217417007417,-0.08365821834744812,-0.22543495886508916
1684180072482410400,6.764810791015625,0.0899659394908325,-0.09277153017122673,-0.1510424018317063
1684180072492451800,6.77485205078125,0.0946522950091257,-0.043850898713571694,-0.16661328077221788
1684180072502492800,6.784893310546875,0.15100462734041037,-0.012360572876969018,-0.1340075731859609
1684180072512534200,6.7949345703125,0.2601933179704897,0.037332534873745694,-0.04719990474863677
1684180072522575600,6.804975830078125,0.33811303962008826,0.053206443830357546,-0.011256754425892284
1684180072532616900,6.815017333984375,0.39849397541278053,0.047642707744272955,-0.03501725201376427
1684180072542658000,6.825058349609375,0.462104708054338,0.06808376308417846,-0.03253698340802812
1684180072552699300,6.835099609375,0.4811258912207161,0.06937026964528537,-0.03235214938858561
1684180072562740600,6.84514111328125,0.42555767304761116,0.03533554078220361,0.008041918272887775
1684180072572782000,6.855182373046875,0.358236193734387,0.018349647653761604,0.05265492201080828
1684180072582823100,6.865223388671875,0.31764480472386614,0.011075973564944434,0.09169620273385111
1684180072592864400,6.875264892578125,0.2592084408677169,0.0039272309280023844,0.075759291561329
1684180072602905600,6.885305908203125,0.22821584342317663,-0.06430149066449733,0.11394202714788867
1684180072612946900,6.89534716796875,0.2288610785225683,-0.07957744616854355,0.10163718453228558
1684180072622988200,6.905388671875,0.2250156551629525,-0.10635757442029947,0.06574463839232046
1684180072633029600,6.915429931640625,0.2164310664272628,-0.12794971476643727,0.011229097935434577
1684180072643070600,6.925470947265625,0.21715068800118162,-0.1326408385500133,-0.07138437034454406
1684180072653112000,6.935512451171875,0.21521678569302502,-0.06423664094972452,-0.18363845350430094
1684180072663153300,6.9455537109375,0.15672308205690452,0.052451133797988235,-0.23028546579109813
1684180072673194400,6.9555947265625,0.1276710777480105,0.14360523224663696,-0.2826865912436286
1684180072683235800,6.96563623046875,0.08560589699160298,0.23319053658918532,-0.29135197394257173
1684180072693277100,6.975677490234375,0.07336212699170765,0.28355407721920245,-0.3134241105292739
1684180072703318400,6.98571875,0.09083277738359305,0.25295829778116485,-0.30143713946789363
1684180072713359600,6.995760009765625,0.1352594495206665,0.24630260456522376,-0.2861694693694516
1684180072723400900,7.00580126953125,0.1942910252958639,0.176070213346501,-0.3028433323402676
1684180072733442200,7.015842529296875,0.27185985447730027,0.14221286780359568,-0.3063070178135933
1684180072743483300,7.0258837890625,0.38552570354295546,0.13235187544000968,-0.2990134954683724
1684180072753524600,7.035925048828125,0.4864608048133491,0.10372829438155129,-0.34235709915537416
1684180072763566000,7.04596630859375,0.5693651437353127,0.1108255385945076,-0.32745283839881184
1684180072773607100,7.056007568359375,0.5892465709851167,0.13654708862630874,-0.3209789395651298
1684180072783648400,7.066048828125,0.6036753057905395,0.15939807881822116,-0.2876240015297979
1684180072793689800,7.076090087890625,0.5304414630689185,0.14174270633298075,-0.23963153368914533
1684180072803731100,7.086131591796875,0.4513858259834174,0.12192630762773235,-0.1327046154840989
1684180072813772200,7.096172607421875,0.31090205915802205,0.09294223796373784,0.03176677227072633
1684180072823813600,7.1062138671875,0.12075062104324871,-0.00619888306847168,0.2521288394191935
1684180072833854900,7.11625537109375,-0.10741131010387715,-0.10834598546207498,0.4962671099954889
1684180072843896000,7.12629638671875,-0.31506839402287296,-0.1897821425125648,0.7297070621960104
1684180072853937300,7.136337646484375,-0.5019795894799961,-0.22954559315934486,0.8785718680062999
1684180072863978600,7.146379150390625,-0.6019869447778118,-0.27772998799277543,0.9368289709351049
1684180072874019800,7.156420166015625,-0.5886259079483962,-0.2329549789663543,0.8916051983658737
1684180072884061100,7.16646142578125,-0.5184879900001479,-0.16040134438032216,0.6745883224879173
1684180072894102400,7.1765029296875,-0.4046938420794882,-0.02298831943101563,0.2803615332251913
1684180072904143600,7.1865439453125,-0.25809395302751054,0.0980615615801365,-0.058744788204133876
1684180072914184900,7.196585205078125,-0.09667116401009739,0.1299428939059433,-0.38248729701594597
1684180072924226200,7.206626708984375,0.042958535159456405,0.11642742155731196,-0.6452195645794336
1684180072934267600,7.21666796875,0.15768036241387046,0.11944675441388078,-0.7956455945733134
1684180072944308600,7.226708984375,0.24216252573656985,0.12935256950060953,-0.8077448607679936
1684180072954350000,7.23675048828125,0.244486972778175,0.16257190715757575,-0.7197811602554366
1684180072964391300,7.246791748046875,0.2110600470475926,0.2634572981777731,-0.5806775093270901
1684180072974432400,7.256832763671875,0.17638063435701476,0.2942829132007076,-0.3507865667808588
1684180072984473800,7.266874267578125,0.10177241268356449,0.24206161497428477,-0.057394623729240896
1684180072994515100,7.27691552734375,0.017320189598508513,0.12238693243110269,0.15860104559280072
1684180073004556500,7.286956787109375,-0.017675388625346677,0.0023622513373004125,0.27429926386067754
1684180073014597600,7.296998046875,-0.06335525204662625,-0.07092380524561108,0.34322595590479305
1684180073024638900,7.307039306640625,-0.07562602312449283,-0.1453065871728127,0.38476628067121393
1684180073034680200,7.31708056640625,-0.10497753318583827,-0.17600345616360205,0.37784433364875464
1684180073044721600,7.3271220703125,-0.14391222602614726,-0.15900516518760022,0.3229156137132478
1684180073054762600,7.3371630859375,-0.22463665893596887,-0.11393928533954474,0.21605986361002136
1684180073064804000,7.347204345703125,-0.3388884962816051,-0.11427402494112351,0.09596461052466877
1684180073074845400,7.357245849609375,-0.40584132067771955,-0.08866977698785872,0.005678057630012136
1684180073084886400,7.367286865234375,-0.4284981191259302,-0.044615745637133365,-0.03888159991195503
1684180073094927800,7.377328125,-0.4335283637181111,-0.0036163330551281787,-0.014866590463172812
1684180073104969100,7.38736962890625,-0.4050411284250014,-0.003286361552369783,0.020095765580300445
1684180073115010200,7.39741064453125,-0.3743577301977669,-0.014704704263562284,0.08473187703776681
1684180073125051600,7.407451904296875,-0.35783407108429816,-0.035324096607978674,0.0655518172618386
1684180073135092900,7.417493408203125,-0.30313849451438585,-0.013209342980930471,0.07465529451268231
1684180073145134000,7.427534423828125,-0.23195292042136278,0.008532524146803472,0.062318027016199706
1684180073155175300,7.43757568359375,-0.09798470894416475,0.029896736196054423,0.0785236358487262
1684180073165216600,7.4476171875,-0.015809759454200347,0.029675483619739568,-0.0016154645589888206
1684180073175258000,7.457658447265625,0.04345212143100716,0.0529394150483916,-0.05148887637463891
1684180073185299100,7.467699462890625,0.08477699739375326,0.08517646807137068,-0.08332800862817663
1684180073195340500,7.477740966796875,0.11301502568045761,0.06738662726697357,-0.07631462811611446
1684180073205381800,7.4877822265625,0.13309136034699054,0.06633472445698159,-0.07830631737571714
1684180073215423200,7.497823486328125,0.14735081796781607,0.06292438494215276,-0.07520878321788708
1684180073225464200,7.50786474609375,0.14396880565293427,0.06427669526516255,-0.04139029988562027
1684180073235505600,7.517906005859375,0.09737458838896888,0.03264617907998548,-0.017446518017597362
1684180073245546900,7.527947265625,0.02519623936528895,-0.012572288410352545,0.024859607253583754
1684180073255588000,7.537988525390625,-0.07408209886026125,-0.016991615213230296,0.028544425880014095
1684180073265629400,7.54802978515625,-0.17378000918918915,0.006918906994971726,0.029683768805385546
1684180073275670600,7.558071044921875,-0.21705514186975558,0.02573490131171463,0.011789321921434871
1684180073285711800,7.5681123046875,-0.23085811748539314,0.053650856004814784,-0.05058723681029954
1684180073295753100,7.578153564453125,-0.20639720546843307,0.07873344420957658,-0.06469643119721638
1684180073305794600,7.58819482421875,-0.1751746833342157,0.065709114081785,-0.10189700139683461
1684180073315835800,7.598236328125,-0.12082412849876029,0.045804977321923866,-0.08393645284187227
1684180073325876900,7.60827734375,-0.11214070759184636,0.028556823705455432,-0.049472391524359186
1684180073335918300,7.618318603515625,-0.09619468462213,0.020993232628718772,-0.03658372157883221
1684180073345959600,7.628360107421875,-0.10594064726644102,-0.03588771812520734,0.02081227291302304
1684180073356000600,7.638401123046875,-0.1079546661274136,-0.06827926646289874,0.032450079810939204
1684180073366042000,7.6484423828125,-0.114264905464023,-0.06714057926855611,0.04582351448623017
1684180073376083400,7.65848388671875,-0.08475071185014649,-0.05421829221522357,0.004406690757692513
1684180073386124600,7.668525146484375,-0.0672580897096973,-0.05089473725617135,-0.01319170004336681
1684180073396165800,7.678566162109375,0.006423056093549874,0.011243820253858382,-0.0918797851776583
1684180073406207200,7.688607666015625,0.0737877638849329,0.06764698039383382,-0.1198731064196661
1684180073416248600,7.69864892578125,0.09466300152697583,0.08779621139345309,-0.15433675048806775
1684180073426289600,7.70868994140625,0.12873739004539936,0.12171077713401904,-0.15019744633266394
1684180073436330900,7.7187314453125,0.15212574594492922,0.11501789086835677,-0.14811938987159462
1684180073446372300,7.728772705078125,0.15342643849641663,0.05662822725691669,-0.12230193609777808
1684180073456413600,7.73881396484375,0.13308027391498312,0.013329505919819717,-0.07321894166161082
1684180073466454600,7.748855224609375,0.11538520449562355,-0.015108108548553737,-0.015691459072552146
1684180073476496000,7.758896484375,0.0628813802514431,-0.035973548857202664,0.0027607679862760148
1684180073486537400,7.768937744140625,0.0021107420844701207,4.005441296853796e-05,-0.017135858461713095
1684180073496578600,7.778978759765625,-0.04350678624320931,0.011927604638519107,-0.02981662735856837
1684180073506619800,7.789020263671875,-0.07452642931315731,0.04716110235396474,-0.05404192212084115
1684180073516661200,7.7990615234375,-0.11661815638413718,0.05117607112802236,-0.037574648918119895
1684180073526702600,7.80910302734375,-0.11722601206559619,0.017439842212593124,-0.040123522266531056
1684180073536743600,7.81914404296875,-0.07692085209808676,-0.0016222001637469794,-0.02142548545516328
1684180073546784900,7.829185302734375,-0.029425740210217127,-0.013308524997543095,-0.05724078411148055
1684180073556826300,7.839226806640625,0.04597228013645086,0.001106262142284504,-0.0808696150389745
1684180073566867600,7.84926806640625,0.10813181094894327,0.022340774629010726,-0.14643353210244808
1684180073576908600,7.85930908203125,0.13566279420228883,0.05498218537788702,-0.2012628911577737
1684180073586950100,7.8693505859375,0.12663404641579182,0.0894079207955396,-0.2029783725141358
1684180073596991400,7.879391845703125,0.11485069992432591,0.09498405448068639,-0.15016168352352832
1684180073607032600,7.889432861328125,0.08646910643789728,0.0557250976485754,-0.05096125616514997
1684180073617073800,7.89947412109375,0.06091498578955582,-0.006411552433072011,0.037051677841973205
1684180073627115200,7.909515625,0.02174688878816269,-0.046293258603091754,0.10205310584541452
1684180073637156600,7.919556884765625,0.01406533275666148,-0.036031723068891734,0.13017982241996018
1684180073647197600,7.929597900390625,0.016087755539475144,0.016473769970227207,0.1102768182390056
1684180073657239000,7.939639404296875,0.03932219751684287,0.030441284236024633,0.01531243325477778
1684180073667280300,7.9496806640625,0.03135088072813663,0.044162750202521285,-0.08024156100747469
1684180073677321400,7.9597216796875,0.01852124171077016,0.015255928058489934,-0.13858872660070076
1684180073687362700,7.96976318359375,0.003188677154165876,0.012705802974993193,-0.14386725423190824
1684180073697404100,7.979804443359375,-0.038003139131506276,-0.011013984596351483,-0.0781317948572598
1684180073707445400,7.989845703125,-0.06445794557118406,-0.03433895111377599,0.03359407202443252
1684180073717486600,7.999886962890625,-0.08545839048121279,-0.043131828351815275,0.10555368658997605
1684180073727527900,8.00992822265625,-0.0938678011179588,-0.030558586257755205,0.11939305061634566
1684180073737569200,8.019969482421875,-0.12979604315949098,-0.018153190705938134,0.11362171170216762
1684180073747610600,8.030010986328126,-0.12459353348889465,-0.0035696028187246105,0.0769150853100076
1684180073757651600,8.040052001953125,-0.10290774702567104,0.008440971326759267,0.007569193772669843
1684180073767693000,8.05009326171875,-0.060489714025166126,-0.01506233209657772,-0.05590015633655495
1684180073777734300,8.060134765625,-0.04717101152720759,-0.0028705596372732836,-0.06403577319266632
1684180073787775400,8.07017578125,-0.027063503793226824,0.006753921500034597,-0.07661896940865431
1684180073797816800,8.080217041015626,-0.004593670368773584,0.03738403323149258,-0.051147103303712776
1684180073807858100,8.090258544921875,0.03898919372460621,0.06278228771424477,-0.058941483674848145
1684180073817899400,8.1002998046875,0.06994120768583782,0.05948543548302425,-0.045179903419725116
1684180073827940600,8.1103408203125,0.08560606842925061,0.05856513965923706,-0.09473103277003536
1684180073837981900,8.12038232421875,0.0694212168331637,0.02467250809032736,-0.10295730825942652
1684180073848023200,8.130423583984374,0.015121527085297244,0.007796287654821597,-0.0988616943428766
1684180073858064300,8.140464599609375,-0.05731140831999137,0.002965927194935804,-0.033511817428325
1684180073868105600,8.150506103515625,-0.12807285802694846,-0.006483077959203974,0.03762733940398321
1684180073878147000,8.16054736328125,-0.1216259449500005,-0.03692245490284905,0.09998124824691745
1684180073888188300,8.170588623046875,-0.11472032966465662,-0.05974864951591544,0.10890877250375744
1684180073898229400,8.1806298828125,-0.05129627895904143,-0.056258201639235964,0.060712695173525
1684180073908270800,8.190671142578125,-0.007934987556056938,-0.026907920764651923,-0.015167534316014903
1684180073918312100,8.20071240234375,-0.007941365322958294,0.030200958425063172,-0.08501976731524959
1684180073928353500,8.21075390625,0.020176976792854344,0.041606903095329224,-0.12987875929811352
1684180073938394600,8.220794921875,-0.022678613852592476,0.048081398170031486,-0.15010350946021975
1684180073948435900,8.230836181640624,-0.026929333864301144,0.054416656542811664,-0.1366857886162067
1684180073958477200,8.240877685546875,-0.014521583919487702,0.02294635768637864,-0.10430312150702865
1684180073968518300,8.250918701171875,-0.01406073566142216,0.006113052457897491,-0.053495705042929505
1684180073978559600,8.2609599609375,-0.020583599792801978,-0.010440826363020426,-0.0035125613257417586
1684180073988601000,8.27100146484375,-0.003225803366566974,-0.0031728744920798764,-0.01096212873114443
1684180073998642400,8.281042724609375,-0.011746182992484267,-0.017202377246065822,0.028626620786679092
1684180074008683400,8.291083740234376,0.010608285622801843,-0.009780883702886461,0.0248250962505382
1684180074018724800,8.301125244140625,0.039650417961563385,-0.007165908745273195,-0.009821176554922421
1684180074028766100,8.31116650390625,0.06089477981198602,0.016603469854149715,-0.027485668610330773
1684180074038807600,8.321207763671875,0.09555637833069361,0.035263061382604564,-0.08242344855399979
1684180074048848600,8.3312490234375,0.10356722768474795,0.03710746777075854,-0.09844267366838963
1684180074058889900,8.341290283203126,0.08553338796507882,0.020047187762999685,-0.09019666916772487
1684180074068931200,8.35133154296875,0.07937191428008224,0.007956504782016038,-0.00881803031990258
1684180074078972300,8.361372802734374,0.037910498617953266,-0.01570224762864197,0.054730236500949436
1684180074089013600,8.3714140625,0.006779186450198994,0.0034151077135940134,0.09592479458263749
1684180074099055000,8.381455322265625,0.012034982329210015,0.03635692593982681,0.06552588938331921
1684180074109096400,8.391496826171876,0.013017103010837291,0.026390075685890472,0.023577809235550463
1684180074119137500,8.401537841796875,0.039989225435127694,0.016597747731081195,-0.03896677501461795
1684180074129178800,8.4115791015625,0.07544486970663061,0.014026642012644175,-0.06267315159074859
1684180074139220100,8.42162060546875,0.06747069962099804,0.02089023588667177,-0.055018603939331175
1684180074149261200,8.43166162109375,0.061845406933347224,-0.028890609803347962,-0.03065568221139478
1684180074159302600,8.441702880859374,0.04248046135838566,-0.06844329836048126,0.03349089612729085
1684180074169343900,8.451744384765625,0.023691505295251936,-0.06731319435052689,0.120039939925011
1684180074179385300,8.46178564453125,0.026546530277990223,-0.02144813536785234,0.19543117295128695
1684180074189426400,8.47182666015625,0.02948459986209088,0.0048675535722822365,0.20071166764248216
1684180074199467600,8.4818681640625,-0.00039519372525295774,-0.06103801716972333,0.13487267483226226
1684180074209509000,8.491909423828124,-0.008225649578896734,-0.07167625442862426,0.08395969866452736
1684180074219550400,8.50195068359375,-0.017719343380635858,-0.056225776709630734,0.024178683902796438
1684180074229591600,8.511991943359375,-0.03626991819204049,-0.052803039493256335,-0.048794925306006535
1684180074239632800,8.522033203125,-0.014543861151186596,0.007047653202600614,-0.0685843229906086
1684180074249674200,8.532074462890625,0.013626888494338877,0.08001518261683947,-0.11140608789778195
1684180074259715200,8.54211572265625,0.06697766479545711,0.10936260222494049,-0.0919393302385997
1684180074269756600,8.552156982421875,0.08416433633071418,0.1358375550530299,-0.08420050151350422
1684180074279797900,8.5621982421875,0.1224079131749631,0.051198959311368274,-0.09282034636190534
1684180074289839300,8.57223974609375,0.14584369939229352,-0.020283699057079125,-0.07980626831299895
1684180074299880400,8.58228076171875,0.1354485897820929,-0.0693998338172484,-0.09031385172722113
1684180074309921600,8.592322021484375,0.07549485574461542,-0.06825351715559612,-0.03473919630811458
1684180074319963100,8.602363525390626,0.009592935384913747,-0.07651233668496579,-0.0016517638196439381
1684180074330004400,8.61240478515625,-0.01232630013756227,-0.06576538087861998,0.0704073309281303
1684180074340045600,8.62244580078125,0.0018427223625869776,-0.04809379578552893,0.07007783659196741
1684180074350086800,8.6324873046875,0.003990590541937363,-0.04714584346694105,0.0455923081725462
1684180074360128200,8.642528564453125,-0.008156180409005976,-0.032063484253997354,0.0659294129138504
1684180074370169300,8.652569580078126,-0.0012154131534211322,0.015746116587774094,0.04566949605393395
1684180074380210600,8.662611083984375,0.04606120275105296,0.04392147057623676,0.061018109399815126
1684180074390252000,8.67265234375,0.07879156609680724,0.06927776338257033,0.033577263389906284
1684180074400293300,8.682693603515625,0.13474816075340004,0.0683135985159428,0.0018380284358024371
1684180074410334600,8.692735107421875,0.14737583679731378,0.07911205291947346,-0.06674098961385216
1684180074420375700,8.702776123046876,0.1265338808760464,0.12030029299448614,-0.13605833056640354
1684180074430417100,8.7128173828125,0.0820457711284877,0.09247875213536796,-0.21998476980462428
1684180074440458400,8.72285888671875,0.023998364832333783,0.015613555738035021,-0.22628265610133308
1684180074450499800,8.732900146484376,-0.03086392591294358,-0.03178310405196761,-0.22464334966504168
1684180074460540800,8.742941162109375,-0.09893128271003639,-0.07842254640126194,-0.15671497596737913
1684180074470582200,8.752982666015624,-0.2032941729345761,-0.10076045984990244,-0.05680853120433232
1684180074480623600,8.76302392578125,-0.2653594614065918,-0.10152339936549545,0.06935995801703168
1684180074490664600,8.77306494140625,-0.26689684395177166,-0.09047222137172031,0.22583836314473882
1684180074500706000,8.7831064453125,-0.24663819366893427,-0.11486816405998863,0.3530557154743657
1684180074510747300,8.793147705078125,-0.19061516215406202,-0.12703609457746368,0.45374396443912823
1684180074520788600,8.80318896484375,-0.12280830747444003,-0.1931009293374002,0.4883153438533158
1684180074530829700,8.813230224609375,-0.05056636031864884,-0.19683551787722073,0.46285232896552503
1684180074540871100,8.823271484375,0.025910422229470216,-0.1957902906913616,0.43266332136352414
1684180074550912400,8.833312744140626,0.09432470784997984,-0.17593193057265002,0.3486770688495863
1684180074560953800,8.843354248046875,0.14043819899579088,-0.13992023459268826,0.26352533708584924
1684180074570994900,8.853395263671874,0.1431153713572506,-0.1092195512231953,0.18688738337765037
1684180074581036200,8.8634365234375,0.11204259090587369,-0.11433315277167126,0.08096742629355395
1684180074591077600,8.87347802734375,0.05252255492937955,-0.11229324336777359,0.04753232008630053
1684180074601118600,8.88351904296875,-0.025473326427522584,-0.07731533040637707,0.005204319998682719
1684180074611160000,8.893560302734375,-0.08344718807448226,-0.04527664176840874,0.008338689932902684
1684180074621201300,8.903601806640625,-0.07876703150615885,-0.0114355085911621,0.04669910661171079
1684180074631242600,8.91364306640625,-0.066110521585168,-0.03232192993401776,0.06773364551993787
1684180074641283800,8.92368408203125,-0.03156307344212301,-0.07170581825048408,0.07632547628065048
1684180074651325100,8.9337255859375,0.0315554738306513,-0.1222028731350451,0.06067997212400317
1684180074661366400,8.943766845703125,0.10107880836829425,-0.11535263063490317,0.023745059892123076
1684180074671407800,8.95380810546875,0.1270101070969732,-0.10859107970334572,-0.03425061697399724
1684180074681448900,8.963849365234376,0.16413350407891245,-0.09252452859366755,-0.10313767191598948
1684180074691490200,8.973890625,0.1603551059608739,-0.08144760130452967,-0.14474081997087757
1684180074701531600,8.983931884765624,0.12303563949025464,-0.06351375581212172,-0.20870101455792128
1684180074711572900,8.993973388671876,0.062074690962510205,-0.057659149196779155,-0.16047900921016237
1684180074721614000,9.004014404296875,0.029687255626574312,-0.04485607150538981,-0.1526031494386109
1684180074731655300,9.0140556640625,0.016368597725403618,-0.022866249197173002,-0.07859939349801462
1684180074741696600,9.02409716796875,0.04590520254316416,-0.04366779333162007,-0.05002492662456538
1684180074751738000,9.034138427734376,0.11778210105715063,-0.028886794910219286,0.009473979400500937
1684180074761779100,9.044179443359376,0.1536127477694285,-0.04272460946248453,0.05066132551929681
1684180074771820500,9.054220947265623,0.2103948444659789,-0.08699607847633269,0.11532729852918903
1684180074781861800,9.06426220703125,0.20542284859138904,-0.09743595124091772,0.2543326616261578
1684180074791903200,9.074303466796875,0.24348919099803054,-0.036882400434058965,0.2864179313389472
1684180074801944200,9.0843447265625,0.22262781871183565,-0.00787639618863184,0.20343226189901328
1684180074811985600,9.094385986328126,0.21409478792954648,0.022976875353914506,0.16425508258205346
1684180074822026900,9.10442724609375,0.17285269493618025,0.0014848707428908505,0.10960555070298314
1684180074832068300,9.11446875,0.10644668346233555,-0.03146362303532305,0.09865087268442303
1684180074842109400,9.124509765625,0.06714582444571585,-0.009780883736667158,0.12398841983582928
1684180074852150600,9.134551025390625,0.036249756719242736,0.00909328454597807,0.12855273497032468
1684180074862192000,9.144592529296874,0.05660569668597004,0.0581541061894032,0.16419419647762365
1684180074872233400,9.1546337890625,0.11398649218570547,0.10629081728768336,0.14975774275139375
1684180074882274600,9.1646748046875,0.16778981684909483,0.11588001254060026,0.09486594809102616
1684180074892315800,9.17471630859375,0.25528150794226745,0.1393985747451867,-0.037950456127072416
1684180074902357200,9.184757568359377,0.36322492360680664,0.15780830381457472,-0.2072204351777211
1684180074912398600,9.194798828125,0.44086179128399455,0.11945819853130152,-0.42652881144929444
1684180074922439600,9.204840087890624,0.47365376347701016,0.025330543559898912,-0.6052950023542084
1684180074932480900,9.21488134765625,0.4523310662033239,-0.012978553839663771,-0.8050245641430485
1684180074942522300,9.224922607421876,0.42929643380077503,-0.015226364077596883,-0.8815174103215383
1684180074952563400,9.2349638671875,0.40266650927061876,0.015614509540776964,-0.8980541230552681
1684180074962604600,9.245005126953124,0.37781041856691705,-0.0010976792518688355,-0.8953045008695046
1684180074972646100,9.25504638671875,0.355476379547944,-0.05993080125758648,-0.8754190205541214
1684180074982687400,9.265087890625,0.34085145587847493,-0.05193519589244407,-0.8054794072340377
1684180074992728600,9.27512890625,0.30579191447822257,-0.05357742304224779,-0.6956838964801102
1684180075002769800,9.285170166015623,0.29523539543254645,-0.04821872701492126,-0.5842484830678959
1684180075012811200,9.295211669921876,0.29675155882121274,-0.05949783334056242,-0.43841958043132717
1684180075022852600,9.3052529296875,0.33605861658297626,-0.058876037630156135,-0.3084281087941609
1684180075032893900,9.315294189453123,0.37009891872674217,-0.02063179015885885,-0.18726509824366452
1684180075042935000,9.32533544921875,0.37788003671497317,0.005171775875663718,-0.058482646860035487
1684180075052976300,9.335376708984375,0.41159686453868916,0.044651985202931246,0.058743476804778386
1684180075063017600,9.34541796875,0.4093964995317262,0.12351226808092224,0.1665719150926131
1684180075073058700,9.355459228515626,0.33646553764645454,0.13519668566430032,0.24340522288451388
1684180075083100100,9.36550048828125,0.2834732831478404,0.08081817616627346,0.2803447545356327
1684180075093141400,9.375541748046874,0.198186278358863,0.025051117047569984,0.3508788047619042
1684180075103182800,9.385583251953124,0.11891961086270253,-0.0768337249817393,0.3981506526333371
1684180075113223900,9.395624267578125,0.06229591381832232,-0.12992286673332792,0.4626436233347145
1684180075123265200,9.40566552734375,0.04977607743105467,-0.12801742543971428,0.5370425582361849
1684180075133306600,9.41570703125,0.07657361024083824,-0.137997627188887,0.526953816323639
1684180075143347900,9.425748291015625,0.13058596835996275,-0.1149816513216611,0.5658795834010727
1684180075153389200,9.43578955078125,0.18246495740835955,-0.0430355070924517,0.5594952105631882
1684180075163430300,9.445830810546877,0.21685692670043785,0.11947059639363061,0.5748731495116697
1684180075173471600,9.4558720703125,0.2091909349140993,0.21104907990151872,0.601893723054207
1684180075183513000,9.465913330078124,0.10286951064867667,0.2635812759109933,0.6019647121019102
1684180075193554400,9.475954833984376,-0.08879631752270449,0.24245357516654784,0.5532689690630479
1684180075203595400,9.485995849609376,-0.31877821676538226,0.18416404727665178,0.4746666551132719
1684180075213636800,9.496037109375,-0.5168677569013279,0.17162609108098734,0.3593330381916736
1684180075223678100,9.50607861328125,-0.6888174414194363,0.17567062365969435,0.2219368517454811
1684180075233719200,9.51611962890625,-0.7346764802226969,0.20528030394787525,0.07962924230964805
1684180075243760600,9.526160888671876,-0.6796977520094086,-0.027270316974159346,-0.14663948113907435
1684180075253801900,9.536202392578126,-0.5595772266405877,-0.004355430559142254,-0.2801879049949627
1684180075263843200,9.54624365234375,-0.40869492292750603,0.35689353933919843,-0.26638481027107624
1684180075273884300,9.55628466796875,-0.1691309214013704,0.5375995635892273,-0.3712869883884811
1684180075283925600,9.566326171875,0.02412748322760462,0.43651771540760775,-0.4144817887900914
1684180075293967000,9.576367431640625,0.19382971534227084,0.4121208190172671,-0.388089239625952
1684180075304008400,9.58640869140625,0.2718046307485706,0.2709417342973314,-0.27279868713880734
1684180075314049600,9.5964501953125,0.22829574346022138,0.02754306802304413,-0.21169456838047887
1684180075324090800,9.6064912109375,0.14807492496877955,-0.1698274611988278,-0.2746338843718777
1684180075334132100,9.616532470703126,0.06557929510971139,-0.07275867467460222,-0.24666202073181723
1684180075344173600,9.626573974609377,-0.14666283126409072,-0.011438369708314607,-0.19530633073410156
1684180075354214600,9.636614990234374,-0.3844711781308905,-0.007384300083726629,-0.1639808714382557
1684180075364255900,9.64665625,-0.6621948479809183,-0.11562919626376437,-0.22173558168573676
1684180075374297300,9.65669775390625,-0.8490618467068065,-0.1092042923049591,-0.28657749286093215
1684180075384338600,9.666739013671876,-0.9014227390804574,-0.06730937955507346,-0.32646596421682256
1684180075394380000,9.6767802734375,-0.7956000565980096,-0.5822982788063525,-0.5466870070547459
1684180075404421000,9.686821533203124,-0.6331584453248332,-1.330279350180534,-0.7974188326505485
1684180075414462400,9.69686279296875,-0.4836494922320343,-1.2407970428655923,-0.49835139505330334
1684180075424503600,9.706904052734377,-0.40957152846200157,-0.6120615006848154,-0.21994462613309393
1684180075434545100,9.716945556640624,-0.3274799585999564,0.23460769661301356,-0.18488410108416545
1684180075444586200,9.726986572265623,-0.22070705894795498,0.8544940946905822,0.016334146322504035
1684180075454627600,9.73702783203125,-0.03028655051306478,1.2577896119469751,0.30102825174155834
1684180075464668800,9.7470693359375,0.13069200511023524,1.576448440556074,0.4769752621879865
1684180075474710200,9.757110595703123,0.26875096549718,1.550471305908699,0.5730755329697936
1684180075484751300,9.767151611328124,0.3208904267064446,1.1784582138531794,0.5558883549078206
1684180075494792600,9.777193115234375,0.2769725321584381,0.5210876463417019,0.42286908620813546
1684180075504834000,9.787234375,0.155908823147746,-0.02443027481299712,0.19627737989599714
1684180075514875300,9.797275634765626,-0.05861628066364961,-0.3246450423873804,-0.0014812349960027988
1684180075524916400,9.80731689453125,-0.29310619833794066,-0.4162092208601809,-0.16331735262956623
1684180075534957700,9.817358154296874,-0.5025037526341772,-0.3405227660901477,-0.2873117922535699
1684180075544999100,9.8273994140625,-0.6307464837980237,-0.06954956054508626,-0.2980547547404605
1684180075555040400,9.83744091796875,-0.6611375806785134,0.30300998693648645,-0.2519837319920878
1684180075565081600,9.84748193359375,-0.5590038300688818,0.5119075775680341,-0.1518914252447284
1684180075575122900,9.857523193359375,-0.4285371301845752,0.6102409363334969,-0.08588573336115814
1684180075585164200,9.867564697265625,-0.32598197451309174,0.6151781083488956,-0.06059661505784421
1684180075595205600,9.87760595703125,-0.2303649187695027,0.522253990192573,-0.03982868804103568
1684180075605246900,9.887647216796877,-0.15819227688154985,0.3699312211339471,-0.1562268733483481
1684180075615288000,9.8976884765625,-0.07523858528253197,0.12726116193009354,-0.2553415297939697
1684180075625329300,9.907729736328124,0.006761312466927761,-0.04785156261264053,-0.36180475353975766
1684180075635370600,9.91777099609375,0.015753626930306353,-0.1100502013943395,-0.4313810466261126
1684180075645411800,9.927812255859376,-0.05299258230862435,-0.10731410966845042,-0.45200231682506514
1684180075655453100,9.937853515625,-0.20877814291624694,-0.011186599738094195,-0.48925769328655194
1684180075665494400,9.947894775390624,-0.3956780432870814,0.2209701539597795,-0.5242697595023263
1684180075675535800,9.957936279296876,-0.5330698488679553,-0.017974853500050115,-0.585087001263675
1684180075685577100,9.9679775390625,-0.6571635007263154,-0.5217094422515403,-0.6681833268002632
1684180075695618200,9.9780185546875,-0.6955134868913498,-0.929050445690723,-0.7992383242407798
1684180075705659600,9.98806005859375,-0.6973667143577831,-0.9439706802197165,-0.9430787562938819
1684180075715700900,9.998101318359376,-0.6886817216279819,-0.9111175536923962,-1.0053589342606657
1684180075725742300,10.008142578125,-0.6994674206900755,-0.8352022169942601,-1.1562547683825664
1684180075735783300,10.018183837890623,-0.7517024278069528,-0.7233781814217739,-1.2613971233273105
1684180075745824600,10.02822509765625,-0.816524624789203,-0.7309398649813915,-1.339418530404011
1684180075755866000,10.038266357421875,-0.9196813108221009,-0.7047681808860314,-1.444426536655387
1684180075765907100,10.0483076171875,-1.0865637065679987,-0.587759971603154,-1.466221571087187
1684180075775948500,10.058348876953126,-1.2707380056966036,-0.4233465194182442,-1.534746169978245
1684180075785989800,10.06839013671875,-1.3685643671795806,-0.21665668483318654,-1.512207746607677
1684180075796031200,10.078431640625,-1.317553281699335,-0.025282859819639233,-1.3612107037953682
1684180075806072600,10.088472900390624,-1.1610385179156,0.20565414427622375,-1.176090955811627
1684180075816113600,10.098513916015625,-0.9163275958042989,0.273079872041839,-1.000170111686849
1684180075826154900,10.108555419921874,-0.553705453877546,0.15853404997948356,-0.7893146277345559
1684180075836196300,10.1185966796875,-0.13881897914729732,0.013132095464216242,-0.5540504455134563
1684180075846237600,10.128637939453125,0.23678016665421134,-0.11514186860532889,-0.21470791103444326
1684180075856278600,10.13867919921875,0.5347206592658361,-0.1451501848065836,0.1919996141038949
1684180075866320000,10.148720458984377,0.7338913679603287,-0.060545921476444026,0.5497744083276432
1684180075876361400,10.15876171875,0.8277037143026136,0.08094120024044667,0.8502689598899917
1684180075886402700,10.16880322265625,0.8564963340860727,0.2983560561352966,1.0334548949189637
1684180075896444100,10.178844482421876,0.821865439425507,0.48421955103275044,1.163492679537675
1684180075906485200,10.188885498046876,0.729691982380023,0.560078620807022,1.2676876781829947
1684180075916526600,10.198927001953123,0.6262559891140631,0.564785003548973,1.2309268714494794
1684180075926567900,10.20896826171875,0.4936742781977843,0.5131578445545761,1.020934820233411
1684180075936608900,10.21900927734375,0.40091133125682704,0.4150304794001897,0.785612881191202
1684180075946650300,10.22905078125,0.3150899408705612,0.3038444519861459,0.631813704828464
1684180075956691600,10.239092041015626,0.2040399313970302,0.22472095498151043,0.4505220948449834
1684180075966733000,10.24913330078125,0.10953629023349534,0.15104103089368717,0.1895800829461154
1684180075976774300,10.2591748046875,0.07947063441486038,0.12807846072365953,-0.08676773320487391
1684180075986815400,10.2692158203125,0.11067581184025908,0.13190650931732092,-0.226162284642782
1684180075996856800,10.279257080078125,0.11926150312428518,0.1600666046219291,-0.35419493918035694
1684180076006898100,10.289298583984374,-0.0009815693075608631,0.13103675840336398,-0.3599880337639454
1684180076016939400,10.29933984375,-0.07622766477433343,0.11869811996746697,-0.3505303263535807
1684180076026980600,10.309380859375,-0.08898508541710129,0.23271465296872307,-0.3217826187770471
1684180076037021900,10.31942236328125,-0.04434549801611498,0.3534183501555393,-0.3497928379913351
1684180076047063200,10.329463623046877,-0.055201172849100665,0.404463768133459,-0.4095447660399629
1684180076057104600,10.3395048828125,-0.1782466173141148,0.44084453591085965,-0.529130518372572
1684180076067145900,10.34954638671875,-0.3305902481254717,0.44561290751307725,-0.4984513223997641
1684180076077187000,10.35958740234375,-0.43693876267953685,0.3398342131954971,-0.4780945479870062
1684180076087228300,10.369628662109376,-0.4024426937951913,0.25526809696208086,-0.3249782919786835
1684180076097269600,10.379670166015623,-0.3554743528649272,0.22323608414108947,-0.1497808693374392
1684180076107311000,10.38971142578125,-0.36858975887190715,0.17462444321908988,0.08427771913725003
1684180076117352100,10.39975244140625,-0.3213082551972222,0.17670345320153322,0.21157169329298195
1684180076127393500,10.4097939453125,-0.17530632028108614,0.12936687459982602,0.3032692075444372
1684180076137434800,10.419835205078124,-0.10647058496188612,0.08052921291805866,0.1763233245310236
1684180076147476100,10.42987646484375,-0.34469687931517046,0.06546974172473514,0.11353808656611307
1684180076157517200,10.439917724609376,-0.6093670128764371,0.08117485052710191,0.17862850430522328
1684180076167558600,10.449958984375,-0.6750940083391956,0.08692932139411555,0.2618850468853066
1684180076177599900,10.460000244140623,-0.6212886570796402,0.011330604637599991,0.5159562826908278
1684180076187641300,10.470041748046874,-0.4658108950246536,-0.01613903049467906,0.6258342265758992
1684180076197682400,10.480082763671875,-0.2625288962795457,-0.004920959492121069,0.7062638401328752
1684180076207723600,10.4901240234375,-0.08877229707823021,0.035454750140972595,0.760030269738212
1684180076217765000,10.50016552734375,-0.008750319566799733,0.03557491287871874,0.7685550451636743
1684180076227806400,10.510206787109375,-0.009184003006174796,0.062251091032361275,0.9203274249987522
1684180076237847700,10.520248046875,-0.10511553292451332,0.11291599275596499,0.9248910546211336
1684180076247888800,10.530289306640626,-0.2235627174551838,0.14680767055304092,0.9278667567645528
1684180076257930200,10.54033056640625,-0.3166259527730336,0.226177215636205,0.9164578915990275
1684180076267971600,10.550371826171874,-0.33039069188185105,0.36788177494687135,0.8970854280945909
1684180076278012800,10.560413330078124,-0.26874327665047415,0.3928232192320728,0.8439056277469091
1684180076288053900,10.570454345703125,-0.19470024090940455,0.34669589983681726,0.886603057494092
1684180076298095300,10.58049560546875,-0.13276028632522335,0.33477210994809314,0.8820256589540816
1684180076308136600,10.590537109375,-0.064131140590358,0.34979248031738625,0.8424116372271594
1684180076318178000,10.600578369140624,-0.012965559898569796,0.33673858643162596,0.853956580292499
1684180076328219100,10.610619384765624,0.04239547258228494,0.2383403776352926,0.8133389949446269
1684180076338260400,10.620660888671877,0.016577005252846045,0.05473709090085915,0.8251118660657701
1684180076348301700,10.6307021484375,-0.03216791153956625,-0.08742713925280306,0.8149555323932589
1684180076358343100,10.640743408203123,-0.11308515069012623,-0.1740856171093866,0.8026670814824846
1684180076368384400,10.650784912109376,-0.23336076745809953,-0.09331226357499531,0.6821530460442272
1684180076378425600,10.660825927734376,-0.3502275347235446,0.03964233407700247,0.5274888276691966
1684180076388466900,10.6708671875,-0.4139272571561305,0.2006235123283093,0.24980294703610667
1684180076398508200,10.68090869140625,-0.5079036950335288,0.21263313300890815,-0.10555094473410756
1684180076408549600,10.690949951171875,-0.546779215334663,0.21595859529472014,-0.5683186650767028
1684180076418590600,10.700990966796876,-0.5583477615738475,-0.014680862498824238,-0.9701064228922147
1684180076428632000,10.711032470703126,-0.6411970258769404,-0.31067085260274185,-1.3627057076171902
1684180076438673300,10.72107373046875,-0.8703904150888797,-0.4467067718760132,-1.8354014157417375
1684180076448714600,10.731114990234374,-1.172455072383328,-0.49290084835852294,-2.089489221550981
1684180076458756000,10.741156494140624,-1.4967572689718962,-0.43974494938843456,-2.073461055798129
1684180076468797100,10.751197509765625,-1.6816527842312525,-0.38508415222311737,-1.9509701728854834
1684180076478838400,10.76123876953125,-1.7851245402586622,-0.5290613175191446,-1.6284937859000008
1684180076488879800,10.7712802734375,-1.7253600358271532,-0.6987028123275459,-1.2626702785494004
1684180076498921100,10.781321533203124,-1.4195452927372547,-0.6097745894822381,-1.0694532394171086
1684180076508962200,10.791362548828126,-0.8414863347828895,-0.349474906788741,-0.9446821213177042
1684180076519003600,10.801404052734377,-0.0657763779336648,-0.0688619613910195,-0.5507107376901743
1684180076529044900,10.8114453125,0.7003405690259226,0.01738548277284611,0.0682557821144704
1684180076539086300,10.821486572265623,1.4041237831858224,-0.1830883025844384,0.6312875749067971
1684180076549127300,10.83152783203125,1.9597802162894709,-0.15844631186191854,0.8726549744485976
1684180076559168600,10.841569091796876,2.2102904319987826,-0.26268959048196755,1.0365782976006022
1684180076569210000,10.8516103515625,2.2019929885883887,-0.44538307196035515,1.1020934583390563
1684180076579251400,10.86165185546875,1.9184888601797674,-0.5153713225089531,1.1182032824698909
1684180076589292600,10.871693115234375,1.5145571231230621,-0.49689674394091055,1.0620498656960224
1684180076599333800,10.881734130859376,0.9480789302882313,-0.3783264160504752,0.9920248388213522
1684180076609375200,10.891775634765626,0.24013856051456448,-0.3175477982973783,1.0679563285214873
1684180076619416600,10.90181689453125,-0.6777157188377617,-0.19975948336564178,1.2259435653176947
1684180076629457800,10.911858154296874,-1.655298471486111,-0.10394191739749653,1.3481225968288093
1684180076639498900,10.9218994140625,-2.3825411797153806,0.04408454901070708,1.3103456496468033
1684180076649540300,10.931940673828125,-2.555080652273335,0.05822086333296486,1.2319608927917518
1684180076659581600,10.94198193359375,-2.1729011535187976,-0.029818534869267936,0.9925411939115016
1684180076669623000,10.9520234375,-1.499332189667667,-0.22444057464456754,0.6562637687825783
1684180076679664000,10.962064453125,-0.8860422969904785,-0.26047706608975657,0.24586290126398958
1684180076689705400,10.972105712890626,-0.3360042573098576,-0.14347839364271198,-0.14477592704667958
1684180076699746700,10.982147216796877,0.016234740495432415,0.09711647015814265,-0.40957909822290756
1684180076709788100,10.9921884765625,0.16813226037179768,0.31267452257611045,-0.5562919974350984
1684180076719829400,11.002229736328124,0.18523503830669974,0.48176765445420516,-0.5432697533706523
1684180076729870600,11.01227099609375,0.10503494743628705,0.49724197394413155,-0.47454172364993724
1684180076739911900,11.022312255859376,-0.015256106898533236,0.4122648238371971,-0.3919742106743963
1684180076749953200,11.032353515625,-0.14242634197062995,0.26058292386215365,-0.37466824057856296
1684180076759994600,11.04239501953125,-0.20007139451905528,0.14968013776505162,-0.40926074979992266
1684180076770035600,11.05243603515625,-0.15500760088205134,0.10317420976066408,-0.3463972806703015
1684180076780077000,11.062477294921877,-0.1502645910920214,0.07555675502722523,-0.11429065469218833
1684180076790118300,11.072518798828124,-0.23320028180525387,-0.007128715470914966,0.11121892921080996
1684180076800159600,11.08256005859375,-0.3486771881951059,-0.17559814452740022,0.3779251872437141
1684180076810201000,11.092601318359376,-0.4156329035418374,-0.4056510926115924,0.538819193914238
1684180076820242100,11.102642578125,-0.47478136421672323,-0.44397830952481543,0.5942133664047266
1684180076830283400,11.112683837890623,-0.5165678263143207,-0.4080905915549671,0.6021367310854613
1684180076840324800,11.12272509765625,-0.5579421519944979,-0.25516986834643324,0.638934314197278
1684180076850366100,11.1327666015625,-0.568389952166227,-0.15981960297015152,0.6705510617114796
1684180076860407500,11.142807861328125,-0.5722616911949009,-0.040711402900883924,0.6276707053359774
1684180076870448600,11.152848876953126,-0.5506423711672356,0.030468940690963477,0.612883806077255
1684180076880489900,11.162890380859375,-0.5221865175811754,0.09682369231878854,0.5788733959429502
1684180076890531200,11.172931640625,-0.4312411546636961,0.1679544448466436,0.5449265836460203
1684180076900572600,11.182972900390626,-0.3199148178359772,0.1842088699739249,0.5277587174069298
1684180076910613600,11.19301416015625,-0.13044407966580135,0.1982898712527676,0.5106063483800805
1684180076920655000,11.203055419921874,0.028863012708408322,0.23635768896338188,0.4945240914985197
1684180076930696400,11.2130966796875,0.19744831340877503,0.18363475790238615,0.560768842663969
1684180076940737600,11.22313818359375,0.3353512882748551,0.1835250854379937,0.6352287531543143
1684180076950778800,11.23317919921875,0.47636175151597565,0.13786888111812384,0.7393699288778643
1684180076960820100,11.243220458984377,0.5281562805464416,0.041940689089948156,0.8585497139862077
1684180076970861600,11.253261962890624,0.5763348340949479,-0.03247356408146691,1.006472349029047
1684180076980902800,11.26330322265625,0.5806601048302104,-0.08535289748558204,1.1369767190082591
1684180076990944200,11.273344482421876,0.5708498357874028,-0.009190559479089836,1.2041176558354363
1684180077000985300,11.2833857421875,0.566884040966198,0.023853301937451228,1.2836656569711309
1684180077011026600,11.293427001953123,0.5554428697828381,0.04260826102481322,1.3061884641143173
1684180077021068000,11.30346826171875,0.568442404283177,-0.017316818288096177,1.3027963639378781
1684180077031109300,11.313509765625,0.606066465380417,-0.11034107217617031,1.3117578030163084
1684180077041150600,11.323551025390625,0.6341983080104835,-0.1480588913191993,1.2542829513723583
1684180077051191600,11.333592041015624,0.6613852381315536,-0.06383037561733038,1.181119680281442
1684180077061233100,11.343633544921875,0.6628924012606701,0.027338981456765655,1.1259419918668852
1684180077071274400,11.3536748046875,0.6577385067775605,0.08243560790990834,1.0457260609930827
1684180077081315800,11.363716064453126,0.6676377059029946,0.13736915590896007,0.9620708822430357
1684180077091356800,11.37375732421875,0.6403843761297284,0.1586990356781425,0.875296890740933
1684180077101398200,11.383798583984374,0.645676255254825,0.17036247254294193,0.7669452429809049
1684180077111439600,11.39383984375,0.6073224545681744,0.08643627156579597,0.6894801856100782
1684180077121480900,11.40388134765625,0.5806385875123328,0.02658367155500465,0.5830289722572921
1684180077131522000,11.41392236328125,0.5370435118339086,0.0002937315801190639,0.4979173540094259
1684180077141563300,11.423963623046877,0.4789822101127149,-0.030745506280138366,0.4081444145468765
1684180077151604600,11.434005126953124,0.41357994090720046,-0.011617660550452777,0.2876920699257015
1684180077161646000,11.44404638671875,0.33366250998143726,-0.028435707179980684,0.21567589062748568
1684180077171687300,11.454087646484377,0.26023763420227625,-0.11460590373345171,0.16377428172838027
1684180077181728400,11.46412890625,0.14527571217541818,-0.1530103684064661,0.09003087880122233
1684180077191769800,11.474170166015623,0.024498999201123618,-0.10321712485521915,0.03562006345948495
1684180077201811100,11.48421142578125,-0.07110792396630865,-0.03948497767036179,0.019646048502535186
1684180077211852500,11.4942529296875,-0.22963619242567399,0.016695976283511816,-0.03712475297914345
1684180077221893800,11.504294189453123,-0.3733942209727607,0.0702228547009453,-0.0895696281664349
1684180077231934900,11.514335205078124,-0.4859203100285216,0.05917930617182444,-0.07313776012401904
1684180077241976200,11.524376708984375,-0.5444786549637857,0.06661033633514173,0.035211473707991894
1684180077252017600,11.53441796875,-0.5003825426262414,0.029722213873418495,0.2605965436733597
1684180077262058900,11.544459228515626,-0.3648484051716416,-0.022419929533646264,0.46992802609506984
1684180077272100000,11.55450048828125,-0.16311252118469577,-0.06148529051540166,0.5215352178463634
1684180077282141400,11.564541748046874,0.03711193802163666,-0.10443305967176728,0.48190787448733574
1684180077292182600,11.5745830078125,0.18196123855921192,-0.09958934773607057,0.43079790484489316
1684180077302224000,11.58462451171875,0.2713735104867244,-0.10433006275214032,0.3944363294501633
1684180077312265400,11.594665771484374,0.3178161381199214,-0.04552936541207046,0.35377761725851226
1684180077322306600,11.604706787109375,0.3362546562941017,-0.08668231954692263,0.35379606485688647
1684180077332347800,11.614748291015625,0.31588751085150607,-0.13192176812332226,0.3044452369442536
1684180077342389200,11.62478955078125,0.3215290306978227,-0.14348220832665767,0.28689986470113965
1684180077352430600,11.634830810546877,0.26862961064145013,-0.08657455448936055,0.2583476900983769
1684180077362471600,11.6448720703125,0.24800753593231115,-0.044711112990491804,0.2072450220888784
1684180077372512900,11.654913330078124,0.2614874244520628,0.003534317067446319,0.15301924938191347
1684180077382554300,11.66495458984375,0.28431564572127954,0.017966270385948363,0.0867272913411025
1684180077392595600,11.67499609375,0.3222265840052805,0.04616928095154216,0.0882136822608994
1684180077402637000,11.685037353515623,0.35549479716694093,0.052562713720726136,0.0832180679267213
1684180077412678100,11.695078369140624,0.3509482144675003,0.05869770049150759,0.11150413754523557
1684180077422719400,11.705119873046876,0.2953813075440225,0.08108425127482,0.09470790630805632
1684180077432760800,11.7151611328125,0.2536498307301088,0.13123512262258932,0.0810004174509721
1684180077442802100,11.725202392578124,0.2070677280944513,0.14042091375481144,0.10602861652291774
1684180077452843400,11.735243896484375,0.19347882265925492,0.10698127747842079,0.11251866807872533
1684180077462884600,11.745284912109376,0.13426119094765573,0.0362863540415457,0.11994594329502997
1684180077472925900,11.755326171875,0.12389212834341483,-0.033406257637948626,0.1658708452393604
1684180077482967200,11.76536767578125,0.04394626617983929,-0.05737113943324076,0.24711626763359795
1684180077493008600,11.775408935546874,-0.016940951342106277,-0.09281539905699333,0.31779807808729665
1684180077503049600,11.785449951171875,-0.07957857852508304,-0.06412124635597885,0.36572074890045597
1684180077513091000,11.795491455078125,-0.15740752210411846,-0.10881900787982805,0.42362481360907006
1684180077523132300,11.80553271484375,-0.19793355451206257,-0.12679100027923038,0.46346050493335
1684180077533173600,11.815573974609377,-0.222118139308386,-0.14901733413881166,0.4807559849026055
1684180077543215000,11.825615478515624,-0.22720676659776026,-0.029429435832802095,0.5161983371861911
1684180077553256100,11.835656494140624,-0.20883190630717324,-0.0011053084166754298,0.597745835800536
1684180077563297500,11.84569775390625,-0.16039192679574704,-0.07661437982415702,0.6651147605004993
1684180077573338800,11.8557392578125,-0.09920096390433968,-0.1577272414242916,0.6760315299371034
1684180077583380100,11.865780517578123,-0.04225456708273361,-0.09138393390730506,0.6508808731459622
1684180077593421200,11.875821533203125,0.071604073082002,-0.0683975220596868,0.6939767002042005
1684180077603462600,11.885863037109376,0.14673411856137586,-0.06921768194389721,0.6669909357845395
1684180077613503900,11.895904296875,0.20906144388410164,-0.09350013728813003,0.6488951444802888
1684180077623545300,11.905945556640624,0.23224693533735752,-0.09852981551876688,0.5595803261405121
1684180077633586600,11.915987060546875,0.2398596404992977,-0.07526779168015181,0.5111503005963881
1684180077643627600,11.926028076171876,0.2456867099032391,-0.05955028519216932,0.44188314678327345
1684180077653669000,11.9360693359375,0.2327151298758146,-0.030107498264879153,0.38986960052810393
1684180077663710400,11.94611083984375,0.1984315515332014,-0.0036802290745391163,0.34540587674503037
1684180077673751700,11.956152099609374,0.11503845449644481,0.038606643667351156,0.2780290841980374
1684180077683793100,11.966193359375,0.01233774409389105,0.047095298755229054,0.21644261464154954
1684180077693834200,11.976234619140625,-0.06400287153262614,0.027093887260905596,0.210177659954822
1684180077703875600,11.98627587890625,-0.1422353386101727,-0.06562900531965724,0.20658627153845655
1684180077713916800,11.996317138671875,-0.19876480101841398,-0.08861637120333232,0.24823816108402047
1684180077723958200,12.006358642578125,-0.2877632678698231,-0.05004501338712883,0.2679582834786453
1684180077733999600,12.01639990234375,-0.37277480966520277,-0.02386093134038403,0.27283459892084944
1684180077744040600,12.02644091796875,-0.4692631961066787,-0.00035667424257173117,0.2442518920728155
1684180077754082000,12.036482421875,-0.5056576727428982,0.03469944011694144,0.16383469100424217
1684180077764123300,12.046523681640624,-0.5158661602387404,0.012837410015152581,0.07262074957990655
1684180077774164600,12.05656494140625,-0.49822357298132197,-0.02970886246889749,-0.029014945086028275
1684180077784205700,12.066606201171876,-0.4772765040760263,0.01801109328481959,-0.11971902845038848
1684180077794247100,12.0766474609375,-0.4531500934254499,-0.012673377994718984,-0.19709694396413022
1684180077804288400,12.086688720703124,-0.39302119597953716,0.006666183359491678,-0.2260917127726337
1684180077814329800,12.096730224609376,-0.33300489188958515,-0.02369880688983228,-0.2475099265549927
1684180077824371100,12.106771484375,-0.2614517808714878,-0.02760219591054357,-0.24995177981703157
1684180077834412200,12.1168125,-0.21905258300419952,-0.01964378363611648,-0.2408052087712201
1684180077844453600,12.12685400390625,-0.1419881284516284,-0.007099151658722855,-0.2108987867782185
1684180077854494900,12.136895263671876,-0.1203562020693723,0.02408027647488194,-0.17470991611211534
1684180077864536200,12.1469365234375,-0.0685393810922591,-0.01823902128635595,-0.1981434822278579
1684180077874577300,12.156977783203123,-0.03170353174982951,0.010775565985488482,-0.17896568787372874
1684180077884618600,12.16701904296875,-0.011932969119716762,-0.021886825585085607,-0.20520350333994097
1684180077894660000,12.177060302734375,0.040519595285733546,0.01898956310008659,-0.21009156107613278
1684180077904701400,12.187101806640625,0.07071161263693539,0.040342330946190975,-0.26679185029563385
1684180077914742600,12.19714306640625,0.08594208948319981,0.05188655851901281,-0.30817258357331706
1684180077924783800,12.20718408203125,0.1075491904817244,0.06790447233764758,-0.3603037297695178
1684180077934825100,12.2172255859375,0.1116325855525304,0.06712341309902348,-0.3924843966266274
1684180077944866600,12.227266845703124,0.11744356153425059,0.07101917252586865,-0.4050577281349037
1684180077954907800,12.23730810546875,0.11796802276218649,0.0700922011027405,-0.43348172301070437
1684180077964949200,12.247349609375,0.10161340240616695,0.07619762408326948,-0.4444515108611696
1684180077974990300,12.257390625,0.085244536351532,0.07745456697553464,-0.464231222919733
1684180077985031600,12.267431884765625,0.08543574793522721,0.10219383224064141,-0.47840049868626566
1684180077995072900,12.277473388671876,0.09735816725040718,0.09823226938125779,-0.40214997531014457
1684180078005114300,12.2875146484375,0.10902309425559571,0.08959388738829377,-0.36190247534868464
1684180078015155600,12.29755615234375,0.11807894693171872,0.0833921433150031,-0.27177631870703156
1684180078025196600,12.30759716796875,0.12675130365644913,0.027809143031941225,-0.11429333673294655
1684180078035238100,12.317638427734376,0.13509309297945635,0.006090164239438977,0.024245470844732
1684180078045279400,12.3276796875,0.1336811184883726,-0.031725883537659254,0.11983230709900172
1684180078055320800,12.33772119140625,0.1386440991551143,-0.05478286739406092,0.177673071500125
1684180078065361800,12.34776220703125,0.14709872005898558,-0.0515766142301788,0.1959187089036688
1684180078075403200,12.357803466796875,0.10248738529960678,-0.08611106872509929,0.16105377676891416
1684180078085444600,12.367844970703125,0.06023442744190887,-0.07770252226603014,0.07660189270687011
1684180078095485900,12.37788623046875,0.006800055576841396,-0.07882690435929393,-0.02590137722469199
1684180078105527200,12.387927734375,-0.057196557559565375,-0.05636024466773379,-0.1763777135153617
1684180078115568300,12.39796875,-0.1150508522233404,0.01047706603357091,-0.25591439015212075
