time,seconds_elapsed,z,y,x
1684061937044207600,0.02960791015625,-9.376263742304036e-11,-1.5513777998835333e-10,4.675345430243836e-11
1684061937054250600,0.039651123046875,0.08827972412037464,-0.14366984351413156,0.0929960012782635
1684061937064293800,0.049694091796875,0.25524234774262733,-0.12086367604973612,0.0031985043656505216
1684061937074336600,0.059737060546875,0.17811775214673495,-0.27188825616195933,-0.2566916942581864
1684061937084379800,0.0697802734375,0.0605859755614021,-0.1845211983834579,-0.2982689142083561
1684061937094422600,0.079822998046875,-0.30156946173330224,0.21855711932612323,0.11477613458483873
1684061937104465800,0.0898662109375,-0.5501475333696593,0.693832159040088,0.17252540597804672
1684061937114508600,0.0999091796875,-0.6554107667256637,0.7192461489635211,-0.45802211760118977
1684061937124551900,0.1099521484375,-0.9701147079044667,0.33509993550435896,-1.085025548954644
1684061937134595000,0.119995361328125,-1.1864743233759645,-0.10015058506042672,-1.479174613865592
1684061937144637900,0.130038330078125,-0.9788961410166135,-0.2057900428968125,-1.8229700325720104
1684061937154681000,0.140081298828125,-0.12452220917313168,-0.03163576118448919,-2.827021598776359
1684061937164723900,0.150124267578125,0.3411750792087576,-0.06261587142071087,-2.4127290249799582
1684061937174767000,0.16016748046875,0.9672145842139934,-0.6083953381086649,-1.2634981871134014
1684061937184810200,0.17021044921875,1.439876079503601,-0.9546427727093598,0.1639378071183076
1684061937194853000,0.18025341796875,1.8341012000927697,-0.3426451683981513,1.1134564876302346
1684061937204896200,0.190296630859375,2.504530906774109,0.31490707403907103,2.123722076363319
1684061937214939100,0.20033935546875,2.2257337570230775,0.34956979753858936,2.8849000931863507
1684061937224982200,0.210382568359375,1.7549777030687326,0.22105288515373125,3.45377445227489
1684061937235025300,0.22042578125,1.3019118308504212,0.30589485165630065,3.639910221047304
1684061937245068200,0.230468505859375,0.3787779807886455,0.17661619182407126,3.560093879594839
1684061937255111300,0.24051171875,-0.359713554335024,-0.2751154899183629,3.2814302444940577
1684061937265154200,0.2505546875,-0.35162925715444626,-0.6583142280550831,3.372972488367198
1684061937275197400,0.26059765625,0.23056316368023672,-0.22118067736722372,3.1547822952230287
1684061937285240600,0.270640869140625,1.0562868118968656,0.22701406485030817,2.5428113938179426
1684061937295283400,0.280683837890625,1.710994243617199,0.2868218422597137,2.192232132107959
1684061937305326600,0.290726806640625,2.0909385681345527,0.1467311382476307,1.812821865014362
1684061937315369400,0.300769775390625,1.9879336357814312,0.00045871729183244713,1.0312919617744603
1684061937325412600,0.31081298828125,1.372905254294978,-0.14962625500887106,0.33318710325962386
1684061937335455600,0.32085595703125,0.6774268150044827,-0.36093473428468953,-0.25898933415314046
1684061937345498600,0.33089892578125,0.37663841238756485,-0.5360603333410836,-0.9325208665035375
1684061937355541600,0.340942138671875,0.7943754196476549,-0.6215445994507107,-1.1687226296131752
1684061937365584600,0.35098486328125,1.5017747880160135,-0.46197223660753806,-0.7827382088516797
1684061937375627600,0.361028076171875,1.2593011857032395,-0.457583188881966,-1.014471054121665
1684061937385670800,0.3710712890625,0.42367744456342676,-0.8905308247103175,-0.8988108636326917
1684061937395713600,0.381114013671875,-0.789627552089823,-1.0830843450109588,-0.32107305519028545
1684061937405756800,0.3911572265625,-1.8504605293763638,-0.8542568683650449,0.0029597282465054866
1684061937415799600,0.4012001953125,-2.4418106079012705,-0.10185742372843926,1.6520466803027065
1684061937425842900,0.4112431640625,-3.48645925522771,0.8674798010912059,3.0647568703733334
1684061937435885700,0.4212861328125,-3.817857026975954,1.1470222474020266,3.849406719201804
1684061937445928900,0.431329345703125,-3.122368097388115,0.7012574672056152,4.403886795066467
1684061937455972000,0.441372314453125,-1.6427643300140014,0.6337068080115511,4.59760570538832
1684061937466014900,0.451415283203125,0.23848247520151367,0.8199563026806969,4.455884933556476
1684061937476058000,0.46145849609375,1.5130786895946626,0.6404757499969606,4.053150176882413
1684061937486100900,0.471501220703125,2.115000724752113,0.28337335583645934,3.549971580454368
1684061937496144000,0.48154443359375,2.358430862458779,0.25100517270478134,2.5838050842792732
1684061937506187200,0.491587646484375,2.3846993446227738,0.0851287842729108,1.668316841263765
1684061937516230100,0.50163037109375,2.032476425296106,-0.38741660132575745,0.9018945694048378
1684061937526273200,0.511673583984375,1.2696514129136918,-0.4265999792382545,-0.24683761582994262
1684061937536316100,0.521716552734375,0.6719784736798882,-0.6774582863180019,-1.0877666471639544
1684061937546359200,0.531759521484375,-0.2720563412398921,-0.7727487087398288,-2.1431541442287396
1684061937556402100,0.541802490234375,-1.286428213112693,-0.817064046839106,-2.9693813325470377
1684061937566445200,0.551845703125,-1.7490963937185995,-1.0798999071213262,-3.371598243708632
1684061937576488100,0.561888427734375,-1.6208200455057702,-1.0336053370926495,-3.3544039726301813
1684061937586531200,0.571931640625,-0.5269393919711974,-0.8465019465625973,-3.204375743747993
1684061937596574400,0.581974853515625,0.8005661965132592,-0.6799793243068258,-2.7899937629423057
1684061937606617300,0.592017578125,1.2164115904424764,-0.743864059450789,-2.2055654524355366
1684061937616660400,0.602060791015625,1.2870440481882834,-0.6799589395544151,-1.9254889486799736
1684061937626703300,0.612103759765625,0.5239984989261078,-0.2274353502456385,-1.5512485503841453
1684061937636746400,0.622146728515625,-2.4204063414142114,0.10850834857332392,-0.9760789871766202
1684061937646789300,0.632189697265625,-5.477773189529596,0.3217109441034439,0.04134464281265055
1684061937656832400,0.64223291015625,-6.368887901402169,1.279759406918997,0.09474182130680275
1684061937666875600,0.65227587890625,-4.5692048072715465,0.9653632044951681,0.0768508911207365
1684061937676918400,0.66231884765625,-2.695921659312482,-0.08587658397635842,-0.14024448410832394
1684061937686961600,0.672362060546875,-1.5363588333286453,-0.637756109067155,-0.1010370254834726
1684061937697004500,0.68240478515625,-0.07740640628689452,-0.4365938900303136,-0.2644176483238296
1684061937707047600,0.692447998046875,1.533716201731071,-0.5638369321505792,-0.11384201031865179
1684061937717090700,0.7024912109375,2.302726507096774,-0.351294040766827,-0.17746353152579677
1684061937727133600,0.712533935546875,2.1479732989283638,-0.13278329375732725,-0.40361022953651227
1684061937737176800,0.7225771484375,1.442998289943409,0.012080430944394566,-0.36046791081560764
1684061937747219600,0.7326201171875,0.6702995299301532,-0.19890093791840208,-0.2593040466564916
1684061937757262800,0.7426630859375,0.1698428392972015,-0.3804663420383191,-0.3474855423706831
1684061937767305600,0.7527060546875,-0.03175979863963573,-0.6498553752309976,-0.27523517594063024
1684061937777348800,0.762749267578125,-0.6297869680747614,0.11882591249214919,-0.6337385177057927
1684061937787391600,0.7727919921875,-1.0699969530421671,-1.433665037062602,0.022192954886088734
1684061937797434800,0.782835205078125,-0.9275703431112078,-1.1237685681241156,-0.5475063323859864
1684061937807477600,0.792878173828125,-0.7978335021734694,-0.6553349494967872,-0.73005962381405
1684061937817520800,0.802921142578125,-0.5952952503728425,-0.8308296203707494,-0.9565792083347394
1684061937827564000,0.81296435546875,-0.39569279551992376,-0.5063596963330552,-1.044805526714643
1684061937837606800,0.82300732421875,-0.46457603564634614,-0.45360994329623167,-0.6725234984314651
1684061937847650000,0.83305029296875,-0.5742568971169661,-0.5340563058622289,-0.3653535842419561
1684061937857692800,0.84309326171875,-0.46969342230011035,-0.642162680515661,-0.4907789230425131
1684061937867736000,0.853136474609375,-0.2655022144733157,-0.653872847469591,-0.41214275357914404
1684061937877778900,0.86317919921875,0.01326316609001223,-0.6289800404920787,-0.595481872535222
1684061937887822000,0.873222412109375,0.19054093959513,-0.5050852299940776,-1.1179008484077715
1684061937897864900,0.883265380859375,0.2678203284669926,-0.3958799837761474,-1.2920799255764317
1684061937907908000,0.893308349609375,0.3461647629469119,-0.5604707003084868,-0.8813037872699103
1684061937917951200,0.9033515625,0.699628770456617,-0.3954935074059122,-0.5744295119196264
1684061937927994000,0.91339453125,1.0965592861068263,-0.6760537624097971,0.07600498206152682
1684061937938037200,0.9234375,1.131839513650557,-0.7430812121927836,0.9517641067038913
1684061937948080000,0.93348046875,1.0023732184674279,-0.9695156812494014,0.86526584621837
1684061937958123200,0.943523681640625,1.0341651439443567,-1.3933320045320725,0.9346427918879332
1684061937968166100,0.95356640625,1.1125485896339005,-1.0988721846711953,1.5339384078684692
1684061937978209200,0.963609619140625,1.049201607659084,-0.490656137574243,1.183149337814937
1684061937988252100,0.973652587890625,0.7425614595316062,-0.44455075251333576,0.6256923676336961
1684061937998295200,0.983695556640625,0.08891183139045236,-0.6593194008236846,-0.5717582701766709
1684061938008338100,0.993738525390625,-0.12050622701066839,-1.0601742267157916,-0.6835851670363393
1684061938018381200,1.00378173828125,-0.4499631523575203,-0.424909353188166,-1.0123338699074051
1684061938028424400,1.01382470703125,-0.23181331156783566,-1.2185065746050467,-1.2280540467640009
1684061938038467200,1.02386767578125,-0.10143613800884861,-1.7348964214052196,-1.5170655251715315
1684061938048510400,1.033910888671875,0.0003423689847500085,-1.2656452655171384,-1.657707214465913
1684061938058553300,1.04395361328125,0.2755559682255559,-0.6524856091198897,-2.7331814764235367
1684061938068596400,1.053996826171875,1.655460715321048,-1.6337549685476613,-1.9870848656919364
1684061938078639300,1.064039794921875,2.3113541603625234,-1.7847790718464767,0.09022331226586294
1684061938088682400,1.074082763671875,2.0415186881534533,-0.6666121483548342,1.1822795867564087
1684061938098725300,1.084125732421875,1.545635342565554,0.16860747330289824,1.5683326720575075
1684061938108768400,1.0941689453125,0.7026952505661564,0.2844388484407055,1.5465888978351483
1684061938118811600,1.1042119140625,0.11305925260446903,0.4872374535373532,0.032094955497306316
1684061938128854400,1.1142548828125,-0.37985184776730885,-0.1732707023460167,-0.2976942061026766
1684061938138897300,1.124297607421875,-2.446867227625885,-0.7845869065665223,0.1716852188428251
1684061938148940500,1.1343408203125,-4.329790592169631,-0.06352806105856786,-0.025255203410702243
1684061938158983600,1.144384033203125,-2.4503831864352508,1.4802823067396498,-2.1033344268266454
1684061938169026600,1.154427001953125,-0.9075612425966264,1.870712995445172,-3.042527198752129
1684061938179069600,1.164469970703125,0.29375183578573966,1.7878065109965893,-2.537952900032106
1684061938189112600,1.174512939453125,0.2589149773849528,0.9753355979168508,-1.3855676650871243
1684061938199155600,1.18455615234375,-0.2445398269750375,0.25320148459568803,-1.365519523502213
1684061938209198600,1.194598876953125,-0.390545338318332,-0.7715191841549757,-0.40269231782776993
1684061938219241600,1.20464208984375,-0.264385074452217,-1.4336838721078164,0.16989231105968988
1684061938229284600,1.214684814453125,-0.20127156375429828,-3.378441810541882,3.132971286722414
1684061938239327600,1.22472802734375,0.12629836801770722,-4.161563873250136,5.830945968631857
1684061938249370600,1.23477099609375,0.3331054150206091,-3.7493896484665896,6.437409877765105
1684061938259413600,1.24481396484375,0.45197978609401745,-3.2278757094138495,4.599651813503641
1684061938269456600,1.25485693359375,0.46238529680151863,-2.3779187203474885,2.132976532122826
1684061938279499600,1.264900146484375,0.4904076457679377,-0.8796887397555707,-0.4511051179181819
1684061938289542600,1.27494287109375,0.6033591627031997,0.10122776023970778,-1.0219335555550504
1684061938299585600,1.284986083984375,-0.2335594744197426,0.16137361527250763,-0.6889319419612732
1684061938309628600,1.295029052734375,-0.7108485102517883,-0.09102964411023366,-0.5158586503282059
1684061938319671600,1.305072021484375,-0.4055028854744646,-0.06749105450645462,-0.35048103343935827
1684061938329714600,1.315114990234375,0.00825908796084492,0.022195815901979665,-0.2627210617412696
1684061938339757700,1.325158203125,0.2749799490321693,0.09384250640465094,-0.24997854233325403
1684061938349800900,1.335201171875,0.3292928338033342,0.06629705431779452,-0.2787766457814493
1684061938359843800,1.345244140625,0.37392115586885954,-0.016309738195858077,-0.19617795932750307
1684061938369886900,1.355287353515625,0.285512566544953,-0.000894069685102423,0.014095306342847929
1684061938379929800,1.365330078125,0.2084172069828433,0.021699905363179398,0.07565307624288958
1684061938389972900,1.375373291015625,0.061137162013937214,0.04660463332031601,0.3508143424116153
1684061938400015800,1.385416259765625,-0.05132621521814381,-0.1558156014943793,-0.01679515848712545
1684061938410058900,1.395459228515625,-0.20239123696623226,-0.2607798576839588,-0.06723308564139634
1684061938420101800,1.405502197265625,-0.16525104652007438,0.01107931151322696,0.3585557936538221
1684061938430144900,1.41554541015625,-0.039198230897059476,0.21746921539121222,0.2542414665718464
1684061938440187800,1.425588134765625,0.029864702312349372,0.23036479960008696,0.26046705255012975
1684061938450231000,1.43563134765625,0.12651823464759254,0.19421195997569704,0.08486890794160439
1684061938460273800,1.44567431640625,-0.001215200768628451,-0.024843692846742878,0.08920383440113006
1684061938470317000,1.45571728515625,-0.12311269343355066,0.15660524377028542,0.2723364829919056
1684061938480359900,1.46576025390625,-0.3687130807839696,0.24679851524542104,0.07260608669399037
1684061938490403000,1.475803466796875,-0.167061641698519,-0.07676744453877125,0.1291809082180465
1684061938500445900,1.48584619140625,-0.17949977508896361,-0.40915775304454466,-0.04972171766429853
1684061938510489000,1.495889404296875,-0.12160915875232266,-0.32841920837511124,0.02337217334271861
1684061938520531900,1.505932373046875,-0.008868228624248884,-0.1517772674173338,0.2250218390094768
1684061938530575000,1.515975341796875,0.16968390334387282,0.2006707192791075,0.4447088241373231
1684061938540617900,1.526018310546875,0.1703581510021327,0.18184757240495486,0.3126182556133415
1684061938550661000,1.5360615234375,-0.09541727611467067,-0.05115461352867759,-0.05186510097510745
1684061938560703900,1.546104248046875,-0.20002515609098992,-0.20380163193796927,-0.24480104438548903
1684061938570747100,1.5561474609375,-0.0480441673660701,-0.14460992806701328,-0.24020242699333863
1684061938580789900,1.5661904296875,0.11372765900129907,-0.10349035263445885,-0.26309394838418765
1684061938590833100,1.5762333984375,0.183723688249195,0.07027149213535663,-0.3745350838801914
1684061938600876000,1.5862763671875,0.21726979310846517,0.1198663709891875,-0.2235269545174198
1684061938610919100,1.596319580078125,0.041734062102889796,0.02622699739481156,-0.07170295708028127
1684061938620962000,1.6063623046875,-0.024677347305113825,0.18763160701446185,0.007705211792884979
1684061938631005100,1.616405517578125,-0.005527872581321529,0.3670182228364385,0.048513889298400587
1684061938641048000,1.626448486328125,-0.07260648908567516,-0.09056854262288343,0.03815174112459498
1684061938651091100,1.636491455078125,-0.1973140686079592,0.028545856601547827,-0.16449642172611204
1684061938661134000,1.646534423828125,-0.0821833608881153,0.23713016515661328,-0.32084703451525176
1684061938671177100,1.65657763671875,0.20907115930361847,0.10995388023468955,-0.3159465790666224
1684061938681220000,1.666620361328125,0.22933413089844823,-0.3682222366340779,0.05810308451646082
1684061938691263200,1.67666357421875,-0.09253302957309724,-0.6165499687574413,0.29346942910767293
1684061938701306000,1.68670654296875,-0.2132238894869514,-0.7537746427962977,0.4150085449987952
1684061938711349200,1.69674951171875,0.0495248028626127,-0.15772008902811147,0.3067488670172139
1684061938721392000,1.70679248046875,0.3531755210819374,0.22048282628898946,0.03863477713854538
1684061938731435200,1.716835693359375,0.08716246501316735,0.23720836630085143,-0.048743724821626304
1684061938741478100,1.72687841796875,-0.15909686691761996,0.29056644441210805,0.008602619134514348
1684061938751521200,1.736921630859375,0.033805690638158345,0.3881578445177332,0.14149475105396475
1684061938761564100,1.746964599609375,0.0875337272688968,0.3592300415027066,0.24407672879404813
1684061938771607200,1.757007568359375,0.043812572979048385,-0.12545585636228312,-0.2746720313392882
1684061938781650100,1.767050537109375,0.17048436402555328,-0.4000658990137582,-0.7608962059099871
1684061938791693200,1.77709375,0.2845784426519151,-0.3268961906086937,-0.9869446753857654
1684061938801736100,1.787136474609375,0.45660549401556005,-0.29386091231633776,-0.8732671737746749
1684061938811779200,1.7971796875,0.49375957238918255,-0.3543233870906337,-1.0467748640921481
1684061938821822100,1.807222412109375,0.17820598172625568,-0.2560153007709381,-1.1123042107621315
1684061938831865300,1.817265625,0.04172550156136041,-0.22337341308100223,-1.2202239037933245
1684061938841908100,1.82730859375,-0.10122102510723377,-0.039013862517207065,-1.2385025025111485
1684061938851951000,1.837351318359375,0.0824177861478151,-0.02534961707545202,-1.212977409356469
1684061938861994200,1.84739453125,0.21559587127724597,-0.014334678691230736,-1.1932840346134919
1684061938872037300,1.857437744140625,0.24975092699129273,0.13978290575600683,-0.5433859824184851
1684061938882080200,1.86748046875,0.04126127809989764,0.07266378403166199,-0.3537063597576776
1684061938892123100,1.8775234375,0.1367716640160709,0.5325059890931898,-0.14010286329681113
1684061938902166200,1.887566650390625,-0.16975498198827638,0.08628559114389622,-0.0417585372198004
1684061938912209100,1.897609375,-0.15606535969954113,0.3334488868120461,-0.28731822965043546
1684061938922252200,1.907652587890625,0.008769616530822963,0.5669846534386765,-0.5706272125193199
1684061938932295100,1.917695556640625,0.37006753695704925,0.545633316109159,-0.36484003049879915
1684061938942338200,1.927738525390625,0.25950106978644627,-0.11802911744538105,-0.062287807423424324
1684061938952381100,1.937781494140625,0.03203399479837775,-0.5359354019345861,0.6809267997579279
1684061938962424200,1.94782470703125,-0.06052158782321,-0.6750483513734432,1.404699802403489
1684061938972467100,1.957867431640625,-0.23963403703895508,-0.38231992714142154,0.8735480308780919
1684061938982510300,1.96791064453125,-0.3206584752149641,-0.3351874350477943,1.2740039825094167
1684061938992553100,1.97795361328125,-0.17401117077934752,0.03816795346121013,1.5089960098213862
1684061939002596300,1.98799658203125,-0.07743722213116114,0.12420606616654647,1.4935946465213708
1684061939012639200,1.99803955078125,-0.020641967694371183,0.1295170784055203,1.0003829001903
1684061939022682300,2.008082763671875,0.07420542830078469,-0.12648725506019787,0.8842172623685002
1684061939032725200,2.01812548828125,0.17872343956546125,-0.02169656743694691,0.5940337180029891
1684061939042768000,2.02816845703125,0.07384318095461487,0.10426425935593332,0.22185850136990642
1684061939052811200,2.038211669921875,0.048164725263719226,-0.06333923354763915,0.07296657562876545
1684061939062854100,2.04825439453125,0.033335670845328444,-0.35572957995602855,0.04437303553571737
1684061939072897200,2.058297607421875,-0.07616347079214998,-0.2420744895868965,0.06551694863721522
1684061939082940100,2.068340576171875,-0.09644873425348657,-0.08672332759462523,-0.016242981103271093
1684061939092983200,2.078383544921875,-0.13432085518153636,0.2747793198056679,0.0878849029893382
1684061939103026100,2.088426513671875,-0.32910954949401744,0.5782499314978471,0.2400569916376023
1684061939113069200,2.0984697265625,-0.39752984044439643,0.5138373373897024,0.4892477989864903
1684061939123112100,2.108512451171875,-0.01741628358359179,0.5894083978500407,0.8093776704445848
1684061939133155200,2.1185556640625,0.12208525834343793,0.3122038841658354,0.8843369482884899
1684061939143198100,2.1285986328125,-0.04439349471095129,0.20953607572014307,0.6573138235835918
1684061939153241300,2.1386416015625,-0.024270057607260396,0.22907066355053016,0.47149276738657725
1684061939163284100,2.1486845703125,-0.0949117615950937,0.2750735281235164,0.10301733027124534
1684061939173327300,2.158727783203125,-0.07939522707736023,0.9874920846162228,-0.04306554808116212
1684061939183370200,2.1687705078125,0.15471227453579,1.1129140852524546,-0.07421016685174424
1684061939193413000,2.1788134765625,0.1952140929092781,-0.08106136316989936,-0.21562337871921322
1684061939203456200,2.188856689453125,0.43625906114126245,-1.2730531692073284,-0.006195545046523375
1684061939213499100,2.1988994140625,0.16317661110879855,-2.190486431229728,0.21297550198291063
1684061939223542200,2.208942626953125,-0.2154812217453109,-2.161246299684801,0.5670118332815908
1684061939233585100,2.2189853515625,-0.22508069869780262,-0.524132728603908,1.3147325516965296
1684061939243628200,2.229028564453125,-0.12786899503737345,0.48302459715763274,0.9695286751782851
1684061939253671100,2.239071533203125,-0.08478197441539649,0.38399219513400507,0.8731956482543787
1684061939263714200,2.249114501953125,0.0247062295013954,0.33036947241679854,0.6005744933811272
1684061939273757100,2.259157470703125,0.1221596150388308,0.37448215493133313,0.4242334364886342
1684061939283800200,2.26920068359375,0.37430524822831607,0.6759533882489697,0.08437824247848362
1684061939293843100,2.279243408203125,0.36172908546521615,0.6574826241346488,0.1997585295788578
1684061939303886300,2.28928662109375,0.27921879303320735,0.7308030129350636,0.4779157637968683
1684061939313929100,2.29932958984375,0.3133015633504658,0.7884268760407905,0.7346968652056515
1684061939323972000,2.309372314453125,0.6868281363657167,1.6125020980533538,0.5926251409891475
1684061939334015200,2.31941552734375,1.4087575675239394,3.4333071710226597,0.30284690867470887
1684061939344058000,2.32945849609375,0.9653034211304902,3.9190270900261517,-0.21330690378068953
1684061939354101200,2.33950146484375,-0.6648523808138365,2.0002236367245203,-0.2570066453214762
1684061939364144000,2.34954443359375,-1.295171141684209,2.8308978081526357,0.4444861411923359
1684061939374187200,2.359587646484375,-0.8888755441355061,0.5909595489078295,0.47594881055322896
1684061939384230100,2.36963037109375,-0.8788003920859637,-1.7642021179260041,0.9326796530188731
1684061939394272900,2.37967333984375,-0.9048771857085367,-3.692925929997637,2.11077642443797
1684061939404316100,2.389716552734375,-0.9812980294265065,-3.635065078759318,1.565181732179804
1684061939414359000,2.39975927734375,-0.6089438796528011,-1.8959035873376977,-0.12585449214382782
1684061939424402100,2.409802490234375,0.23762688033116544,-0.3184642792022071,0.6356506348095701
1684061939434445000,2.419845458984375,0.43226313582329484,0.15738677984727215,0.5485558508828013
1684061939444488100,2.429888427734375,0.6937989592915133,0.30164623255574596,0.4877672194490091
1684061939454531000,2.439931396484375,0.5407824517696211,0.31670284266008414,0.29480266567289237
1684061939464574100,2.449974609375,0.3562973141510936,-0.6929359435349159,0.3631973267630436
1684061939474617000,2.460017333984375,0.2536416353132258,-1.507672309892247,0.2539548874672648
1684061939484659900,2.470060302734375,0.15069228407419716,-1.297808647167831,0.41221475593778123
1684061939494703000,2.480103515625,0.5702963470255058,0.33150720579681414,-0.05787944799987774
1684061939504745900,2.490146240234375,0.6807410716295781,1.1474695206027898,-0.4188079832611938
1684061939514789000,2.500189453125,0.6138424277288786,1.0022144318685162,0.07163524638300049
1684061939524831900,2.510232421875,0.6208773255977689,1.105197906595579,0.3846750260326243
1684061939534875100,2.520275390625,0.4481964707379783,1.395151138238327,0.22433471682068082
1684061939544917900,2.530318359375,0.31526920211555126,1.1352882386111405,-0.04402446745581116
1684061939554960800,2.540361328125,-0.0751238316478059,3.857104778280653,-1.3036131859946647
1684061939565004000,2.550404296875,-0.31812170146637403,1.7753634453324894,-1.4596962927979038
1684061939575046800,2.560447265625,-0.5211188196727137,0.5119423865239526,-1.296193599763412
1684061939585090000,2.570490478515625,-0.7330304383922686,0.44417238225208105,-1.2317595482757056
1684061939595132800,2.580533203125,-0.8470376728763056,-1.1145505906056712,-0.6018137930642157
1684061939605176000,2.590576416015625,-0.9589163066084232,-1.9779224394087553,0.028546333472627458
1684061939615218900,2.600619384765625,-0.4774230123331828,-1.5893135069983642,0.9950828552953013
1684061939625261700,2.610662109375,-0.024021685137672184,-0.7498989105059797,2.128446102078546
1684061939635304900,2.620705322265625,0.1704473197758593,-0.25717926023012916,2.09398031218778
1684061939645347800,2.630748046875,0.1273997425187163,-0.47929096220700507,1.540198325997864
1684061939655390900,2.640791259765625,-0.26519304514824826,-0.38288688669573334,1.0780892372561937
1684061939665433800,2.650834228515625,-0.4801992773398186,-0.14697551723319635,0.8527836800133667
1684061939675476900,2.660877197265625,-0.4375577568024255,0.11322784419010573,0.5667567253473522
1684061939685519800,2.670920166015625,-0.40065842870494717,-0.15622138984034334,0.21398878102745264
1684061939695562900,2.68096337890625,-0.2747804522667405,-0.01754570006604803,0.19948101031993898
1684061939705605800,2.691006103515625,-0.4552419780683279,-0.4781112670224415,-0.059915065821857655
1684061939715648600,2.701049072265625,-0.5671544074961692,-0.28850936891394285,-0.18344831476292495
1684061939725691800,2.71109228515625,-0.6729717254279866,-0.8045930863280063,-0.24576330201418653
1684061939735734600,2.721135009765625,-0.7019815445573969,-0.7024307250560475,-0.1630873678429052
1684061939745777600,2.731177978515625,-0.663929462378073,-1.0242242813526938,0.2156734465669098
1684061939755820600,2.74122119140625,-0.634702205603099,-0.2921257019554559,0.3771767617059162
1684061939765863600,2.751263916015625,-0.6057569981556089,-0.658736228968429,0.2594132423987236
1684061939775906700,2.76130712890625,-0.4141428470548561,-0.0354986189711646,-0.04426717748191893
1684061939785949600,2.77135009765625,-0.36411094664148774,-0.05855751040720716,-0.6334590913516217
1684061939795992800,2.78139306640625,-0.3419109583641927,0.35414505013134684,-0.9896292685485888
1684061939806035600,2.79143603515625,-0.4001026153889012,0.6916003227438762,-1.3265826703093235
1684061939816078600,2.80147900390625,-0.4169898033306253,0.9917144774347231,-1.459310531563412
1684061939826121600,2.81152197265625,-0.5492956637874742,0.5885801314045062,-1.3436563015062122
1684061939836164600,2.82156494140625,-0.6194560527312711,0.21730709087172725,-1.202422618905653
1684061939846207600,2.831608154296875,-0.6594661473642858,-0.17862129209427582,-0.9494771958226359
1684061939856250600,2.84165087890625,-0.5165565015349592,-0.2647991178891565,-0.7636032103350969
1684061939866293600,2.851694091796875,-0.39702987674531603,-0.4336967468267548,-0.7675261497696998
1684061939876336600,2.861737060546875,-0.33434176437990354,-0.32425212871928755,-0.6567988395812816
1684061939886379400,2.87177978515625,-0.28965783130861983,-0.2915582657083659,-0.7228350640287647
1684061939896422600,2.881822998046875,0.04098308096452249,-0.30898189537399856,-0.5865459442175563
1684061939906465500,2.891865966796875,0.280276775472898,-0.09809112541917422,-0.5415472984130862
1684061939916508600,2.901908935546875,0.17404806618785537,0.26529216772596553,-0.9389379026205947
1684061939926551600,2.911951904296875,-0.013663530446752885,-0.010462760857920222,-1.0872316361699172
1684061939936594400,2.921994873046875,0.13747334474931336,-0.23418807988730111,-1.0520071983270922
1684061939946637600,2.932037841796875,0.17690038685729165,-0.1494131087868658,-0.9799501896864896
1684061939956680400,2.942080810546875,0.20161795619828454,-0.28188896173002553,-0.9359195232680686
1684061939966723600,2.9521240234375,0.013764858428229712,-0.5061903000536018,-0.7378268241586932
1684061939976766400,2.962166748046875,-0.028687477025452053,-0.9934635163206551,-0.2041234970572251
1684061939986809300,2.972209716796875,0.18502902982563924,-0.8741264343653761,0.10707950595697441
1684061939996852400,2.982252685546875,0.13587713230885476,-0.3157958982898636,0.1527290345517511
1684061940006895300,2.992295654296875,-0.0013041496678070188,-0.38652515401057036,0.1326217653006136
1684061940016938400,3.0023388671875,-0.10313296335402086,-0.1312084197210896,-0.07535743718505855
1684061940026981300,3.012381591796875,0.3102090358553471,0.6691956520177391,-0.8869917392768368
1684061940037024200,3.022424560546875,0.07361984249905064,0.576137542766768,-0.9154336451168672
1684061940047067300,3.0324677734375,-0.21587514882101633,-0.42265892024078694,-1.3672711849313686
1684061940057110200,3.042510498046875,0.06274676324971241,0.05131340019953496,-1.8041484356251003
1684061940067153300,3.0525537109375,-0.15386891368248853,-0.28975105289868774,-1.2122910023928661
1684061940077196200,3.0625966796875,-0.6254019738088208,-0.46291542061675917,-0.8908226489720978
1684061940087239100,3.072639404296875,-0.7899699210930238,-0.1991243363177228,-0.8900549410263033
1684061940097282200,3.0826826171875,-0.8678288460129449,-0.1872253417408817,-0.47995829576092486
1684061940107325100,3.0927255859375,-0.9341049194596761,0.4481878280690221,-0.6003291606196014
1684061940117368200,3.1027685546875,-0.8674254417171391,0.14814376832722626,-0.2797722816378082
1684061940127411100,3.1128115234375,-0.7212440966667192,0.1323261259974009,-0.42608332623323686
1684061940137454000,3.1228544921875,-0.47769975666686537,0.054021835388365996,-0.7501173020338451
1684061940147497100,3.1328974609375,-0.3181805611828433,-0.014034271340662274,-0.5181698799024859
1684061940157540000,3.1429404296875,0.15020656578230085,-0.14141368858134484,-0.39848852164407605
1684061940167582900,3.1529833984375,0.017944574274074185,-0.2813615800074037,-0.249367475418153
1684061940177626000,3.1630263671875,-0.018016815122365346,0.3816375730655216,-0.4818902017381148
1684061940187668900,3.1730693359375,0.11526298506600902,1.043810844468503,-0.4717562198898182
1684061940197712000,3.183112548828125,0.2950901984854438,0.7530832290396232,-0.6933600900713237
1684061940207754900,3.1931552734375,0.3766913414466068,0.14303779597358685,-0.7301657200192824
1684061940217798100,3.203198486328125,-0.15360832218808942,-0.4827575682502369,-0.48057794562560985
1684061940227840900,3.213241455078125,-0.2115738391040261,-0.6449346542484966,-0.04257130621036418
1684061940237883800,3.2232841796875,-0.15327358251590928,-0.360168457097941,0.13554358493003044
1684061940247927000,3.233327392578125,-0.2048652171463222,-0.3888788224077072,0.13088917732356153
1684061940257969800,3.243370361328125,-0.265530347878243,-0.37861919408631967,0.05195236210938444
1684061940268012600,3.2534130859375,-0.5474216938375303,-1.622680664108665,-0.5515229701512382
1684061940278055900,3.263456298828125,-0.5160572529422951,-2.0355386733352194,-0.22339963920044606
1684061940288098700,3.2734990234375,-1.1243789194590665,-2.1400127412514403,-0.2592577933512617
1684061940298141900,3.283542236328125,-1.1035432815040427,-0.11044597625044303,-0.8064258098486551
1684061940308184800,3.293585205078125,-0.8949618339068651,0.4355907440049508,-1.3448584078027996
1684061940318227600,3.3036279296875,0.03881001471106447,1.1479482649722872,-1.1357688902426615
1684061940328270800,3.313671142578125,0.24211359038810834,0.45350074777205973,-0.6704010962692355
1684061940338313600,3.323714111328125,0.2729673384222308,-0.8169021606046054,-0.4036657810258676
1684061940348356800,3.333757080078125,-0.10686111464079068,-1.2064809799330412,-0.38394308086459683
1684061940358399600,3.343800048828125,-0.525996446596608,-1.185689926050348,-0.4503006936703915
1684061940368442600,3.353843017578125,-0.7390928270160966,-1.0003747940234837,-0.10516691225216261
1684061940378485600,3.363885986328125,-0.9686419963562808,-0.9561986922710357,-0.1292033195407103
1684061940388528600,3.373928955078125,-0.9104013444610343,-0.9990482331580188,-0.0014886855462968999
1684061940398571400,3.383971923828125,-0.7203795911419972,-0.512867927632737,-0.25266718852040493
1684061940408614600,3.394014892578125,-0.560902357186663,-0.12208747866066465,-0.9461967944572309
1684061940418657500,3.404057861328125,-0.3713436126673115,0.9236431121554864,-1.326662301930266
1684061940428700300,3.414100830078125,-0.3883781432959436,2.1903285979913,-1.701357841461356
1684061940438743600,3.424143798828125,-0.4021153450147977,3.121430873857853,-1.6555256842593535
1684061940448786400,3.434186767578125,-0.3346703052146358,3.137492179800097,-1.2307407856105308
1684061940458829600,3.44422998046875,-0.356672525308814,2.7149753569377015,-0.6040914058724278
1684061940468872400,3.454272705078125,-0.30619645130513673,2.088195800833982,0.08248710643247284
1684061940478915200,3.464315673828125,-0.4578740598290292,1.2194137574091681,0.6066381930326629
1684061940488958400,3.47435888671875,-0.6506626606781739,0.4889059064950333,0.9361121654223532
1684061940499001300,3.484401611328125,-0.8119759558231975,-0.1586103438794943,1.072739124297013
1684061940509044100,3.494444580078125,-0.8525571824596988,-0.767314910907893,1.084393501335858
1684061940519087300,3.50448779296875,-0.9129638671954662,-1.3001842499235807,1.008167266757058
1684061940529130200,3.514530517578125,-1.305234909090867,-1.7063722610039327,1.031597375972613
1684061940539173300,3.52457373046875,-1.719037532771436,-2.4213094711059346,0.72026014333082
1684061940549216200,3.534616455078125,-1.8789103029510756,-3.1677894591163036,0.5551240444613811
1684061940559259100,3.544659423828125,-1.7768239974855289,-3.2211990357159865,0.2724249364458952
1684061940569302200,3.55470263671875,-1.6283092498780893,-2.5656471253088515,-0.10471534735348645
1684061940579345100,3.564745361328125,-1.2693457603221294,-1.7627782820831077,-0.5742213725693918
1684061940589388000,3.574788330078125,-0.6407985687795781,-0.9950218201288937,-0.8272628784004964
1684061940599431100,3.58483154296875,-0.04384958749824999,-0.41382408159939593,-0.9661581515003331
1684061940609474000,3.594874267578125,0.5250271560521702,-0.049031257692446255,-0.9479331971128108
1684061940619516800,3.604917236328125,0.9976920486701557,-0.16500091540121217,-0.9068231582319409
1684061940629560000,3.61496044921875,1.518998265390586,-0.2300682067472546,-0.9677112103405421
1684061940639602900,3.625003173828125,1.9274393319972127,-0.34400844570965644,-1.113781452150518
1684061940649646000,3.63504638671875,1.9757053853443711,-0.04351520529394168,-0.9231042860555784
1684061940659688900,3.64508935546875,1.6702792644046187,-0.5538911820558176,-1.5623841286965632
1684061940669731800,3.655132080078125,1.1304600237154883,-0.5981063843781202,-1.4893121720944813
1684061940679774900,3.66517529296875,0.7653458715727431,-1.0125999450782555,-1.2191519738513068
1684061940689817800,3.67521826171875,0.4964889287964744,-1.3436393738771024,-0.649020195006738
1684061940699860600,3.685260986328125,0.7780380249340748,-0.5939903258461403,0.04848742489813311
1684061940709903800,3.69530419921875,1.046759366990431,0.12169170378195941,-0.5825934411973772
1684061940719946600,3.70534716796875,1.415839671896707,-0.8725309371291994,0.020818948898943406
1684061940729989600,3.715389892578125,1.6819179058733877,1.7773199081435584,0.8528745172862837
1684061940740032600,3.72543310546875,1.8383134602482725,2.311082363173101,-0.7328457832041584
1684061940750075600,3.73547607421875,1.9289035796387746,1.291538715253081,-0.7917234898917487
1684061940760118400,3.745518798828125,2.3610959052888925,1.3056659698982458,-0.6793603897001947
1684061940770161600,3.75556201171875,1.9267027378868677,0.31466484072478407,0.19239521021811223
1684061940780204500,3.76560498046875,1.4839785099469387,0.18991947176671858,-0.34519577028513443
1684061940790247300,3.775647705078125,1.1289743185142795,-0.3333292008317786,-0.3490734100124033
1684061940800290600,3.78569091796875,0.8149704932995135,0.6644830705227075,-0.05211973191030888
1684061940810333400,3.795733642578125,0.515901327113385,0.4147348403458301,0.05870604512169323
1684061940820376200,3.805776611328125,0.32937037933106655,0.10687828048098477,0.4592719078457517
1684061940830419400,3.81581982421875,0.18878996378705562,-0.22359943384991326,0.6749124525784
1684061940840462300,3.825862548828125,0.3417556583291147,-0.6234846115307155,0.702444553515177
1684061940850505100,3.835905517578125,0.7287613748668255,-0.32938098910050717,0.6016054152694137
1684061940860548300,3.84594873046875,1.1775001286311082,-0.26119136795419196,0.3818540572704706
1684061940870591200,3.855991455078125,1.5275385378344053,-0.20757770535181008,0.43181300172035064
1684061940880634000,3.866034423828125,1.6241544486061945,-0.08584880821181964,0.434479713440729
1684061940890677200,3.87607763671875,1.591036915920933,-0.18009662638519758,0.5153057574676846
1684061940900720000,3.886120361328125,1.441048502949412,-0.1008319854753392,0.6949224471406924
1684061940910763200,3.89616357421875,1.1626914740227157,-0.20136833174584512,0.5536227226756673
1684061940920806100,3.90620654296875,0.7664042114199862,-0.06739521027814811,0.48279380799937605
1684061940930848900,3.916249267578125,0.5108340979129138,0.14482021325630465,0.4502582550440426
1684061940940891800,3.926292236328125,0.515447735696426,0.3263139724478245,0.3246035575277525
1684061940950935000,3.93633544921875,0.537464499484498,0.23523044584081318,0.5631661416462529
1684061940960977800,3.946378173828125,0.5553206205719153,0.06917381286879525,0.8588647841931766
1684061940971020600,3.956421142578125,0.7579293250975705,-0.11012268064354702,1.233842372880471
1684061940981063900,3.96646435546875,0.8587754963259175,-0.11305236812337192,1.20934009544229
1684061940991106700,3.976507080078125,0.8842384815230788,-0.0801916122868152,0.7663650513347161
1684061941001149600,3.986550048828125,0.8214991688815682,-0.25132465368958673,0.4348216057165051
1684061941011192800,3.99659326171875,0.7818012239277357,-0.16034507751024013,0.10722208013699897
1684061941021235600,4.006635986328125,0.6835317611525346,0.042237281795068325,-0.2940204145048449
1684061941031278600,4.016678955078125,0.4153748750659063,-0.19166278835559164,-0.7634825706510285
1684061941041321600,4.02672216796875,0.016209691752461113,-0.3276977539215943,-1.072699069889768
1684061941051364600,4.036764892578125,-0.21607407926145594,0.1121101379211927,-1.0965468884474456
1684061941061407400,4.046807861328125,-0.02579075088318881,0.31128215788374114,-1.2429234982191455
1684061941071450600,4.056850830078125,0.13857254391107493,-1.0046977996333566,-0.3198418617163572
1684061941081493400,4.066893798828125,-0.06658053391426866,-0.8029575348645215,0.031026363372444826
1684061941091536300,4.076936767578125,-0.10623925909574794,0.0027523041438781205,-0.5688419342232282
1684061941101579400,4.086979736328125,-0.05986401437198424,0.20837974548946359,-0.5389077663108236
1684061941111622300,4.097022705078125,0.10085603582996122,0.016222953833560996,-0.410478592045621
1684061941121665200,4.107065673828125,0.3102497755699294,-0.33267307279375724,-0.29812383651989716
1684061941131708300,4.117108642578125,0.3691793383438432,-0.7991523742444233,-0.12165737156641938
1684061941141751200,4.127151611328125,0.3795278072642759,-1.2686414719222436,0.1444902418980477
1684061941151794100,4.137194580078125,0.3293599486174738,-1.5181798935444863,0.3680353163943932
1684061941161837200,4.147237548828125,0.19581568256429482,-1.4667787551298885,0.4014239311829637
1684061941171880100,4.157280517578125,0.11710181082157564,-1.2882738113717878,0.3715848923057791
1684061941181923000,4.167323486328125,-0.022163718977442248,-1.1074333191243835,0.19679307938295507
1684061941191966100,4.177366455078125,-0.09859748181265303,-1.658723831138167,0.3908019067099281
1684061941202009000,4.187409423828125,-0.038019433553632825,-2.132594108605653,0.5526461601672947
1684061941212051900,4.197452392578125,0.03301167475015344,-2.693480491524784,0.7098512648877789
1684061941222094800,4.2074951171875,0.2973851561959801,-3.2517967224037165,0.630603313385799
1684061941232137900,4.217538330078125,0.6373041868814756,-3.4198446274633088,0.548973560286964
1684061941242180800,4.227581298828125,1.073105692725376,-3.4044227600756414,0.5239253044211851
1684061941252223900,4.237624267578125,1.6524076460803003,-2.941350936875918,0.08170747748014083
1684061941262266800,4.247667236328125,2.0489153862983436,-1.8488531112629998,0.016410350772571098
1684061941272309600,4.2577099609375,2.0709693432371616,-1.0356054306888895,0.06288480751507611
1684061941282352600,4.2677529296875,1.9137016534290472,-0.04710578913454775,-0.007432222439096028
1684061941292395600,4.277796142578125,1.9877941608338008,0.861072540264768,0.2150578497212743
1684061941302438600,4.2878388671875,1.4362049102914907,1.3483419418390992,0.5420413017713063
1684061941312481500,4.2978818359375,0.34831127516439103,1.4961123466305228,0.8427865505285501
1684061941322524600,4.307925048828125,-0.342554748104285,1.7171564103964918,1.095688819858067
1684061941332567600,4.3179677734375,-0.5810572504368926,2.2139258385250704,1.2689199447586865
1684061941342610400,4.3280107421875,-0.8615897892955113,2.5669484138758243,1.3048911095049487
1684061941352653600,4.338053955078125,-0.7106995583374053,2.870966434322813,1.3961961268442413
1684061941362696400,4.3480966796875,-0.14784872535308438,2.983055591620951,1.3735125064973412
1684061941372739200,4.3581396484375,0.5940971374623137,3.012787819051417,1.1936583519752635
1684061941382782100,4.3681826171875,0.8585819007080686,2.9962558747051333,1.174918889936651
1684061941392825300,4.3782255859375,0.8731935620507335,3.1551861763458957,0.9334833621497559
1684061941402868100,4.3882685546875,0.7931755780290355,2.937602043272385,0.8068213461700148
1684061941412911000,4.3983115234375,0.629117190949306,2.7837677000638803,0.6365706921427037
1684061941422954200,4.4083544921875,0.5619494916682685,2.129889488389495,0.5348107814685265
1684061941432997000,4.4183974609375,0.5377971530827861,1.4519724845260449,0.5333976747060964
1684061941443039900,4.4284404296875,0.43545278895141853,0.8124017715368755,0.41777348519083984
1684061941453082800,4.438483154296875,0.35254216194005455,0.01569843310253164,0.5261452197644341
1684061941463125900,4.4485263671875,0.44031798831171387,-0.4119710922754441,0.5532584189658786
1684061941473168800,4.4585693359375,0.5649148227120905,-0.4111928940749746,0.36009311686894474
1684061941483211600,4.468612060546875,0.5275567768926317,-0.28566265108872646,-0.003080129530972474
1684061941493254800,4.4786552734375,0.363651156490813,-0.05443763742927859,-0.43667125699035975
1684061941503297600,4.488697998046875,0.11628334228673061,0.11730194092264865,-0.7830688953356788
1684061941513340600,4.498740966796875,-0.06734608112153347,0.07418346401428831,-0.9596364499303935
1684061941523383500,4.508783935546875,-0.12086969610630008,-0.12147808081544262,-1.0107407568374818
1684061941533426600,4.518826904296875,-0.13075970120874253,-0.09488773338359574,-0.9789159298151064
1684061941543469600,4.528869873046875,-0.18248219799628768,-0.0023050307484065355,-1.0521210432281043
1684061941553512400,4.538912841796875,-0.23172137138457022,0.14362716681499132,-1.107579469669728
1684061941563555600,4.548955810546875,-0.3041860461411035,0.4454402923768068,-1.1549834014182034
1684061941573598400,4.558998779296875,-0.2549815773816132,0.6550750732971712,-1.2065870761431514
1684061941583641300,4.569041748046875,-0.0811620504001833,0.8543605804612591,-1.0773513317526289
1684061941593684100,4.57908447265625,0.030029445853621994,1.02664184584218,-0.8918404579340388
1684061941603727300,4.589127685546875,0.10269813233034882,1.1912345886142224,-0.8264613153434538
1684061941613770200,4.599170654296875,0.13026382027500677,1.5171365736785722,-0.7275276184202352
1684061941623813000,4.60921337890625,0.35738569496890715,2.8244733810659524,-0.7011551857168724
1684061941633856200,4.619256591796875,0.38625046608690594,3.7043356893897554,-1.2031477690657355
1684061941643899100,4.629299560546875,0.6821504832439772,2.635401725844738,-0.6544947624929226
1684061941653941900,4.63934228515625,0.7806410790369859,1.555881977204112,-0.13723754874605054
1684061941663984800,4.64938525390625,0.5979768037548482,-0.3763809205302591,0.5692396163427054
1684061941674028000,4.659428466796875,0.5106747746896896,-0.22757625574634482,1.2464845179443715
1684061941684070800,4.66947119140625,0.18837997325579647,-0.24368762978186911,0.9314944743004242
1684061941694113600,4.67951416015625,-0.048979639903649515,-1.5355930329201213,0.7059521674961453
1684061941704156800,4.68955712890625,-0.17025229328669234,-2.2817583083126536,0.9323942662527389
1684061941714199700,4.69960009765625,-0.13928189867833354,-2.362989425679878,0.9610080719184878
1684061941724242600,4.70964306640625,-0.17593657963234624,-2.8020868302243165,0.5908567906308222
1684061941734285700,4.71968603515625,-0.2735574245508398,-3.3071956634496997,0.1404716968049647
1684061941744328600,4.72972900390625,-0.5039812326056693,-2.8086357117687513,0.019937515302828123
1684061941754371600,4.73977197265625,-0.35759088404214256,-2.288737297013076,-0.20381450660211825
1684061941764414400,4.749814697265625,-0.13652426003029566,-1.7257699967209261,-0.6542439459764002
1684061941774457300,4.759857666015625,-0.09006348241074151,-0.981451988311088,-0.793883085313463
1684061941784500400,4.76990087890625,-0.17122465365593512,-0.45308971400551984,-0.942327022580306
1684061941794543300,4.779943603515625,-0.15721172095156044,-0.12156200405259071,-0.8599200249649207
1684061941804586200,4.789986572265625,-0.20921656490560311,-0.04151535030933541,-0.9277112484307859
1684061941814629300,4.80002978515625,-0.3200563489590229,-0.08561038977190981,-0.9299273489929348
1684061941824672200,4.810072509765625,-0.41504809266451564,-0.043752670418452745,-0.8845713137660423
1684061941834715100,4.820115478515625,-0.4656569361106592,-0.08570289610011263,-0.9827765226018451
1684061941844757900,4.830158447265625,-0.4598156511684645,-0.43583965311888545,-0.8495523929871609
1684061941854801100,4.840201416015625,-0.42356082800728223,-0.4419689179562189,-0.6853661537277339
1684061941864844000,4.850244384765625,-0.4101966022017805,-0.27441310878693187,-0.67157578467873
1684061941874886800,4.860287353515625,-0.29875645023192515,-0.15748310091760415,-0.5934019088499874
1684061941884929600,4.870330078125,-0.20944762226362587,-0.028828620874886756,-0.45779681210744133
1684061941894972800,4.880373291015625,-0.14714059224935366,-0.03671646109395924,-0.34670805934515725
1684061941905015600,4.890416015625,-0.05198717110555916,0.02217674252590752,-0.26488137246486587
1684061941915058600,4.900458984375,0.07089608903141321,0.1406316757194615,-0.19042253491843286
1684061941925101600,4.910501953125,0.13232526174051146,0.14914131169258216,-0.14189338682849104
1684061941935144600,4.920544921875,0.09112238898279623,0.09810447695849994,-0.10989809046801458
1684061941945187600,4.930587890625,0.004794180495173112,0.1689662933254717,-0.11181640618406904
1684061941955230400,4.940630859375,-0.07359817625690543,0.1702356337310197,-0.11692810072917076
1684061941965273300,4.950673583984375,-0.11778604997748986,0.12608242039120277,-0.05559301370725152
1684061941975316400,4.960716796875,-0.18002963075935702,0.12960433971115207,-0.038287162897378386
1684061941985359300,4.970759765625,-0.2194899021539652,0.13996124256404413,-0.039040327075025694
1684061941995402200,4.980802490234375,-0.24108096951642718,0.0691184999185596,-0.042320489857191675
1684061942005445000,4.990845458984375,-0.26343238340994163,-0.06619834901524338,0.05398607264419721
1684061942015488200,5.000888671875,-0.2786576151955441,-0.11065959928960235,0.09433150291723665
1684061942025531100,5.010931396484375,-0.30946674934719964,-0.21248722078045687,0.1485402584419622
1684061942035573900,5.020974365234375,-0.3261261284344633,-0.24495792381961737,0.15948128704235182
1684061942045616800,5.031017333984375,-0.3047052623521839,-0.1843299865453262,0.19186854367045972
1684061942055660000,5.041060302734375,-0.2913789451592621,-0.1477680206337226,0.23867225660132318
1684061942065702800,5.051103271484375,-0.23409056666441988,-0.018232345519147,0.2566425801810309
1684061942075745600,5.06114599609375,-0.15692073106646906,0.08469104780593235,0.2651400565643616
1684061942085788600,5.07118896484375,-0.06692564484035468,0.15872764574142983,0.28348374360520157
1684061942095831700,5.081232177734375,0.04051154845427217,0.18240642547239028,0.340123415118224
1684061942105874600,5.09127490234375,0.1259459853035602,0.2346515656452559,0.3344120978538526
1684061942115917600,5.10131787109375,0.20498976103027303,0.19606208804162104,0.3835413455358412
1684061942125960400,5.11136083984375,0.2703379690007632,0.12641048430443297,0.3268024921384818
1684061942136003600,5.12140380859375,0.2770681680442105,0.15240383145932998,0.26025509831333743
1684061942146046400,5.13144677734375,0.2350225745139524,0.1927270887836985,0.19151020051433437
1684061942156089300,5.14148974609375,0.1896288692865992,0.17581462852354904,0.15678572646757624
1684061942166132100,5.151532470703125,0.15011709931312672,0.2071142197906343,0.09937524784650564
1684061942176175000,5.161575439453125,0.2528128325534685,0.44672298440892444,0.10370254516147355
1684061942186218200,5.17161865234375,0.16366297011008782,0.1749229430581413,0.18757581709836013
1684061942196261000,5.181661376953125,0.1128089428082369,-0.02935504911573217,0.3236715794223364
1684061942206303900,5.191704345703125,0.1556846498532848,-0.13043880479212439,0.34727001184604833
1684061942216346800,5.201747314453125,0.21561887851887623,-0.12633609774364826,0.34415102004106235
1684061942226389900,5.211790283203125,0.0919084249699112,-0.13212776169395993,0.11549639699168929
1684061942236432800,5.221833251953125,0.030255436797111818,-0.13124465947781302,-0.21230864515137052
1684061942246475600,5.2318759765625,0.0015525819081193624,-0.08429050455838971,-0.5170330999834202
1684061942256518600,5.2419189453125,-0.008428931204711108,-0.06665897364406276,-0.6859662533164765
1684061942266561600,5.251962158203125,0.009739875725936627,-0.05891227728089819,-0.7326908111181913
1684061942276604600,5.2620048828125,-0.10150790211575643,-0.039686202844694464,-0.7555844783367708
1684061942286647500,5.2720478515625,-0.08745718003473238,-0.08448791502870541,-0.5924258232640183
1684061942296690400,5.2820908203125,-0.12922930706017305,-0.1850385666292406,-0.5094647407545598
1684061942306733600,5.2921337890625,-0.15579819685089155,-0.2226858139683414,-0.44187784201404273
1684061942316776400,5.3021767578125,-0.003067433789453412,-0.20791625973738403,-0.23418092734684384
1684061942326819200,5.3122197265625,0.008968591568053871,-0.1719427108945293,-0.05240583417568299
1684061942336862100,5.322262451171875,0.01766234638872747,-0.13160800915014093,-0.01367282865889504
1684061942346905000,5.332305419921875,0.02955895652072081,-0.07044410711895165,-0.12492728228485656
1684061942356947900,5.342348388671875,-0.02650380147041381,-0.09712028509492758,-0.2496638298355354
1684061942366991000,5.352391357421875,-0.07902044056762496,-0.1706771850182191,-0.22008514413748112
1684061942377033900,5.362434326171875,-0.0799697637586985,-0.10663604746399895,-0.2671740054746409
1684061942387076800,5.372477294921875,-0.16726499801258105,-0.14515399928574266,-0.38068270666743725
1684061942397119600,5.38252001953125,-0.045342504876407216,-0.10572528835634581,-0.36224293718690154
1684061942407162800,5.392563232421875,-0.030000865481197344,-0.10933303842595546,-0.31139159195467886
1684061942417205600,5.402606201171875,-0.019445538570935714,0.03558826456522122,-0.1736857890482168
1684061942427248600,5.41264892578125,-0.029953420216076863,0.19243907927515946,0.0026094915081447353
1684061942437291400,5.42269189453125,-0.10667735337818514,0.1207342148470031,0.19726395594520404
1684061942447334600,5.43273486328125,-0.1615626812624359,-0.022865295443578574,0.19980001452276314
1684061942457377500,5.44277783203125,0.003209710077222191,0.024274826044148847,0.3529515267277788
1684061942467420300,5.45282080078125,0.16348925243331572,0.16749000538357767,0.3212797641101642
1684061942477463200,5.462863525390625,-0.0017557741250224972,0.21925067908174808,0.17429089542035703
1684061942487506100,5.472906494140625,0.04174768911243132,0.18570804605067015,0.11353921895779777
1684061942497549200,5.48294970703125,-0.05921107534373278,0.006734848005534213,0.08897757513649593
1684061942507592100,5.492992431640625,-0.1220624447368837,0.0022659301453330375,0.01626133920570276
1684061942517635000,5.503035400390625,-0.08639299863098235,0.07989406593489856,-0.11340999587787219
1684061942527677900,5.513078369140625,-0.17399936903438135,-0.051219940240593016,-0.12427306158823546
1684061942537720800,5.52312109375,-0.04834777108940923,-0.05811023706354151,-0.07275986666358243
1684061942547763900,5.533164306640625,0.07910639052634151,-0.17840003966964527,-0.08298349370572787
1684061942557806800,5.543207275390625,-0.03374016278147724,-0.36568832396647466,-0.2958397863869163
1684061942567849600,5.55325,-0.38639497754846724,-0.24086666101400173,-0.4958000183178645
1684061942577892600,5.56329296875,0.8874006271544358,0.4571428299993166,0.34135937699757807
1684061942587935400,5.573335693359375,0.09893912092276866,0.3746480943402144,-0.16213417057748952
1684061942597978600,5.58337890625,0.007560789649716035,-0.08266067513074336,0.2464303971366068
1684061942608021400,5.593421875,0.03731220968095177,-0.13689994817218917,0.17232275018226334
1684061942618064300,5.603464599609375,-0.04583513729767179,-0.04225349426051243,-0.0033757688509494644
1684061942628107200,5.613507568359375,-0.15441900506618375,0.17361927015976483,-0.469250917351868
1684061942638150100,5.623550537109375,0.05672138939890654,0.030641555777777604,-0.34917974464132173
1684061942648192900,5.63359326171875,0.2041849493714759,-0.08570289617810375,-0.2089142799577027
1684061942658236100,5.643636474609375,0.2758048473527354,-0.13143348698948235,0.08398866658409777
1684061942668279000,5.653679443359375,0.1934240161198489,-0.09863185876261095,0.1981854438514185
1684061942678321800,5.66372216796875,0.04406255481214292,-0.08525657657928451,0.18318915354896936
1684061942688364600,5.67376513671875,-0.14288848645904467,-0.020290374673996463,0.06024479868102247
1684061942698407600,5.68380810546875,-0.181259870455917,0.11862754813722408,0.07001018519135199
1684061942708450700,5.69385107421875,-0.10055184356253082,0.2193698884057052,-0.16053342814683122
1684061942718493600,5.70389404296875,0.03742659095229841,0.12271690374175719,-0.228942394271201
1684061942728536600,5.71393701171875,-0.045005381111930705,-0.005337715095396942,-0.48981618885655065
1684061942738579400,5.723979736328125,-0.08534342043779305,-0.11006259922217694,-0.5436609982931163
1684061942748622300,5.734022705078125,-0.06643158202713698,-0.10955905922579086,-0.5093438625164045
1684061942758665100,5.7440654296875,0.10214686399456635,-0.007596015774698293,-0.37067699425052875
1684061942768708300,5.754108642578125,0.07445210221115749,-0.017775535512659726,-0.3489906786036912
1684061942778751200,5.764151611328125,0.10440683352732241,-0.05599117270252519,-0.32552862150712414
1684061942788794000,5.7741943359375,0.18140879285502282,-0.1264820098484285,-0.24388289448863834
1684061942798836900,5.7842373046875,0.21402651069477546,-0.15575408917433659,-0.1495435238403403
1684061942808879800,5.7942802734375,0.27261787655696146,-0.2248706818117726,0.034025669152576724
1684061942818922900,5.8043232421875,0.15264996890325397,-0.21287441259353793,-0.016141891612259426
1684061942828965800,5.8143662109375,0.21632355450883192,-0.02404403694998167,0.07063007365074238
1684061942839008600,5.8244091796875,0.06010097259339544,0.17405033114085117,0.04547381401272503
1684061942849051600,5.834451904296875,-0.0319630503155164,0.18796825400771522,0.015348911296496426
1684061942859094400,5.844494873046875,0.08936965466404696,0.13845443719716471,0.06958007795057258
1684061942869137300,5.854537841796875,0.015521764750787702,0.23128509505826464,0.1640043257432049
1684061942879180500,5.864580810546875,-0.19532132151475096,0.11978244773993199,0.2063646316256955
1684061942889223300,5.874623779296875,-0.2447377443589569,0.07067775736774685,0.14423274984209175
1684061942899266200,5.88466650390625,-0.21728652713672839,0.16365337369043115,-0.14085841182630987
1684061942909309100,5.89470947265625,-0.089459776721486,0.10008144376963185,-0.19437122335526516
1684061942919352000,5.90475244140625,-0.06406372780838329,-0.00500774398208261,-0.0315294265228264
1684061942929394900,5.914795166015625,-0.06731921438223137,-0.09935092922934309,0.03042578684734935
1684061942939438000,5.92483837890625,-0.12857061641757225,-0.09105014815498931,-0.06206488606238207
1684061942949480900,5.93488134765625,-0.10108500733169726,-0.10864162427777323,-0.1310720442303662
1684061942959523800,5.944924072265625,-0.11602777253982573,-0.1537227629181268,-0.23453521740514885
1684061942969566600,5.954967041015625,-0.058205306672447686,-0.24663257590350832,-0.3540017605578104
1684061942979609600,5.965010009765625,-0.046326458373505186,-0.2737989425368639,-0.3110687733675824
1684061942989652600,5.975052978515625,-0.07591122388963661,-0.31669425972682314,-0.2529995439920147
1684061942999695600,5.985095947265625,-0.1861071585838863,-0.08286762238338223,-0.44014334694745644
1684061943009738400,5.995138916015625,-0.24872076496972706,0.0581359862772585,-0.3811839820377426
1684061943019781300,6.005181640625,-0.2345399856026764,0.20630168928728632,-0.3105669019774322
1684061943029824200,6.015224609375,-0.21887689835773685,0.21556568149848052,-0.34876084324470974
1684061943039867100,6.025267333984375,-0.2123193741100822,0.1991119384199409,-0.31199300283844256
1684061943049909900,6.035310302734375,-0.28527235990565386,0.17867183675251797,-0.2738904953085199
1684061943059953100,6.045353515625,-0.3604158162518622,0.15661334992213516,-0.2979935408344213
1684061943069996000,6.055396240234375,-0.301716804526807,0.09064483648520194,-0.32420563697339433
1684061943080038800,6.065439208984375,-0.3143055439980512,0.059110641515604585,-0.298702597483345
1684061943090081600,6.075482177734375,-0.3470227122926713,0.10855293278425947,-0.2878049610209344
1684061943100124600,6.08552490234375,-0.36364889128746347,0.1268186569817017,-0.20463180554476626
1684061943110167600,6.09556787109375,-0.41369080560286686,0.11424446113087568,-0.12412893776310115
1684061943120210600,6.105611083984375,-0.47332674270273645,0.06876182555489391,-0.045184016348962554
1684061943130253600,6.11565380859375,-0.5684708952337449,0.04483032230465243,0.07088077066849774
1684061943140296400,6.12569677734375,-0.6284031867676323,0.07488727569148734,0.026834130252304297
1684061943150339200,6.13573974609375,-0.6725524068910481,0.09899616245094561,0.021904230056901362
1684061943160382100,6.145782470703125,-0.649242520214232,0.03964805610698692,0.034546017779882275
1684061943170425000,6.155825439453125,-0.6441112756520899,0.09150123595883373,-0.035510897738404004
1684061943180467900,6.165868408203125,-0.6845617889729095,0.14681434640617888,-0.014626264675233766
1684061943190511000,6.175911376953125,-0.6516348720364393,-0.04398345958606969,0.020634055167035918
1684061943200553900,6.185954345703125,-0.6824603676020706,-0.11417007438770897,0.01412260519475094
1684061943210596800,6.1959970703125,-0.6343782543757109,-0.2307529448579829,0.17724120608286173
1684061943220639600,6.2060400390625,-0.6818299889647836,-0.3107519150709307,0.27076840395432505
1684061943230682600,6.2160830078125,-0.5761828422694051,-0.34299182888699276,0.28401589400176996
1684061943240725400,6.226125732421875,-0.5669016837718498,-0.29284954057963236,0.32180976870082956
1684061943250768300,6.236168701171875,-0.610440373486744,-0.23438739764333266,0.21119272712033652
1684061943260811400,6.2462119140625,-0.5420235990670375,-0.05909156791936734,-0.017498374018066698
1684061943270854300,6.256254638671875,-0.5258361101749705,0.035713195707345546,-0.006549239180159227
1684061943280897200,6.266297607421875,-0.05111086361097134,-0.21761989587508113,0.5615090130896704
1684061943290940100,6.276340576171875,0.12297058111486754,-0.3428258895052189,0.6304004191403463
1684061943300983000,6.28638330078125,0.13580080881736206,-0.06675529494362087,0.25742399693093315
1684061943311025800,6.29642626953125,2.9856338501461317,1.2128438948939428,-2.9843735694308875
1684061943321068600,6.30646923828125,3.3262288572097267,-0.8027706146851602,-2.3121261595806617
1684061943331111900,6.31651220703125,2.7308068274696797,-1.2596492768609397,-1.5274574756614392
1684061943341154700,6.32655517578125,-0.1877093314018244,-0.2505102157859727,0.07446193689461188
1684061943351197600,6.336597900390625,-2.6925117970092707,0.09432792658005892,1.8767907620965902
1684061943361240600,6.346640869140625,-2.562136649918194,0.7666063309811326,2.4012885094327117
1684061943371283400,6.356683837890625,-0.6786479950629896,0.6103382111600419,1.6732952595415078
1684061943381326300,6.3667265625,1.6363379954728259,0.27134609214837835,0.8424245117973498
1684061943391369100,6.37676953125,2.241188764658171,0.06990146628132185,-0.08354020129239384
1684061943401412000,6.3868125,1.5932722090161042,0.01673126220080427,-0.9490758179636369
1684061943411455200,6.39685546875,1.439176321010162,0.6306505203985836,-0.16749215125707348
1684061943421498000,6.4068984375,1.3305864335576199,0.5660142898912454,1.1019778250874435
1684061943431540900,6.41694140625,0.575159072950711,-0.12069129942827288,1.2073509692180329
1684061943441583800,6.426984130859375,0.12018001072884468,-0.4920892715198335,1.1681164503529662
1684061943451626600,6.437027099609375,0.5569794177962378,-0.11067581180726328,1.0704306364311482
1684061943461669600,6.447070068359375,1.0829542875643834,0.5642566680136771,1.3151078222920307
1684061943471712400,6.45711279296875,0.9011677503040038,0.2730970382298103,1.5379484890979753
1684061943481755600,6.467156005859375,0.19033038619207615,-0.45262145985274177,1.4895992277910666
1684061943491798400,6.47719873046875,-0.3675972818490073,-0.7193918229229184,1.2908407449455233
1684061943501841300,6.48724169921875,-0.24631018931981136,-0.8244247437169033,0.7317596673310409
1684061943511884200,6.49728466796875,0.09225057056061785,-0.32835197430110696,0.5884256364607878
1684061943521927100,6.507327392578125,0.40008264778597674,0.030405998132285318,0.5507029295518239
1684061943531970000,6.517370361328125,0.47021868815458734,0.08271884908568453,0.6265997886986967
1684061943542012800,6.527413330078125,0.3330888150903348,0.10107612620751251,0.5838987825754968
1684061943552055600,6.5374560546875,0.30376714456467924,0.25505256670448706,0.5680872201110527
1684061943562098900,6.547499267578125,0.4454541801392755,0.5305986402844638,0.5702704191251405
1684061943572141700,6.557542236328125,0.7760540842565594,0.5722579956471662,0.7489619255019413
1684061943582184600,6.5675849609375,0.9878916142815555,0.6342287063661657,0.8361952304728192
1684061943592227600,6.5776279296875,0.7823396325050285,0.8097724914563577,0.9907106160974
1684061943602270400,6.5876708984375,0.49034607411453984,0.7468414306654305,1.3542782068864574
1684061943612313300,6.597713623046875,0.22537535418368537,0.6649656295027839,1.540268421162849
1684061943622356100,6.607756591796875,0.06519407027916385,0.5237569808467019,1.5166835785738864
1684061943632399000,6.61779931640625,0.22610059373980912,0.3927307128628297,1.583238601675311
1684061943642441900,6.62784228515625,0.1882110536104558,0.3724517821401786,1.3926289081834287
1684061943652484800,6.63788525390625,0.16576924912927368,0.45551490783874865,1.2848072052657848
1684061943662527900,6.64792822265625,0.15557646744828302,0.5029602051203561,1.0483714342247792
1684061943672570800,6.65797119140625,0.09697847809629087,0.4311351776114123,0.8475700617514442
1684061943682613600,6.66801416015625,-0.018319690579332883,0.29990482326713347,0.6672651769135728
1684061943692656600,6.678056884765625,-0.0389924198267719,0.17372989664836466,0.5733858348610433
1684061943702699400,6.688099853515625,-0.010261256177503423,0.08124065414283409,0.42477214337861974
1684061943712742300,6.698142822265625,-0.09271685764557215,-0.029953956562925776,0.29943895357345324
1684061943722785200,6.708185546875,-0.21834051598840462,-0.3219633101538045,0.21792197230593532
1684061943732828100,6.718228515625,-0.3662003876146207,-0.4552373885938173,0.20644903191309721
1684061943742871000,6.728271240234375,-0.43907424816754337,-0.3275613784841739,0.15698075293392524
1684061943752913800,6.738314208984375,-0.3846099973040274,-0.1642503738241911,0.18086981785029732
1684061943762957000,6.748357421875,-0.3042394817155625,0.012908935648626819,0.2361600399691465
1684061943772999900,6.758400146484375,-0.2571942807958297,0.2060651780326533,0.37636303894955253
1684061943783042700,6.768443115234375,-0.17267593753798735,0.3197460174646481,0.46309554560466243
1684061943793085600,6.778486083984375,-0.23362670848314904,0.4952936173117747,0.684211731099021
1684061943803128600,6.78852880859375,-0.3382633328881697,0.579837799162482,0.9257375002563006
1684061943813171400,6.79857177734375,-0.44721418618330516,0.518446922228392,1.222047686519478
1684061943823214300,6.80861474609375,-0.5735498666389993,0.35189628608170853,1.4046964644228186
1684061943833257100,6.818657470703125,-0.6419259310093561,0.2188053131272008,1.5350652931623736
1684061943843300000,6.828700439453125,-0.6601827145497068,0.11179161069253135,1.6529256106057697
1684061943853342900,6.838743408203125,-0.7589598893666164,0.16469955454107685,1.6853517294285554
1684061943863386000,6.848786376953125,-0.883266568295315,2.2888223843206203e-05,1.645674466993415
1684061943873428900,6.858829345703125,-1.1387770176284522,-0.02811241150303085,1.5699466467801007
1684061943883471800,6.8688720703125,-1.1994829176827009,-0.013113021745843724,1.6130782364933547
1684061943893514600,6.8789150390625,-0.7885741591823598,0.13585472106474508,1.8215523959377835
1684061943903557600,6.8889580078125,-0.2920134663113465,0.1485157013643463,2.108453750576346
1684061943913600400,6.899000732421875,-0.1483490765099881,-0.10391044617607442,1.937213778602403
1684061943923643300,6.909043701171875,0.1984361111015014,-0.21517562865583953,1.8665354251789852
1684061943933686200,6.919086669921875,0.038079425665659285,-0.5083160398705143,1.6854574680516579
1684061943943729100,6.92912939453125,-0.2035534531059426,-0.7032661439094333,1.4926463365899105
1684061943953772000,6.93917236328125,-0.39245671029976353,-0.6999158859369792,1.2816928625537458
1684061943963814800,6.94921533203125,-0.4023591577618664,-0.6659994126082671,1.0372465848508503
1684061943973858000,6.95925830078125,-0.500232637040082,-0.6326580048560303,0.9698320628173671
1684061943983900600,6.969301025390625,-0.5304404497646772,-0.32043933849245826,0.9172492027468395
1684061943993943700,6.97934423828125,-0.06590053448405732,-0.0666036604780256,0.8670686483206527
1684061944003986600,6.989386962890625,0.4829863905997112,0.14826107017132834,0.8044945000654248
1684061944014029600,6.999429931640625,0.7385729550204193,0.27410125734979335,0.5866550205658823
1684061944024072400,7.00947265625,0.6460564135900301,0.08194446557794784,0.195788025904301
1684061944034115200,7.019515625,0.4732059836268215,-0.20780754078456135,-0.09319663036499419
1684061944044158100,7.02955859375,0.1774046123050101,-0.2651042938357806,-0.7005814313103595
1684061944054201000,7.039601318359375,-0.08609232304751002,-0.15920448297756648,-1.3624106645763125
1684061944064243900,7.049644287109375,-0.37739315632066567,-0.32503318784253454,-1.4849658011346374
1684061944074286800,7.059687255859375,-0.6209737063273444,-0.7788381577367046,-1.4885011910199715
1684061944084329600,7.06972998046875,-0.7695976495795029,-1.224286079402553,-1.321547985093586
1684061944094372600,7.07977294921875,-0.7620530127999713,-1.6309976577266925,-0.9269459843691945
1684061944104415400,7.08981591796875,-0.7325739859806426,-1.8516368866300155,-0.60554176575038
1684061944114458600,7.09985888671875,-0.5388244986778555,-1.7585191727829483,-0.18417811396001818
1684061944124501200,7.109901611328125,-0.35024732359147465,-1.3863248824960455,0.038656413690881505
1684061944134544300,7.11994482421875,-0.042047500478479084,-0.9272022247231555,0.3461572527509493
1684061944144587200,7.129987548828125,0.4946981967534273,-0.35210323334589183,0.38325822348578564
1684061944154630100,7.140030517578125,0.9006198049499099,0.19865417473692248,0.7024052737835245
1684061944164672900,7.1500732421875,0.7862221600261635,0.6343746186262486,0.9394552706820416
1684061944174715800,7.1601162109375,0.28153771147372975,0.7234487533938351,0.8226457834890807
1684061944184758600,7.1701591796875,-0.1626214982262998,0.7768983840177212,0.5028183460002843
1684061944194801600,7.180201904296875,-0.45012009142109993,0.69950962068387,-0.14886212357325437
1684061944204844500,7.190244873046875,-0.37579321866345,0.6687765121878306,-0.4820458293543461
1684061944214887300,7.200287841796875,-0.0635753871311913,0.5250186920174406,-0.5268561244378269
1684061944224930200,7.21033056640625,0.14258742336896707,0.3188190460922234,-0.4649218320265246
1684061944234973100,7.22037353515625,0.43090176577343586,0.15798187260668817,-0.325513780128206
1684061944245016000,7.23041650390625,0.7954465152171514,-0.09572124487278838,-0.1439440250955925
1684061944255058900,7.240459228515625,1.1865909098862721,-0.3864612578895641,-0.05753755569757646
1684061944265101700,7.250502197265625,1.2823346852942796,-0.5461788177996066,-0.12915515901405888
1684061944275144600,7.260544921875,1.1509230138061555,-0.653304099879391,-0.2503653763608332
1684061944285187800,7.270588134765625,0.7861365080538295,-0.7055988312069357,-0.29336631294215076
1684061944295230600,7.280631103515625,0.39865994456842613,-0.7635440825660803,-0.32258045665347457
1684061944305273600,7.290673828125,0.2150070666099981,-0.6821432112983262,-0.3644244671606662
1684061944315316400,7.300716796875,0.30759811402528137,-0.41392612462413064,-0.39942377799507905
1684061944325359300,7.310759765625,0.5280466079543898,-0.0662240983051149,-0.5564706326800634
1684061944335402200,7.320802490234375,0.6395813226202073,0.2273206710759048,-0.7074136136850669
1684061944345445000,7.330845458984375,0.673406839268886,0.4929094314831032,-0.9123009442841613
1684061944355487900,7.340888427734375,0.6065162421654562,0.6249704359727652,-1.0504305364216386
1684061944365530800,7.35093115234375,0.5760371685270184,0.742546081648195,-1.1428276302025568
1684061944375573600,7.36097412109375,0.49597752098215087,0.9049367905901838,-1.164346575793524
1684061944385616600,7.371016845703125,0.5403944253708797,1.0454025268748774,-1.2502454520120092
1684061944395659400,7.381059814453125,0.5489442348462634,1.2002363205751325,-1.2728296518026678
1684061944405702300,7.391102783203125,0.484571218338431,1.2716293334542461,-1.267166257004261
1684061944415745200,7.4011455078125,0.43504333489439395,1.2429771422328937,-1.161449551667579
1684061944425788100,7.4111884765625,0.31177258509204353,1.0115575791414317,-1.0324265955337324
1684061944435831000,7.4212314453125,0.21156549456650917,0.6991806029846448,-0.9244981408217935
1684061944445873800,7.431274169921875,0.10941123961818533,0.49919128419929276,-0.7989261151704938
1684061944455916600,7.441317138671875,0.028187990170597216,0.4020938873391329,-0.8775757551471036
1684061944465959600,7.451360107421875,7.820128796050847e-05,0.35515499114830457,-0.9111140967885967
1684061944476002600,7.46140283203125,-0.00038027781420024595,0.3269367219021839,-0.9185376166890703
1684061944486045400,7.47144580078125,-0.08539366708108165,0.30292892441070346,-0.9767044781392041
1684061944496088600,7.481489013671875,-0.18584918971612696,0.19215774544773592,-0.8843255639475711
1684061944506131100,7.491531494140625,-0.29309582725662897,0.040254592877494756,-0.8365733028423751
1684061944516174300,7.50157470703125,-0.4297103881023815,-0.07853221891577575,-0.6889874338959859
1684061944526217100,7.511617431640625,-0.7081685064711665,-0.140450477604324,-0.42119455330247657
1684061944536259800,7.52166015625,-0.8834307193730032,-0.10472869873311176,-0.17738914495877448
1684061944546302900,7.531703369140625,-1.009518861936143,-0.15024471291036207,-0.08119511621789227
1684061944556345800,7.54174609375,-1.2381761074458906,-0.26991558072127614,-0.07421767709576735
1684061944566388600,7.5517890625,-1.3023986815300275,-0.4020776749659701,0.10132122054121655
1684061944576431600,7.56183203125,-0.9722404481179324,-0.49379444113630444,0.3849143980518888
1684061944586474400,7.571874755859375,-0.507230997214753,-0.28864765178942653,0.47255408772237284
1684061944596517300,7.581917724609375,-0.30178403845255636,-0.14067935937980744,0.39876961712183395
1684061944606560200,7.591960693359375,-0.12160015092496086,0.15502357493762672,0.30535292636498623
1684061944616603100,7.60200341796875,-0.021171331354820317,0.29473686200788674,0.22143208970093062
1684061944626645900,7.61204638671875,-0.00804901113197541,0.448781967068056,0.10272073753442891
1684061944636688800,7.622089111328125,-0.009565591907349623,0.6110210419251575,0.03151154516810587
1684061944646731600,7.632132080078125,-0.002522468599185067,0.8713474274497797,-0.032617330590908884
1684061944656774600,7.642175048828125,-0.11203026770324785,1.00107192997761,0.131452441157917
1684061944666817500,7.6522177734375,-0.21116924285040387,1.1226072311362725,0.32741177079384004
1684061944676860300,7.6622607421875,-0.2971489430860632,1.2714028357197606,0.5412406921120688
1684061944686903200,7.6723037109375,-0.3103811741598401,1.2962741853269992,0.7410181760328023
1684061944696946100,7.682346435546875,-0.2841541766913619,1.2206425665428946,0.8405385017572674
1684061944706989000,7.692389404296875,-0.2565376758653105,1.0653352736358785,0.7667483090533438
1684061944717031900,7.702432373046875,-0.20584297186707656,0.8034477234393886,0.7003295420996961
1684061944727074700,7.71247509765625,-0.16587400422564955,0.6255540849045647,0.5627058743966429
1684061944737117600,7.72251806640625,-0.23470354070565225,0.5767831802527338,0.3460901976358456
1684061944747160600,7.732560791015625,-0.5143053530688108,0.5563678741949687,0.1439535616908447
1684061944757203400,7.742603759765625,-0.7177765370757595,0.5641994476196006,0.08673584468987151
1684061944767246300,7.752646728515625,-0.7407593726833387,0.5530414580368365,0.12015140056250803
1684061944777289100,7.762689453125,-0.782049417420503,0.5569753645992576,0.0862169266222943
1684061944787332000,7.772732421875,-0.7745730877666963,0.5232744217348616,0.02972519389467767
1684061944797374900,7.782775390625,-0.7264835835361951,0.4946355818136835,-0.15772974500906128
1684061944807417800,7.792818115234375,-0.7139217853890223,0.3469924927293345,-0.33485925189485377
1684061944817460600,7.802861083984375,-0.783088922406777,0.21735286705697854,-0.5085790753752739
1684061944827503600,7.812904052734375,-0.9784281254821066,0.21370601652923038,-0.5924250484410272
1684061944837546400,7.82294677734375,-1.1660232544134614,0.3242959977185254,-0.5937851668709456
1684061944847589300,7.83298974609375,-1.0998919009899975,0.520589828488045,-0.3740952014999398
1684061944857632200,7.843032470703125,-0.8212375641615713,0.8245363236696641,-0.26241463426871275
1684061944867675100,7.853075439453125,-0.4715907572846086,1.005032539301603,-0.28413748742683353
1684061944877717900,7.863118408203125,-0.19076681149600658,0.83829975131385,-0.38924407957137747
1684061944887760800,7.8731611328125,-0.028255462496958317,0.30272293095185,-0.38813883065950594
1684061944897803600,7.8832041015625,-0.1697773933256801,-0.521997451827542,-0.20890617357188918
1684061944907846600,7.8932470703125,-0.509080171645159,-1.360727310157702,-0.1441798805423572
1684061944917889500,7.903289794921875,-0.47361922275945106,-1.9685287476697797,-0.34592431785540234
1684061944927932300,7.913332763671875,-0.42736578001561915,-2.487039565983582,-0.505713462859633
1684061944937975200,7.923375732421875,-1.0836768149586904,-3.166308403044142,-0.5925523637459533
1684061944948018100,7.93341845703125,-2.5171487330589217,-3.9181957245295567,-0.4642250537623424
1684061944958061000,7.94346142578125,-3.440265178775864,-4.46632385242108,-0.06628072255457716
1684061944968103900,7.953504150390625,-2.640631437346703,-4.223988532896306,0.7533314228718687
1684061944978146700,7.963547119140625,-1.5675017834825975,-3.256566047717483,1.5276641845468748
1684061944988189600,7.973590087890625,-0.48813199999421286,-1.504175186174006,1.5589693783880114
1684061944998232600,7.9836328125,1.0367770194762849,0.3067789076897419,0.8156198859685019
1684061945008275400,7.99367578125,2.2454719544124506,1.678500652215362,-0.07640874378659299
1684061945018318300,8.00371875,2.7750012873313405,2.3868341444765044,-0.7564710377537001
1684061945028361100,8.013761474609375,2.9852278233869147,2.6907491682083817,-0.9448277950718583
1684061945038404000,8.023804443359374,2.9640791415972982,2.6288471220101988,-1.1895325184709709
1684061945048446900,8.033847412109376,2.757540226130945,2.4733538627902707,-0.8862302303394162
1684061945058489800,8.04389013671875,2.370980501166906,2.362111091586193,-0.8091907501147695
1684061945068532600,8.05393310546875,1.907733321136333,2.1439666747391337,-0.8436750173641631
1684061945078575600,8.063975830078125,1.648771405173933,1.594654083174733,-0.6733869908685196
1684061945088618400,8.074018798828124,1.4648325442809387,0.9541664122710997,-0.4163701534546979
1684061945098661300,8.084061767578126,1.5911657809689292,0.35714530949762846,0.16894604263219493
1684061945108704200,8.0941044921875,1.989611268007519,-0.06173133856071925,0.5660598278323399
1684061945118747100,8.1041474609375,2.228465557013799,-0.2067041396529752,0.6789288520835137
1684061945128789900,8.1141904296875,2.2785739897727137,-0.2217998503918364,0.6674080490871172
1684061945138832800,8.124233154296874,2.306827068151207,-0.21533298507355916,0.5055128336259874
1684061945148875600,8.134276123046876,2.2281270026107873,-0.16914939873604548,0.3790942429395905
1684061945158918600,8.144319091796875,2.158353805442309,0.006337165787964497,0.34505155697144757
1684061945168961500,8.15436181640625,2.035956144503327,0.12095546728367297,0.4209626019990871
1684061945179004300,8.16440478515625,1.8358833791648115,0.19029331212124398,0.5758099555997543
1684061945189047200,8.174447509765624,1.503766775172197,0.23235702507269948,0.820738136784789
1684061945199090100,8.184490478515626,0.9514749048192476,0.15302085862871573,1.0613617896557606
1684061945209133000,8.194533447265625,0.29451471567863863,-0.014816284197440646,1.3064671753221788
1684061945219175900,8.204576171875,0.10504335176524059,-0.11607265481231947,1.366808414367077
1684061945229218700,8.214619140625,0.17290446164199286,-0.13878440848581117,1.32887268060293
1684061945239261600,8.224662109375,0.18034139285169504,-0.3185443877725404,1.3001673222871715
1684061945249304600,8.234704833984376,0.20125833169514146,-0.9690589903836322,1.267501831037836
1684061945259347400,8.244747802734375,0.03744947910121488,-2.1766328812120097,1.1497813463511772
1684061945269390300,8.254790771484375,-0.28702723972431665,-2.806773185717155,0.28266549122148654
1684061945279433100,8.26483349609375,-0.1640734075992606,-2.691148757925873,-1.46909785281905
1684061945289476000,8.27487646484375,0.023430645521305717,-1.4350433350757508,-3.053068637785296
1684061945299518900,8.284919189453126,0.22489714619854545,0.492786407448225,-3.5011792183813246
1684061945309561800,8.294962158203125,0.13128745547887605,1.2890615463082045,-2.053532838912881
1684061945319604600,8.305005126953125,-0.22894960629551164,0.9466190339238416,-0.5664906501709992
1684061945329647600,8.3150478515625,-0.2028414605887443,0.5390577317261929,0.17358827585101458
1684061945339690400,8.3250908203125,0.18993732328805646,0.33192443845377784,0.5890581608032066
1684061945349733300,8.3351337890625,0.7172964810617728,0.5541858672604401,0.8932532072544674
1684061945359776200,8.345176513671875,1.1433675289210026,0.8013391494430252,1.0414878130456635
1684061945369819100,8.355219482421875,1.1186113357436382,0.8557739256921709,0.9136655331787158
1684061945379861900,8.365262451171875,0.9303218125782692,0.9018945694005285,0.8041974306131822
1684061945389904600,8.375304931640626,0.7580981255514354,0.9017734527757373,0.5690814258622094
1684061945399947400,8.385347900390625,0.4385759831310744,0.6932544707743106,0.3972412347881132
1684061945409990600,8.395390869140625,0.14348676798085608,0.46068763740304336,0.2555129528270563
1684061945420033200,8.40543359375,-0.14493313427542195,0.29496479046315544,0.3175067901800987
1684061945430076100,8.4154765625,-0.3697253764527,0.11695861822443031,0.3748404978264391
1684061945440119000,8.425519287109376,-0.555158019165735,-0.10924530031753142,0.4081399441461243
1684061945450161800,8.435562255859375,-0.7339847087244702,-0.29977321633457127,0.5310049058505977
1684061945460204600,8.445605224609375,-0.8010948299125271,-0.3589744566334396,0.6947393416981386
1684061945470247600,8.45564794921875,-0.7717047928340816,-0.3206720350577331,0.739824414274846
1684061945480290600,8.46569091796875,-0.6934660075820708,-0.2925624846919446,0.7431343793879172
1684061945490333400,8.475733642578126,-0.6540207863844483,-0.33164024359860544,0.7395421267745551
1684061945500376200,8.485776611328125,-0.6917676924620989,-0.3682546615825245,0.7282369136922133
1684061945510419100,8.495819580078125,-0.7552632687976337,-0.37602996830747243,0.7997006177971019
1684061945520462000,8.5058623046875,-0.8047155141348735,-0.3357534408838329,0.9651736021759161
1684061945530504900,8.5159052734375,-0.7490366697828447,-0.1878614425621334,1.0169101953418516
1684061945540547800,8.5259482421875,-0.5213090776131953,-0.133663177571405,0.9616098403481038
1684061945550590600,8.535990966796875,-0.4013714789903938,-0.1751871108715469,1.0616347789660208
1684061945560633600,8.546033935546875,-0.46104687458289,-0.1662282943877843,1.1865514517921294
1684061945570676400,8.556076904296875,-0.49891215555868335,-0.2406606674451475,1.2074353693617257
1684061945580719300,8.56611962890625,-0.41213154797793244,-0.23610973358809612,1.2567567827173842
1684061945590762200,8.57616259765625,-0.22959722570839186,-0.2627115251055345,1.3610455989388612
1684061945600805000,8.586205322265625,-0.04888141168956506,-0.3418073652955711,1.491290807688169
1684061945610847900,8.596248291015625,0.1825968623963207,-0.4565382005062284,1.6689028739907457
1684061945620890600,8.606291015625,0.4494411647754098,-0.4850950241000768,1.8796222209828979
1684061945630933400,8.616333740234374,0.6127809881370411,-0.6164932252413451,2.095163106877237
1684061945640976300,8.626376708984376,0.6970257760198879,-0.7239160539068744,2.3084061146531467
1684061945651019200,8.636419677734375,0.5921549201880739,-0.7668170930671743,2.533596277168389
1684061945661062100,8.64646240234375,0.35106924181067634,-0.8409404753363084,2.5296885966831186
1684061945671104900,8.65650537109375,-0.08251020314623247,-1.1179218291223538,2.1795313358641626
1684061945681147800,8.66654833984375,-0.5328754782914874,-1.7732095718768246,1.7537509203939021
1684061945691190600,8.676591064453126,-0.9271328448000037,-2.401827812170846,1.4710003137953265
1684061945701233600,8.686634033203125,-1.2910783291640724,-2.979778289839814,1.1922905445823107
1684061945711276500,8.6966767578125,-1.6598781346109004,-3.3445501326932203,1.0871647595604363
1684061945721319300,8.7067197265625,-1.816697835881632,-3.434286117555553,1.188392400781753
1684061945731362200,8.7167626953125,-1.729597449265142,-3.316619872974997,1.3643056152838546
1684061945741405100,8.726805419921876,-1.504668116652254,-3.0091257096753066,1.4618743657516067
1684061945751448000,8.736848388671875,-1.2843427659018487,-2.9089040754387465,1.5854138135609464
1684061945761490900,8.746891357421875,-1.1670743227647074,-2.8530912400614037,1.6853204963943138
1684061945771533700,8.75693408203125,-1.3548027276237224,-2.603539466889682,1.6515451669929737
1684061945781576600,8.76697705078125,-1.8617019652743785,-2.054838180509362,1.3464440107758604
1684061945791619200,8.77701953125,-0.9580317735758161,-1.0760784148838831,0.8589886427890978
1684061945801662100,8.7870625,0.7826955913728797,0.36646747584246614,-0.09919214244445052
1684061945811705000,8.79710546875,0.6822165251501737,1.5363111495826727,-0.849128007829505
1684061945821747900,8.807148193359374,0.3130165934985226,2.4209566115691716,-2.0982406138435823
1684061945831790800,8.817191162109374,0.8586817383502222,2.8177351951716845,-3.330089569090049
1684061945841833600,8.827234130859376,0.7829972505262202,2.151576995954124,-3.8633089064821147
1684061945851876600,8.83727685546875,0.6616441013023506,0.8746280669244738,-3.7728335857723594
1684061945861919400,8.84731982421875,0.48584020143785933,-0.23654174817101412,-3.163021802896477
1684061945871962300,8.85736279296875,1.0029752254448168,-0.7766714095602505,-2.2568416595111267
1684061945882005200,8.867405517578124,1.2881004809048324,-1.017739295961697,-1.2110371589513766
1684061945892048000,8.877448486328126,1.6712183953402249,-1.0503349303403393,0.013972997716529193
1684061945902090900,8.8874912109375,2.3829512596806013,-0.7039880753214272,0.7160277367329704
1684061945912133800,8.8975341796875,3.1712083816464274,-0.4534893036963516,1.2422453163198075
1684061945922176600,8.9075771484375,3.428033828695475,-0.5511550902492505,1.6551203727373929
1684061945932219600,8.917619873046876,2.8510739803606797,-0.8231115342143601,1.9846069812904603
1684061945942262200,8.92766259765625,2.095528602574388,-0.6430044174002202,1.8781703710654833
1684061945952305100,8.93770556640625,1.8571128844898064,-0.37339496621841634,1.7547159194479376
1684061945962348000,8.947748291015625,1.6887001990597683,-0.0263023376154329,1.697913169829359
1684061945972390800,8.957791259765624,1.7932660578489454,0.3456249237492579,1.3742864132834613
1684061945982433600,8.967834228515626,1.9803819657061157,0.7595081329863732,0.9629833700130345
1684061945992476600,8.977876953125,1.9873588086183642,1.120226860106497,0.39120316509140324
1684061946002519600,8.987919921875,1.8530037403519581,1.3446502686984805,-0.09036278732583952
1684061946012562400,8.997962646484375,1.648606061758664,1.4595217705629657,-0.5406696796560728
1684061946022605200,9.008005615234374,1.3626205921051038,1.4793133735928223,-0.9111461639577398
1684061946032648100,9.018048583984376,1.0010108947360443,1.3655781744963083,-1.2318253517415143
1684061946042691000,9.02809130859375,0.8362033366688045,1.1496200561681127,-1.4613597392545261
1684061946052733600,9.038134033203123,0.6307904719667347,0.801111221223781,-1.469398021687146
1684061946062776600,9.048177001953125,0.6031792163220523,0.5958700180268612,-1.4199843406005612
1684061946072819400,9.0582197265625,0.6868600844683646,0.4893188477825471,-1.250900507022566
1684061946082862300,9.0682626953125,0.7871203422384427,0.4793815613694137,-1.1630029679949145
1684061946092905100,9.078305419921875,0.8090813160756511,0.5367994308386808,-0.8734395504827283
1684061946102948000,9.088348388671877,0.8954231739055718,0.5818881989635659,-0.6541670559088427
1684061946112990900,9.098391357421876,0.8548715114088571,0.45847129811952053,-0.6213169097533575
1684061946123033800,9.10843408203125,0.8980493544321245,0.17580699931039998,-0.44820630552879953
1684061946133076600,9.11847705078125,0.8773200510349743,-0.08748912810042407,-0.39409410945796175
1684061946143119600,9.12852001953125,0.6897890567706492,-0.27104759209041773,-0.4154289961594504
1684061946153162400,9.138562744140623,0.39507532113714644,-0.3670234679361374,-0.42157959938113854
1684061946163205300,9.148605712890625,0.12728095062992448,-0.3432054518829996,-0.5414036514191277
1684061946173248200,9.158648681640624,-0.06143355372819456,-0.2573413848803313,-0.635454654680621
1684061946183290800,9.168691162109376,-0.23855900760519316,-0.21881198892525905,-0.678573846879518
1684061946193333600,9.178734130859375,-0.3052978514296187,-0.23581504830358893,-0.610688090264528
1684061946203376600,9.18877685546875,-0.2634978294162017,-0.19208145135790614,-0.6997226475170446
1684061946213419400,9.19881982421875,-0.11223030084813752,-0.02610969549244454,-0.611097454993291
1684061946223462300,9.20886279296875,0.03311061862542958,0.0198955535525112,-0.4190713167424148
1684061946233505200,9.218905517578126,0.3644187451408518,0.15961933148525947,-0.42048931118860555
1684061946243548100,9.228948486328123,0.609768867430153,0.2708444593735955,-0.440670967121184
1684061946253591000,9.238991455078123,0.8432340622739568,0.4002342224646045,-0.5974894762693752
1684061946263633800,9.2490341796875,1.123750925146129,0.5324544905509807,-0.7266736030590677
1684061946273676600,9.2590771484375,1.3421125410611887,0.7292299270181478,-0.7993596791302527
1684061946283719300,9.26911962890625,1.4486641884651628,0.9139509201303294,-0.8185664415345393
1684061946293762200,9.27916259765625,1.4056615831227157,0.9647536276931679,-0.7771190405639008
1684061946303805100,9.28920556640625,1.213860034907287,0.8718042372957534,-0.6826106309978844
1684061946313848000,9.299248291015624,0.8644440174378825,0.7494640350115207,-0.4876589775356756
1684061946323890900,9.309291259765626,0.5197033881181243,0.6052074430776341,-0.23568129543579255
1684061946333933700,9.319334228515626,0.19532418248854636,0.380381584099734,0.0276355744482261
1684061946343976600,9.329376953125,-0.21616697323591652,0.15936946864864898,0.3425148725809066
1684061946354019600,9.339419921875,-0.4949393272354409,0.08146762857603153,0.7079473733560075
1684061946364062400,9.349462890625,-0.6371281147699167,0.05177307131161049,0.9321033953753624
1684061946374105000,9.35950537109375,-0.6273999214760014,0.06378650669944547,0.861205339297584
1684061946384147900,9.36954833984375,-0.5405962466467675,0.07697772978053019,0.6155005693688267
1684061946394190800,9.379591064453123,-0.3524370194001271,0.1432485579754673,0.2089037894987581
1684061946404233600,9.389634033203125,-0.08866214753102475,0.26609134665863243,-0.2568180561081835
1684061946414276600,9.399677001953124,0.20546698577855102,0.4181709290707454,-0.6466664075977409
1684061946424319400,9.4097197265625,0.39928007123071263,0.4552087783901858,-0.8888884782051507
1684061946434362300,9.4197626953125,0.5107154846843135,0.39593601231444353,-1.0305061339358481
1684061946444405200,9.4298056640625,0.5803961754157133,0.24526977547262369,-1.1353484392652475
1684061946454447800,9.43984814453125,0.5575139521526401,0.08960819243387395,-1.0715090036283115
1684061946464490600,9.44989111328125,0.41789031037552654,-0.13526058201594332,-0.9016790390647291
1684061946474533600,9.459933837890626,0.28787875174994876,-0.3571538924778629,-0.6770458221349469
1684061946484576400,9.469976806640624,0.18408560749537223,-0.46824932095816185,-0.47344589231025513
1684061946494619300,9.480019775390623,0.08729076384083478,-0.42539501205737956,-0.34063827987124556
1684061946504662200,9.4900625,0.07813525215683954,-0.38376712804706187,-0.24370157717547714
1684061946514705100,9.50010546875,0.07494020479176544,-0.2880868912732582,-0.20044767871354774
1684061946524748000,9.5101484375,0.08978939066894051,-0.14554595937090278,-0.31675481786796994
1684061946534790800,9.520191162109375,0.16282129283951166,-0.008518218906035553,-0.3683667183088669
1684061946544833600,9.530234130859377,0.21197009080822418,0.16623401646599809,-0.5345041750749443
1684061946554876300,9.54027685546875,0.2603659630229271,0.3332042693775106,-0.7491159439109666
1684061946564919200,9.550319580078124,0.30257558827766234,0.3489484788473628,-0.9102952480260895
1684061946574962100,9.560362548828126,0.36837649347919627,0.24502086641606854,-1.0003993511317515
1684061946585005000,9.5704052734375,0.3823447227074252,-0.009451866033529575,-1.1083788871629143
1684061946595047900,9.5804482421875,0.3397765160116548,-0.3023567199223542,-1.2210190297113848
1684061946605090700,9.5904912109375,0.05600309381756827,-0.47027873997575287,-1.2292704583397862
1684061946615133400,9.60053369140625,-0.24348640447622888,-0.46977043147727027,-1.244722127909809
1684061946625176200,9.61057666015625,-0.3641920089892192,-0.2567529679804302,-1.1538705827514546
1684061946635219100,9.62061962890625,-0.4052741525931222,-0.20013809194668877,-1.0230598449945096
1684061946645262000,9.630662353515625,-0.6346290111336482,-0.3841886520757373,-1.0247211455431315
1684061946655304900,9.640705322265624,-1.0443055629553764,-0.7541933059391923,-1.029154539100227
1684061946665347800,9.650748046875,-1.5106296538820183,-1.0994462966945764,-1.0474195479320487
1684061946675390600,9.660791015625,-1.8678596020814684,-1.3878049850818763,-0.8928825856131859
1684061946685433600,9.670833984375,-1.7861778736052172,-1.4090843200812775,-0.4055757523439263
1684061946695476400,9.680876708984377,-1.2351653574451027,-0.9555749892839646,0.34563708312942576
1684061946705519000,9.69091943359375,-0.13186693192162421,-0.4867334365489839,0.7729613781000105
1684061946715561900,9.70096240234375,1.1681885720219347,-0.0010366440076965628,0.813112020493331
1684061946725604800,9.711005126953124,2.319799899895419,0.4899721144795896,0.675971269743536
1684061946735647600,9.721048095703123,3.042734861268692,0.8419475556761147,0.5827078819484275
1684061946745690600,9.731091064453125,3.17418766033465,1.0342855452495625,0.5106687544913017
1684061946755733400,9.7411337890625,2.725629568015604,1.2057437896544272,0.40979266153314914
1684061946765776300,9.7511767578125,1.9443331955910967,1.279587745681605,0.18539667121390802
1684061946775818900,9.76121923828125,0.991448998597172,1.1629743576369862,0.007993221323050742
1684061946785861800,9.77126220703125,0.3439968823687484,0.8482513428072718,0.047113656960768954
1684061946795904600,9.78130517578125,0.49763393397212924,0.32037162796016966,0.34948205950316835
1684061946805947600,9.791347900390624,1.0659463405836689,-0.14791870130002716,0.6536474227728168
1684061946815990400,9.801390869140626,1.5601427554875829,-0.47391319277507715,0.8685984612877584
1684061946826033300,9.811433837890624,1.7494460343395473,-0.72455310821083,1.0277880429449446
1684061946836076200,9.8214765625,1.711488366073408,-0.8695135116487672,1.0784375666078356
1684061946846118800,9.831519287109376,1.4186854363559769,-1.015199661384687,0.9997798203483553
1684061946856161600,9.84156201171875,1.030251860710761,-1.1648244858950687,0.83984458445976
1684061946866204600,9.85160498046875,0.5869987010155324,-1.301851272524428,0.6118130684692472
1684061946876247600,9.86164794921875,0.4034776687371904,-1.235095977804399,0.38441824918921663
1684061946886290400,9.871690673828123,0.5875319838868741,-1.0192184448089123,0.23152017584756832
1684061946896333200,9.881733642578125,0.9779467582655288,-0.7967653274846791,0.19377446185139105
1684061946906375900,9.8917763671875,1.340417265873162,-0.5213689803326625,0.20403361307704151
1684061946916418700,9.901819091796876,1.5645005701941959,-0.17609119431389816,0.157262563570131
1684061946926461600,9.911862060546875,1.6273174287232997,0.1193227767195127,0.10376024245303887
1684061946936504600,9.92190478515625,1.7145178316912293,0.2262573240953108,0.2058374881094868
1684061946946547400,9.93194775390625,1.7366735934401656,0.28811645506421657,0.3083279133178468
1684061946956590300,9.94199072265625,1.64518380181225,0.3164443969811197,0.35986220846150097
1684061946966633100,9.952033447265626,1.4516736270609565,0.38249969483769536,0.35439407826677083
1684061946976675800,9.962076171875,1.1439720392929784,0.2708721161884524,0.3668636082581623
1684061946986718600,9.972119140625,0.7604186534990705,0.14184188851932472,0.3684415817839474
1684061946996761600,9.982161865234374,0.5335215330554144,-0.021014213558341117,0.3461215495727517
1684061947006804400,9.992204833984376,0.5057753920898957,-0.14791679384464287,0.3113377094649039
1684061947016847300,10.00224755859375,0.3704115152496724,-0.13138008114608704,0.13843989367160173
1684061947026890200,10.01229052734375,0.28518730409877924,-0.15307617196554366,0.07400989523286183
1684061947036933000,10.02233349609375,0.20563584567998958,-0.124461173997662,0.05096173282153194
1684061947046975600,10.0323759765625,0.08018106226653281,-0.009988784782730933,0.08841729179154165
1684061947057018600,10.0424189453125,-0.08821904660390034,0.06805038440656887,0.20298230665658554
1684061947067061400,10.0524619140625,-0.15547680859468282,0.14070510867772232,0.41286575799622777
1684061947077104300,10.062504638671877,-0.09602230795516477,0.21038341528387677,0.6551955937983326
1684061947087147200,10.072547607421876,0.03054368492441321,0.2056055068984016,0.9268288611700124
1684061947097190100,10.082590576171874,0.13505780686925942,0.21490192423681032,1.0848245619605983
1684061947107232600,10.092633056640626,0.41350138199721825,0.20463085170768736,1.162178754732517
1684061947117275600,10.102676025390624,0.7315520047628562,-0.042319297656438305,1.3001453877376061
1684061947127318400,10.11271875,0.8137674332340699,-0.37242889413920227,1.2906260490494406
1684061947137361300,10.12276171875,0.773863792421812,-0.7043170927344133,1.176799654967169
1684061947147404200,10.1328046875,0.6660913228995876,-0.9114551542889658,0.9802341462046237
1684061947157447100,10.142847412109376,0.42522054907777296,-1.0418615341163953,0.6264766453776549
1684061947167489600,10.15289013671875,0.3763353526832222,-0.964324951185725,0.2924373151618528
1684061947177532600,10.16293310546875,0.3841470478956065,-0.6770935058934686,-0.10220265398962199
1684061947187575500,10.172975830078125,0.4811767934700272,-0.43134498584959197,-0.3210750817799891
1684061947197618400,10.183018798828124,0.6278545854670384,-0.2125501631825456,-0.4125431775751237
1684061947207661200,10.1930615234375,0.7328326106520702,-0.018185615449768038,-0.4845792055676178
1684061947217704100,10.2031044921875,0.801175355808843,0.13272190082495472,-0.5063439607866362
1684061947227747000,10.2131474609375,0.8644584417243529,0.1662120819274733,-0.44685375684131656
1684061947237789600,10.22318994140625,0.8755301236245475,0.1709928513531525,-0.3974765539902994
1684061947247832600,10.23323291015625,0.8208878635386453,0.2762079238441156,-0.33508574962094806
1684061947257875400,10.24327587890625,0.7517516612806103,0.41948890685630347,-0.3529134988450545
1684061947267918300,10.253318603515623,0.6613169908244307,0.42146968850412636,-0.38553428650761756
1684061947277961100,10.263361572265625,0.6084123848999252,0.3803386687724387,-0.480025649009403
1684061947288004000,10.273404296875,0.6889445782866421,0.3439216612703594,-0.551919221790957
1684061947298046600,10.283447021484376,0.719257712512051,0.2834835052631317,-0.6243702173031072
1684061947308089600,10.293489990234375,0.7488489151976438,0.21823310866053874,-0.5804029703749578
1684061947318132400,10.30353271484375,0.7500144243904134,0.22922039040697284,-0.43403339401171737
1684061947328175300,10.31357568359375,0.7366036772903769,0.1681566239120267,-0.21680271612762655
1684061947338218200,10.32361865234375,0.7051827909129328,0.14035701759264924,0.013222694396981758
1684061947348260800,10.3336611328125,0.6775376797847491,0.13624191289052995,0.22223997123049777
1684061947358303600,10.3437041015625,0.6957741976084338,0.1200580596837365,0.359693765567306
1684061947368346600,10.353746826171877,0.6867696046848429,0.05605602265683326,0.3852015733009578
1684061947378389400,10.363789794921876,0.6803820132726078,-0.06267642963076193,0.42274045947815564
1684061947388432300,10.373832763671874,0.7261784076026753,-0.1117372511912601,0.3930827379660292
1684061947398474900,10.383875244140626,0.707434296606861,-0.13430023198695373,0.2413980960795057
1684061947408517800,10.393918212890624,0.6162779926826646,-0.0803661346481086,0.10424745088077196
1684061947418560600,10.403961181640623,0.538266181966732,-0.036222457728543614,-0.02995657916395635
1684061947428603600,10.41400390625,0.45051586642393754,0.04113864891278543,-0.07534754281429884
1684061947438646400,10.424046875,0.41766095158951766,0.051250457782444615,-0.13434123997415112
1684061947448689300,10.43408984375,0.4365710019911728,-0.11803913115369884,-0.12276899816229789
1684061947458732000,10.44413232421875,0.41121780877639325,-0.14619064345066415,-0.03164517895342298
1684061947468774800,10.45417529296875,0.45607322457171134,-0.06457710270721022,0.03130805490165163
1684061947478817600,10.464218017578125,0.5012424586727356,-0.10275268549780373,0.06870234021799336
1684061947488860600,10.474260986328124,0.50151240837768,-0.1481075286884754,0.16381728648778363
1684061947498903600,10.484303955078126,0.4834555387012684,-0.13137626644446274,0.18518161775959305
1684061947508946400,10.4943466796875,0.40917983644396394,-0.20086860649131144,0.1668889523012948
1684061947518989000,10.504389404296877,0.2889245450337662,-0.21302032468031498,0.15644204624994396
1684061947529031900,10.514432373046876,0.2016876636590724,-0.12974643723877882,0.1489233971165747
1684061947539074700,10.52447509765625,0.13478389392452894,-0.04913806906339702,0.12258577343664505
1684061947549117600,10.53451806640625,0.11831175542690633,0.030779838604969377,0.0787457225910271
1684061947559160200,10.544560546875,0.0700015948506617,0.1351737976258853,0.036207318279289316
1684061947569203100,10.554603515625,0.004213601412063182,0.21892356890000028,-0.026317715612321692
1684061947579246000,10.564646484375,-0.021309047832810075,0.22348690019457096,-0.05192530148956466
1684061947589288900,10.574689208984376,0.031364440917794785,0.18311119083143884,-0.11178100107660396
1684061947599331800,10.584732177734375,0.15653884417825512,0.1267986297377672,-0.20536255826324104
1684061947609374600,10.594775146484375,0.2751689850796876,0.05479335785304219,-0.2543222904911319
1684061947619417300,10.604817626953125,0.3449239730035016,0.009757995578890025,-0.3184009790388035
1684061947629460100,10.614860595703124,0.4581280946822785,-0.03231525416711124,-0.3619537353171172
1684061947639503000,10.6249033203125,0.449637144855974,-0.07630920396498066,-0.44829189787210566
1684061947649545900,10.6349462890625,0.4161393940203885,-0.0962362288215273,-0.4781658648310653
1684061947659588800,10.6449892578125,0.42653471244401187,-0.06657314298783323,-0.5138967037094405
1684061947669631400,10.65503173828125,0.4846069217343353,-0.004663467325936168,-0.5198948383052459
1684061947679674300,10.66507470703125,0.5372087955495531,0.07248306271114469,-0.48728775971127924
1684061947689717200,10.67511767578125,0.5744214653596327,0.15750980392544167,-0.4730410576444232
1684061947699760000,10.685160400390624,0.5190631149344785,0.21493816359675463,-0.47437930105220744
1684061947709802900,10.695203369140623,0.4294908344355628,0.19583606720061422,-0.36180329315715204
1684061947719845600,10.705245849609376,0.3981277644608058,0.1885423660254773,-0.3159656526008567
1684061947729888400,10.715288818359374,0.38123267890129897,0.12927818291314017,-0.20386004447543254
1684061947739931300,10.725331787109376,0.2630468607020836,0.10606002799337845,-0.09743332853565166
1684061947749974200,10.73537451171875,0.12305012347792531,0.07589149467809055,-0.010645866396840372
1684061947760017100,10.74541748046875,0.015216782558690613,-0.0128850935726544,-0.011547565486345883
1684061947770059600,10.755460205078125,-0.012254357489847672,-0.06979751581729184,-0.004725694598025044
1684061947780102600,10.7655029296875,-0.02945942061126204,-0.16130161272815666,0.0073544979233583305
1684061947790145500,10.7755458984375,-0.04797997695758991,-0.19273662556348664,0.00608277325272352
1684061947800188300,10.785588623046875,-0.0619804971016827,-0.2451372146753312,0.04107117639176114
1684061947810231000,10.79563134765625,-0.07944192003507103,-0.2875671386228699,0.09298896791706662
1684061947820273800,10.80567431640625,-0.09409070760625034,-0.30610370629415284,0.14762854563277633
1684061947830316600,10.815717041015626,-0.12311814727403975,-0.31518554693157375,0.16935801492208008
1684061947840359600,10.825760009765624,-0.24869427085875634,-0.37847805025585174,0.21975779523447436
1684061947850402600,10.835802978515623,-0.42456710341955184,-0.4454898833125073,0.25070142742506313
1684061947860445400,10.845845703125,-0.6176083088412713,-0.5585060120198927,0.27869796741123226
1684061947870488000,10.855888427734374,-0.767908811578246,-0.7097215654176405,0.2634773254707534
1684061947880530900,10.86593115234375,-0.8600924611719474,-0.8231554031408052,0.35814547539770475
1684061947890573700,10.87597412109375,-0.6038345099615335,-0.727583885207077,0.487362384919427
1684061947900616600,10.88601708984375,-0.21492068464827666,-0.5207414626955197,0.4931020737468466
1684061947910659200,10.8960595703125,0.08917661008224977,-0.33625030501288317,0.4669382571983623
1684061947920702100,10.9061025390625,0.1600543559807542,-0.10307216627732806,0.41404485702890764
1684061947930745000,10.9161455078125,0.0906652807562346,0.08820438375057439,0.11178112027607877
1684061947940787900,10.926188232421875,0.27870786200288783,0.2782268524775959,-0.11837387086404523
1684061947950830800,10.936231201171877,0.3615208864609582,0.3730716705650828,-0.3404393196369988
1684061947960873400,10.946273681640625,0.26826509834362144,0.4612159727714477,-0.6068184375372665
1684061947970916300,10.956316650390624,0.07830500605620859,0.5070533753528447,-0.7902116774680653
1684061947980959200,10.966359619140626,-0.27604252100796406,0.5247354507146411,-0.8783247471372894
1684061947991002000,10.97640234375,-0.33206099259907834,0.5234441757513778,-1.1115088461912175
1684061948001044600,10.986445068359377,-0.2077033520655307,0.4875516891804233,-1.2367646692841994
1684061948011087600,10.996488037109376,-0.2277376651519894,-0.061952590906532885,-1.3625373840358732
1684061948021130400,11.00653076171875,-0.5061358213526089,-0.7643575670049388,-2.1803748607722433
1684061948031173300,11.01657373046875,-1.4459556340832882,-1.0211439132213982,-1.5389447213725838
1684061948041215900,11.0266162109375,-1.043773651031565,-1.1169977187352742,-1.6727325916575604
1684061948051258800,11.0366591796875,0.031226396578674407,-1.6645555495911937,-1.0407028198988961
1684061948061301600,11.0467021484375,1.3364738225778314,-1.8057613371966683,-0.8462359906300838
1684061948071344600,11.056744873046876,2.0020909308128862,-2.033367156963434,-1.0331897735397475
1684061948081387400,11.066787841796875,2.203847169918387,-1.4388895034693303,-0.9188089371272676
1684061948091430100,11.07683056640625,2.292521953745423,-0.3079214095448769,-0.6051621437616612
1684061948101472900,11.086873291015625,2.703972816430417,0.3939676284329445,-0.04466676702209501
1684061948111515800,11.096916259765624,3.445181608144897,0.28838443765467886,0.8659665583144589
1684061948121558600,11.106958984375,3.9499785900518356,0.013098716685079404,1.1021635532314364
1684061948131601300,11.117001708984375,3.825083732572373,-0.06827545163427916,1.0022308827007655
1684061948141644200,11.127044677734377,3.732915639904426,0.1387214659032718,0.7783098221097138
1684061948151687100,11.13708740234375,3.6470637321918558,0.30024719240104686,0.778069496084835
1684061948161730000,11.14713037109375,3.366088151848027,0.38533782967615643,0.6626706124501001
1684061948171772600,11.157173095703126,2.823270082446948,0.5587453841627936,0.7196578980135412
1684061948181815500,11.1672158203125,2.0407354831772686,1.0416545867817866,0.6564030647999438
1684061948191858400,11.1772587890625,1.2358423470946294,1.5472593306693994,0.3542802333966238
1684061948201901200,11.187301513671876,0.4361338615547899,1.7012500762898377,0.007840394988940798
1684061948211944100,11.197344482421874,-0.35235285760070484,1.7132720947414226,0.04408073415312356
1684061948221986700,11.20738720703125,-0.9379906654489217,1.6337327958111858,0.2127199172648219
1684061948232029600,11.217429931640623,-1.2812128066999995,1.555378913851709,0.18632507317297822
1684061948242072600,11.227472900390625,-1.5702879430241365,0.922264099001021,0.06408596025985468
1684061948252115400,11.237515869140625,-1.7501997948213195,0.16157436375796377,-0.21185803397544067
1684061948262158000,11.247558349609376,-2.013556480391601,-0.5073194503502937,-0.45486950863768333
1684061948272200900,11.257601318359375,-2.1705474854639384,-1.0052652358151535,-0.37806057931430975
1684061948282243800,11.26764404296875,-2.2538702487603,-1.1824331282743548,-0.13455033288795085
1684061948292286400,11.277686767578125,-2.341296911243751,-1.0571107865333307,0.14801263816176075
1684061948302329300,11.287729736328124,-2.2674670220231348,-0.4161081312734793,-0.2023203372801624
1684061948312372100,11.2977724609375,-1.495097398799116,0.44639301295077594,-0.35244321818421936
1684061948322415000,11.3078154296875,-0.5193223953635421,0.7625980377603004,-0.4321794510837906
1684061948332457900,11.3178583984375,0.3005862235484203,0.8284416198602295,-0.2725503445247713
1684061948342500600,11.32790087890625,0.7304952143350675,0.797959327657348,0.1773526670034661
1684061948352543400,11.33794384765625,0.9741033316200836,0.8481168746780251,0.6453294753826966
1684061948362586300,11.347986572265626,1.0435171127221816,0.6770153046153355,0.9335384368889585
1684061948372629200,11.358029541015624,1.0956517457661163,0.2925329209518443,1.162229299581566
1684061948382671800,11.368072265625,1.1953092812935355,-0.201081275931506,1.2731482981770395
1684061948392714600,11.378114990234376,1.3234535455785477,-0.6641407013284908,1.3930394648839108
1684061948402757600,11.388157958984374,1.3350639344831299,-0.9201879501649314,1.3289306164150465
1684061948412800400,11.398200927734376,1.1602581740659959,-0.7707357405284665,1.0920159815967905
1684061948422843100,11.408243408203123,0.870166420807671,-0.4977912901515699,0.8655290604634671
1684061948432885900,11.418286376953125,0.4880007505328538,-0.08396720889222364,0.6576330662114723
1684061948442928800,11.4283291015625,0.035208940376027,0.24237442025686562,0.5303034780908225
1684061948452971600,11.4383720703125,-0.5183215140631335,0.4043750763556353,0.46462368963939915
1684061948463014300,11.448414794921876,-1.2024111748414739,0.5935068130868993,0.31229257592490894
1684061948473057200,11.45845751953125,-1.8296205998166186,0.8192706107898583,-0.004820585206318536
1684061948483100100,11.46850048828125,-2.0633466244796925,1.2551922797010255,-0.5161957739788152
1684061948493143000,11.47854345703125,-1.7991724015970236,1.8540163040729645,-1.2736563681689541
1684061948503185600,11.4885859375,-1.462498903263378,2.252966880841438,-1.9702734946779032
1684061948513228500,11.49862890625,-1.3689370155426663,2.055622100977204,-2.336850643200221
1684061948523271300,11.508671630859377,-1.3714840410430422,1.4224634169251729,-2.3567819595311517
1684061948533314200,11.518714599609376,-0.9232063294634761,0.7344808578209086,-1.901325464334597
1684061948543356800,11.52875732421875,0.022491216663056663,0.09998130795269779,-1.1298282144976632
1684061948553399600,11.538800048828126,0.7594370842093741,-0.3533573151206825,-0.3595926761553172
1684061948563442600,11.548843017578124,1.5746784209706608,-0.8067808152762592,0.4628050326893549
1684061948573485200,11.5588857421875,1.9045386313937804,-1.1936235427401325,1.1538789272428558
1684061948583528100,11.568928466796876,1.5801501272468073,-1.4007596968337708,1.5670483111717886
1684061948593571000,11.578971435546874,1.015514254445652,-1.2237415313485862,1.5534934996564163
1684061948603613900,11.58901416015625,0.3488314152646265,-0.7598247526864352,1.3656375409731456
1684061948613656600,11.599056884765623,0.07768440230146297,-0.11584568015697724,1.1255035401416762
1684061948623699400,11.609099853515623,0.016813993459537886,0.5002374648244945,0.8389267923197914
1684061948633742300,11.619142578125,-0.07190752029703473,0.9523820877659163,0.5959420202727297
1684061948643785100,11.629185546875,-0.25386142727106276,0.9730000496213039,0.38049316413877166
1684061948653827800,11.639228271484376,-0.5306847095105908,0.7458424569270596,0.33863830548980123
1684061948663870600,11.64927099609375,-0.7612924577630752,0.17328643785687078,0.32254719733681014
1684061948673913600,11.65931396484375,-0.8423035143505361,-0.5309877395409568,0.28349947928600927
1684061948683956400,11.669356689453124,-1.1266160010321533,-1.154048919738681,-0.002077817972968433
1684061948693999000,11.6793994140625,-0.9651615619420596,-1.548427581817089,-0.11679935450278771
1684061948704041900,11.6894423828125,0.3953609466942619,-2.222558975138412,0.3347373007262764
1684061948714084800,11.699485107421877,0.38787889487883537,-2.182461738455396,0.0856049060352258
1684061948724127600,11.709528076171877,0.3741700650524431,-1.6044454574628577,-0.29557299618563215
1684061948734170300,11.71957080078125,0.5684251785393692,-0.8971328735651283,-0.4101381302140255
1684061948744213200,11.729613525390626,0.6877887248570257,-0.018034934975772035,-0.1876692773186884
1684061948754256000,11.739656494140624,0.8831164836665508,0.704716682578919,0.24481368077763488
1684061948764298600,11.749698974609377,1.0245082379314683,1.0154533384499596,0.6649796964054329
1684061948774341600,11.759741943359376,1.0226862430354446,0.9243583680138565,0.9854812623395182
1684061948784384400,11.769784912109374,0.6280744074609453,0.4378728867174176,1.1846513747817637
1684061948794427100,11.779827392578126,0.3520264624849893,-0.27770423889370144,0.8964507579804858
1684061948804469900,11.789870361328123,0.06846237183234274,-0.9628887175480658,0.6477353571159781
1684061948814512800,11.799913330078123,0.02020406734922358,-1.3104219436226723,0.33238863929562984
1684061948824555600,11.8099560546875,0.07266569140593743,-1.3872394562057742,0.25155472753568736
1684061948834598300,11.819998779296874,-0.0380809307151458,-1.0893182755244681,0.23407340055739487
1684061948844641200,11.83004150390625,-0.04851150503869336,-0.524018287800259,0.2340152261900683
1684061948854684100,11.84008447265625,-0.11220932009958068,-0.03207111350651191,0.03432631495705671
1684061948864727000,11.85012744140625,-0.16758441929353005,0.17830181121761698,0.23688173304722998
1684061948874769600,11.860169921875,0.006956577352483556,0.1665496826167766,0.1763157843061709
1684061948884812500,11.870212890625,-0.005067825393458038,0.1048955917434417,0.14733719806413229
1684061948894855300,11.880255859375,-0.15032100678193933,0.16412544233880366,0.18525385848863415
1684061948904898000,11.89029833984375,-0.4088439941806869,0.04355239877654225,0.03112864492676663
1684061948914940800,11.90034130859375,-0.7879328728257978,0.042916297878911575,0.3173565864250782
1684061948924983600,11.910384033203124,-0.7421131133181879,0.006129264638398733,0.6301386356651628
1684061948935026600,11.920427001953126,-0.48624563218202915,-0.03823661812740963,1.1570012571291381
1684061948945069200,11.9304697265625,-0.42938280108027466,-0.1888418197532607,1.319178819531645
1684061948955112100,11.940512451171877,-0.3165588377874754,-0.5752696991207495,1.6079527140576966
1684061948965155000,11.950555419921876,-0.4054923058042237,-0.4216699599910432,1.6676592827024361
1684061948975197900,11.960598388671874,-0.22250700003516394,-0.3047924042461739,1.5728204249125823
1684061948985240600,11.970640869140626,-0.08583259590289877,0.10759353626067725,1.3026170730180218
1684061948995283400,11.980683837890624,-0.11123228079828681,0.46142482769044685,1.0684227944879965
1684061949005326300,11.9907265625,-0.35731554041169405,0.5118808746941598,0.49302816383324266
1684061949015368900,12.000769287109376,-0.49115896220543775,0.5592107773308469,0.1054201124672114
1684061949025411800,12.010812255859374,-0.33083152771403246,0.6133508681103472,-0.06017398844445671
1684061949035454600,12.02085498046875,0.07793855657272522,0.42107486721669113,-0.11941957476646406
1684061949045497300,12.030897705078123,0.2580447195899292,0.5551209447994493,-0.10600471491662714
1684061949055540100,12.0409404296875,0.1236224173952978,0.6087312699829972,-0.29516029372222874
1684061949065583000,12.0509833984375,0.1381011008223283,0.43592023849120587,-0.3668520451121626
1684061949075625600,12.061026123046876,-0.08937692635322453,0.2427053453016663,-0.2200105188465163
1684061949085668600,12.07106884765625,0.018791675439919147,0.02783250794710935,-0.1856958866710512
1684061949095711400,12.08111181640625,0.07045078269054353,0.03054237374878099,-0.015484332961001821
1684061949105754300,12.09115478515625,-0.1474180221735972,0.2353110313598186,0.14384770386530227
1684061949115796900,12.101197265625,-0.1491150856462835,0.3272037506975168,0.4519228935568386
1684061949125839800,12.111240234375,-0.2124786377288743,0.05993890771654628,0.7401795389085788
1684061949135882600,12.121282958984375,-0.2565593719335282,-0.035469055004623926,0.844534873807354
1684061949145925300,12.13132568359375,-0.23420381535713924,-0.1309428213822699,0.7869513033907696
1684061949155968200,12.14136865234375,-0.17975854877727562,-0.36413049686852433,0.36656355852453176
1684061949166011100,12.151411376953124,-0.153409004168169,-0.4770040511243716,0.05337405212462645
1684061949176053900,12.161454345703126,-0.1221709251581816,-0.4592308998180343,-0.13512611380476916
1684061949186096600,12.1714970703125,0.1320409773978238,-0.3031091690677735,-0.28225040445737604
1684061949196139400,12.181539794921877,0.2112693785348431,-0.04373455051030128,-0.4734096526891965
1684061949206182300,12.191582763671876,0.2374053002071191,0.09023094164508609,-0.6080520153978385
1684061949216224900,12.201625244140626,0.2724518774797735,0.08515071877489372,-0.6891443729838406
1684061949226267800,12.211668212890626,0.2822871207485871,0.12382888788198161,-0.6436638833162285
1684061949236310600,12.221711181640623,0.2211771009785178,0.05894470223838073,-0.5851030349904487
1684061949246353300,12.231753662109377,-0.05554723730031235,0.08646392823231937,-0.626528739913024
1684061949256396200,12.241796630859374,-0.29773092270367146,0.15368032453633723,-0.4350123405076993
1684061949266439100,12.251839599609376,-0.33433580406313296,0.12029027941653063,-0.24045991906491904
1684061949276481600,12.261882080078124,-0.2886176110005253,0.02251911154982121,-0.022737979956022683
1684061949286524600,12.271925048828123,-0.18445730224849796,0.05295085900735074,0.22441959388269853
1684061949296567500,12.2819677734375,-0.12272691724541977,0.24272775646426428,0.1927411556429843
1684061949306610400,12.2920107421875,-0.1390390395749386,0.1787657736377289,0.1948919297106981
1684061949316653000,12.302053466796876,-0.29711961733511705,0.08532238011609407,0.176649093618812
1684061949326695900,12.31209619140625,-0.3740553854255707,-0.014467239494669559,0.09350061417342738
1684061949336738700,12.32213916015625,-0.30811357493236785,-0.11813831326281185,0.11049079897624266
1684061949346781400,12.332181640625,-0.27172756189807445,-0.1446094512980808,0.036706924568319026
1684061949356824200,12.342224609375,-0.35077095035566724,-0.21895980822917255,-0.10976266860535616
1684061949366867100,12.352267578125,-0.5137648583141871,-0.2981758117385106,-0.097129821814035
1684061949376909700,12.36231005859375,-0.30991077429527725,-0.304378986390629,0.06799173369193642
1684061949386952600,12.37235302734375,-0.1375722883734496,-0.15533828735988187,0.16240167620076632
1684061949396995600,12.38239599609375,-0.06571626648542205,-0.12128591539056283,0.21227741238857484
1684061949407038100,12.3924384765625,-0.09631633759968918,-0.04733085646230736,0.16123914720647894
1684061949417081000,12.4024814453125,-0.1231737136860034,-0.015230178751042526,0.20981884005041884
1684061949427123900,12.412524169921875,-0.12371110912874358,-0.006006717635158285,0.21111965168012434
1684061949437166600,12.42256689453125,-0.14044952399675514,0.025097370156676402,0.12989234922333917
1684061949447209400,12.43260986328125,-0.1777253149660868,0.0656437873702098,0.06210517876066899
1684061949457252300,12.442652587890626,-0.20886802680583372,0.08686542502937737,-0.006884574985583971
1684061949467294900,12.4526953125,-0.20547103876314593,0.11750793472856998,-0.1055002212983354
1684061949477337800,12.46273828125,-0.12778520581933153,0.1602053641698831,-0.24749851221916547
1684061949487380600,12.472781005859376,-0.09489202494098187,0.17440366740954827,-0.3670539857251663
