time,seconds_elapsed,z,y,x
1684179845180603600,0.02900390625,1.3820388569855132e-10,-1.5881423421327277e-10,-6.901630327556526e-11
1684179845190644600,0.039045166015625,-0.36027860640575804,0.048616886064683396,-0.058544158877568975
1684179845200685700,0.049086181640625,-0.376144886083964,0.08906269075246864,0.2786118983948913
1684179845210726800,0.059127197265625,0.03621196739804167,0.1509299277920784,0.1520493030316142
1684179845220767600,0.06916796875,0.4289727211140968,-0.0094761848893537,0.416389703768393
1684179845230808800,0.079209228515625,0.2680373191608211,-0.567350864486286,-1.3312308787637321
1684179845240849800,0.089250244140625,0.8470711708080706,-0.5804471971115592,-0.5874931812246866
1684179845250890600,0.099291015625,0.8735508918634777,-0.2257289886576548,-0.5828399658654541
1684179845260931800,0.109332275390625,0.7551774978936845,0.029778003698924634,-0.07129216192818902
1684179845270972600,0.119373046875,0.13636875145962662,-0.27110624317041176,-0.12103486057897042
1684179845281013600,0.1294140625,-5.727048397067717,-0.221653461578341,0.5451071262174172
1684179845291054800,0.139455078125,0.4688806532599438,0.8546595571898078,0.677281379693064
1684179845301095600,0.14949609375,1.0385661123939032,-0.0214719773157585,0.9411706924142875
1684179845311136600,0.159537109375,-0.5240311623365993,-0.2665061949150793,0.5152311325989322
1684179845321177800,0.169578125,-0.38189744946794235,-0.1735877990115442,0.5493416786147729
1684179845331218900,0.179619384765625,-0.5389504432937737,0.13559913629709908,0.2882871626960874
1684179845341259600,0.18966015625,-0.765326022936678,-0.407306194274762,0.4306297303890248
1684179845351300800,0.199701171875,-0.9601192475161177,-0.18693542474128635,0.4286208151208674
1684179845361341900,0.2097421875,-0.34586620334339874,-0.33291244510405,-0.31231069569250525
1684179845371382600,0.219783203125,-0.07685136807545427,-0.3938994408436849,-0.21863603588017663
1684179845381423800,0.22982421875,1.1837468147256698,0.30165719990931733,-2.3774969577845577
1684179845391464600,0.239864990234375,-0.32689189916001615,-0.41651153551735515,0.04359960553234742
1684179845401505600,0.249906005859375,0.9986405371849502,-0.2735719681370608,0.20325946812995635
1684179845411546800,0.259947265625,0.28275966632455424,0.4959254264788008,-1.2096662520512278
1684179845421587600,0.269988037109375,0.37545442568023324,0.12388801577672724,0.4376921653394881
1684179845431628600,0.280029052734375,1.0088515281526609,0.5653815270413348,-1.3962922095728405
1684179845441669800,0.2900703125,1.6548709867795524,0.5777158737826582,-1.2523865700560761
1684179845451710900,0.300111328125,2.6167454718766168,0.5802679060673235,-1.4602260590039964
1684179845461751600,0.310152099609375,3.2923479079393854,0.46095943449496646,-0.23077344906821992
1684179845471792800,0.320193115234375,4.282394409179781,1.7005932331704106,1.1616072655278618
1684179845481833900,0.330234375,0.2022309304100127,0.3921496868417965,0.9550604819664313
1684179845491874700,0.340275146484375,-2.2184507846713153,0.693208456013429,-0.512468814832834
1684179845501915800,0.350316162109375,-3.1835615635934227,1.1493999958092393,-1.2511792181923587
1684179845511956600,0.360357177734375,-3.862139940423024,-0.1324021815727334,0.430654525649918
1684179845521997700,0.370398193359375,-2.729275226586195,0.23140907292256332,0.5937280654327852
1684179845532038800,0.380439208984375,-2.276817560216571,1.039815187475984,1.2191443442987793
1684179845542079600,0.39047998046875,-1.3990514278583328,0.8367145060599018,1.2196707725395133
1684179845552120800,0.400521240234375,-2.2706429958193746,0.13703155526447833,1.6820840833911939
1684179845562161800,0.410562255859375,-2.466598272502931,-0.05195236198211841,0.305649280669745
1684179845572202900,0.420603271484375,-1.497383355997987,-0.03319406511522923,-0.6478056908866321
1684179845582243800,0.43064404296875,-0.18800497041416692,0.15464568149406116,-1.2710762023961135
1684179845592284800,0.440685302734375,0.24431657799309453,0.3407869338662756,-1.676791191131836
1684179845602325900,0.450726318359375,-0.002250671342235381,0.18526029587819007,-1.601382255572693
1684179845612366800,0.46076708984375,-0.3505783081459903,0.4714791774011108,-1.721576690842
1684179845622407900,0.470808349609375,-0.2815234661594248,0.31885600085884097,-1.760031700105772
1684179845632448900,0.480849365234375,0.06440472594847563,-0.08777737614544447,-1.7431888580074206
1684179845642489800,0.49089013671875,0.40807938588616505,-0.23952293406312616,-1.390816211660949
1684179845652530900,0.50093115234375,0.7551126479884311,0.15855717649173992,-1.165943622585938
1684179845662572000,0.510972412109375,0.6204979420213342,0.3934450150877739,-0.8504667281566087
1684179845672612800,0.52101318359375,0.06336355193689722,0.8331086634595898,-1.0416626930202184
1684179845682653900,0.53105419921875,0.5863049029513157,1.6179416180107389,-2.0246715546887772
1684179845692695000,0.541095458984375,-0.2509555816895285,1.2547709941467082,-1.7417554855428268
1684179845702735800,0.55113623046875,-1.0593204497914035,0.5012714861739669,-1.0575733185187814
1684179845712776900,0.56117724609375,-1.7741806507744327,0.1704621315870137,-0.6459169387807866
1684179845722818000,0.57121826171875,-0.9520214200823676,-0.2218527792065994,0.0037355423012277907
1684179845732858800,0.58125927734375,-0.17615354050997298,-0.3112256527165755,-0.01996517185384953
1684179845742899900,0.59130029296875,0.08343684672844602,-0.2661967277557177,0.13155078882752083
1684179845752941000,0.60134130859375,-0.4769592881016715,-0.22347569453080232,0.36728000639985453
1684179845762981800,0.61138232421875,-1.1263195276442235,-0.14873933804203246,0.5775794982123119
1684179845773022900,0.62142333984375,-1.72620475291131,0.4157445430667464,0.887189865209504
1684179845783064000,0.63146435546875,-1.8409266471702277,0.5305366518038207,1.5635890961403023
1684179845793104800,0.641505126953125,-1.666766524222224,0.5456132888921359,1.7497634888171822
1684179845803145900,0.65154638671875,-1.495274543780978,0.7200741768801109,1.792821884242944
1684179845813187000,0.66158740234375,-1.181201815611354,0.64627981187826,1.6688032149767007
1684179845823227800,0.671628173828125,-0.8953742980220898,0.5798068044825678,1.318779945317198
1684179845833268900,0.68166943359375,-0.690506458213807,0.5414235593206979,0.9671897889651841
1684179845843310000,0.69171044921875,-0.9090810417563848,0.4050428868231068,0.8092899322908242
1684179845853350800,0.701751220703125,-0.670935213541145,0.15048146251919736,0.9668855666880488
1684179845863391900,0.711792236328125,6.526187419946225,-1.063668728012598,0.14080333716600354
1684179845873433000,0.72183349609375,0.8057457209421968,-1.187036275923368,2.9183406830568117
1684179845883473800,0.731874267578125,8.830344200095626,-1.3125047683342266,-0.05644702911844303
1684179845893514900,0.741915283203125,-3.152081966421215,-0.6974234581878485,2.4480590820142227
1684179845903556000,0.751956298828125,-3.544589281152982,1.1575477123534519,0.8952598572023389
1684179845913596800,0.761997314453125,-1.0821919441200816,1.2105040548911206,0.7638120651530855
1684179845923637900,0.772038330078125,-0.5904380083167341,0.5813462734282608,1.170416831912846
1684179845933679000,0.782079345703125,-1.0493552685134682,0.017388820587779446,2.7374353410117327
1684179845943720100,0.79212060546875,-1.6011610031726198,0.10078978529017747,3.794403076186272
1684179845953760900,0.802161376953125,-1.3714131116534067,0.2488605976082271,4.218925476080347
1684179845963802000,0.812202392578125,-0.10557126995317703,0.029190301899489447,3.9110879898396376
1684179845973843100,0.822243408203125,1.6450777053829369,-0.42548227307957254,3.0111455918128853
1684179845983884000,0.832284423828125,2.630666255929693,-1.2587172985902986,1.5581350325330492
1684179845993925000,0.842325439453125,2.8557167054202064,-1.9506096839919178,-0.41067409534159355
1684179846003966100,0.852366455078125,2.833324193947197,-2.0218744277641862,-1.8535695074767882
1684179846014007000,0.862407470703125,2.9186382293953805,-2.1033189296516897,-2.458353042699702
1684179846024048000,0.872448486328125,2.5641505719556426,-1.9166126251957551,-2.9915223120870054
1684179846034089100,0.882489501953125,1.9834841488876216,-1.7353811263664043,-3.1536889077395864
1684179846044130000,0.8925302734375,1.5086832046638432,-2.002612113882218,-2.670955657887652
1684179846054171100,0.902571533203125,1.3212475775693149,-1.49010944357611,-2.4978327750646123
1684179846064212100,0.912612548828125,1.2939492464672264,-1.1770348549247431,-1.7218313217461876
1684179846074253000,0.9226533203125,1.4350421428074143,-1.2370839119267734,-0.38315582285992267
1684179846084294100,0.932694580078125,1.538729906092601,-1.219362735699445,0.593507766764313
1684179846094335200,0.942735595703125,1.0085881949485573,-0.8617510796393341,1.194090843297789
1684179846104376000,0.9527763671875,0.058691084400171095,-0.19904422755262505,1.3434791565439854
1684179846114417100,0.9628173828125,-0.6763030290955384,-0.034150123692152146,1.2429285049255734
1684179846124458200,0.972858642578125,-0.7109287976113764,0.3023309707132789,1.0655641555789297
1684179846134499000,0.9828994140625,-0.3212204574977894,0.20106124875359294,0.5410900115724447
1684179846144540100,0.9929404296875,0.25594919916816494,-0.12173461921996905,-0.11208438864805888
1684179846154581200,1.002981689453125,0.7271624207736042,-0.2596149444873146,-0.6186189649709667
1684179846164622300,1.013022705078125,0.8210564253972971,-0.4571547509605982,-1.0180001258555977
1684179846174663100,1.0230634765625,0.7034074663951596,-0.13474607459768584,-1.4782185555482745
1684179846184704200,1.0331044921875,0.6252139808453078,-0.09290170687537319,-1.3713092803497378
1684179846194745300,1.043145751953125,1.059024095543947,-0.4050145149373193,-0.4772949218741843
1684179846204786100,1.0531865234375,1.5396611690844093,-0.5289688111500866,0.5676279068051476
1684179846214827200,1.0632275390625,1.4855669737882997,-0.47273397456808774,1.3718147278204293
1684179846224868300,1.0732685546875,0.9880121350824885,-0.28618001939963317,1.5231046676304505
1684179846234909100,1.0833095703125,-0.15121251355032986,-0.07686901092471972,0.8655900955174041
1684179846244950200,1.0933505859375,-0.3348490595215204,0.06200361247058775,0.13379192354783828
1684179846254991300,1.1033916015625,0.3001542388784597,-0.045364379874233335,-0.56347894664661
1684179846265032100,1.1134326171875,0.9097887874187299,-0.5473165513252473,-0.49814271917512126
1684179846275073200,1.1234736328125,1.4657740592163895,-0.5882859230136867,-0.5369310379277289
1684179846285114300,1.1335146484375,1.4291923047091217,-0.5851025581646068,-0.36221647261571926
1684179846295155100,1.143555419921875,1.1641465424812565,-0.45343828202342434,0.20372962955132032
1684179846305196200,1.1535966796875,1.0591881274676922,0.012314796515257527,0.8598556517660377
1684179846315237300,1.1636376953125,0.8551586866274832,0.11645746216983444,1.1491498947046637
1684179846325278100,1.173678466796875,0.7650171518122985,-0.5457949639105444,0.9854373933041015
1684179846335319200,1.1837197265625,0.9913189410939719,-0.7577509881621578,0.29556179041960146
1684179846345360300,1.1937607421875,0.8267304896219888,-0.8125119207947173,-0.7228503228957104
1684179846355401100,1.203801513671875,0.3220462501073511,-1.126749038656126,-1.4994063376684632
1684179846365442200,1.213842529296875,0.6257019639219046,-0.7306847571269105,-1.3132038116869647
1684179846375483300,1.2238837890625,1.2374017237312664,-0.7461051939737867,-0.4360089302045948
1684179846385524400,1.2339248046875,1.344983935362897,-0.9649720192919127,0.48171997064175254
1684179846395565200,1.243965576171875,0.815630912876674,-1.092278003725695,0.6869058608430391
1684179846405606300,1.2540068359375,0.16508173933644274,-1.0916566848430134,0.12115192412656085
1684179846415647400,1.2640478515625,-0.2503789067522723,-0.9495091439659091,-0.5064020158782345
1684179846425688200,1.274088623046875,-0.23169043651573992,-0.8814020156025774,-1.17835760106397
1684179846435729300,1.284129638671875,0.09156963226013431,-0.6143531800156166,-1.6119675636333946
1684179846445770400,1.2941708984375,0.42321008445063313,-0.33191013322884666,-1.7386565207929578
1684179846455811200,1.304211669921875,0.6294989584747167,0.48853158969716237,-2.424145221742859
1684179846465852300,1.314252685546875,0.36951285614319895,0.6373958588077956,-1.5575942992611809
1684179846475893400,1.3242939453125,0.14668571938798922,0.8226051331689801,-1.1506395338596611
1684179846485934300,1.334334716796875,-0.04391459371854573,0.6544961930899145,-0.9385857581745565
1684179846495975300,1.344375732421875,-0.1686719061067639,0.6134805680088095,-0.929459094980737
1684179846506016400,1.354416748046875,0.24396625146238726,0.7287678720191721,-0.6626267432631249
1684179846516057300,1.364457763671875,1.5406658648504659,1.7824463844087024,0.06538724914802238
1684179846526098400,1.374498779296875,2.2806384563240893,2.1766924856479326,1.0866336823228937
1684179846536139400,1.384539794921875,1.4346370695591355,1.5478396415578524,1.02310466775461
1684179846546180600,1.394580810546875,0.177953079457297,0.9679112433737932,0.8000793457389128
1684179846556221400,1.404621826171875,-0.5946969987023134,0.9149246215310893,0.530471801838195
1684179846566262400,1.414662841796875,-0.6108965874101958,0.9298334123015198,-0.01789617535098194
1684179846576303600,1.424703857421875,0.03616738314298881,0.7077450752291982,0.08865499498243828
1684179846586344400,1.434744873046875,0.1286420970830936,0.6953020094578842,0.8486752510526001
1684179846596385500,1.444785888671875,-0.13159501543961963,0.5497641563614108,1.231711864542552
1684179846606426600,1.454826904296875,-0.013459771938884015,0.5208511352740965,0.8302149773854232
1684179846616467400,1.46486767578125,0.07806658745645942,0.47406148902468637,-0.0828628539742604
1684179846626508500,1.474908935546875,0.08802223209802024,0.5789518355014694,-0.652562141539759
1684179846636549600,1.484949951171875,0.21298879385634048,0.4458889962493282,-0.7874283790317059
1684179846646590600,1.494990966796875,0.6852782963402599,-0.1016545295098827,-0.6660504340996859
1684179846656631500,1.505031982421875,0.06487823273019004,-0.5626664162212603,-0.4234628678439452
1684179846666672600,1.515072998046875,-0.1291780470505848,0.04179000837021258,0.548263549802267
1684179846676713600,1.525114013671875,-0.3189892767331185,0.6517353059123502,1.4594631195303887
1684179846686754600,1.53515478515625,-0.5311967134078972,0.8092389106298701,1.7210745812867998
1684179846696795600,1.545196044921875,-0.7996932267713239,0.9813766477759069,1.3589811323867678
1684179846706836600,1.555237060546875,-0.910500884056184,0.8511943817148805,0.978907108426269
1684179846716877600,1.56527783203125,-0.48812872172701366,0.8916258810765026,0.4771294594590642
1684179846726918600,1.575319091796875,0.42885771402654466,0.41879081736283247,0.7834391594211269
1684179846736959600,1.585360107421875,0.9916512965371995,0.9172120094018527,0.6025137901313542
1684179846747000600,1.59540087890625,0.6868626474598307,0.5882706643095511,0.14596128458358026
1684179846757041600,1.60544189453125,0.49435195326849113,0.6164078713439355,-0.03926277143761322
1684179846767082600,1.615483154296875,-0.056405067364129695,-0.8470606804924322,-0.5840449333336495
1684179846777123800,1.625524169921875,0.7036940455661477,-0.5127778053803699,-0.13973951335179266
1684179846787164600,1.63556494140625,1.2475601434460215,0.4536385537412995,1.1362743378494802
1684179846797205600,1.645606201171875,0.9914280174649488,1.027523040702392,1.9824070928692534
1684179846807246800,1.655647216796875,0.28702962404060267,0.7761907577201071,2.699760437041209
1684179846817287600,1.66568798828125,-0.3607288599771531,0.3503561018948633,2.867484569443225
1684179846827328600,1.67572900390625,-0.7069951294175141,0.6092724800204203,2.593234539172105
1684179846837369800,1.685770263671875,-0.8456981182381298,0.19333696379321888,2.37101268766711
1684179846847410600,1.69581103515625,-0.5708860159227014,0.3132004738541188,2.0957870483310233
1684179846857451600,1.70585205078125,-0.1562556028373774,0.2988028526203903,1.6243395805699015
1684179846867492800,1.71589306640625,-0.21127283574567354,0.49973678583965525,0.6476864814343904
1684179846877533600,1.72593408203125,-0.4686747788395262,0.029890060526084304,0.19309568408797834
1684179846887574600,1.73597509765625,-0.34361457829045045,-0.1355528831451501,0.17891979201978517
1684179846897615800,1.74601611328125,0.055897176091576004,-0.1802811623371098,0.7202234266905242
1684179846907656900,1.756057373046875,0.34226810935787993,-0.34157085429678796,1.315185546983175
1684179846917697600,1.76609814453125,0.4381158948950628,-0.5228362084650703,1.4023041726756627
1684179846927738800,1.77613916015625,0.8606034516539391,-0.38866186131104796,1.3839154244056215
1684179846937779900,1.78618017578125,0.8043603897236471,0.3476252555866789,0.7923374176240222
1684179846947820600,1.79622119140625,0.31312769641318544,0.13885688783929426,0.7201581000750549
1684179846957861800,1.80626220703125,-0.07374072079527774,0.40516471862697717,0.5310678482143631
1684179846967902900,1.81630322265625,-0.096387028729582,0.5239372252754688,0.45842361461727604
1684179846977943700,1.82634423828125,-0.31679356083521854,0.6977939604125328,0.6845226288253302
1684179846987984800,1.83638525390625,-0.19697678091616078,0.2615780831376177,0.9857478142058363
1684179846998025900,1.84642626953125,0.3922813533417088,0.35984992973337027,1.1574239732521274
1684179847008067000,1.85646728515625,1.1181532145785074,-0.21595287316269116,1.523583889018715
1684179847018107800,1.86650830078125,1.8773152829409765,-0.41597747817039676,1.5970478057156892
1684179847028148900,1.87654931640625,2.0745038987075963,0.18333530424902722,1.3895993233516837
1684179847038190000,1.88659033203125,1.915682434984009,-0.024628162445098557,1.362086296061611
1684179847048230800,1.89663134765625,1.404083609641483,0.48510265354725324,1.0793447494259467
1684179847058271900,1.90667236328125,0.9059200287753437,0.7964925765573815,0.6393456459409564
1684179847068313000,1.91671337890625,0.6739215254962214,0.7655172347703841,-0.04241371150939338
1684179847078353800,1.926754150390625,0.18483127649458023,0.9945487976259305,0.22056055075532577
1684179847088394900,1.93679541015625,-0.23504796624790603,1.381296157806511,0.0856857299248006
1684179847098436000,1.94683642578125,-0.6135229467110332,1.057907581309521,-0.16390180583806582
1684179847108476800,1.956877197265625,-0.9226546883417192,0.721994876923811,0.19180965425150856
1684179847118517900,1.96691845703125,-1.4400112627810582,-0.13637256620621319,0.6696381568774963
1684179847128559000,1.97695947265625,-1.577138662366276,-0.6590933798727199,1.382056713091681
1684179847138600100,1.98700048828125,-0.9539427757795154,-1.1608448028973455,2.1579809190296952
1684179847148640900,1.997041259765625,-0.20041424045641973,-1.7721729279795324,2.4952387810003214
1684179847158682000,2.00708251953125,0.3768826724418945,-2.0744514464286623,2.2506814001859645
1684179847168723100,2.01712353515625,0.8211230040238082,-2.0881290435913336,1.5568318366789604
1684179847178764000,2.027164306640625,1.074155926604859,-1.2317833899386872,0.6274113655535004
1684179847188805000,2.037205322265625,1.106110930461889,-0.5564284324706619,-0.08023071286337187
1684179847198846100,2.04724658203125,0.9310778381122883,0.033194541972954864,-0.7715611457047868
1684179847208887000,2.057287353515625,0.673035860200961,0.4132275581985605,-1.2603478432456718
1684179847218928000,2.067328369140625,0.40172690162409563,0.8810853959259506,-1.5173516272485164
1684179847228969100,2.07736962890625,0.04624825712853508,1.5412535667525697,-1.8531022071154508
1684179847239010200,2.08741064453125,-0.30423361054550735,1.8269629477168692,-1.9203071592396492
1684179847249051100,2.097451416015625,-0.4651300907937885,1.6466774939931914,-1.8921766281834966
1684179847259092100,2.107492431640625,-0.4954808950927674,1.3419885634124216,-1.7560033798192332
1684179847269133200,2.11753369140625,0.5355264544479688,2.3550882339962707,-0.9538793562700141
1684179847279174100,2.127574462890625,-0.015689969187200812,1.7374649047661734,-0.626429081012163
1684179847289215200,2.137615478515625,-0.30738365648363053,0.46688318256657974,-0.4458227157108284
1684179847299256200,2.14765673828125,-1.136033296533672,-1.6384758950510951,0.15095233909566694
1684179847309297100,2.157697509765625,-0.5640208721759515,-1.5259337424613826,0.13184547429580992
1684179847319338200,2.167738525390625,1.3696501254242184,-0.18171501153761088,-0.4430651664217012
1684179847329379200,2.177779541015625,1.367321252948078,-0.8600773811404334,-0.7103376388876033
1684179847339420300,2.18782080078125,0.9809752701588902,-1.3771142960608076,-0.968460559851588
1684179847349461200,2.197861572265625,0.8090573549301736,-0.9932789803170421,-1.4154524801806427
1684179847359502300,2.207902587890625,0.41555738451534086,-1.0287127495461386,-1.4118900298291908
1684179847369543300,2.21794384765625,-0.002839565326158345,-1.2648015021855064,-1.4665083884874155
1684179847379584200,2.227984619140625,-0.3341972828982959,-2.592192173020375,-0.8691811560980482
1684179847389625300,2.238025634765625,0.1786129474721899,-1.678755760210648,-1.2808852196518032
1684179847399666400,2.248066650390625,0.6371450424603051,-0.5427937507933245,-1.6745991708418415
1684179847409707400,2.25810791015625,0.5272159575539673,-0.7103958130127933,-1.3061771393284056
1684179847419748300,2.268148681640625,0.5759260655325487,-1.1818408965519678,-0.460310935996969
1684179847429789400,2.278189697265625,0.5485925674326172,-1.490500926818198,0.08303260807897885
1684179847439830400,2.28823095703125,0.6332125664678836,-1.9730334280985542,0.4138784407871305
1684179847449871300,2.298271728515625,0.4832475183965761,-2.6941213607778165,0.9807939529576868
1684179847459912400,2.308312744140625,0.27272653580424344,-2.8007311821215586,1.415718555414851
1684179847469953500,2.318353759765625,0.3142542839037039,-2.0924601553901203,2.0122175217742346
1684179847479994600,2.32839501953125,0.5856437683305186,-0.8128190040077082,2.5223698614954424
1684179847490035400,2.338435791015625,0.8784208297528402,0.07315540312353548,2.9859418869362666
1684179847500076500,2.348476806640625,1.0649574994488828,0.1756343841292244,2.918210029577324
1684179847510117600,2.35851806640625,1.134940981848197,-0.28213739379823916,1.9082655905687858
1684179847520158400,2.368558837890625,1.3766815663695693,-0.005335807909176332,0.11317110050116169
1684179847530199600,2.378599853515625,1.3703238962606579,0.16171979922324956,-0.9430031777598342
1684179847540240600,2.388640869140625,1.2044529915776399,0.32864522928844475,-1.2656784057282382
1684179847550281400,2.398681884765625,0.978902339904734,0.6954369544095629,-1.3829689024773126
1684179847560322600,2.408722900390625,0.9217388630143579,1.0044689178178585,-1.786672830398125
1684179847570363600,2.418763916015625,0.8377780915033505,0.8272023200594146,-1.771523475786409
1684179847580404400,2.4288046875,0.6741194725394116,0.6937117576208468,-1.7929148673652069
1684179847590445600,2.438845947265625,0.5708374976814885,0.35537910463789557,-1.814604282333514
1684179847600486600,2.448886962890625,0.2871184349907039,0.19493770604108349,-1.8029236791931058
1684179847610527600,2.458927978515625,-0.05148577698922844,0.040444850877856604,-1.6937122343951219
1684179847620568600,2.468968994140625,-0.3100304604250541,-0.00832033161931773,-1.3673019408686684
1684179847630609600,2.479010009765625,-0.540359497229293,-0.32939147945038333,-1.364140033731991
1684179847640650600,2.489051025390625,-0.5139575004570031,-0.45625829683857927,-1.098722934691081
1684179847650691600,2.499091796875,-0.601386308690554,-0.980160713170892,-0.8339762687337494
1684179847660732600,2.509133056640625,-0.6521241664885067,-1.237322807356818,-0.659855842565271
1684179847670773600,2.519174072265625,-0.6756415366813721,-0.90244245534888,-0.696769237496061
1684179847680814800,2.529215087890625,-0.7134335040254842,-0.8411850928147563,-0.7395958900578903
1684179847690855600,2.539256103515625,-0.6673681737207283,-0.9545855522646423,-0.4600839614316916
1684179847700896600,2.549297119140625,-0.5689697265263564,-0.9691147803627085,-0.1368336677349657
1684179847710937800,2.559338134765625,-0.37816286078363875,-0.9200654030385281,0.1311836242602187
1684179847720978900,2.569379150390625,-0.1890022755402478,-0.9945430755146661,0.2696757316888828
1684179847731019600,2.579420166015625,0.07180833805625093,-1.0257091521474797,0.17540740971937016
1684179847741060800,2.589461181640625,0.37225508691020126,-1.099510192860993,0.15647125249328178
1684179847751101900,2.599502197265625,0.73616909994812,-0.9181914328383051,-0.016301631785239377
1684179847761142600,2.609543212890625,0.8900840280824424,-0.7150907516330587,-0.1276903152520061
1684179847771183800,2.619584228515625,0.9233868121848732,-0.1802077292397983,-0.3303127288571258
1684179847781224900,2.629625244140625,0.849480390551406,0.15201663979056906,-0.575735092147162
1684179847791265600,2.639666015625,0.6987116336564381,0.23256397247193566,-0.7759909629816378
1684179847801306800,2.649707275390625,0.6774406432302285,0.4178042410955099,-1.1771903039271774
1684179847811347900,2.659748291015625,0.6428079605151423,1.3582253455173947,-1.5672430993074271
1684179847821388600,2.6697890625,0.8219234943075727,1.5714168549145904,-1.9415061475186295
1684179847831429800,2.679830322265625,0.3762228489529865,0.4934134484008832,-1.3015947341655174
1684179847841470900,2.689871337890625,0.34322166438369833,0.0016016961654888638,-1.025989055468183
1684179847851512000,2.699912353515625,0.37041378017915866,-0.00977945335547128,-0.606695652006242
1684179847861552800,2.709953125,0.33156991011074455,0.25038862237401227,-0.646934986090966
1684179847871593900,2.719994384765625,0.3651111124863724,0.5041341782025218,-0.8688664436912512
1684179847881635000,2.730035400390625,1.2174675465759242,1.501272201598033,-0.8349986076199489
1684179847891675800,2.740076171875,0.8947937487031942,1.7212438584241876,-1.3366422654509016
1684179847901716900,2.750117431640625,0.6727941035089289,2.1486978532238363,-1.086005210902442
1684179847911758000,2.760158447265625,0.6804118157356547,2.4813237189413493,-1.3868136404449485
1684179847921799100,2.770199462890625,0.5609595776274228,2.56366586687083,-1.6186389923508189
1684179847931839900,2.780240234375,0.16670274724058512,2.1826672553821815,-1.6958141326903924
1684179847941881000,2.790281494140625,-0.14866781219350933,1.1367278099529714,-1.5928905011633034
1684179847951922100,2.800322509765625,-0.6369116306309067,-0.6271495819535501,-1.24418854722002
1684179847961963200,2.810363525390625,-1.7504827976247603,-3.4524369239468493,-0.5273585320722975
1684179847972004000,2.820404296875,-2.1105787753664074,-4.622111797367211,-0.2828712465355325
1684179847982045100,2.830445556640625,-1.3663489818056782,-2.4300799369320103,-0.11875152575556173
1684179847992086200,2.840486572265625,-1.0015115736663494,-0.28699159620098513,0.6511416436331869
1684179848002127000,2.85052734375,-1.8202328680442479,-0.13134479518473005,1.0505814552325068
1684179848012168100,2.860568603515625,-2.368473529769055,-0.468627929600803,1.0984373093968582
1684179848022209200,2.870609619140625,-1.9289436340317045,-0.4880256652841283,0.5138955117573234
1684179848032250000,2.880650390625,-1.0373048782007672,0.11460590365452644,-0.5603792668216758
1684179848042291100,2.89069140625,-0.5573785304997615,-0.13458347315335023,-1.7620894910188143
1684179848052332200,2.900732666015625,-0.475022077649614,-0.38057899473294016,-2.3782203197269274
1684179848062373300,2.910773681640625,-0.684953451037054,-0.7050151826137526,-2.390601158216097
1684179848072414100,2.920814453125,-1.0356519223281575,-1.218839645398278,-1.8920547960840788
1684179848082455200,2.930855712890625,-1.3953459261632541,-1.9161310196085881,-1.1533710957005132
1684179848092496300,2.940896728515625,-1.4744920728964386,-2.4492654798983247,-0.08287143699336122
1684179848102537400,2.950937744140625,-1.24941372862325,-2.528147697362664,1.1361641882948388
1684179848112578200,2.960978515625,-0.8041985034722192,-2.2554607391025563,2.4808821678940496
1684179848122619300,2.971019775390625,-0.4214012622095026,-1.8612117768812035,3.1292030811638027
1684179848132660400,2.981060791015625,-0.06772708893997113,-1.466954231265982,2.939816713333433
1684179848142701200,2.9911015625,0.5990128516725656,-0.9907503127259868,2.070823907925959
1684179848152742300,3.001142822265625,1.3607370853808651,-0.6041450499361297,0.8707320691589134
1684179848162783400,3.011183837890625,1.9235311746453014,-0.20144176484196216,-0.30626082421378265
1684179848172824600,3.021224853515625,1.9763084650416407,-0.01973724366937452,-0.9240863323048668
1684179848182865300,3.031265625,1.906905055074096,0.20730590820050976,-1.4461631774105663
1684179848192906400,3.041306884765625,2.0404319763735135,0.5441589355397697,-1.6775594950689368
1684179848202947600,3.051347900390625,1.9129840136448655,0.3298330305259709,-1.583608984909398
1684179848212988300,3.061388671875,1.9659633636677054,0.09637165076049992,-1.263021230769084
1684179848223029400,3.071429931640625,1.9323028325007863,-0.02046489711190992,-0.83490729323072
1684179848233070600,3.081470947265625,1.863214492941876,-0.026508331245121333,-0.3667740822879536
1684179848243111600,3.091511962890625,1.9240368605910136,-0.04470729822535786,0.14920878425181508
1684179848253152400,3.101552734375,1.8647311925785348,-0.010972023066025717,0.5337350369564682
1684179848263193600,3.111593994140625,1.6455954313490375,-0.07838153828965261,0.7395162583882756
1684179848273234600,3.121635009765625,1.3208240271081855,-0.14885425574681477,0.9931437969033811
1684179848283275400,3.13167578125,0.8855817318072631,-0.05191898338323199,1.1401183604894438
1684179848293316600,3.141717041015625,0.36271810546438854,-0.07696151732771273,1.4848036766728692
1684179848303357600,3.151758056640625,-0.16975331307142608,-0.08534717542548906,1.8727219104357011
1684179848313398600,3.161799072265625,-0.445996284479902,0.018146514944394412,2.2872328757602234
1684179848323439600,3.17183984375,-0.39344501493143236,0.35673904407678914,2.601334571737007
1684179848333480600,3.181881103515625,-0.11160135267688447,0.8035802841219173,2.0970580577811657
1684179848343521600,3.191922119140625,0.8255001307383486,2.062452316178752,0.9096374511997505
1684179848353562600,3.201962890625,1.2262364626391844,1.4581065178327468,-0.6028013228810609
1684179848363603600,3.212004150390625,1.4353631733442398,0.8922758102928334,-1.6681680678101092
1684179848373644600,3.222045166015625,2.041001796561917,-0.03262138360649668,-2.128877639839848
1684179848383685800,3.232086181640625,2.5255718229869255,-0.6091861726325815,-1.8729691505084982
1684179848393726600,3.242126953125,2.687218904463307,-0.5264310835701805,-1.1357095242546777
1684179848403767600,3.252168212890625,2.724273681716956,-0.1224136352544504,-0.2279820443133171
1684179848413808800,3.262209228515625,2.6231822967502785,0.18213748929039253,0.4977092741376987
1684179848423849900,3.272250244140625,2.6105346677790138,0.08072566989797603,0.9190123081420455
1684179848433890700,3.282291015625,2.7065701484530953,-0.38330364236953157,1.3422026635576476
1684179848443931800,3.292332275390625,2.894055366334397,-0.8302593231287807,1.7766792774596551
1684179848453972900,3.302373291015625,2.9474020003604866,-0.9121084212438001,1.9448239801944622
1684179848464013700,3.3124140625,2.7783963681144264,-1.1563634872445931,1.6396300794000136
1684179848474054800,3.322455322265625,2.880661010639953,-1.0002927780547568,0.7158751486717935
1684179848484095900,3.332496337890625,2.9422883987777744,-0.8341627120087928,0.028741359745951316
1684179848494136800,3.342537109375,2.1705584526427555,-1.0411338805816288,-0.1922616959373303
1684179848504177800,3.352578125,1.1893819571692645,-0.9421300887990096,-0.22491621980570692
1684179848514218900,3.362619384765625,0.616907656189773,-0.824317932129536,-0.05179286006135414
1684179848524260000,3.372660400390625,-0.5875661969568764,-0.7443628311806176,0.09817314158983706
1684179848534301100,3.382701416015625,-1.9091105460224085,-0.07396411898746445,-0.1261239051732905
1684179848544341900,3.392742431640625,-2.6809799671389154,1.3323812485913196,-0.08418011670731886
1684179848554383000,3.402783447265625,-3.5640740395908095,0.4662885666827203,-0.12643790246561679
1684179848564424100,3.412824462890625,-2.947124481143322,-0.04608726505785996,-0.0007562635989935448
1684179848574464900,3.422865234375,-1.3983606099179071,-0.3269519806260612,-0.08269238466719106
1684179848584506000,3.432906494140625,0.31884840130160647,-0.13333415984347335,-0.27736091601337415
1684179848594547100,3.442947509765625,1.5692055226295063,0.763714790390989,-0.48704147328926806
1684179848604588000,3.45298828125,2.0739960670358597,2.3218255043934044,-0.471279859579315
1684179848614629000,3.463029541015625,1.8896119595726026,2.1712064742639767,-0.4930939674954427
1684179848624670100,3.473070556640625,0.992850184367828,1.0597953797594453,-0.728079080594728
1684179848634711200,3.483111572265625,0.3163939118447816,0.25469207761286866,-0.9190287589593366
1684179848644752000,3.49315234375,-0.0968728660500947,-0.12602138503158752,-1.107370138279263
1684179848654793100,3.503193603515625,-0.08958756920388435,-0.1806211471018512,-1.0593657493768243
1684179848664834200,3.513234619140625,-0.019761383445632726,-0.03333282482507273,-0.9165205955928222
1684179848674875300,3.523275634765625,0.1864974946057841,0.5558166503274856,-0.57783722891912
1684179848684916100,3.533316650390625,0.33628687260041595,0.7008771897364067,-0.21482992182106248
1684179848694957200,3.543357666015625,0.4064587952568699,0.5832214356321825,0.17851781855621615
1684179848704998300,3.553398681640625,0.48982891444065696,0.4486370086334861,0.5763785837489139
1684179848715039200,3.563439453125,0.3910884559562564,-0.09207248688508293,0.8018708228039264
1684179848725080200,3.573480712890625,0.3656881152346482,-0.4968967437818873,1.1143672464772005
1684179848735121300,3.583521728515625,0.3556280137477509,-0.8584766387834336,1.343479633287264
1684179848745162400,3.593562744140625,0.6033784747080202,-1.0008258818507105,1.5082499980311939
1684179848755203200,3.603603759765625,0.7245190144578684,-1.0817661285698097,1.621041536236105
1684179848765244300,3.613644775390625,0.7784861325603932,-1.0317039491233355,1.6187055111023956
1684179848775285400,3.623685791015625,0.8579154014189874,-0.8578386307461333,1.5809602737802864
1684179848785326600,3.633726806640625,0.9376643896767177,-0.5458478927656799,1.3963892460136726
1684179848795367300,3.643767822265625,1.0307369232081116,-0.26779746992506265,1.1616730690355126
1684179848805408400,3.653808837890625,1.041063427968519,-0.0878591537437541,0.7752416132953733
1684179848815449600,3.663849853515625,1.0467875004644476,0.03762531293005893,0.2917621134749178
1684179848825490400,3.673890869140625,1.1677168607592754,0.17170143129443474,-0.13750720036937958
1684179848835531400,3.683931884765625,1.2767376898695968,0.09053897854464762,-0.455675363517299
1684179848845572600,3.693972900390625,1.1928110122867284,0.0026206971501017773,-0.6599647999013273
1684179848855613600,3.704013916015625,0.9814009665534953,-0.04851055160777722,-0.7128686904831076
1684179848865654400,3.714054931640625,0.7137333153799673,-0.038470268280854966,-0.6772713662545145
1684179848875695600,3.724095947265625,0.36756831397033435,-0.2946186065293641,-0.6107218264203726
1684179848885736600,3.734136962890625,0.16796252137088769,-0.4390506742859719,-0.45986533154549236
1684179848895777600,3.74417822265625,0.06672286983730209,-0.5773639679618046,-0.19349193563733208
1684179848905818600,3.754218994140625,0.07637518649501032,-0.4043798446268327,0.12519526471867923
1684179848915859600,3.764260009765625,0.16309633855703062,-0.18447113050856068,0.4260625840287915
1684179848925900600,3.774301025390625,0.17870712278670456,-0.28644371031846455,0.6571509838172144
1684179848935941600,3.784342041015625,0.2478943468009621,-0.3466854094141656,0.7341058254637539
1684179848945982600,3.794383056640625,0.4485087692981403,-0.3790073393663932,0.5807659625107869
1684179848956023600,3.804424072265625,0.6542626023602679,-0.43575286864432006,0.4283463955286502
1684179848966064800,3.81446533203125,0.8501304388665236,-0.39759635913421515,0.3599121571355676
1684179848976105600,3.824506103515625,1.028417706501282,-0.32090568541392944,0.272701978683798
1684179848986146700,3.834547119140625,1.039258956973593,-0.37491703033689416,0.3405487538485021
1684179848996187800,3.844588134765625,0.9380726813676464,-0.3544025420644457,0.4748663903133265
1684179849006228900,3.85462939453125,0.6812337636640502,-0.9488925933143472,0.7683672904372857
1684179849016269700,3.864670166015625,0.9465620517768384,-0.10729789736978038,0.6150610445509819
1684179849026310800,3.874711181640625,0.9764347671683387,-0.10233974474954956,0.5679230689472803
1684179849036351900,3.88475244140625,1.0067622660907067,-0.19205665585364673,0.6253762245127051
1684179849046392800,3.894793212890625,1.069456338922751,-0.312940597559721,0.6727683543431686
1684179849056433800,3.904834228515625,1.120979070500515,-0.3551063537909092,0.6880290507571041
1684179849066474900,3.914875244140625,1.109985828244519,-0.4420442582440319,0.5593371390282099
1684179849076516000,3.92491650390625,1.0759793520519911,-0.26508712778960886,0.5949048996117868
1684179849086556800,3.934957275390625,0.8689941167872502,-0.0709772110566071,0.5943620204718431
1684179849096597900,3.944998291015625,0.6952146889548116,-0.015485763652220465,0.42261028284324836
1684179849106639000,3.955039306640625,0.6712914109342131,-0.012370109563683505,0.2567555905502467
1684179849116680100,3.96508056640625,0.6953119038761892,-0.11170291915249039,0.09963607787069406
1684179849126720900,3.975121337890625,0.6815681458398232,-0.20798969272587328,0.009471416602500024
1684179849136762000,3.985162353515625,0.647940576008449,-0.21044254308739355,0.0562372208242221
1684179849146803100,3.99520361328125,0.7184134721467659,-0.2555274961547106,0.16260313983171704
1684179849156844000,4.005244384765625,0.8737038373264059,-0.31211090090729104,0.24342799183536792
1684179849166885000,4.015285400390625,1.0199639796939464,-0.5160322190546879,0.2527933120757313
1684179849176926100,4.025326416015625,1.0938515662586004,-0.6638145445446757,0.20742368685398607
1684179849186967200,4.03536767578125,1.0631414650883435,-0.7943115233023991,0.16470813745421867
1684179849197008000,4.045408447265625,1.1252195836308039,-0.7577180861826647,0.11460781110475034
1684179849207049100,4.055449462890625,1.1532701253748907,-0.628962516898876,0.08357024179088993
1684179849217090200,4.06549072265625,1.127033233725356,-0.4157905578671277,0.007027387729871228
1684179849227131300,4.07553173828125,1.0226397515763128,-0.22836875918544544,-0.14659678936116424
1684179849237172100,4.085572509765625,1.106464624473944,0.16115188586808543,-0.3021144867066232
1684179849247213200,4.095613525390625,0.8584865331811287,0.19607925411264412,-0.4148168563946245
1684179849257254300,4.10565478515625,0.8285776377817669,0.19968891133439373,-0.5241800545321196
1684179849267295400,4.11569580078125,1.0788671969598587,0.730613708547098,-0.5965850352398546
1684179849277336200,4.125736572265625,0.8684327007219939,0.663810729953142,-0.2784059047151174
1684179849287377300,4.13577783203125,0.87268680337544,0.6439580916457955,-0.2128905057307291
1684179849297418400,4.14581884765625,0.85555076610469,0.6215677260633072,-0.26910388481983066
1684179849307459200,4.155859619140625,0.7279463408656499,0.5468664169796666,-0.35466015337018125
1684179849317500300,4.165900634765625,0.6123477221174531,0.38203430191084986,-0.3915629386488258
1684179849327541400,4.17594189453125,0.5270521639344221,0.13681316374348118,-0.4173506498955403
1684179849337582600,4.18598291015625,0.5069229602963102,-0.012068748498018145,-0.48222541797595175
1684179849347623300,4.196023681640625,0.5752125977483672,-0.08910846708288225,-0.48893105966050737
1684179849357664400,4.20606494140625,0.72392481547706,-0.07334041579826801,-0.42163836952058414
1684179849367705600,4.21610595703125,0.8602254390917202,-0.012890815709322415,-0.39799678318540366
1684179849377746600,4.22614697265625,0.888739943529209,0.09940719595351741,-0.38042163843200427
1684179849387787400,4.236187744140625,0.8455445764814085,0.12266159073907237,-0.2597559689340174
1684179849397828600,4.24622900390625,0.7091051935697162,0.11931514759075867,-0.22203814987083587
1684179849407869600,4.25627001953125,0.5197631121272179,0.06335735319321113,-0.17562627787797083
1684179849417910600,4.26631103515625,0.333792507605748,0.0002851485820828812,-0.12946367254002908
1684179849427951600,4.27635205078125,0.171325922038531,-0.08942794791949171,-0.12683880340872536
1684179849437992600,4.28639306640625,0.06852865235700027,-0.08191967002620465,-0.17038929458463037
1684179849448033600,4.29643408203125,0.10982948544274759,-0.015539169308475041,-0.24924647811922007
1684179849458074800,4.30647509765625,0.0985256435120071,0.07176208507639179,-0.22901165487620956
1684179849468115600,4.31651611328125,-0.013986468332219126,0.12096118937692178,-0.14531171320232195
1684179849478156600,4.32655712890625,-0.22108650220466902,0.06127643592328899,-0.004977941546932017
1684179849488197800,4.33659814453125,-0.4073849916768615,0.036647796774805334,0.1901341677117753
1684179849498238600,4.34663916015625,-0.6014015674570626,-0.04411888117318609,0.32736682899404423
1684179849508279600,4.35668017578125,-0.6399871110364915,-0.05249595650846771,0.38833880415553423
1684179849518320800,4.36672119140625,-0.5465556383841471,-0.0009613036209001386,0.3679441214303293
1684179849528361900,4.37676220703125,-0.3721855877422175,0.0718145370325917,0.4046615361460533
1684179849538402700,4.38680322265625,-0.054030537619677035,0.20158100131825835,0.4355212450045729
1684179849548443800,4.39684423828125,0.2611825466147689,0.33809757234279325,0.4852434396148077
1684179849558484900,4.40688525390625,0.4418163895179207,0.4169263840521132,0.4901926517134644
1684179849568526000,4.416926513671875,0.6033843756688015,0.5294914247071536,0.5076930522859201
1684179849578566800,4.42696728515625,0.6366319060261075,0.5665531158399617,0.5551744698095863
1684179849588607900,4.43700830078125,0.5876597166656611,0.436284065339177,0.5680023432418856
1684179849598649000,4.44704931640625,0.4257599713157278,0.13511276230553138,0.5440946817352634
1684179849608690100,4.457090576171875,0.1821454763405188,-0.24299049378560125,0.4283263684554546
1684179849618730900,4.46713134765625,-0.04616796957242348,-0.4784021376563819,0.3090779782237456
1684179849628772000,4.47717236328125,-0.10518896569122727,-0.4370326996748549,0.14998698243223132
1684179849638813100,4.487213623046875,-0.11745119093696336,-0.16531181320689403,-0.025304198252199973
1684179849648853900,4.49725439453125,-0.23269033427823893,0.18287658691456882,-0.1252965925849833
1684179849658895000,4.50729541015625,-0.4145020245883325,0.44968700425394714,-0.10181093220713884
1684179849668936100,4.51733642578125,-0.5887128114074982,0.5824117658898745,-0.019526004697299572
1684179849678977200,4.527377685546875,-0.8488459586787904,0.5471668244311563,0.06029284008326431
1684179849689018300,4.537418701171875,-1.1260619162785093,0.33374977116090215,0.10684955134414124
1684179849699059100,4.54745947265625,-1.2619367837103561,0.2788133621180738,0.1929643751343762
1684179849709100200,4.55750048828125,-1.297506928324314,0.2673101425228675,0.2753291129752386
1684179849719141300,4.567541748046875,-1.4085401297252567,0.07238960273200368,0.30901062480806246
1684179849729182100,4.57758251953125,-1.481295228025389,-0.1835689542805809,0.22822761541863062
1684179849739223200,4.58762353515625,-1.5213025809561955,-0.5147371291550151,0.1199147103948495
1684179849749264300,4.597664794921875,-1.4857510329307244,-0.8136119844103681,0.015178382270928678
1684179849759305400,4.607705810546875,-1.3690956829888614,-1.0300893784180747,-0.10756739981241782
1684179849769346200,4.61774658203125,-1.1916177274154742,-1.0421543122668124,-0.2398913203993606
1684179849779387300,4.62778759765625,-0.9734857083290641,-0.9525547027338861,-0.280809342751596
1684179849789428400,4.637828857421875,-0.807447552682987,-1.0005865096839985,-0.3429165184315858
1684179849799469600,4.647869873046875,-0.5925004480641147,-0.9902648926574457,-0.3522512911883558
1684179849809510300,4.65791064453125,-0.17895352847240478,-0.8160409928064045,-0.38883370159957187
1684179849819551400,4.667951904296875,0.22732007515511407,-0.6592731477607319,-0.3951727153487209
1684179849829592600,4.677992919921875,0.7603218556020384,-0.3875989913941645,-0.3865797819146331
1684179849839633600,4.688033935546875,1.1003732681628409,-0.019564628546337663,-0.2872042060889912
1684179849849674400,4.69807470703125,1.2079985142694305,0.12432861326986933,-0.29413467636907903
1684179849859715600,4.708115966796875,1.2189307213796257,0.206020355369986,-0.231265753607522
1684179849869756600,4.718156982421875,1.1351163387360512,0.3181610107731225,-0.044206798048845745
1684179849879797400,4.72819775390625,0.9142540693459169,0.33343124375763106,0.19048687821161525
1684179849889838600,4.738239013671875,0.5039170980098353,0.16794872284257614,0.6501259208523565
1684179849899879600,4.748280029296875,0.1629620791764718,-0.11360168475206259,0.8734433652482669
1684179849909920600,4.758321044921875,0.007254362063506841,-0.28392314905455807,0.9500018953891577
1684179849919961800,4.768362060546875,0.035782813996011936,-0.3738880157171033,1.0069447756814536
1684179849930002600,4.778403076171875,0.1614575386153385,-0.425884246776951,1.0338962077870022
1684179849940043600,4.788444091796875,0.3783768415560965,-0.38652133938832095,0.8514733315000217
1684179849950084800,4.798485107421875,0.6781722306040016,-0.29548168188904317,0.6463338734204858
1684179849960125600,4.808526123046875,1.1032259464705256,-0.09182453158391175,0.537551283935266
1684179849970166600,4.818567138671875,1.6571273804052484,0.11091136928964271,0.5675266386073302
1684179849980207800,4.828608154296875,2.095702409578851,0.2893543244070416,0.34179988511480386
1684179849990248900,4.838649169921875,2.1809532642240796,0.4525747298910772,0.2586088178839564
1684179850000289600,4.848690185546875,2.0493016241204844,0.4897871018643544,0.23040184392831775
1684179850010330800,4.858731201171875,2.0068073273703986,0.49587821958459133,0.09017026429165954
1684179850020371900,4.868772216796875,1.9926023483139292,0.38632011421073914,-0.3071098922492737
1684179850030413000,4.8788134765625,1.7764445543626683,0.3202476501028906,-0.6007121801063164
1684179850040453800,4.888854248046875,1.5128601790472906,0.2750120162541296,-0.7560608386475979
1684179850050494900,4.898895263671875,1.1754611730917373,0.1518783568317613,-0.8611719606523577
1684179850060536000,4.908936279296875,0.8194472789159954,-0.02535533917249089,-1.0088584422840228
1684179850070577100,4.9189775390625,0.3863768578531423,-0.21588802347662947,-1.239767074623195
1684179850080617900,4.929018310546875,-0.0675418378147171,-0.3070755005144604,-1.2345186471791114
1684179850090659000,4.939059326171875,-0.37364149087736925,-0.33929634102528183,-1.1248335839426915
1684179850100700100,4.9491005859375,-0.5974681376988086,-0.3265953063573609,-0.9627681970896801
1684179850110740900,4.959141357421875,-0.7915782926734732,-0.24504852305005811,-0.8455808161130265
1684179850120782000,4.969182373046875,-0.8810915945900826,-0.1522579194271262,-0.8258442879355845
1684179850130823100,4.979223388671875,-0.8636741639264987,-0.07451725002441133,-0.8649637103268492
1684179850140864200,4.9892646484375,-0.7592246531697314,-0.05225181569079588,-0.9679698943049614
1684179850150905300,4.9993056640625,-0.6948120594698467,-0.042320251426519,-1.0856084823742613
1684179850160946100,5.009346435546875,-0.5439896584983969,-0.04473495486326113,-1.1446313857229997
1684179850170987200,5.0193876953125,-0.23839473725846405,-0.03310203542098793,-1.2299396991459557
1684179850181028300,5.0294287109375,0.14114761350199134,-0.02139663695752388,-1.259618520703336
1684179850191069100,5.039469482421875,0.4497392177881458,-0.021167755206337003,-1.3083937167191644
1684179850201110200,5.049510498046875,0.6252815722451368,-0.04903221132503059,-1.2221268415609827
1684179850211151300,5.0595517578125,0.639249682481367,-0.06241130830413038,-1.0945359468970848
1684179850221192400,5.0695927734375,0.6022080182524896,0.04086971294555633,-0.996135890648058
1684179850231233200,5.079633544921875,0.6824753284452185,0.11721038806968903,-0.9644486904154735
1684179850241274300,5.0896748046875,0.7404558657996267,0.24103069312868575,-0.80542218688844
1684179850251315400,5.0997158203125,0.733907937983862,0.3481092453397044,-0.6240791677150203
1684179850261356500,5.1097568359375,0.7690428494803491,0.4315872193390395,-0.4274293184710206
1684179850271397300,5.119797607421875,0.8370876312056293,0.4871072769667308,-0.34521329407099693
1684179850281438400,5.1298388671875,0.8983368872889663,0.5508890152737069,-0.21782398237181624
1684179850291479600,5.1398798828125,0.9185225963929194,0.5943813323702055,-0.06100970500866355
1684179850301520600,5.1499208984375,0.8665502071029004,0.5507459641044176,0.03142744300245644
1684179850311561400,5.1599619140625,0.754962921294731,0.4964628220198715,0.2122071981729454
1684179850321602600,5.1700029296875,0.6496953965847998,0.3955135345472243,0.34199869628108337
1684179850331643600,5.1800439453125,0.4872603416177042,0.360025406040697,0.5742977261755637
1684179850341684600,5.1900849609375,0.25692558279958255,0.3274002075072409,0.8673588634052124
1684179850351725600,5.2001259765625,0.01743936550562798,0.3235139847500778,1.0600781441565454
1684179850361766600,5.2101669921875,-0.2798204422964783,0.2714691163474241,1.1329660415918597
1684179850371807600,5.2202080078125,-0.5039780140136024,0.3406076431608339,1.0967350007370698
1684179850381848800,5.230249267578125,-0.5996582508844169,0.35862636563072586,0.8425463437888782
1684179850391889600,5.2402900390625,-0.5822370052148672,0.4190006257369855,0.2613257766453343
1684179850401930600,5.2503310546875,-0.5084166528167872,0.4695844651816013,-0.2551716567116919
1684179850411971800,5.2603720703125,-0.4433372018775463,0.5129661560218225,-0.5535811185080117
1684179850422012800,5.270413330078125,-0.40086579309539366,0.5705680845570166,-0.7440864445040463
1684179850432053600,5.2804541015625,-0.4001560211164559,0.6304130553602263,-0.8318804502490046
1684179850442094800,5.2904951171875,-0.4339931012048543,0.6160020828886006,-0.8635400532181589
1684179850452135900,5.300536376953125,-0.4806931019106979,0.5059366225948811,-0.8541901110534541
1684179850462176600,5.3105771484375,-0.4405410290767485,0.43185901646611197,-0.7499854563292511
1684179850472217800,5.3206181640625,-0.3291637896901241,0.32933139791706,-0.5621376635275039
1684179850482258900,5.3306591796875,-0.20986008643892698,0.22244739521259674,-0.3088337480991764
1684179850492300000,5.340700439453125,-0.036156892777243974,0.10907840719111626,-0.10784500835507113
1684179850502341000,5.350741455078125,0.20950281617113942,0.04687595370721546,0.07232761384110833
1684179850512381900,5.3607822265625,0.39454448216892385,0.06222438814027841,0.22507983450636082
1684179850522423000,5.3708232421875,0.5233814716866654,0.09532737734358668,0.3247498869612541
1684179850532464000,5.380864501953125,0.5587990284712001,0.19128799439566405,0.414465189140406
1684179850542504900,5.3909052734375,0.5169132949099761,0.2755012511722417,0.42880243058017
1684179850552546000,5.4009462890625,0.34255969521079044,0.3785915373549328,0.38884308930171896
1684179850562587100,5.410987548828125,0.11155748379124326,0.5240850447887141,0.3110725879699093
1684179850572628100,5.421028564453125,-0.13010418415710717,0.5135889053992447,0.2529008090775574
1684179850582669200,5.431069580078125,-0.3685460090658209,0.4240713119510622,0.18673536184559814
1684179850592710100,5.4411103515625,-0.5399868488538732,0.1604433060086515,0.05519312633307511
1684179850602751200,5.451151611328125,-0.583431601577147,-0.34109401686982427,-0.14676406970737554
1684179850612792200,5.461192626953125,-0.41171050068390636,-1.0726032256264524,-0.38888400801774103
1684179850622833100,5.4712333984375,-0.25776791581331354,-1.6345872878010237,-0.6294871568745432
1684179850632874200,5.481274658203125,-0.33532440679386666,-1.6766929625480473,-0.7679260969982027
1684179850642915200,5.491315673828125,-0.47318863859752713,-1.3179464340189526,-0.8255170583805925
1684179850652956300,5.501356689453125,-0.5584090947324399,-1.2046871186347077,-1.0316731929887344
1684179850662997200,5.5113974609375,-0.9549218416517726,-1.556231498606736,-1.238503098411105
1684179850673038300,5.521438720703125,-2.220366477820706,-2.118679046668787,-1.366228818937745
1684179850683079300,5.531479736328125,-4.046344757133112,-2.33345985417524,-1.0333347322309507
1684179850693120400,5.541520751953125,-4.516642570412533,-1.792941093333829,-0.3415136040381127
1684179850703161300,5.551561767578125,-3.366558075078596,-1.2618169784219009,0.323211699738383
1684179850713202400,5.561602783203125,-2.235572815049422,-0.7891674042798589,1.0263228418391408
1684179850723243400,5.571643798828125,-1.2862622738409337,-0.12880516054695984,1.7415177823292716
1684179850733284600,5.581684814453125,-0.22051870819646532,0.623079300007376,2.142109155782423
1684179850743325400,5.591725830078125,1.0406707526408558,1.0291919708456583,1.8794034719985873
1684179850753366400,5.601766845703125,2.0555500982932546,1.126154899692346,1.4541065692839417
1684179850763407600,5.611807861328125,2.546907901924664,0.9885272979027112,0.9787369967474868
1684179850773448600,5.62184912109375,2.5972189904771197,0.7956037520727375,0.5602448582694675
1684179850783489500,5.631889892578125,2.4968955517859266,0.5832529066917247,0.252874582903917
1684179850793530600,5.641930908203125,2.2507219313825892,0.4522466658861866,0.0733485369607414
1684179850803571600,5.651971923828125,1.9493813515804408,0.3005390166123483,-0.05908701559698279
1684179850813612600,5.66201318359375,1.6144849062650013,0.10272884378848453,-0.1934484690596889
1684179850823653600,5.672053955078125,1.3428984880985921,-0.11420631408229381,-0.28213042018784434
1684179850833694600,5.682094970703125,1.1746470928404373,-0.3071994780564597,-0.22331206507052562
1684179850843735700,5.69213623046875,1.0691097974806625,-0.3812999724306856,-0.16991406689837818
1684179850853776800,5.70217724609375,0.8823443054848684,-0.359053611717846,-0.11688601962611499
1684179850863817600,5.712218017578125,0.7354025242920129,-0.11473751068194196,-0.2235409469251223
1684179850873858700,5.722259033203125,0.6927511691644456,0.17880249035791676,-0.4409744143343565
1684179850883899800,5.73230029296875,0.7265526651483672,0.36133098595425645,-0.6173984408560509
1684179850893940900,5.74234130859375,0.8193340301781975,0.5192136764918838,-0.7743465900239035
1684179850903981700,5.752382080078125,0.9452268480555881,0.509509086740806,-0.7473505735559495
1684179850914022800,5.76242333984375,1.0429761409470317,0.4188156127027412,-0.7232130765528664
1684179850924063900,5.77246435546875,1.0646954774997262,0.3810443877882977,-0.8220756650381822
1684179850934105000,5.78250537109375,1.0708842277238053,0.47235584250414775,-0.8489184379467987
1684179850944145800,5.792546142578125,1.0745167731759149,0.44157028195555714,-0.8001385926740862
1684179850954186900,5.80258740234375,1.042583703913808,0.40357780456820214,-0.8099700211976001
1684179850964228000,5.81262841796875,0.989040315318395,0.32499790180315624,-0.8534856438867701
1684179850974269100,5.82266943359375,0.8838474750024239,0.14876365672435848,-0.8561173678743983
1684179850984309900,5.83271044921875,0.6679769156906411,-0.07451057438503626,-0.8285834789118653
1684179850994351000,5.84275146484375,0.35513263936906475,-0.2514944075072551,-0.8123609422229426
1684179851004392100,5.85279248046875,-0.027111649489868207,-0.3275365829129119,-0.7882123588342882
1684179851014432900,5.862833251953125,-0.3633092642466883,-0.21490192413970896,-0.769108176187847
1684179851024474000,5.87287451171875,-0.5592315793440747,-0.0863866804797117,-0.6839563845855371
1684179851034515100,5.88291552734375,-0.5260094998750039,-0.0067796706628452125,-0.5224618316174133
1684179851044556200,5.89295654296875,-0.3961501717839289,0.062172889875602544,-0.2755630017555815
1684179851054597300,5.902997802734375,-0.12713283309755166,0.1492605210476742,-0.05161875498553041
1684179851064638100,5.91303857421875,0.19714748851319475,0.1567831038186758,0.19166226686677357
1684179851074679200,5.92307958984375,0.5134073494393502,0.14017677312733956,0.3822637794989506
1684179851084720300,5.93312060546875,0.813642442203705,0.08305454249473744,0.5224530101180481
1684179851094761400,5.943161865234375,1.0024085045070608,0.09794330593545665,0.6218178867495121
1684179851104802200,5.95320263671875,1.0854728222392112,0.09881973265946367,0.7181086539446262
1684179851114843300,5.96324365234375,1.079028844729451,0.126359939482128,0.7822966576450248
1684179851124884400,5.973284912109375,0.9758807420573058,0.11362457278179626,0.7779786586903985
1684179851134925200,5.98332568359375,0.7750412225259088,0.12987899785797574,0.7664710282662134
1684179851144966300,5.99336669921875,0.450628340188597,0.055476188658897696,0.6728364229423333
1684179851155007400,6.00340771484375,0.18690729134692505,0.033769607645190255,0.3395967186049767
1684179851165048600,6.013448974609375,-0.03354126214523709,0.009579658386795345,-0.026550352690797415
1684179851175089600,6.023489990234375,-0.17575678226343808,0.01620674135057458,-0.41160857674408863
1684179851185130400,6.03353076171875,-0.225725322949278,0.022370338474543897,-0.6412552596565855
1684179851195171600,6.043572021484375,-0.15283092843055376,-0.07947635662755637,-0.7340708970346217
1684179851205212600,6.053613037109375,0.0008094311072715484,-0.21026134491866444,-0.7071706057201282
1684179851215253400,6.06365380859375,0.31237009172894653,-0.25039005277455145,-0.5854859350702648
1684179851225294600,6.07369482421875,0.6775751113115581,-0.21185684192989473,-0.462690025516055
1684179851235335600,6.083736083984375,0.9875433443732756,-0.17588520053639134,-0.3676759301199456
1684179851245376600,6.093777099609375,1.21394681934439,-0.0850419998510349,-0.2196334599738094
1684179851255417800,6.103818115234375,1.3511269093598575,-0.06356525416710837,-0.12688770890529286
1684179851265458600,6.11385888671875,1.4151816367475856,-0.044354438830773585,-0.049322605180539277
1684179851275499600,6.123900146484375,1.4574935437166845,-0.04165840143736035,-0.013769835220321682
1684179851285540800,6.133941162109375,1.4435373545586385,-0.024325370777103474,0.014973610606973164
1684179851295581900,6.143982177734375,1.3776949645201317,-0.025808334360021792,0.019546806737722498
1684179851305622600,6.154023193359375,1.241631269399212,-0.0031719208146451824,-0.0017980634596109668
1684179851315663800,6.164064208984375,1.096427202364013,-0.013906478812224923,0.0017785132023334733
1684179851325704900,6.174105224609375,0.8836496471386921,-0.03414535511856218,-0.033919483468363244
1684179851335745600,6.18414599609375,0.6261627077915536,-0.0352859497288068,-0.07030338050733148
1684179851345786800,6.194187255859375,0.3681421876345448,0.01120948782447353,-0.16164863109331878
1684179851355827900,6.204228271484375,0.09239789850392965,0.007269859238073089,-0.17880526198649535
1684179851365869000,6.214269287109375,-0.17037589847932155,-0.0040140151275044915,-0.26269242162338985
1684179851375910100,6.224310546875,-0.36539304271349166,0.008424759025516539,-0.33154183619515365
1684179851385950900,6.234351318359375,-0.47910726066431875,0.030210494920292503,-0.4277396500665888
1684179851395992000,6.244392333984375,-0.4848010538261216,0.10193157192399217,-0.47160616515752446
1684179851406033100,6.25443359375,-0.32351705433530503,0.12556266781195918,-0.4744840859805995
1684179851416073900,6.264474365234375,-0.09778393059606019,0.12274837489162384,-0.4128376245985784
1684179851426115000,6.274515380859375,0.1585718841120525,0.10790061947865714,-0.32044515011657004
1684179851436156100,6.284556396484375,0.3454145788887354,0.06911087038952028,-0.18299612388774025
1684179851446197200,6.29459765625,0.47115522625222467,0.08524322516974478,-0.029323458768804798
1684179851456238000,6.304638427734375,0.5568151474875197,0.05824661262105411,0.1476315857000489
1684179851466279100,6.314679443359375,0.614335477482919,0.00972080233908635,0.36911675347102074
1684179851476320200,6.324720458984375,0.6407649517999968,0.004188537646218039,0.5777019260741215
1684179851486361300,6.33476171875,0.6405360102983509,-0.0969543456702396,0.8372377155700496
1684179851496402400,6.344802734375,0.5944395659912663,-0.1692419052143779,1.0604858399513983
1684179851506443200,6.354843505859375,0.5176802873218957,-0.16976451882234778,1.1589987279587635
1684179851516484300,6.364884765625,0.4259730874037704,-0.09395313259355546,1.2673587798543777
1684179851526525400,6.37492578125,0.34497928627261454,-0.03030967714438247,1.3680834769741208
1684179851536566200,6.384966552734375,0.30232650042051357,-0.11008357994536418,1.4245016575138745
1684179851546607300,6.395007568359375,0.26307389128389763,-0.20387935637626498,1.4430088996613943
1684179851556648400,6.405048828125,0.2632725536337647,-0.23279190066448338,1.3870534896833506
1684179851566689500,6.41508984375,0.31687080869210454,-0.1205425261984489,1.252009272536962
1684179851576730300,6.425130615234375,0.3844106793707945,0.032154083213980084,0.995983481407793
1684179851586771400,6.435171875,0.447890877886424,0.1128921509137155,0.7778127789821043
1684179851596812500,6.445212890625,0.5233021976249277,0.13375186920618987,0.6289635896377441
1684179851606853600,6.45525390625,0.6009334326607364,0.09965324394068664,0.5087584258096197
1684179851616894600,6.465294921875,0.693008005509701,0.07998371110047059,0.34802436826779193
1684179851626935500,6.4753359375,0.7605656385319042,0.08422183986414607,0.2405171692152693
1684179851636976600,6.485376953125,0.8124440312175125,0.05734634411754245,0.12195697421458175
1684179851647017600,6.49541796875,0.835884988309356,0.06631088263112168,0.05651408437772644
1684179851657058600,6.505458984375,0.8658920525879549,0.1301031112216341,0.006041765268559111
1684179851667099600,6.5155,0.8304632901750729,0.1745109557235425,-0.07444250582142177
1684179851677140600,6.525541015625,0.7848775385728369,0.18762111665731895,-0.1273065209830515
1684179851687181700,6.53558203125,0.7396243810212151,0.21248340613179342,-0.18347162007123058
1684179851697222600,6.545623046875,0.6762529015565425,0.23711776740562943,-0.20219510786259925
1684179851707263600,6.5556640625,0.6168146134571577,0.24001026142442608,-0.2263035772943036
1684179851717304800,6.565705078125,0.5334106087210261,0.1973609924448657,-0.26557898511619765
1684179851727345800,6.575746337890625,0.4316852390800398,0.1116657257619145,-0.2791598438080249
1684179851737386600,6.585787109375,0.3404619692532279,0.01168155679119214,-0.23358863590393658
1684179851747427800,6.595828125,0.23088094596359937,-0.02138900759504157,-0.10968273880206511
1684179851757468800,6.605869140625,0.10350894922727673,0.0266456604682325,0.13743221743910675
1684179851767509900,6.615910400390625,0.057064920792655245,0.007609367334627647,0.39911454916671035
1684179851777550800,6.625951171875,0.05086749802777938,-0.018581390431472184,0.5793605445501713
1684179851787591900,6.6359921875,0.0842809380454446,-0.016111373730951225,0.7333979012082044
1684179851797632900,6.646033447265625,0.13021263482416617,0.022068023754728314,0.820906817860459
1684179851807674000,6.656074462890625,0.15249294061865745,0.09825801843080172,0.8514194488107013
1684179851817715100,6.666115478515625,0.177763909256358,-0.0024957656258014107,0.8721985220114392
1684179851827756000,6.67615625,0.1895579993741336,-0.06961059570412707,0.8094967007591428
1684179851837797000,6.686197509765625,0.21628645046905548,-0.0721349717368518,0.7733628152258877
1684179851847838100,6.696238525390625,0.20502534517490914,-0.0651845932270143,0.763856768582987
1684179851857879000,6.706279296875,0.2082240282000836,-0.03205776221821769,0.7306060791758586
1684179851867920000,6.716320556640625,0.19271242607517577,-0.07546901694932193,0.7713094354135338
1684179851877961100,6.726361572265625,0.1730452477224517,-0.07237529753527636,0.807268381188355
1684179851888002200,6.736402587890625,0.17330238229043,-0.04106998432453553,0.8636857271879762
1684179851898043100,6.746443359375,0.169490247979072,0.017919540415888058,0.8959713577709518
1684179851908084100,6.756484619140625,0.16405263539378306,0.01466369637097406,0.9823288321767665
1684179851918125200,6.766525634765625,0.17373275742296374,0.03498077392091443,1.0840386152271668
1684179851928166300,6.776566650390625,0.18684279927826927,-0.015595436184522745,1.1931053400270513
1684179851938207400,6.78660791015625,0.21306762087402883,-0.058059692356030736,1.3084115981858166
1684179851948248200,6.796648681640625,0.24267643681984227,-0.10420894634727874,1.4077607393220255
1684179851958289300,6.806689697265625,0.29371765251693266,-0.14919376384781288,1.4904947281298064
1684179851968330400,6.816730712890625,0.3341302573770638,-0.11526298520270835,1.5369651317508983
1684179851978371200,6.826771728515625,0.35122072696383516,-0.07670783989432192,1.5731559990407054
1684179851988412300,6.836812744140625,0.3522837460717357,-0.09012413024821316,1.516839742733633
1684179851998453400,6.846853759765625,0.34236100299876787,-0.1193933487431357,1.4829723835253628
1684179852008494600,6.85689501953125,0.31307327739823604,-0.28198242196112083,1.4503641128961309
1684179852018535300,6.866935791015625,0.27316650755857697,-0.4319877623518258,1.4915853739443812
1684179852028576400,6.876976806640625,0.27108636493768784,-0.4542045595143274,1.5014760493496737
1684179852038617600,6.887017822265625,0.27159219984763777,-0.44732666015488504,1.490360498377103
1684179852048658600,6.89705908203125,0.3223207890594722,-0.3295335769491177,1.4382557868620887
1684179852058699400,6.907099853515625,0.3988754450907781,-0.23930549627387743,1.3746783733068266
1684179852068740600,6.917140869140625,0.5308012962032458,-0.09392547610758949,1.2772060632428435
1684179852078781600,6.92718212890625,0.6035678983779104,-0.03567409530790088,1.0790131092830992
1684179852088822600,6.93722314453125,0.5928080082112218,0.016918182245457766,0.8553543686870645
1684179852098863600,6.947263916015625,0.5807789564288645,0.07575988753455777,0.6701559425202387
1684179852108904600,6.957304931640625,0.5307329893374808,0.10778141013542032,0.42446202041614756
1684179852118945600,6.96734619140625,0.6235349178087246,0.04020309435121998,-0.04436028014099082
1684179852128986800,6.97738720703125,0.7464187143920864,-0.12092113491785589,-0.5794085861390884
1684179852139027600,6.987427978515625,0.8223502637234285,-0.3718471525779174,-0.9245427250541141
1684179852149068600,6.99746923828125,0.7602467537226532,-0.6687870026172743,-1.199263572759764
1684179852159109800,7.00751025390625,0.6412772535827034,-0.8991670608149531,-1.521642088881788
1684179852169150900,7.01755126953125,0.3533068001309262,-1.0631113051594994,-1.6897959710525736
1684179852179191600,7.027592041015625,-0.08794592324610555,-1.069874763547054,-1.725687265358211
1684179852189232800,7.03763330078125,-0.5938156842053881,-0.9841175079994201,-1.8090020417663917
1684179852199273900,7.04767431640625,-1.1157298087793377,-0.8273019792109696,-1.9246414900933582
1684179852209315000,7.05771533203125,-1.6677536963769877,-0.6611928939832296,-1.93140077589227
1684179852219355800,7.067756103515625,-2.1207461357157475,-0.5520353317373944,-1.874207377501798
1684179852229396900,7.07779736328125,-2.4388084411500484,-0.5302114487851175,-1.7120945453393732
1684179852239438000,7.08783837890625,-2.5821895598707103,-0.4477214814284241,-1.6190757752070648
1684179852249479100,7.09787939453125,-2.3905313015030685,-0.40363311771437566,-1.419086694821488
1684179852259519900,7.10792041015625,-1.8453220128513927,-0.3865356445298465,-0.9177831410319871
1684179852269561000,7.11796142578125,-1.1908000708699011,-0.3176469802808929,-0.456636071139586
1684179852279602100,7.12800244140625,-0.6117407084279717,-0.2138137817527502,-0.2007323503106876
1684179852289643200,7.138043701171875,-0.1356062890922715,-0.015391349882930071,-0.11511093377155047
1684179852299684000,7.14808447265625,0.15911090367560127,0.17465114597873937,-0.21093052636163095
1684179852309725100,7.15812548828125,0.27183541643165077,0.41359806051569387,-0.3557325006309672
1684179852319766200,7.16816650390625,0.34556385863798933,0.5843000411786712,-0.48204588894284967
1684179852329807300,7.178207763671875,0.441314548201916,0.5986948011846819,-0.5257882474679286
1684179852339848100,7.18824853515625,0.46040126670506043,0.5957489014636845,-0.6205536721796909
1684179852349889200,7.19828955078125,0.5311758517573911,0.5994224549385313,-0.6720443963935
1684179852359930300,7.20833056640625,0.5101312398935993,0.46868515027578495,-0.7569491267893924
1684179852369971400,7.218371826171875,0.562880516047443,0.33503532412581744,-0.9707854391286754
1684179852380012200,7.22841259765625,0.6834151743309345,0.183985710126471,-1.1379547118231998
1684179852390053300,7.23845361328125,0.8026543854853011,0.024916648956393665,-1.3143626451383723
1684179852400094400,7.248494873046875,0.6838357447021839,-0.2691707609794055,-1.4519569873722313
1684179852410135600,7.258535888671875,0.5762552021677699,-0.5407037736355564,-1.5076628923001096
1684179852420176300,7.26857666015625,0.639702916203579,-0.7345447541144794,-1.4308252335331968
1684179852430217400,7.27861767578125,0.7964295147520399,-0.8547649383738631,-1.2234964371132175
1684179852440258600,7.288658935546875,1.1676888465129007,-0.7066774368962161,-0.8992014527790442
1684179852450299600,7.298699951171875,1.6449613572024184,-0.3870706557807887,-0.4645305872215421
1684179852460340400,7.30874072265625,2.0657584667237243,-0.10997009266605963,-0.07594585410417043
1684179852470381600,7.318781982421875,2.194480180583267,0.1272964476728343,0.15193742525693776
1684179852480422600,7.328822998046875,1.9687811136600644,0.3116550446085969,0.07767456769346659
1684179852490463600,7.338864013671875,1.6622908115886772,0.5655746459071589,-0.23678123938996834
1684179852500504600,7.34890478515625,1.5237588880878583,0.868478775018922,-0.5481114387983756
1684179852510545600,7.358946044921875,1.51140213020133,1.0143976210382726,-0.6772269010452848
1684179852520586600,7.368987060546875,1.4644769429390772,1.0801858902332135,-0.7326107024648183
1684179852530627800,7.379028076171875,1.3277049065604403,0.9754095076847338,-0.825564980596976
1684179852540668600,7.389069091796875,1.1391042470151767,0.8439569474163443,-0.9180768132122592
1684179852550709600,7.399110107421875,0.929667949709329,0.7624340057781881,-1.0177066325051252
1684179852560750800,7.409151123046875,0.6875520943230974,0.6758527757136965,-1.084598898953958
1684179852570791900,7.419192138671875,0.5413627623471479,0.5628976821785612,-1.1795797348202466
1684179852580832600,7.429233154296875,0.4397051334816229,0.41916561117204815,-1.3113307952778441
1684179852590873800,7.439274169921875,0.3572392463424714,0.28333091734408294,-1.3787233827693308
1684179852600914900,7.449315185546875,0.32629680614509315,0.1318063735782348,-1.4456524848268206
1684179852610956000,7.4593564453125,0.1765847204459753,0.007799148521868083,-1.441865086622891
1684179852620996800,7.469397216796875,-0.05743837352145567,-0.0865659714573386,-1.3728765248923835
1684179852631037900,7.479438232421875,-0.24560832975629668,-0.07522487634231895,-1.399233698936674
1684179852641079000,7.489479248046875,-0.35886693001282377,0.0056047439708391805,-1.3430578707794616
1684179852651120000,7.4995205078125,-0.3500831127838427,0.06755924211620658,-1.1711095573192103
1684179852661160900,7.509561279296875,-0.22051334375882786,0.21608829495438275,-1.0378967523107543
1684179852671202000,7.519602294921875,-0.01677274704132089,0.27457427978144644,-0.9910235405636368
1684179852681243100,7.5296435546875,0.1985752581601229,0.34367465979660383,-0.9064662456630831
1684179852691284100,7.5396845703125,0.3690094948310834,0.4327526092175746,-1.000995755032404
1684179852701325000,7.549725341796875,0.6294952630436144,0.43880176542730875,-0.8991934060730111
1684179852711366100,7.559766357421875,0.8164294957685722,0.47629261019974256,-0.9317981004457908
1684179852721407200,7.5698076171875,0.9706012010462273,0.520663261527367,-0.9183918832798901
1684179852731448200,7.5798486328125,1.0747063160672539,0.5451850891253627,-0.9399583338561861
1684179852741489100,7.589889404296875,1.1195191143064462,0.6119375228558879,-0.8702229856434673
1684179852751530200,7.5999306640625,1.0709507465257158,0.6326379774485006,-0.7915386555719149
1684179852761571200,7.6099716796875,0.9587911367600986,0.6483621597615227,-0.6573370099953919
1684179852771612300,7.6200126953125,0.8167010545489435,0.671635627585078,-0.4888673425705543
1684179852781653200,7.630053466796875,0.6804705859590193,0.6959123611803043,-0.3429969846879594
1684179852791694300,7.6400947265625,0.5599936245416722,0.6763696668945594,-0.2840446532279456
1684179852801735300,7.6501357421875,0.4045066832639141,0.5392475127398443,-0.27743601803056145
1684179852811776200,7.660176513671875,0.13929247852963003,0.3846778869135706,-0.31373208756416215
1684179852821817300,7.6702177734375,-0.22514700875617008,0.2285728454897637,-0.24119207265399772
1684179852831858400,7.6802587890625,-0.5470066070355082,0.07013034833935249,-0.27013108126176993
1684179852841899400,7.6902998046875,-0.765084505049594,-0.07193470003433841,-0.17254908387471427
1684179852851940600,7.7003408203125,-0.9314548969202122,-0.10708999629379927,-0.04659302527355891
1684179852861981400,7.7103818359375,-0.9279360771023716,-0.04486942280035423,0.07821593430527617
1684179852872022400,7.7204228515625,-0.8193240164536402,-0.01388072960574279,-0.015957385214055424
1684179852882063600,7.7304638671875,-0.6701424122585714,0.08920001987452712,-0.10930974032277947
1684179852892104600,7.740505126953125,-0.5218541621336438,0.2070665359096522,-0.21175764506305633
1684179852902145500,7.7505458984375,-0.37190413480698026,0.2990255356120819,-0.3117674292509625
1684179852912186600,7.7605869140625,-0.18412470812450205,0.3722057343395136,-0.43083804848285867
1684179852922227600,7.7706279296875,-0.0801692008497105,0.46001052854146146,-0.497265279257239
1684179852932268500,7.7806689453125,-0.18057966216902457,0.5430288313651699,-0.5342656970178468
1684179852942309600,7.7907099609375,-0.44232082366001035,0.5276641846083973,-0.5814429521348635
1684179852952350600,7.8007509765625,-0.7701897621823417,0.4209489821946124,-0.6322274803869807
1684179852962391700,7.810792236328125,-1.053585767739569,0.3543577193209193,-0.8205901382615142
1684179852972432800,7.820833251953125,-1.207825183890295,0.318558692952386,-0.8867160081687967
1684179852982473600,7.8308740234375,-1.2659578323916174,0.3425502776550241,-0.8893199562580738
1684179852992514700,7.8409150390625,-1.1964626312289115,0.3644866943914187,-0.7869769932555912
1684179853002555800,7.850956298828125,-0.9987490177002395,0.40855884557297134,-0.6282706856970791
1684179853012596600,7.8609970703125,-0.7390396595167085,0.35079765316688893,-0.4720530210833884
1684179853022637700,7.8710380859375,-0.43962192528942295,0.2703437806355293,-0.39151653652634383
1684179853032678800,7.881079345703125,-0.12152767177092137,-0.04310226450237075,-0.3828229307459934
1684179853042719900,7.891120361328125,0.16412067416815881,-0.5081586836526715,-0.5062937737050551
1684179853052760800,7.9011611328125,0.34974968440237314,-0.9743957520073946,-0.6000651121396222
1684179853062801800,7.9112021484375,0.2676745653470344,-1.1866407394211795,-0.6916232108729612
1684179853072842900,7.921243408203125,0.08445203301477949,-0.9809713362155005,-0.7218753696626548
1684179853082884000,7.931284423828125,-0.061252832448329374,-0.7261629104305165,-0.7906938792116821
1684179853092924800,7.9413251953125,-0.15585494036339723,-0.7059221267281338,-0.8126589061208623
1684179853102965900,7.951366455078125,-0.5179978609744438,-1.1435709000818775,-0.817175745911395
1684179853113007000,7.961407470703125,-1.3417824506773102,-1.9522523878458227,-0.3876536787676844
1684179853123048100,7.971448486328125,-2.70452022558433,-2.597417831493196,0.4291327000222172
1684179853133088900,7.9814892578125,-3.7462425231796987,-2.5076522827666854,1.3841822145800724
1684179853143130000,7.991530517578125,-3.3242220877223674,-2.0574903487183245,1.854831218800035
1684179853153171100,8.001571533203125,-1.7930787801146937,-1.3734607696337475,1.5636012554384202
1684179853163212200,8.011612548828126,-0.12030482288996677,-0.6821784974526921,0.7434247135684836
1684179853173253000,8.0216533203125,1.1632795332830657,-0.20769977569218365,0.08500763765169317
1684179853183294100,8.031694580078126,2.2232458590254414,0.1201000214097554,-0.4536000192075708
1684179853193335200,8.041735595703125,2.802384376491239,0.4594287872108833,-0.884516954391607
1684179853203376300,8.051776611328124,2.8011341094499063,0.8221797943427307,-1.091126918881446
1684179853213417100,8.061817626953125,2.5041382312568135,1.1583909986966594,-1.0521626471618122
1684179853223458200,8.071858642578125,2.0541901588370837,1.3996257781896657,-1.141134977469797
1684179853233499300,8.081899658203126,1.419789433497379,1.518409728896467,-1.3529338836950913
1684179853243540400,8.09194091796875,0.6788039208301168,1.5130681993087358,-1.5156894920829154
1684179853253581200,8.101981689453124,-0.06518268590005438,1.3089923857715915,-1.510566353797615
1684179853263622300,8.112022705078125,-0.521586894988109,1.060181617706911,-1.3877924681809266
1684179853273663400,8.122063720703125,-0.4803044795452351,0.7341299056786142,-1.0617293119462832
1684179853283704200,8.132104736328126,-0.08257973181417623,0.36114978787505425,-0.7486332059224329
1684179853293745300,8.142145751953125,0.5529943108493384,0.10110473624357728,-0.4885829090159696
1684179853303786400,8.152186767578126,1.2094018458678606,0.0807104111127465,-0.3222406505952956
1684179853313827600,8.162227783203125,1.7702111006229009,0.10694313049718393,-0.2324144839465506
1684179853323868600,8.17226904296875,2.1747887135458774,0.14286327362570048,-0.1379352212060473
1684179853333909400,8.182309814453125,2.384921074035523,0.11565494536725471,-0.09877932066993995
1684179853343950600,8.192350830078125,2.38917350768847,0.0452156065913009,-0.1726383567656801
1684179853353991600,8.20239208984375,2.2274124623002005,-0.08749580398703145,-0.2458764909920916
1684179853364032600,8.21243310546875,1.9417240620077785,-0.12994766231266666,-0.3810662627623555
1684179853374073600,8.222473876953124,1.5817174912168517,-0.1163578034528547,-0.5065354704404772
1684179853384114600,8.232514892578125,1.1460210084168785,-0.05687904369057649,-0.5676502585551404
1684179853394155600,8.24255615234375,0.6683484315743833,0.1005764008097685,-0.6896114348824384
1684179853404196800,8.25259716796875,0.08514314908870055,0.2477302550609473,-0.8810011744298133
1684179853414237600,8.262637939453125,-0.5157345532719834,0.3956718444806978,-1.035860538532459
1684179853424278600,8.27267919921875,-0.9048083424105401,0.5030431748008757,-1.1443741321041545
1684179853434319800,8.28272021484375,-0.8926073909980686,0.4287424087835603,-1.2049067019906845
1684179853444360900,8.29276123046875,-0.4633455871634093,0.14234161368075635,-1.2905080319768913
1684179853454401600,8.302802001953125,0.28724434960983375,-0.1928005219154032,-1.4587671756750187
1684179853464442800,8.31284326171875,1.0983809232946609,-0.3537416457508235,-1.5425872804418428
1684179853474483900,8.32288427734375,1.7162654398765889,-0.3711690901985456,-1.5094193218894494
1684179853484524600,8.332925048828125,2.1272859573624996,-0.2543048857856582,-1.4511604307902588
1684179853494565800,8.34296630859375,2.33870029447449,-0.16058731079557786,-1.2766305207232045
1684179853504606900,8.35300732421875,2.363575220193845,-0.0562858582647519,-1.1073963642627314
1684179853514648000,8.36304833984375,2.2707023620353253,0.001034736672196957,-0.9949973822611083
1684179853524689100,8.37308935546875,2.1131794452137074,0.05881309511688053,-0.922350227752227
1684179853534729900,8.38313037109375,1.927638292455134,0.0689420698882397,-0.7880161404385458
1684179853544771000,8.39317138671875,1.67399239542991,0.1267995835286441,-0.6823763848773498
1684179853554812100,8.40321240234375,1.4161535501534257,0.1891174315227001,-0.6215180158457548
1684179853564852900,8.41325341796875,1.1233265401444736,0.2629966735814468,-0.5836007000395508
1684179853574894000,8.42329443359375,0.8261591196501742,0.362726211389875,-0.4897553322936872
1684179853584935100,8.43333544921875,0.44624024626671455,0.3926630018399978,-0.46893674127625307
1684179853594976200,8.44337646484375,0.07174327977690963,0.3433418272906519,-0.465904355051375
1684179853605017000,8.45341748046875,-0.25522291670046715,0.29366779340119076,-0.5133503079606782
1684179853615058100,8.46345849609375,-0.47039017072879635,0.21254634874175443,-0.5291253924146382
1684179853625099200,8.47349951171875,-0.5178866386959182,0.10488414767189942,-0.4484786986640722
1684179853635140300,8.483540771484375,-0.30706888449478026,0.011470794603121028,-0.3437417149327057
1684179853645181100,8.49358154296875,0.06720532488709685,0.03510665887973538,-0.16585224873913182
1684179853655222200,8.50362255859375,0.4685605465874016,0.05855751042828412,-0.06578159332158333
1684179853665263300,8.51366357421875,0.7906969188753908,0.13202857980450436,-0.007944762613004737
1684179853675304400,8.523704833984375,1.0096322298950033,0.12650680533937125,0.0403521061271307
1684179853685345200,8.53374560546875,1.166835427220021,0.09475040430080982,0.12414547797800048
1684179853695386300,8.54378662109375,1.208649754534089,0.03919982918016042,0.16464948654012235
1684179853705427400,8.553827880859375,1.1731725929489842,-0.011443138079110179,0.19282940034576543
1684179853715468500,8.563868896484376,1.0017964839963835,-0.10262107855557057,0.22573304187094376
1684179853725509300,8.57390966796875,0.772905349682583,-0.15782260899012737,0.2535132169167817
1684179853735550400,8.58395068359375,0.5671605467737474,-0.21773910523509113,0.27125445005513815
1684179853745591500,8.593991943359375,0.335767418031606,-0.2536964416554496,0.26712927221134286
1684179853755632600,8.604032958984375,0.13928429768288578,-0.2514162063464377,0.2889771162842197
1684179853765673400,8.61407373046875,-0.05981023611168861,-0.19423961646892177,0.24813395744498254
1684179853775714600,8.624114990234375,-0.21229326732424825,-0.12282752994572604,0.2112378179367182
1684179853785755600,8.634156005859374,-0.36648541691048653,-0.05624866487940416,0.1471125482057589
1684179853795796600,8.644197021484375,-0.41812932496656713,0.01987171171204059,-0.005793750280575995
1684179853805837600,8.65423779296875,-0.3439651429613405,0.03383445748697841,-0.07459312677837084
1684179853815878600,8.664279052734376,-0.13856339452742455,0.016777038474702518,-0.10669857253200735
1684179853825919600,8.674320068359375,0.08359883725455287,-0.04560470581370675,-0.0494929551062722
1684179853835960800,8.684361083984374,0.2735446988597833,-0.02663803096182996,0.008145272577392528
1684179853846001600,8.694402099609375,0.4928383230597436,0.006653785765973928,0.03432738775474266
1684179853856042600,8.704443115234374,0.6855089665267119,0.05182838432035592,-0.009216427926325509
1684179853866083800,8.714484130859375,0.8528258204120412,0.08732223521164113,-0.08858621118710934
1684179853876124800,8.724525146484375,0.9957782030588813,0.07730388652987967,-0.11292499301530319
1684179853886165600,8.734566162109376,1.05156755462292,0.03623104088278051,-0.15444856874418655
1684179853896206800,8.744607177734375,1.0366264582755775,-0.014343261679568032,-0.16766798488820536
1684179853906247900,8.754648193359374,0.9300445915462192,-0.05528450012805176,-0.20529317858906604
1684179853916288900,8.764689453125,0.8140149117793007,-0.0674943923680466,-0.2840297221915335
1684179853926329800,8.774730224609375,0.6704785822531159,-0.08685588826666975,-0.33445560924952433
1684179853936370900,8.784771240234376,0.5076643824460081,-0.10853862768600359,-0.35439550893109795
1684179853946412000,8.794812255859375,0.3427695334900004,-0.1181793211759566,-0.40631103526342044
1684179853956452800,8.804853271484374,0.1905785502482071,-0.09669590004452616,-0.42076325415393184
1684179853966493900,8.814894287109375,0.055590331608108785,-0.07281780249447067,-0.455319285368536
1684179853976535000,8.824935302734374,-0.08164976538459304,-0.02745723729175336,-0.488419711594846
1684179853986576000,8.8349765625,-0.21886208649726394,-0.0012731553566966663,-0.5200510025225953
1684179853996617100,8.845017578125,-0.3671752512202757,0.003412246710036852,-0.5954199433711527
1684179854006658000,8.855058349609376,-0.49631941317945233,-0.03959941865572483,-0.6207017897528486
1684179854016699100,8.865099365234375,-0.5785011053187407,-0.14687061309959681,-0.6433092951248459
1684179854026740100,8.875140625,-0.571377336857704,-0.191285133285857,-0.693601071951457
1684179854036781000,8.885181396484375,-0.5415035487329324,-0.17365932451443136,-0.6833402514880871
1684179854046822100,8.895222412109375,-0.45013085013661924,-0.11627101894575849,-0.6250630617360076
1684179854056863200,8.905263671875,-0.38831028355586517,0.01078510280521512,-0.5736461876885267
1684179854066904200,8.9153046875,-0.3014555573768421,0.07921791076882044,-0.4890695810762274
1684179854076945300,8.925345703125,-0.201614573569039,0.14647579198197982,-0.46342140424999045
1684179854086986200,8.935386474609375,-0.09848921000920441,0.1913480759262399,-0.403505325275048
1684179854097027200,8.945427734375,0.0588205754390353,0.19532585141681916,-0.30974864958993215
1684179854107068300,8.95546875,0.18386897439050098,0.21789741502743867,-0.22722315791755976
1684179854117109200,8.965509521484375,0.290615230732742,0.185768127380509,-0.11356204752399426
1684179854127150300,8.975550537109376,0.3931140304702343,0.12578201297355737,0.032465934614663725
1684179854137191300,8.985591796875,0.49132055058095503,0.07140827184836938,0.08028399945072599
1684179854147232400,8.9956328125,0.5592628120878589,0.01788043987226647,0.1582300664308284
1684179854157273300,9.005673583984375,0.6326451302571615,-0.013623237612692952,0.1809914707129999
1684179854167314400,9.01571484375,0.673280358331104,0.03537940977477757,0.14480412003508072
1684179854177355400,9.025755859375,0.6719964741638181,0.0646219254148482,0.14062803981993818
1684179854187396600,9.035796875,0.6623893975792597,0.13092041018599607,0.10924351216400136
1684179854197437400,9.045837646484374,0.6283342838552225,0.18887996675998908,0.09164804226338893
1684179854207478400,9.05587890625,0.5755665302194816,0.19149303452372715,0.06015104059475146
1684179854217519600,9.065919921875,0.5829020142537235,0.16791152954990254,0.08112353088994965
1684179854227560600,9.0759609375,0.5769508479566466,0.11149597163934662,0.07609075315653269
1684179854237601500,9.086001953125,0.6051561237254581,0.02274227131127706,0.10941767699924261
1684179854247642600,9.09604296875,0.6471881271150057,-0.08134269716158873,0.1519517898730554
1684179854257683600,9.106083984375,0.6733046771546679,-0.16519641880462285,0.25733333823343624
1684179854267724600,9.116125,0.6824731230163846,-0.2880249023427867,0.3396081924741001
1684179854277765600,9.126166015625,0.6697544456374924,-0.34327507017778286,0.446388840828101
1684179854287806600,9.13620703125,0.6239300965526514,-0.3580188752046203,0.5446299911609512
1684179854297847600,9.146248046875,0.5536125898582511,-0.3587923049446689,0.6812199951206782
1684179854307888800,9.156289306640623,0.4938778279243675,-0.32690906525347374,0.8290124536593773
1684179854317929600,9.166330078125,0.4273625612843154,-0.3074989318702395,0.9232559202983651
1684179854327970700,9.17637109375,0.3952072561391681,-0.3214025497253884,1.0579999684889745
1684179854338011800,9.186412109375,0.4183037281150808,-0.323259353579044,1.1638187170506462
1684179854348052900,9.196453369140626,0.4576720894813372,-0.3697309494294166,1.2526786327695452
1684179854358093700,9.206494140625,0.5102140901905222,-0.4459171295149025,1.3222616911382121
1684179854368134800,9.21653515625,0.5558936596152706,-0.544127464274313,1.3671562672313629
1684179854378175900,9.226576416015623,0.5962749718754835,-0.7203197479809402,1.4217703342885422
1684179854388216800,9.2366171875,0.627840936076658,-0.881186485208165,1.420951366398845
1684179854398257800,9.246658203125,0.6283167600774067,-0.9185266494416569,1.3997460604069825
1684179854408298900,9.25669921875,0.6091080902709343,-0.857784271130281,1.225455403252324
1684179854418340000,9.266740478515626,0.5558927060239037,-0.7995853423684627,0.9485276341454162
1684179854428381100,9.276781494140623,0.4744686483787984,-0.6924171449183468,0.6060643791391128
1684179854438421900,9.286822265625,0.4090107082023887,-0.5962200165147208,0.34025549879349254
1684179854448463000,9.296863525390624,0.3373866082589843,-0.350896835359866,0.14430856704893835
1684179854458504100,9.306904541015625,0.23802290858194255,-0.08135986335914999,-0.03209805496845083
1684179854468544900,9.3169453125,0.1602038144608356,0.22379398346535803,-0.19169712074478173
1684179854478586000,9.326986328125,0.10618472095181021,0.5554208756310707,-0.3541568516873609
1684179854488627100,9.337027587890624,0.09487454585481832,0.8863754271972193,-0.5385495425179312
1684179854498668200,9.347068603515623,0.13325357437381918,1.245109558120874,-0.8988106252100914
1684179854508709000,9.357109375,0.1341390013970943,1.495234489428536,-1.223334193200485
1684179854518750100,9.367150634765624,0.05951758460020256,1.6489772796087543,-1.4839175939986893
1684179854528791200,9.377191650390625,-0.16925141207692374,1.6305150987199888,-1.5926985740991702
1684179854538832300,9.387232666015626,-0.4668353498385723,1.5338659287088037,-1.5390237569637444
1684179854548873100,9.3972734375,-0.7609983682745906,1.397601127532555,-1.5224089621738108
1684179854558914200,9.407314697265624,-0.9995700120680128,1.1686162949136951,-1.6421962975057738
1684179854568955300,9.417355712890624,-1.184372782883326,0.9060134886775686,-1.568653821984421
1684179854578996400,9.427396728515625,-1.251686215271298,0.6458396911576042,-1.1289995908929382
1684179854589037200,9.437437744140626,-1.2061300278560205,0.4364652633893149,-0.7066911458095765
1684179854599078300,9.447478759765623,-1.115748643894336,0.27316570280036834,-0.5162644387059331
1684179854609119400,9.457519775390624,-0.9965065718995587,0.08163070685826498,-0.5470798015494798
1684179854619160200,9.467560546875,-0.8648145197224693,-0.12155246733532725,-0.6806262731683035
1684179854629201300,9.477601806640624,-0.6847036479234742,-0.2887029647886075,-0.7991777658279485
1684179854639242400,9.487642822265624,-0.5628538131536753,-0.3625850678754884,-0.9174051285603797
1684179854649283600,9.497683837890625,-0.46369206888109743,-0.5274591446671852,-1.1943438052464284
1684179854659324600,9.50772509765625,-0.3656006455204358,-0.6232624054687153,-1.4278934002206973
1684179854669365400,9.517765869140623,-0.27569901953076187,-0.7456436155734992,-1.4898053408728533
1684179854679406600,9.527806884765624,-0.24630621067841674,-0.7796621321153041,-1.4686623811718247
1684179854689447600,9.537847900390624,-0.2508080601530783,-0.6895637511585798,-1.4736183880662137
1684179854699488400,9.547888916015625,-0.2607034443847591,-0.5355672836488986,-1.5533508061831554
1684179854709529600,9.557929931640626,-0.2260034082567754,-0.3299036026942851,-1.5778734682439062
1684179854719570600,9.567970947265623,-0.20646059498069852,-0.15387535096575683,-1.5310631989863284
1684179854729611600,9.57801220703125,-0.19261002529082794,0.030830383268444533,-1.5161734819298678
1684179854739652600,9.588052978515623,-0.1968859433115601,0.18840980522406137,-1.5190234184149787
1684179854749693600,9.598093994140624,-0.18224054570714338,0.2593317032923475,-1.4442582131732153
1684179854759734600,9.608135009765626,-0.23809975398005181,0.27005386343610915,-1.4797511100768959
1684179854769775800,9.61817626953125,-0.35253673801812485,0.2994327545561514,-1.4593735934103993
1684179854779816600,9.628217041015626,-0.5292060373440854,0.3615961074814532,-1.3731095791962193
1684179854789857600,9.638258056640623,-0.7207454443088706,0.41811275473749154,-1.157127499579566
1684179854799898800,9.64829931640625,-0.8651529552162255,0.45925331116109863,-0.9606633185556529
1684179854809939900,9.65834033203125,-0.9422136545682275,0.4920721053180728,-0.7891157865797821
1684179854819980600,9.668381103515625,-0.9566180704537803,0.49023437498517153,-0.7408478258899166
1684179854830021800,9.678422119140626,-0.8135517835927191,0.5923233031844851,-0.6510409117059256
1684179854840062900,9.68846337890625,-0.582125306158115,0.6263818741386233,-0.6207307575699057
1684179854850104000,9.69850439453125,-0.2696689367021572,0.573747634897606,-0.752232551630748
1684179854860144800,9.708545166015623,0.002214670267666924,0.43722534188990675,-0.9294750691488981
1684179854870185900,9.71858642578125,0.1976060867128255,0.24846839892698047,-1.1371486185600552
1684179854880227000,9.72862744140625,0.3716180323821278,0.17048931124661645,-1.3292626141627097
1684179854890268100,9.73866845703125,0.45593619342866526,0.19387245184860485,-1.4315315484484636
1684179854900308900,9.748709228515626,0.5355688333944176,0.2876558303886102,-1.448424458581529
1684179854910350000,9.75875048828125,0.7268403767877047,0.5140151977609271,-1.370197296132625
1684179854920391100,9.76879150390625,0.9696737528528435,0.7390718459934487,-1.278419852321086
1684179854930432200,9.77883251953125,1.232764244050377,0.862638473615536,-1.0916866063383521
1684179854940473000,9.788873291015625,1.4821939468148684,0.8373403549516086,-0.8767753838853014
1684179854950514100,9.79891455078125,1.586382865951912,0.608709335223584,-0.6861770152361552
1684179854960555200,9.80895556640625,1.5228173732910022,0.44194126123088495,-0.5853563547675779
1684179854970596000,9.818996337890624,1.4202675820578914,0.40310192098128145,-0.40764367592387024
1684179854980637100,9.82903759765625,1.301947832151516,0.4150857924030698,-0.17978239063074905
1684179854990678200,9.83907861328125,1.23599588881693,0.3677721023800466,-0.0895282029421927
1684179855000719300,9.84911962890625,1.2283105849286513,0.3208456039922914,-0.030150294216326264
1684179855010760400,9.859160888671877,1.2551138400667456,0.3124103544773351,-0.07088077075929763
1684179855020801200,9.86920166015625,1.248279690670198,0.3089685440208316,-0.08884930606104083
1684179855030842300,9.87924267578125,1.1918449401614184,0.3538150787632399,-0.08227562907890422
1684179855040883400,9.88928369140625,1.0301173923902887,0.4399833679448867,0.05209898931355156
1684179855050924200,9.89932470703125,0.8351871372233416,0.4886636734713675,0.1570695640160966
1684179855060965300,9.90936572265625,0.5562540293350847,0.4543800355857751,0.31025803092888776
1684179855071006400,9.91940673828125,0.3127518892161984,0.31322097782283886,0.4648834467213977
1684179855081047600,9.92944775390625,0.05941903592657906,0.1964979171536115,0.6583416461967968
1684179855091088300,9.93948876953125,-0.20607090002522752,0.09886455519003239,0.8365381361686527
1684179855101129400,9.94952978515625,-0.43624174610321115,-0.01139259340345545,0.9299948811617139
1684179855111170600,9.95957080078125,-0.6178363562985884,-0.07266044629039621,1.0366179942124485
1684179855121211600,9.969612060546876,-0.702770948390324,-0.06619453418547268,1.143459796735854
1684179855131252400,9.97965283203125,-0.748928070191819,-0.07574558252735915,1.1221234798180024
1684179855141293600,9.98969384765625,-0.7862814664419651,-0.017531395096621,1.085329890313605
1684179855151334600,9.99973486328125,-0.8430956602215498,0.02263832088488623,1.020756959798115
1684179855161375600,10.009776123046874,-0.9329830407998574,0.10479831694517724,0.8586825131285429
1684179855171416600,10.01981689453125,-1.093558192090081,0.011735916171435882,0.48215508456224987
1684179855181457600,10.02985791015625,-1.3849163056017375,-0.1915302276689362,0.11572659031686709
1684179855191498600,10.039899169921876,-1.788430929098642,-0.3163328171113316,-0.20221400248047733
1684179855201539600,10.04993994140625,-2.350042819931728,-0.34439945229516933,-0.47083520883329044
1684179855211580600,10.05998095703125,-2.9587435722757798,-0.3461437224151213,-0.6432254313058454
1684179855221621600,10.07002197265625,-3.2817306518429317,-0.3890457153736471,-0.48789620410411855
1684179855231662800,10.080063232421876,-3.1594591140832335,-0.5659227371374077,0.01613998415309767
1684179855241703900,10.090104248046876,-2.6653053760915784,-0.8490686417713503,0.6939988136642139
1684179855251744600,10.10014501953125,-2.01469612121686,-1.0720815658339948,1.3637863398469587
1684179855261785800,10.110186279296874,-1.3776779174129323,-1.1268968582339647,1.8229831457199315
1684179855271826900,10.120227294921875,-0.8740239143559319,-1.1069707869187737,2.1635913849760917
1684179855281868000,10.130268310546874,-0.5066056251976566,-1.0028820037628763,2.4872312545845827
1684179855291908800,10.14030908203125,-0.3953204155761324,-0.781083106915823,2.765464782897143
1684179855301949900,10.150350341796877,-0.5694783924915222,-0.5560712815024079,2.886369466725276
1684179855311991000,10.160391357421876,-0.941412448870153,-0.33724212634771433,2.741973638533579
1684179855322032000,10.170432373046877,-1.5602828263597779,-0.11287212383259296,2.354200839850317
1684179855332072900,10.180473388671874,-2.068310976028526,0.11180114738661395,1.976948261256471
1684179855342114000,10.190514404296875,-2.103077411635849,0.28146171559180605,1.6478984355585813
1684179855352155100,10.200555419921876,-1.9410598277848186,0.4435844421394897,1.3606103657549007
1684179855362196100,10.210596435546876,-1.8656878470639298,0.5904045104736002,1.167847275785827
1684179855372237000,10.220637451171877,-1.9112619160413542,0.5947217940892842,0.9574129582774591
1684179855382278100,10.230678466796874,-1.9291262628140384,0.5421695708314395,0.8160896299998245
1684179855392319200,10.240719482421875,-1.8372701405574547,0.46332359303524395,0.7258956432936057
1684179855402360000,10.250760498046876,-1.571880578875521,0.36516284934188953,0.7900595665938693
1684179855412401100,10.260801513671876,-1.1303137539667791,0.3200616836014496,1.0995897053584998
1684179855422442200,10.270842529296877,-0.5027101040764893,0.2334136963467559,1.4447321892099325
1684179855432483200,10.280883544921876,0.2845988273332841,0.17333698273208098,1.8088853359147057
1684179855442524300,10.2909248046875,1.0970735549141897,0.11935520186381063,2.123825550159425
1684179855452565200,10.300965576171874,1.8057477474963965,0.16361904148468462,2.46200513829616
1684179855462606300,10.311006591796875,2.1918649673334514,0.3029222489265006,2.738450765645897
1684179855472647300,10.3210478515625,2.287576675502328,0.5194292068382542,3.074855089202452
1684179855482688200,10.331088623046876,2.2068438530099224,0.8207235337206067,3.153396844852986
1684179855492729300,10.341129638671877,1.8696767092103757,1.1102972030656855,2.8906686307173177
1684179855502770400,10.351170654296874,1.4269655941779034,1.2865710257535745,2.590107202477846
1684179855512811400,10.3612119140625,0.9953470230255126,1.3653645513919037,2.1207504272563726
1684179855522852300,10.371252685546876,0.5673327446264981,1.3673868178916277,1.6246615648439942
1684179855532893400,10.381293701171876,0.15946185579380523,1.2209033964554534,1.2422337531949408
1684179855542934400,10.3913349609375,-0.17918074134138517,0.9859390257946482,0.8550653456274371
1684179855552975600,10.4013759765625,-0.41443824769019433,0.7412424087020831,0.6490073204094732
1684179855563016400,10.411416748046875,-0.6071251630137304,0.48389625549287696,0.5853271483491884
1684179855573057500,10.421457763671874,-0.8414077758766316,0.3896217347163368,0.5086798668248546
1684179855583098600,10.4314990234375,-1.1038889885827152,0.3111686706588757,0.38980531686447756
1684179855593139600,10.4415400390625,-1.255349874546753,0.21661758425762848,0.21277761446451987
1684179855603180500,10.451580810546876,-1.2344475985193017,-0.006552696310223016,-0.05335211756303223
1684179855613221600,10.4616220703125,-1.1892721651792213,-0.25290203083635787,-0.39682388306896943
1684179855623262600,10.4716630859375,-1.2263333797395095,-0.47432518021207887,-0.7965471745195953
1684179855633303700,10.4817041015625,-1.2849059103878726,-0.5700397491355338,-1.2485673428122266
1684179855643344600,10.491744873046876,-1.5079097747742756,-0.5706739425525335,-1.6422927379977117
1684179855653385600,10.5017861328125,-1.8382956981205414,-0.4923086166383254,-1.9495534896108413
1684179855663426700,10.5118271484375,-2.239686489078376,-0.40913105019980284,-2.2425765992064366
1684179855673467800,10.5218681640625,-2.5867724419433955,-0.27987384802488413,-2.642162799855472
1684179855683508600,10.531908935546875,-2.657653093485016,-0.28058242800694605,-2.695444583806419
1684179855693549700,10.5419501953125,-2.4435412883903798,-0.35546207433523785,-2.3328497408112043
1684179855703590800,10.5519912109375,-1.98075509084984,-0.3291625976589666,-1.903935670908695
1684179855713631900,10.5620322265625,-1.4025905133072847,-0.3355379105453445,-1.5639874935095501
1684179855723672800,10.5720732421875,-0.8551512956703623,-0.29826927181089413,-1.2592172623503897
1684179855733713800,10.5821142578125,-0.36950951810704624,-0.3580808640381294,-0.8280684947726983
1684179855743754900,10.5921552734375,0.00821350520784518,-0.39728355394873033,-0.38467335689175025
1684179855753795800,10.602196044921875,0.31181907650583807,-0.41564273834214105,0.03633213052584612
1684179855763836800,10.6122373046875,0.4297510386482382,-0.49878025055596964,0.47165989877463643
1684179855773877900,10.6222783203125,0.41579437264002517,-0.40258026124420676,0.8124055864005518
1684179855783919000,10.6323193359375,0.26312527064125363,-0.27270889282983074,1.0547868013083432
1684179855793960100,10.642360595703124,-0.055825017542840194,-0.10650062552717157,1.3076200485106937
1684179855804000900,10.6524013671875,-0.33913099769578225,0.0891265869296694,1.6198785305378869
1684179855814042000,10.6624423828125,-0.46226999162398685,0.21399784087688264,1.9597122670593923
1684179855824083100,10.6724833984375,-0.3823319673168477,0.17315387733711163,2.153793811714788
1684179855834124000,10.6825244140625,-0.23719546200773106,-0.06604957572024239,2.2155303954804655
1684179855844165000,10.6925654296875,-0.05458950247749439,-0.25972461706646066,2.081416845488437
1684179855854206100,10.7026064453125,0.12247690539677376,-0.28908920284637407,1.8371964692707927
1684179855864247200,10.712647705078124,0.21673612315807889,-0.33878135683869326,1.6060020922893998
1684179855874288000,10.7226884765625,0.23932835468497318,-0.272856712241633,1.3454487323978248
1684179855884329100,10.7327294921875,0.17278319600780426,-0.2376432418560644,1.0089504717780486
1684179855894370200,10.7427705078125,0.04943239680357041,-0.14995670321686522,0.6626713277002039
1684179855904411300,10.752811767578123,-0.076819241193945,-0.07723236092334156,0.25549888609210125
1684179855914452100,10.7628525390625,-0.1927509606111609,0.011274337653639426,-0.20182609558324618
1684179855924493200,10.7728935546875,-0.31577703353724085,0.06987094864124732,-0.6963930129996032
1684179855934534300,10.782934814453125,-0.4766134321472292,0.11283493053428711,-1.2515842915752904
1684179855944575400,10.792975830078126,-0.6475856900782406,0.04463577283870159,-1.8216071129491624
1684179855954616200,10.8030166015625,-0.8278453945250498,-0.033968925623356544,-2.205913066999594
1684179855964657300,10.8130576171875,-1.1076773405200304,-0.06985855087495525,-2.4416830539949657
1684179855974698400,10.823098876953123,-1.3587743042392972,-0.020102500928185683,-2.5371186734014755
1684179855984739600,10.833139892578124,-1.4932787418043814,0.011794090191882893,-2.5673274995189743
1684179855994780300,10.8431806640625,-1.5193483830258616,-0.014882087615994946,-2.3328325747686405
1684179856004821400,10.853221923828125,-1.3294537066615086,-0.07566547400980841,-1.8939368724248749
1684179856014862600,10.863262939453126,-0.9790546894443497,-0.13672161104663455,-1.3351049424204589
1684179856024903600,10.873303955078123,-0.530510187147616,-0.15025424942540308,-0.7847459315317848
1684179856034944400,10.8833447265625,-0.07765123251855835,-0.1592340468396233,-0.24419832226086846
1684179856044985600,10.893385986328123,0.33521467446189257,-0.1920833586865461,0.21362066276753747
1684179856055026600,10.903427001953125,0.6968777180577612,-0.18186092385544372,0.5120711327592438
1684179856065067600,10.913468017578126,0.9409204721749664,-0.030751228351067573,0.7109266518898122
1684179856075108600,10.923509033203125,1.0678808689813073,0.03874111189298927,0.8008837699784469
1684179856085149600,10.933550048828126,1.1168897151493558,0.17502593996351828,0.8962163924798657
1684179856095190600,10.943591064453123,1.0897201299602004,0.36373996739892545,0.9726001023461449
1684179856105231600,10.9536318359375,0.9936951398808863,0.6166925430255235,1.0707979203570919
1684179856115272600,10.963673095703124,0.9174653887882589,0.7307958603483836,1.0998791456709132
1684179856125313600,10.973714111328125,0.8874192237406183,0.7232236861998622,1.1002360581594275
1684179856135354800,10.983755126953126,0.8821107148337927,0.7064542769464874,1.0984424351534987
1684179856145395900,10.99379638671875,0.8660354613368413,0.5894527434521837,1.0287725924417341
1684179856155436600,11.003837158203124,0.8493909240379107,0.37705516812591244,0.9852141141689541
1684179856165477800,11.013878173828124,0.7616918087860912,0.16041755677262365,0.9766569138033829
1684179856175518900,11.023919189453125,0.6283197402289038,-0.10808467859553696,0.9333813191561661
1684179856185559700,11.033960205078126,0.44994211214376534,-0.3376913071158938,0.851144909851262
1684179856195600800,11.044001220703125,0.18603992443592954,-0.46637725817678144,0.7370040415263099
1684179856205641900,11.054042236328126,-0.08778190617989312,-0.41048431393247736,0.6282072066335649
1684179856215683000,11.06408349609375,-0.3393328190081828,-0.3469648359410268,0.39568996438382303
1684179856225723800,11.074124267578124,-0.4286296366811484,-0.3308887482567599,0.11292052265687601
1684179856235764900,11.084165283203124,-0.4353492854983345,-0.3504552840558425,-0.1585893630835702
1684179856245806000,11.094206298828125,-0.4194637537174609,-0.32451152811628614,-0.30119514455624136
1684179856255847100,11.10424755859375,-0.3512884080302164,-0.25091457357153707,-0.3722565174227181
1684179856265888200,11.11428857421875,-0.2927385270741421,-0.09885883315949699,-0.3624475001306272
1684179856275929000,11.124329345703124,-0.20294228203208442,0.035806655999832473,-0.3221809864781321
1684179856285970100,11.13437060546875,-0.09523051980268016,0.08612346650679455,-0.2322549819726679
1684179856296011200,11.14441162109375,0.024786174318771913,0.1166563034271285,-0.13073444365247247
1684179856306052000,11.154452392578126,0.1059787868532426,0.12522125237479345,0.03166437137301194
1684179856316093100,11.164493408203125,0.20135653012809354,0.1502037046989076,0.1421685219412765
1684179856326134200,11.17453466796875,0.263542115616622,0.14612007137799227,0.26336002341932635
1684179856336175300,11.18457568359375,0.34706884610999633,0.14405441288486256,0.4119257927830117
1684179856346216400,11.19461669921875,0.4363146424396962,0.06054973595424097,0.6013307571908997
1684179856356257200,11.20465771484375,0.49856817726853175,-0.06583595272356244,0.7612917423268122
1684179856366298300,11.21469873046875,0.508915245445765,-0.17295360569537443,0.8345122336359727
1684179856376339400,11.22473974609375,0.43629240983979956,-0.2727222442567227,0.9092717170206823
1684179856386380200,11.234780517578123,0.3627515435838965,-0.2910003662509386,0.9971675873263777
1684179856396421300,11.24482177734375,0.23990809923296857,-0.24696922285193268,1.0383740664764798
1684179856406462400,11.25486279296875,0.11730176209368401,-0.2576675414452573,1.0830322505357015
1684179856416503500,11.26490380859375,-0.0034958124420108798,-0.2465000151906209,1.0430231095325353
1684179856426544300,11.27494482421875,-0.06198149913240731,-0.21362304674360008,1.0194666387098184
1684179856436585400,11.28498583984375,-0.12489575146683732,-0.2068223953454152,1.0457195042430651
1684179856446626600,11.29502685546875,-0.12067973629102177,-0.17826557151294645,1.0117722749788585
1684179856456667600,11.30506787109375,-0.09026777761481705,-0.13041114806128212,0.9679470062403549
1684179856466708600,11.315109130859376,-0.031403660754849114,-0.0777559279620723,0.8549915551515199
1684179856476749600,11.32514990234375,0.04363912354532084,-0.053807258704612546,0.8236893415351082
1684179856486790600,11.33519091796875,0.11972540605662639,-0.003746032754213901,0.7334116698088917
1684179856496831600,11.345232177734376,0.20771080267863298,0.024384498685988316,0.6684354543909368
1684179856506872600,11.35527294921875,0.27981013060625465,0.01858711244637192,0.7075495719244098
1684179856516913600,11.36531396484375,0.30868107080433427,0.010042190575300813,0.792753219601865
1684179856526954600,11.37535498046875,0.2946630121224429,-0.020118713320712467,0.7579351662774655
1684179856536995800,11.385396240234376,0.27147835506949863,-0.08323955523765154,0.8380322457697639
1684179856547036600,11.39543701171875,0.24417519569187102,-0.09615802752246723,0.9008905888657877
1684179856557077600,11.40547802734375,0.20603901151106727,-0.14443588263033405,0.9491010904958092
1684179856567118800,11.415519287109374,0.16212290515105238,-0.24851226820177005,1.0388410091082754
1684179856577159900,11.425560302734375,0.07742482421728746,-0.26605606082955724,1.0794347524173664
1684179856587200600,11.43560107421875,0.0003100634508666443,-0.24077987660760397,1.083230852975497
1684179856597241800,11.44564208984375,-0.05728095770362718,-0.2746047973045479,1.123793482783521
1684179856607282900,11.455683349609377,-0.14463055134983105,-0.2981414794457238,1.13893234734909
1684179856617324000,11.465724365234376,-0.20407733319387855,-0.3773832322152291,1.1382815838035387
1684179856627364800,11.47576513671875,-0.25233596554566046,-0.3960866927709479,1.1129161118361142
1684179856637405900,11.48580615234375,-0.31816005719741436,-0.38113975533645145,1.1431320905596938
1684179856647447000,11.495847412109375,-0.372369199985609,-0.26698493958417696,1.1920558213905934
1684179856657488000,11.505888427734376,-0.3978213668857939,-0.19174957279205065,1.1392654180311657
1684179856667528900,11.51592919921875,-0.3807928265581924,-0.16434288029420221,1.092949271145754
1684179856677570000,11.525970458984377,-0.3649820984313517,-0.15818309772723227,1.0344008207928943
1684179856687611100,11.536011474609374,-0.32736721639542055,-0.1188173293843241,0.9850271939568008
1684179856697652100,11.546052490234375,-0.2733579279517662,-0.09637737281604801,0.8839102982859979
1684179856707693000,11.55609326171875,-0.23842257279429188,-0.09062099445244698,0.8003741503784977
1684179856717734100,11.566134521484376,-0.19637638338138397,-0.14364337904161023,0.6187374592629021
1684179856727775200,11.576175537109377,-0.1387640833021637,-0.19338893886700162,0.42099452020056033
1684179856737816200,11.586216552734374,-0.11328375346798264,-0.19768047340233671,0.2855998278155262
1684179856747857100,11.596257568359375,-0.10019701705406206,-0.18072032924906128,0.16887354846615377
1684179856757898200,11.606298583984374,-0.07291215652509804,-0.15695857991041784,0.12466001513312622
1684179856767939200,11.616339599609375,-0.07112330202925565,-0.08883666988721467,0.12366437925125122
1684179856777980300,11.626380615234376,-0.06382441532322654,-0.03833961482901684,0.10174870483056743
1684179856788021200,11.636421630859376,-0.03741979596286018,-0.007545471213663769,0.12042284015084036
1684179856798062300,11.646462646484377,-0.013893485065761008,0.027379035864959017,0.1084015369544312
1684179856808103300,11.656503662109374,-0.021745264570924835,0.035754203828707525,0.10851693156626392
1684179856818144400,11.666544921875,-0.010871171950849096,0.1193323135600813,0.11318755148091465
1684179856828185300,11.676585693359376,-0.01907414204978204,0.08148956306308347,0.08932113654377821
1684179856838226400,11.686626708984376,-0.01329451811666548,0.1078128815004325,0.05879449861335086
1684179856848267400,11.696667724609377,0.020480632901095412,0.13598060611429694,0.026655197278602324
1684179856858308600,11.706708984375,0.06072735788937618,0.1871376037620626,0.00952601444264945
1684179856868349400,11.716749755859375,0.07880812889915466,0.21616363519591456,-0.028211355357868704
1684179856878390400,11.726790771484374,0.08639532325662276,0.19276714321402405,-0.02959465977430341
1684179856888431600,11.73683203125,0.090434789570276,0.09197807305885222,-0.06384849550830479
1684179856898472600,11.746873046875,0.05552762741209651,0.011596679795468556,-0.10685610766335987
1684179856908513600,11.7569140625,-0.003275454029171171,-0.04162311546398498,-0.10674333566734949
1684179856918554600,11.766954833984377,-0.08717226977278547,-0.05159759528645067,-0.13018655778026497
1684179856928595600,11.77699609375,-0.11540025483164854,-0.023707389915387855,-0.10863137241673428
1684179856938636600,11.787037109375,-0.17359682913776545,0.04143810255819289,-0.09705638882516063
1684179856948677600,11.797077880859376,-0.2093550265158948,0.06082725539918794,-0.116480112037987
1684179856958718600,11.807119140625,-0.26765611783025145,0.011629104626927072,-0.1731741427421092
1684179856968759600,11.81716015625,-0.3011908829178245,-0.022700309679288336,-0.19553327568032056
1684179856978800800,11.827201171875,-0.3550193608451903,0.011706352215079405,-0.21925926212677072
1684179856988841600,11.837241943359375,-0.3785857857070237,0.03845310216724719,-0.17149186119438387
1684179856998882700,11.847283203125,-0.36234238755571985,0.022385597242658897,-0.17578244205201374
1684179857008923800,11.85732421875,-0.3610385657179084,0.046623230062079656,-0.1394872664655213
1684179857018964900,11.867365234375,-0.2807241379440427,0.06577396382525531,-0.10349679002304722
1684179857029006000,11.877406494140626,-0.22012883432051877,0.07984542844602777,-0.08894181246950762
1684179857039046800,11.887447265625,-0.13259035332342417,0.09834289549249034,-0.039191007626078786
1684179857049087900,11.89748828125,-0.09675383573306467,0.10937404627320439,-0.039521455909777264
1684179857059129000,11.907529296875,-0.060135900962221836,0.09651184082519745,0.003021955465161057
1684179857069169800,11.9175703125,-0.07680076369009496,0.0790529250856421,0.06861078734041627
1684179857079210900,11.927611328125,-0.06100100283662681,0.03353500367280574,0.10272932047330413
1684179857089252000,11.93765234375,-0.08209943761660131,-0.039608955282893786,0.13180947302863252
1684179857099293100,11.947693603515624,-0.12088286871080432,-0.059846878016709494,0.18161976334055038
1684179857109333900,11.957734375,-0.15748989583316222,-0.025638580337732395,0.1787285803215322
1684179857119375000,11.967775390625,-0.2076556384527588,0.03163528440109248,0.18248987186393298
1684179857129416100,11.97781640625,-0.2403338551348912,0.005623817460659495,0.10585308078765159
1684179857139457200,11.987857666015625,-0.27020627253451085,-0.0010948180145152779,-0.007323741930407832
1684179857149498300,11.997898681640624,-0.27829211955452643,0.022890090825868747,-0.09498310097005681
1684179857159539100,12.007939453125,-0.3161112964536995,0.03000926985340916,-0.15982723245520625
1684179857169580200,12.017980712890624,-0.30276274676922466,0.018176078886868147,-0.2279559375342954
1684179857179621300,12.028021728515624,-0.27936434746401473,-0.005288124042344166,-0.2214386464665442
1684179857189662100,12.0380625,-0.2719573676051338,-0.021327018683109347,-0.18402266507701392
1684179857199703200,12.048103515625,-0.2522475125063937,-0.030047416591207007,-0.12108004094403273
1684179857209744300,12.058144775390623,-0.21360757936415886,-0.008010864297434101,-0.037919879073319465
1684179857219785400,12.068185791015624,-0.16590857486518118,-0.00044059759872891403,0.01791310305139321
1684179857229826200,12.0782265625,-0.13740971690517378,0.009447097687271007,0.06073236473266564
1684179857239867300,12.088267822265625,-0.06412577618765049,0.03812789921069752,0.06001234041287417
1684179857249908400,12.098308837890626,-0.010835945516593441,0.05465126050521146,0.01648414148693732
1684179857259949600,12.108349853515625,0.05459868901942421,0.05440044405240814,-0.028892755551593714
1684179857269990600,12.118390869140624,0.07933074242624431,0.05168724050778465,-0.045272946398191447
1684179857280031400,12.128431884765623,0.06177723403584575,0.04186153410463933,-0.0708737372353064
1684179857290072600,12.138472900390624,0.0033695101951604165,0.050915718066288286,-0.13347017768015704
1684179857300113600,12.148513916015624,-0.037951707804400076,0.04327201846541061,-0.16655766967248406
1684179857310154600,12.15855517578125,-0.09963560113879215,0.09223079694085816,-0.17303466793999656
1684179857320195600,12.168595947265626,-0.1526838541565618,0.05325794233083607,-0.2239335775294311
1684179857330236600,12.178636962890623,-0.16430532935184244,0.0525598527545447,-0.266553878732343
1684179857340277600,12.188677978515624,-0.17277684821422337,0.07534313198843429,-0.3032251596864304
1684179857350318600,12.198718994140624,-0.1357994079602537,0.09765338889720507,-0.30570447451484845
1684179857360359600,12.208760009765625,-0.13203078512503813,0.11478614804528955,-0.2746078969499912
1684179857370400600,12.218801025390626,-0.10876289003692079,0.06564903271308974,-0.1964069604492504
1684179857380441800,12.22884228515625,-0.08289355044520508,0.019648551785312468,-0.10738515854674191
1684179857390482900,12.23888330078125,-0.06415247920237847,-0.01854515066883512,-0.010220050764828834
1684179857400523600,12.248924072265623,-0.024648547087494574,-0.041987419144158704,0.057091355300251195
1684179857410564800,12.258965087890624,-0.01651334778098892,-0.041488647540641105,0.13027143486146384
1684179857420605900,12.26900634765625,0.012473106518827593,-0.02210998528349593,0.18543887130422262
1684179857430647000,12.27904736328125,0.024158477776521897,-0.0006589889792182293,0.21348786347573262
1684179857440687800,12.289088134765626,0.016582489167696002,-0.010073661781733724,0.2311322687439487
1684179857450728900,12.29912939453125,0.013745188591858649,-0.033377647450658014,0.18215012537228809
1684179857460770000,12.30917041015625,-0.0032077432654417713,0.012063026381096546,0.14298617848489062
1684179857470811100,12.31921142578125,0.017564237119851642,-0.0043992995853163125,0.08526372897995052
1684179857480852100,12.32925244140625,0.004738926825462951,-0.00410938269540617,0.05903327459547822
1684179857490893000,12.33929345703125,-0.005100786623894557,0.05035305022920173,0.04497385032855535
1684179857500934100,12.34933447265625,0.004719913045394906,0.09453487405210298,0.019361019194139673
1684179857510975200,12.35937548828125,0.026250898932997566,0.03676891327840022,-0.0035318136446282167
1684179857521016000,12.36941650390625,0.0350428820073856,0.01281929010465507,-0.013942360847911835
1684179857531057100,12.37945751953125,0.02168118947613946,0.03388881680803412,0.0020190477633844264
1684179857541098200,12.38949853515625,-0.003720045006331523,0.07565689079134066,0.011172056179775191
1684179857551139200,12.39953955078125,-0.019639670839471508,0.06948089603619127,0.02557146545998781
1684179857561180100,12.40958056640625,-0.023811757586755862,0.01851844789890962,0.042778849727597386
1684179857571221200,12.41962158203125,-0.058521866793678705,-0.008176803531424278,0.1332808731413909
1684179857581262300,12.42966259765625,-0.08273801211377678,-0.02030944820339587,0.21539306640276865
1684179857591303300,12.439703857421875,-0.08236250282076732,-0.07444858551680733,0.2955245972519964
1684179857601344400,12.449744873046876,-0.0463089942005392,-0.09216785420945592,0.29573524001697915
1684179857611385300,12.45978564453125,-0.02504211668388823,-0.09765243531361024,0.23624908917203696
1684179857621426400,12.46982666015625,-0.002246797184544614,-0.05587959305132539,0.1418997049613385
1684179857631467400,12.479867919921874,-0.008528590162107984,0.0017290114492670193,0.10052990929359787
