time,seconds_elapsed,z,y,x
1684002650102613600,0.03501416015625,-1.2662751999264385e-10,-3.244269357036522e-11,1.089978920571116e-10
1684002650112655800,0.04505615234375,-0.08202600479239272,0.18539312478317316,0.07867755002274715
1684002650122697900,0.055098388671875,-0.151162147510884,0.26440253849045886,0.13285326948436502
1684002650132740000,0.065140380859375,-0.029923438960817363,0.3501939177853232,0.19422712917138882
1684002650142782100,0.0751826171875,0.3186178208093526,0.47463369367016095,0.14412805444978624
1684002650152824200,0.085224609375,0.7873659133217522,0.5570896267722734,0.025210112401715962
1684002650162866100,0.0952666015625,1.4639253615356536,0.463469207393943,-0.03713420028988402
1684002650172908200,0.10530859375,2.0447893141202287,0.3272771536874345,-0.10062572361273263
1684002650182950300,0.115350830078125,2.1915349960709922,0.3317264915223394,-0.20357164748456177
1684002650192992400,0.125392822265625,2.1002473831156903,0.016384959210283774,-0.2892141641616527
1684002650203034600,0.13543505859375,1.9273252485657277,-0.10926234719428711,-0.7729420661027794
1684002650213076600,0.14547705078125,1.4392213821097233,0.09359455117815622,-1.6483335494389617
1684002650223118800,0.155519287109375,0.7134065629540568,0.2516719103671939,-1.996037244768359
1684002650233160600,0.16556103515625,0.5995893477701509,0.05151271838409189,-1.8030073644338813
1684002650243202700,0.17560302734375,0.6563119888141514,0.18598985671010337,-0.858977794618578
1684002650253244800,0.185645263671875,0.6849803924322838,0.4654233456939444,0.06247711191072524
1684002650263287000,0.195687255859375,0.8660211562545083,0.7912844418490074,0.5203443764291039
1684002650273329100,0.2057294921875,0.9244432449671056,1.1042807101758978,0.8216187953707832
1684002650283371200,0.215771484375,1.005361556899218,1.1647603512613918,1.0193722248624673
1684002650293413300,0.225813720703125,1.430395126283202,1.1975325347342198,1.1779210568444853
1684002650303455200,0.23585546875,1.6332464218218086,0.9012770651387514,1.3859516380981298
1684002650313497300,0.245897705078125,1.8122959136522179,0.6055374144371032,1.3792488575278927
1684002650323539400,0.255939697265625,1.6358623505350982,0.6869750022241272,1.140349745795598
1684002650333581600,0.26598193359375,1.0118026733490724,0.8230001925272312,0.8905422688402791
1684002650343623600,0.27602392578125,0.022924423280376676,0.7127091886473117,0.8639893531758437
1684002650353665600,0.286066162109375,-0.8534250260463099,0.4854984282735146,0.8458608984376144
1684002650363707800,0.296108154296875,-1.8926143644843572,0.5639513732266412,0.7382951975624248
1684002650373749600,0.306150146484375,-3.161714553937479,0.8105946779505248,1.0174090861426155
1684002650383791800,0.316192138671875,-3.9776329994713273,1.1943933964011928,0.8524055480596907
1684002650393833900,0.326234375,-4.137381553575693,1.4492782355646412,0.5214265585122705
1684002650403876000,0.3362763671875,-3.636539935988069,1.0921136141265764,1.171863436744245
1684002650413918100,0.346318603515625,-1.4183702467536656,1.0676822663530006,0.39969241621760765
1684002650423960200,0.356360595703125,0.5597743989088984,1.386669158743547,-0.17347526547053824
1684002650434002400,0.36640283203125,2.221623420729561,1.5575104951986212,0.5414967536354893
1684002650444044200,0.376444580078125,3.2923984526837256,1.3184072971519833,1.8240373134700378
1684002650454086300,0.38648681640625,4.081295013546851,1.4763952492613885,2.339140892087466
1684002650464128400,0.39652880859375,3.342960357552192,1.8365252018737177,2.183698654133528
1684002650474170600,0.406571044921875,2.6459436416885542,2.1677322388338776,1.8769176006322041
1684002650484212600,0.416613037109375,1.802243232775144,0.5896587371309283,0.2662956714390821
1684002650494254800,0.4266552734375,0.6664733886626456,1.9241425990527312,0.6113579272630755
1684002650504296900,0.436697265625,-0.3393611906994583,2.9096765516951937,0.8854882717359124
1684002650514338700,0.4467392578125,-0.65793609612205,2.9863181112988477,0.8049936292920586
1684002650524380800,0.45678125,-0.7283763884502651,2.3690390588144923,0.6003041267964969
1684002650534423000,0.4668232421875,0.8572950363379702,2.4553928374785565,-0.16018652914713077
1684002650544465100,0.476865478515625,2.559386253278671,2.332204341792019,-0.2751231193130369
1684002650554507200,0.486907470703125,3.9915723800406577,1.7150483131379384,0.33693933470128934
1684002650564549300,0.49694970703125,5.462596893203779,2.961599588453357,1.353416442990134
1684002650574591400,0.50699169921875,4.283968925510757,1.605633735685896,1.3797321320953415
1684002650584633300,0.51703369140625,3.9678611754805178,0.8813936708733355,3.171294689165761
1684002650594675400,0.52707568359375,2.9556808470449876,1.6727106571120878,2.651458740288868
1684002650604717600,0.537117919921875,0.5418529509077501,0.8554927111126014,3.781933307767892
1684002650614759600,0.547159912109375,-1.1485481261263495,0.8212435244554396,3.661186218325796
1684002650624801600,0.5572021484375,-2.4591255187823022,1.3348933459193182,3.264285087723993
1684002650634843800,0.567244140625,-2.8507480622242483,1.62885713581867,2.9944114686169003
1684002650644885900,0.577286376953125,-2.2677130698963395,1.2693938014939647,2.711667537709466
1684002650654928000,0.587328369140625,-1.5679726599009025,0.5710620879701699,2.426989078625222
1684002650664969900,0.597370361328125,-0.1273732184289555,0.20047211647361793,2.102515697622038
1684002650675012000,0.607412353515625,1.0091948508952848,0.01893997194787837,2.776813983887632
1684002650685054100,0.61745458984375,1.4113087654495626,-0.18837165826620586,2.798392772761551
1684002650695096200,0.62749658203125,1.5689296723350064,-0.644079685196501,2.7929682732182806
1684002650705138400,0.637538818359375,0.20770168316713608,-1.1672945022078056,2.994923114907718
1684002650715180500,0.647580810546875,-1.5582361221780152,-1.348217725801855,1.9954805374047984
1684002650725222600,0.657623046875,-13.27329063402987,-2.589138984784329,1.289847373877358
1684002650735264600,0.6676650390625,-20.356685638446855,3.268659591647548,-1.733522415023278
1684002650745306600,0.67770703125,0.610214710205375,3.2493538856091977,2.6304435731570788
1684002650755348600,0.6877490234375,-1.5937924386592293,-2.633574724263461,4.816222190840906
1684002650765390800,0.697791259765625,-2.0261285305513135,-1.2548248767879553,4.066932678227204
1684002650775432900,0.707833251953125,-2.148484230215674,0.796752929585495,2.10843181607705
1684002650785475000,0.71787548828125,-1.6676583290086266,-0.3309819698641864,0.9451122284231809
1684002650795517100,0.72791748046875,-0.24962329860820845,-1.4393067359769733,0.5838413238506782
1684002650805559200,0.737959716796875,-2.011100292259509,-1.8310539722340011,1.8220882415864623
1684002650815601100,0.74800146484375,-2.6041362285241036,-0.8665528295884442,0.6051378249562768
1684002650825643200,0.758043701171875,-2.307274818449721,-1.0406453610379045,0.7342662811039123
1684002650835685300,0.768085693359375,-2.135993957590326,-1.2490859031863504,0.36365890513098303
1684002650845727400,0.7781279296875,-1.7922258377192681,-1.3447880745029517,-0.7126231192384938
1684002650855769600,0.788169921875,-0.949337482359207,-1.5784833431001402,-1.1379966735665064
1684002650865811600,0.7982119140625,-0.9235339163836634,-1.7097408771271394,-1.196676254389762
1684002650875853700,0.808254150390625,-1.4992196558603603,-1.2678956986590328,-1.6677036286159201
1684002650885895900,0.818296142578125,-0.19935607908031447,-0.6180479525925652,-2.0325241088779897
1684002650895937600,0.828338134765625,1.5800013542436584,-0.8883407114927214,-0.6637091637115616
1684002650905979800,0.838380126953125,2.252157211401947,-0.9473094940407307,-0.4620866775785465
1684002650916021900,0.84842236328125,2.7719550134349014,-1.2643907070029021,-0.5600919723543698
1684002650926064000,0.85846435546875,2.0873389244539227,-1.7233123779432828,-0.6293668748731859
1684002650936106200,0.868506591796875,0.5213942526699175,-2.0769124031127237,-0.9908876420256697
1684002650946148300,0.878548583984375,-0.3846406937311101,-1.2165386677365388,-2.018063545235637
1684002650956190400,0.8885908203125,-1.1599752903685117,-0.6684563159895521,-1.469559192545031
1684002650966232600,0.8986328125,-1.9107291699526465,0.041738748502572115,-0.7942247391473711
1684002650976274400,0.9086748046875,-2.0239140987350113,0.8218470810305751,-0.24051666252479745
1684002650986316500,0.918716796875,-2.2029960154366317,1.8875854014656328,-0.2759094238527247
1684002650996358600,0.928759033203125,-2.225716114181294,2.0359969138962444,-0.16679859163788682
1684002651006400600,0.938801025390625,-3.9424819946766765,0.18424773217601192,0.543856620777257
1684002651016442800,0.94884326171875,-2.046990871398059,1.1029717922669378,-0.6493473051151705
1684002651026484900,0.95888525390625,-1.9798378945648902,0.633164763389668,-0.6930799484128072
1684002651036527000,0.968927490234375,-1.469096660705478,0.6773049831053017,-0.9811143876611275
1684002651046569100,0.978969482421875,-1.6664291619226503,-0.011612176800049489,-0.12583351119356448
1684002651056611200,0.98901171875,-0.4991022347967539,-0.026267051762828106,-0.6071834564017473
1684002651066653100,0.999053466796875,-0.11680471897499908,-0.08443069458983478,-1.2133293151829507
1684002651076695200,1.009095703125,-0.6661198140939475,-0.7197520733055887,-1.234494209265634
1684002651086737300,1.0191376953125,-0.7099144459168337,-0.6997127531793079,-1.4067630767967616
1684002651096779400,1.029179931640625,-0.2718851565997569,-0.75885391229551,-1.6108407975086716
1684002651106821600,1.039221923828125,-0.17564558971762367,-0.9216091633201089,-1.5311431884375277
1684002651116863600,1.04926416015625,0.08861529838000677,-1.2735457419940086,-1.288854599076331
1684002651126905800,1.05930615234375,0.5643093586792556,-1.6442329883245241,-1.190688133294539
1684002651136947600,1.06934814453125,0.7159538268395469,-1.764388322892987,-1.796744346678275
1684002651146989700,1.07939013671875,-0.04424798486840197,-1.9395036697970753,-2.389233589162049
1684002651157031900,1.089432373046875,-0.18459117410882178,-2.0813226700044654,-0.9949007034468395
1684002651167074000,1.099474365234375,-0.1003092527613348,-2.1806688309237607,0.20467376698114217
1684002651177116100,1.1095166015625,0.034315407257436335,-1.9976172447483023,-0.2747831345037805
1684002651187158200,1.11955859375,0.26623415949227736,-1.977169513600023,-0.9263887403904065
1684002651197200300,1.1296005859375,0.2520298659282953,-1.9265689849112853,-1.542786598151016
1684002651207242400,1.139642822265625,-0.48419728876079143,-1.930937528745498,-1.256266593745286
1684002651217284600,1.149684814453125,-1.447744369536316,-1.7118253707631415,-0.8058700560487404
1684002651227326400,1.159726806640625,-1.971814870988994,-1.5068845749012365,-0.29049015040972004
1684002651237368600,1.169768798828125,-1.9142755270027187,-1.3412621022290738,0.18795776378393225
1684002651247410600,1.17981103515625,-1.5029815434984657,-1.723558187442837,0.8339662552637325
1684002651257452600,1.18985302734375,-1.0345638989537556,-1.7742338181523276,1.1943664552033666
1684002651267494800,1.199895263671875,-0.8987991213106263,-1.567069053724034,1.1297101974315493
1684002651277536900,1.209937255859375,-0.7297297120301766,-1.3921117782409977,0.8335952758518761
1684002651287579100,1.2199794921875,-0.6264600754271934,-1.1145358087322135,0.4787387848280868
1684002651297621200,1.230021484375,-0.688579440164269,-1.044784545928964,0.2149953842805944
1684002651307663000,1.2400634765625,-0.8478552102539254,-1.118459701557866,-0.09975719445064897
1684002651317705100,1.25010546875,-0.7893667221311783,-1.0661320687527853,-0.7004470824106617
1684002651327747200,1.260147705078125,-0.548330902987159,-1.0958442689300363,-1.238352298673269
1684002651337789400,1.270189697265625,-0.4431678055997154,-1.3579044342876976,-1.0791831016850861
1684002651347831500,1.28023193359375,-0.32937014110037693,-1.3812289238758269,-0.8461208342146155
1684002651357873600,1.29027392578125,-0.4633178115207858,-1.4186596871087982,-0.07505893709678108
1684002651367915600,1.300316162109375,-0.5188174843865073,-1.2865872382968768,0.5562038420234677
1684002651377957800,1.310358154296875,-0.5064168573029194,-0.9028697013177914,0.23527145379862976
1684002651387999600,1.320400146484375,-0.625081956453621,-0.6895046233803034,0.448366165144055
1684002651398041800,1.330442138671875,-0.5926713347214055,-0.6695270538587346,0.8747625351197242
1684002651408083900,1.340484375,-0.3410110176471246,-0.8274712562370214,0.8305988312643987
1684002651418126000,1.3505263671875,0.3664218783613082,-1.544203281373645,0.9490222929907328
1684002651428168100,1.360568603515625,0.23470427080947415,-0.8646907808071762,0.2258024215469289
1684002651438210200,1.370610595703125,-0.2591513394273831,-0.324801445076106,-0.07749080654532421
1684002651448252300,1.38065283203125,-0.3412470818588958,-0.4836840629174333,-0.9047040940338219
1684002651458294400,1.39069482421875,-0.5047317146306041,-0.8322448731313167,-0.43558597561358864
1684002651468336600,1.400737060546875,-0.6419504284548864,-0.6756296158488383,-1.2713203429214723
1684002651478378400,1.41077880859375,-0.5828445553512435,-0.727526664914489,-0.10093307501584951
1684002651488420600,1.420821044921875,-0.394850492389524,-1.0808973311645638,-1.1491537095243969
1684002651498462600,1.430863037109375,-0.7097300289956703,-1.2422723769100095,-0.5166788100400873
1684002651508504800,1.4409052734375,-0.8000081777728422,-0.9285287858510735,-0.6395225523704376
1684002651518546900,1.450947265625,-0.7477259635673736,-0.7932572365345437,-0.45527648931068787
1684002651528589000,1.4609892578125,-0.6797542570625406,-0.8664360045017653,-0.5297203064842655
1684002651538631100,1.471031494140625,-0.5638004541891162,-1.013111114400167,-0.8928256035347633
1684002651548673200,1.481073486328125,-0.4168046416189155,-1.08433485040034,-1.2553744315647481
1684002651558715300,1.49111572265625,-0.4204939007829558,-1.104190826470847,-1.2463836669824848
1684002651568757200,1.501157470703125,-0.5411355494903753,-1.1451697348931786,-1.2707147599056563
1684002651578799300,1.51119970703125,-0.5811845063417819,-1.3867402076010655,-1.3549394608163294
1684002651588841400,1.52124169921875,-0.7454820870493772,-2.0772271155689332,-0.971531867958844
1684002651598883600,1.531283935546875,-0.8895930052255705,-1.9306974410849715,-0.5600900650512672
1684002651608925600,1.541325927734375,-0.7948952913046351,-1.3084926604350067,-0.3479204178386787
1684002651618967700,1.5513681640625,-0.5057303905791533,-0.761930942629655,-0.253618240372262
1684002651629009800,1.56141015625,-0.1732258499950043,-0.7045717239814152,-0.06634426101301076
1684002651639052000,1.571452392578125,-0.12449595341348461,-0.570615291599083,0.005335807813313101
1684002651649094100,1.581494384765625,-0.18906170118519394,-0.5235319137568178,-0.238594055137762
1684002651659135900,1.591536376953125,-0.4606957436368303,-0.6496725083388847,-0.5726280212315015
1684002651669178000,1.601578369140625,-0.7276074887139776,-0.5304322244490073,-0.928155899002078
1684002651679220100,1.61162060546875,-0.8616575003325025,-0.4573736189837463,-1.4947271347058029
1684002651689262300,1.62166259765625,-0.7615189551964903,-0.47854805006255885,-1.5014104843398923
1684002651699304400,1.631704833984375,-0.4698978661401344,-0.6308417319978098,-1.5655956269206706
1684002651709346600,1.641746826171875,-0.18794989576358326,-0.1998100282290495,-1.3660697936323405
1684002651719388600,1.6517890625,-0.4815173150129521,-0.42114448558585404,-1.2149558066514632
1684002651729430600,1.6618310546875,-0.5119922161024016,-0.5773468017285297,-0.9427947997589353
1684002651739472800,1.671873291015625,-0.7434507606946082,-0.5586051940826772,-0.6465148924945832
1684002651749514600,1.6819150390625,-0.445579528775134,-0.18150854101190703,-0.6544198988451414
1684002651759556800,1.691957275390625,-0.9311306477946523,-0.7956867217611397,-0.6635546685901316
1684002651769598900,1.701999267578125,-0.9308482408234692,-1.2347006798775453,-0.9335470198885879
1684002651779641000,1.71204150390625,-0.8354624511199388,-1.5640592576368635,-0.9648370743320377
1684002651789683100,1.72208349609375,-0.6979382038354554,-1.7144918440279608,-0.8626852035092757
1684002651799725200,1.732125732421875,-0.3988593816896197,-1.8716011047287464,-0.8279542921966988
1684002651809767300,1.742167724609375,-0.513291716563486,-1.6926364899174562,-0.8911304473775816
1684002651819809500,1.7522099609375,-0.061805606014873664,-0.26848745340643004,-1.4478268623480612
1684002651829851600,1.762251953125,-0.6913979053634979,-0.34723424916919854,-1.4955840109606668
1684002651839893400,1.7722939453125,-0.9914968013521455,-0.178177356697092,-1.7225804329100716
1684002651849935600,1.7823359375,-1.1308730841005095,-0.36101436611584603,-1.0959615706384271
1684002651859977600,1.7923779296875,-1.0988113879976962,-0.3625597954240053,-1.4714646339843198
1684002651870019800,1.802420166015625,-0.6644320487886359,-0.3079481125050572,-1.3369503020698021
1684002651880061900,1.812462158203125,-0.5540496112773969,-0.29998445498451615,-1.299067020226045
1684002651890104000,1.82250439453125,-1.0682250261176214,-0.6453723907283042,-1.3416471481006358
1684002651900146100,1.83254638671875,-1.2765386105997953,-0.9860115051206764,-0.983102798440287
1684002651910188200,1.842588623046875,-1.2137206793566384,-0.8701467515715932,-0.500476837189519
1684002651920230300,1.852630615234375,-0.6572943927675048,-0.4207987784460438,-0.1387910841864621
1684002651930272200,1.862672607421875,0.1840842961929351,0.03863191607274993,0.24942207331378402
1684002651940314300,1.872714599609375,0.8284341692211677,0.02483224860883324,0.16126775726843479
1684002651950356400,1.8827568359375,1.7358431816580677,-1.2387480736918965,0.44568204876478
1684002651960398600,1.892798828125,1.772457241998972,-1.4312524794941381,-0.7823934555809977
1684002651970440600,1.902841064453125,1.230904936743273,-1.1281929016471068,-1.9379959106224918
1684002651980482700,1.912883056640625,0.8382587433355466,-1.0302476881810312,-2.020125865770435
1684002651990524800,1.92292529296875,0.6439644099783607,-0.14753246318243743,-2.4278178216048634
1684002652000567000,1.93296728515625,-0.8773288727024109,-0.9847507476526932,-2.2552433015225826
1684002652010609100,1.943009521484375,-1.9493391513412854,-0.8886566162663394,-1.4735026360702217
1684002652020650900,1.95305126953125,-2.1713619232567076,-0.5884227751763002,-0.48291730890144463
1684002652030693000,1.963093505859375,-1.841548562004405,-0.9437298774307185,0.02603149405926888
1684002652040735200,1.973135498046875,-1.0503721237345116,-1.4159531593853834,0.30265855781201134
1684002652050777300,1.983177734375,-0.4894845486776741,-1.3074383735261548,0.07702398303211776
1684002652060819400,1.9932197265625,-0.10837566850960566,-1.6763811111471263,-0.4897146225632129
1684002652070861600,2.003261962890625,-0.15516376511006008,-1.2925772667835003,-1.1051344873021518
1684002652080903600,2.013303955078125,-0.46934676177091655,-0.7770819662996495,-1.636566639087639
1684002652090945600,2.02334619140625,-0.6145555972308338,-0.7016639709350496,-2.02249717719166
1684002652100987800,2.03338818359375,-0.5258688927451901,-0.7120471000211408,-1.6715583801603304
1684002652111029600,2.04343017578125,-0.22073066232147368,-0.7128014564520065,-1.0635623931844818
1684002652121071800,2.05347216796875,-0.014520049190322272,-0.5855007171692437,-0.721513748097615
1684002652131113900,2.063514404296875,-0.08280873299743094,-0.35661554350198493,-0.90774822234094
1684002652141156000,2.073556396484375,-0.30285632618792074,-0.30569267268503425,-1.1201324463701392
1684002652151198100,2.0835986328125,-0.6078019142617735,-0.25302410129686603,-1.1531820297850306
1684002652161240200,2.093640625,0.031247019765793835,-0.7949581145558385,-0.6759305000462186
1684002652171282400,2.103682861328125,-0.08251452440988216,-1.3233261107491334,-0.5612220763306007
1684002652181324500,2.113724853515625,-0.3778244257047823,-0.4264488219808137,-0.8777551650487654
1684002652191366600,2.12376708984375,-0.4318146706376685,-0.3531603812375465,-0.961757659954708
1684002652201408400,2.133808837890625,-0.8094867468654644,-0.4644417762619731,-1.0393338204611942
1684002652211450600,2.143850830078125,-1.055025815868282,-0.2577066420861118,-0.9155726432378742
1684002652221492600,2.15389306640625,-1.1031115055214071,-0.16157245639006115,-1.0681562423775957
1684002652231534800,2.16393505859375,-1.5404050349111782,-0.3273186682168417,-1.1139240265672918
1684002652241576900,2.173977294921875,-1.1333211660031044,-0.5789980887768335,-1.6943144798721883
1684002652251619000,2.184019287109375,-1.1277340650741743,-0.5871639252227905,-1.715888023467519
1684002652261661100,2.1940615234375,-0.470743417810464,-0.6942839620867642,-1.6745567322624548
1684002652271703200,2.204103515625,-0.2175296544796357,-0.04941320414559369,-1.5838932991299826
1684002652281745300,2.214145751953125,-0.7258206606620752,-0.049465656228333606,-1.1878380774526753
1684002652291787200,2.2241875,-1.1435925960830993,-0.2710833550660728,-1.3171029090825488
1684002652301829300,2.234229736328125,-1.672054648415692,-0.32793855673327793,-1.5203328133435356
1684002652311871400,2.244271728515625,-1.8307074309261326,-0.4328827858636124,-1.9698767662135073
1684002652321913600,2.25431396484375,-1.56675636755427,-0.6850485801842854,-2.019473075808115
1684002652331955600,2.26435595703125,-1.282000183976325,-0.4297509193305099,-1.8827228546723727
1684002652341997700,2.274398193359375,-1.167115450059016,-0.08226346973950019,-1.6912512779496027
1684002652352039900,2.284440185546875,-1.1256959439632848,-0.025831699416189947,-1.2098631860084217
1684002652362082000,2.294482421875,-1.0534832477132718,0.437953472017065,-0.6758494375392244
1684002652372124100,2.3045244140625,-0.9390252828036699,0.8387761114363356,0.2523093223504369
1684002652382166200,2.314566650390625,-0.9590669870143045,0.6258721352314484,0.41157722455107376
1684002652392208300,2.324608642578125,-0.963249564260866,0.09776830665315847,0.9313387870451573
1684002652402250200,2.334650634765625,-0.8784590959153528,-0.30452919004801726,0.9091825484487586
1684002652412292300,2.344692626953125,-0.8043570518502609,-0.630548000333331,0.671357154957391
1684002652422334400,2.35473486328125,-0.8561730384891488,-0.7525954246850328,0.49591159824712483
1684002652432376600,2.36477685546875,-0.9593251944344371,-0.6546463966796366,0.1155285835012663
1684002652442418600,2.374819091796875,-0.94095814227991,-0.47992753989645787,-0.15754222867368253
1684002652452460600,2.384861083984375,-1.0822933912719046,-0.6589860916268243,-0.21269369130692434
1684002652462502800,2.3949033203125,-1.2753738164881012,-0.22275495521403862,-0.5235805511579101
1684002652472544900,2.4049453125,-1.6439348460597967,-0.13329982757688746,-0.8494396209644313
1684002652482586800,2.4149873046875,-1.9811627865559804,0.21439599990663794,-1.0652065277921845
1684002652492628900,2.425029296875,-2.117413043888238,-0.19435358040585024,-0.4298729896486924
1684002652502671000,2.435071533203125,-2.143282651987811,-1.0244250297952526,-0.2330808638251653
1684002652512713100,2.445113525390625,-1.9275786875420235,-0.6791372299783571,0.1274805067629628
1684002652522755200,2.45515576171875,-1.6457488536357485,-0.2994203566994351,0.023050784972327605
1684002652532797400,2.46519775390625,-1.4083663224271943,-0.4861226081804022,0.1702804565511697
1684002652542839500,2.475239990234375,-0.5116004944081677,-0.14589691165160057,0.4325919151053051
1684002652552881600,2.485281982421875,0.4019704460485801,-0.7104206085485576,0.7763328551515545
1684002652562923600,2.495323974609375,1.1626940965134482,-0.5677042008699623,0.764999389712978
1684002652572965600,2.505365966796875,1.6036382913869485,-0.7241983413212718,0.6957068443765674
1684002652583007900,2.515408203125,1.7222694160421055,-0.8084011077754715,0.4599008559149173
1684002652593049800,2.5254501953125,1.6862382887889344,-0.9012122152808856,0.5911049843100749
1684002652603091900,2.5354921875,1.9164674282389251,-0.9215993880713288,0.3905873299887597
1684002652613134000,2.545534423828125,2.3581645488214176,-0.6872034073630157,-0.0944285393719681
1684002652623176100,2.555576416015625,2.3680191040057004,-0.20837783819135144,-0.4015250207585656
1684002652633218200,2.56561865234375,2.1935553549983764,0.1872396468189318,-0.9143843650789075
1684002652643260300,2.57566064453125,1.6499696970747475,0.5421071053175143,-1.3616485595716012
1684002652653302400,2.585702880859375,1.1200020314637043,0.8782567978038661,-1.7554488181850605
1684002652663344600,2.595744873046875,0.876990854672821,1.2096409796008072,-2.4261269569289645
1684002652673386600,2.605787109375,1.0459841490589261,1.550171375436459,-2.4867529869119
1684002652683428600,2.615828857421875,1.5901899339238745,1.4269461631621887,-2.6290740966481687
1684002652693470600,2.62587109375,1.9572010041718726,0.5226473808396986,-2.5048475265793133
1684002652703512800,2.6359130859375,1.876574873796847,-0.5129370689294739,-2.2828888893307204
1684002652713554900,2.645955322265625,1.7228770255328916,-1.287090301544969,-2.31057858478238
1684002652723597000,2.655997314453125,1.6981244087357164,-1.2044749259320526,-2.1812906264305822
1684002652733639100,2.66603955078125,1.3814895152849038,-0.3545460701605163,-1.9569883348254857
1684002652743681200,2.67608154296875,0.924127578880493,0.4439282417897139,-1.6041030882511826
1684002652753723300,2.686123779296875,0.38010811792627613,-0.0288562772915955,-1.4880180357867416
1684002652763765400,2.696165771484375,0.03994637723153014,-0.5819973946371237,-0.6659007072797514
1684002652773807600,2.7062080078125,0.11121261114417359,-0.9126367568424241,0.7253041266529113
1684002652783849400,2.716249755859375,0.3688339291653975,-0.8091301917194339,2.0292396544201474
1684002652793891600,2.7262919921875,0.3107953071150733,-0.2789835930529862,2.921427726640598
1684002652803933600,2.736333984375,0.21245187524272502,-0.02821063984893081,2.443564891949391
1684002652813975700,2.746376220703125,-0.14391791826729122,-0.694243907980496,0.8371987343303376
1684002652824017800,2.756418212890625,0.0027615428898153872,-1.0080304145595993,-0.5569748878989466
1684002652834060000,2.76646044921875,0.7955453395231361,-0.8287940026646472,-1.9956433772169977
1684002652844102100,2.77650244140625,2.0255053044365687,-0.7775306701223492,-2.147569656430274
1684002652854144200,2.786544677734375,2.5653553009412113,-0.5834150314264129,-1.694717407223139
1684002652864186300,2.796586669921875,2.6128289699788705,-0.9225521087607235,-1.2515544891258596
1684002652874228400,2.80662890625,2.4417991636700074,-0.6929979323713708,-0.5225410463139325
1684002652884270300,2.816670654296875,2.0669064521516844,-0.5292949677280709,0.2542314530436128
1684002652894312400,2.826712646484375,1.7159804105405199,1.4496746064014159,0.6140580176419846
1684002652904354600,2.8367548828125,0.952625513036056,-0.45193195356734683,0.10050249103257795
1684002652914396600,2.846796875,1.1400411129611192,-0.5319805145512667,0.4023346900840102
1684002652924438600,2.856839111328125,0.8691135645261576,-0.6211490629977442,0.1376657484999666
1684002652934480800,2.866881103515625,1.3043597936772275,-1.0356578825757303,0.4906711578994794
1684002652944522900,2.87692333984375,0.9348894355965156,-0.45237541199049713,0.2159919738537666
1684002652954565000,2.88696533203125,1.2205853462388105,0.6531872749990316,0.33049964908695967
1684002652964607200,2.897007568359375,1.2054557799240144,-0.13327312464865707,0.007766723578189054
1684002652974649300,2.907049560546875,1.1295665503155712,0.32104015367331556,-0.5308465958779257
1684002652984691400,2.917091796875,0.9836745858579178,0.6617870331095597,-0.7872352600074308
1684002652994733200,2.927133544921875,0.7566199303352854,0.6007595062245923,-1.036504745556657
1684002653004775300,2.93717578125,0.5494053959636159,0.6023302078256453,-1.3974895477767635
1684002653014817500,2.9472177734375,0.31010052561758344,0.8402132987783358,-1.8435881136995782
1684002653024859600,2.957260009765625,0.18616378300509906,0.3291931152386374,-2.3063662052625573
1684002653034901600,2.967302001953125,0.10379016391665294,0.23794651014912344,-2.151919841886084
1684002653044943800,2.97734423828125,0.09105750917693109,0.30449581150859156,-1.6509809495007628
1684002653054985900,2.98738623046875,0.10608035326889988,0.27986812593148747,-1.013421058642219
1684002653065028000,2.997428466796875,0.6556971071809661,0.03668403640444504,-0.4800643920873716
1684002653075069900,3.00747021484375,1.3810715675479834,-0.2374505996501321,0.02746534361914155
1684002653085112000,3.017512451171875,1.5216736792671532,-0.05212879185704683,0.13221979132247547
1684002653095154100,3.027554443359375,1.424918770786346,0.02609157576143025,0.23459100734229937
1684002653105196200,3.0375966796875,1.4081364870582695,0.4550809861738579,0.18689775473645498
1684002653115238300,3.047638671875,1.116408228892998,0.11541557307160494,0.15709233278951962
1684002653125280400,3.057680908203125,0.6336774230102996,-0.11131858823606698,0.03889393810979116
1684002653135322600,3.067722900390625,0.22838936749249825,-0.4577703474215688,-1.0478408338440484
1684002653145364600,3.07776513671875,0.10577021539913671,-0.022288322454362477,-1.7291172742182637
1684002653155406800,3.08780712890625,-0.001521065754073754,-0.2501163483606262,-1.2028291224154897
1684002653165448900,3.097849365234375,-0.10505807415600237,-0.11977291095228151,-0.5109913350668962
1684002653175491000,3.107891357421875,-0.3923776148298866,1.0396242142721661,0.5485308170680446
1684002653185532800,3.117933349609375,-0.1357354223361096,0.43877410891136454,0.8876817226534968
1684002653195575000,3.127975341796875,-0.7429981230329039,0.3010807037389523,1.0488398074445866
1684002653205617100,3.138017578125,-0.7841758727541951,-0.16056442259533715,0.8125164508633453
1684002653215659200,3.1480595703125,-0.39805963629446806,-0.04839611046642919,0.6197090150137557
1684002653225701300,3.158101806640625,-0.7490543128049095,-1.277292251649152,0.412881135938053
1684002653235743400,3.168143798828125,-0.6364073752895429,-1.6530246735003713,0.21248364439889184
1684002653245785600,3.17818603515625,-0.07736789444165461,-1.3138456345790626,0.6077947617002623
1684002653255827600,3.18822802734375,0.43504041433206075,-0.20537281055544493,0.832182884245874
1684002653265869700,3.198270263671875,0.08539675194930972,-0.3722620011531346,0.8777875899201012
1684002653275911900,3.208312255859375,-0.3209775386699872,-0.912403106742286,0.6397633552566274
1684002653285954000,3.218354248046875,-0.46597158901169006,-1.8709211348916919,0.44833946228268395
1684002653295995800,3.228396240234375,-0.2210878878684989,-1.1025199889390185,0.42335629480530457
1684002653306037900,3.238438232421875,-0.3294359447219467,-0.06545257561794113,0.4472663402868616
1684002653316080000,3.24848046875,-0.43720045696242754,0.0764770507718947,0.02284932147424841
1684002653326122200,3.2585224609375,-0.224437817863844,0.5967617035335793,-0.16426777852969768
1684002653336164300,3.268564697265625,-0.26120325923260534,1.2030229567491622,-0.06478786462855295
1684002653346206400,3.278606689453125,-0.40554517489989916,1.4080295562536491,0.012113332701736554
1684002653356248600,3.28864892578125,-0.3554358481966928,1.2724695205712935,0.11591196061674042
1684002653366290600,3.29869091796875,0.04196865854749789,0.22922897346302648,0.048457384229044415
1684002653376332600,3.308733154296875,-0.07800944910338228,-0.3807945250509759,0.5015325547051867
1684002653386374800,3.318775146484375,0.09193786978067231,-0.8052186966198133,0.8322119712002759
1684002653396416900,3.3288173828125,0.18017093844947632,-0.03730964644688979,1.7822973728404221
1684002653406458800,3.338859130859375,0.23172576728729483,-0.3829183579350392,1.9173812866474083
1684002653416500900,3.3489013671875,0.1447848678756216,-0.40742301943287895,2.118722438720717
1684002653426543000,3.358943359375,0.49785539502501286,0.22374153139775343,2.068756818783929
1684002653436585100,3.368985595703125,0.4984956085299691,-0.012826919665523453,1.6958110330809466
1684002653446627200,3.379027587890625,1.0480569601244953,0.0785036088193465,1.0993926524679072
1684002653456669400,3.38906982421875,0.9694536329112515,-0.08753490436554577,0.6429610251347812
1684002653466711600,3.39911181640625,0.8722118139335813,-0.13718414322073866,0.1499764919147694
1684002653476753600,3.409154052734375,0.5170899033213898,-0.20556068403874703,-0.20663404469478946
1684002653486795600,3.419196044921875,0.3987610937972654,-0.24411869047169196,-0.27126240742393604
1684002653496837600,3.429238037109375,0.27384799721241676,-0.38901329029707066,-0.1522417068855135
1684002653506879900,3.4392802734375,0.47675833095076525,-0.3299026488734335,-0.05641365044306075
1684002653516921800,3.449322265625,0.9357581139024255,-0.4954557418436891,-0.06808805451236508
1684002653526963900,3.4593642578125,1.068326950086446,-0.02259159088440247,0.3166549204820579
1684002653537006000,3.469406494140625,1.2808239458537056,-0.814626693747072,0.5013711451790507
1684002653547048100,3.479448486328125,1.2086791990807884,-1.7015542984468741,0.5425372122945746
1684002653557090200,3.48949072265625,0.8489373923416931,-2.542630195637886,0.9286720752870424
1684002653567132300,3.49953271484375,0.6847995520132246,-2.379198074479531,0.6670196056002323
1684002653577174400,3.509574951171875,0.5696153640430104,-2.3118371963513114,-0.07367324820635254
1684002653587216600,3.519616943359375,0.6771369575942929,-1.8028926848625673,0.2342445850872955
1684002653597258400,3.529658935546875,0.3093524574385806,-0.6303453445474906,0.45660972592455257
1684002653607300600,3.539700927734375,-0.29943799957138817,0.18530750291937323,0.527530670049579
1684002653617342600,3.549742919921875,-0.7930446861679432,0.5562286376676875,0.4716374873470251
1684002653627384800,3.55978515625,-1.0537300110561156,0.6790666579444781,0.4286973475853683
1684002653637426900,3.5698271484375,-1.2735785245847058,0.7762193679000899,0.30930757526132857
1684002653647469000,3.579869384765625,-1.2690919635756999,1.0841369628536333,-0.024365902069742516
1684002653657511100,3.589911376953125,-1.1385947467153748,0.9602775574775272,-0.2769341468088467
1684002653667553200,3.59995361328125,-0.9299708605304211,0.8429956435126517,-0.5096148253360614
1684002653677595300,3.60999560546875,-0.5316515564484007,0.9283504485877422,-0.6426279544278097
1684002653687637400,3.620037841796875,-0.3767611385447684,0.7514066694793232,-0.3991811276268274
1684002653697679600,3.630079833984375,-0.13416784984103125,0.776317596518398,-0.3617669343575789
1684002653707721400,3.640121826171875,0.08532750610575171,0.556886673021703,-0.2220625878855042
1684002653717763600,3.650163818359375,0.21569272868194544,0.30108833322714335,0.0005655288060527833
1684002653727805600,3.6602060546875,0.2335631249704427,-0.08032894139126855,0.019051074893603148
1684002653737847600,3.670248046875,0.3054402172545428,-0.19549560559356233,-0.25606894484496634
1684002653747889800,3.680290283203125,0.18222653870871758,0.6928739548885313,0.49948549284147015
1684002653757932000,3.690332275390625,-0.4411622882154139,-0.608652114792247,-0.7036631107628438
1684002653767974100,3.70037451171875,-0.28959792838046433,-0.9763803482782877,-1.2034008503058298
1684002653778016200,3.71041650390625,-0.3059642315057583,-0.8943204881101195,-1.1468074321792678
1684002653788058300,3.720458740234375,-0.4714657068448413,-0.828851699744778,-1.1512851715194377
1684002653798100400,3.730500732421875,-0.554012417849009,0.007488250844022467,-0.3641481400333938
1684002653808142600,3.74054296875,-0.40802645676679317,-0.530418395994125,-1.0637770890072316
1684002653818184400,3.750584716796875,-0.2798659802629175,-0.6358575820477358,-0.6987581254069226
1684002653828226600,3.760626953125,-0.08574664587632423,-0.7922725677373905,-0.4796388149147007
1684002653838268600,3.7706689453125,0.04597783092026663,-0.9942722319707378,-0.2916054726495003
1684002653848310600,3.780711181640625,0.3427358866843279,-1.4108381272311212,-0.41929364200760255
1684002653858352800,3.790753173828125,0.7397974731328365,-1.5428047181197966,-0.6210978031356652
1684002653868394900,3.80079541015625,0.9415982961324058,-1.5678071976186243,-0.8938372134039587
1684002653878437000,3.81083740234375,1.0850222110532024,-1.388452529855784,-1.0137560367915806
1684002653888479200,3.820879638671875,0.969420909925353,-1.2910976409316195,-1.1394660472569342
1684002653898521300,3.830921630859375,0.7262872457716356,-1.2115945816056988,-1.2053225040443538
1684002653908563400,3.8409638671875,0.6829339266896948,-1.0329065321860198,-1.3946044445996892
1684002653918605600,3.851005859375,0.8664630651742166,-0.756440162712246,-1.6376992464085738
1684002653928647300,3.8610478515625,1.1815338134794984,-0.42388057723200345,-1.7384899853264277
1684002653938689500,3.87108984375,1.4514522553243603,-0.08980560293869491,-1.7503311632659584
1684002653948731600,3.881132080078125,1.4911879301059867,0.13712310772302494,-1.6534941195483024
1684002653958773600,3.891174072265625,1.2535165547028582,0.06860160838801307,-1.527809619937451
1684002653968815800,3.90121630859375,1.1540786026928842,0.1692562102891452,-1.5412395000734078
1684002653978857900,3.91125830078125,1.1322987078295008,0.3384485246154038,-1.6565482615982523
1684002653988900000,3.921300537109375,1.0399007795862887,0.34113883967080333,-1.7375891208655476
1684002653998942100,3.931342529296875,0.9240491390692973,0.3110256195219409,-1.684118747767339
1684002654008984200,3.941384521484375,0.9294235706486385,0.29009437565683965,-1.6247684955372723
1684002654019026400,3.9514267578125,0.915703654469523,0.4147739410947996,-1.4396460055957763
1684002654029068200,3.961468505859375,0.9415868520398286,0.9486374853485927,-1.033674001711807
1684002654039110300,3.9715107421875,0.7455084324104144,1.216674327864442,-0.6107118128296525
1684002654049152400,3.981552734375,0.38051700593058496,1.0461277962142685,-0.2806482315025645
1684002654059194600,3.991594970703125,0.12715864179914527,0.7417411804510188,-0.21985173239308975
1684002654069236600,4.001636962890625,0.020901918525646858,0.39233493803790737,-0.2869496346852699
1684002654079278800,4.01167919921875,0.041567563921858376,0.07281494151028658,-0.2181291579835078
1684002654089320900,4.02172119140625,0.046828985397786946,-0.2661533355211179,-0.32107687006967894
1684002654099363000,4.031763427734375,0.12903714175384093,-0.5085248947677254,-0.62950706472354
1684002654109405100,4.041805419921875,0.16331553462638643,-0.7750635145762109,-0.7690114975183033
1684002654119447200,4.05184765625,0.18174314511108725,-1.0794162749835656,-0.89834976197303
1684002654129489300,4.0618896484375,0.15323948847730695,-1.2449769973672553,-0.7769067287004153
1684002654139531200,4.071931640625,0.16833066927054868,-1.1743097306016086,-0.7950713635318838
1684002654149573300,4.0819736328125,0.18931293475627065,-1.1474342346030189,-0.8052699564290345
1684002654159615400,4.092015869140625,-0.028874874107361444,-0.866885185305468,-0.5356626510686642
1684002654169657600,4.102057861328125,0.0475165843900018,-0.5210514070269745,-0.389171600254145
1684002654179699600,4.11210009765625,0.40067601208348336,-0.19300174720226873,-0.3580093383269225
1684002654189741700,4.12214208984375,0.49187254895778487,0.43454504008563466,-0.3399457931968339
1684002654199783900,4.132184326171875,0.39919853212231293,0.45723199851979474,-0.17559862153358077
1684002654209826000,4.142226318359375,0.19269084928633162,0.22868347170367198,-0.1411213874729719
1684002654219868100,4.1522685546875,-0.023084878984381243,0.054342269923081665,-0.22661018369536773
1684002654229910200,4.162310546875,-0.07845282546534631,0.04902935037419554,-0.41144371042110955
1684002654239952300,4.172352783203125,0.02090692514826187,0.2165703774435543,-0.4018607138903414
1684002654249994200,4.18239453125,0.2075204849267271,0.3115539550517433,-0.40976047511749203
1684002654260036300,4.192436767578125,0.43045663827413744,0.37319326401948155,-0.5716543196786468
1684002654270078400,4.202478759765625,0.6627130508475324,0.4673829077660429,-0.707661151950381
1684002654280120600,4.21252099609375,0.7710193396573913,0.4594783783291871,-0.7914290427922458
1684002654290162600,4.22256298828125,0.6937720775304594,0.2990980148489005,-0.9109292029789
1684002654300204600,4.232605224609375,0.6407225131474306,0.12316989893954673,-1.0515069960395966
1684002654310246800,4.242647216796875,0.6066821814706579,0.18570899958377968,-1.0734484196447185
1684002654320288900,4.252689453125,0.5416351556032126,0.21652221679112568,-0.8857965470248406
1684002654330331100,4.2627314453125,0.38373684887256043,0.13909196869737384,-0.737633228456503
1684002654340373200,4.272773681640625,0.10316157332628603,0.0318002701249544,-0.4754433631565891
1684002654350415300,4.282815673828125,-0.2668654919104258,-0.0008878707581379409,-0.23102378847532334
1684002654360457100,4.292857421875,-0.5329697131399892,-0.14100360875239648,-0.018141746532255105
1684002654370499200,4.302899658203125,-0.7052769661996491,-0.23800086966016112,0.08175230023036294
1684002654380541400,4.312941650390625,-0.8062207697658768,-0.2997741699426374,0.07007551197594848
1684002654390583500,4.32298388671875,-0.838695287854911,-0.3128728866047843,0.013693809575089139
1684002654400625600,4.33302587890625,-0.76956677437955,-0.39015865324893506,-0.12172508235383558
1684002654410667600,4.343068115234375,-0.5844025611839693,-0.46443462380900474,-0.3332495687723514
1684002654420709800,4.353110107421875,-0.40737795827721973,-0.5854616164142278,-0.5494484902072271
1684002654430751900,4.36315234375,-0.2353656292263134,-0.7007026671597539,-0.7115931512679109
1684002654440794000,4.3731943359375,-0.3644664286613209,-0.7437410354777937,-0.6963305472085515
1684002654450836100,4.383236572265625,-0.7200765610081197,-0.7575473785543365,-0.637604236682428
1684002654460878000,4.3932783203125,-0.9453606606087689,-0.5978727340597063,-0.6661038399448038
1684002654470920100,4.403320556640625,-0.976789713004519,-0.4311256407881872,-0.7571969032377481
1684002654480962200,4.413362548828125,-0.7604007720954239,-0.35679626462760466,-1.0730881689829965
1684002654491004300,4.42340478515625,-0.6056327819887101,-0.30097198482360316,-1.4134483337367796
1684002654501046400,4.43344677734375,-0.3477535248026588,-0.26004219041713067,-1.7347176074724948
1684002654511088600,4.443489013671875,0.04848647107018598,-0.24139785761930693,-2.0588362217265055
1684002654521130600,4.453531005859375,0.2554482221938235,-0.3527250289913185,-2.3599495887122344
1684002654531172800,4.4635732421875,0.26637709150407635,-0.6691951751031546,-2.507853746367127
1684002654541214900,4.473615234375,0.2331434487996478,-0.56486129763308,-2.2972805500623084
1684002654551256800,4.4836572265625,0.1259423493880796,-0.6214513779032337,-1.9440984724528196
1684002654561298900,4.49369921875,-0.1101515291493777,-0.8815069200055796,-1.4193561076535954
1684002654571341000,4.503741455078125,-0.3835364581634322,-1.3580589293072327,-0.7539086341526761
1684002654581383100,4.513783447265625,-0.7795630691826977,-2.137544632052205,0.030855655684082713
1684002654591425200,4.52382568359375,-1.3007978199523842,-2.8879280091257193,0.7111344337841222
1684002654601467300,4.53386767578125,-1.1545109749196878,-2.9978046417795934,1.0105223655356967
1684002654611509400,4.543909912109375,-0.19613635532582804,-2.3764266968221186,1.147168159396014
1684002654621551600,4.553951904296875,1.0323474406481403,-1.3916292191245039,1.0387353897933957
1684002654631593600,4.563994140625,1.905318260063448,-0.45061302183199686,0.8257403372985297
1684002654641635800,4.5740361328125,2.3613157273410303,0.34505319594422734,0.7319731710866961
1684002654651677900,4.584078369140625,2.5349450112388596,0.9126610756574447,0.5674076081360915
1684002654661720000,4.594120361328125,2.4998307228143113,1.286501407764602,0.07034635550872552
1684002654671762100,4.60416259765625,2.250117778842304,1.5332989692717982,-0.44903898228871375
1684002654681804000,4.614204345703125,1.8830200433458657,1.622054099974096,-0.8556990622537013
1684002654691846100,4.62424658203125,1.4942718744951362,1.3748798370519977,-0.9710836410316108
1684002654701888200,4.63428857421875,1.130177855530234,0.7098984718496139,-0.7342629432260513
1684002654711930300,4.64433056640625,0.7703908680795429,-0.004263877744049373,-0.6057910920722726
1684002654721972400,4.654372802734375,0.5604063273827576,-0.564964294535825,-0.8373141289424625
1684002654732014600,4.664414794921875,0.5323634147620803,-0.9233570099182933,-1.1978082656697098
1684002654742056600,4.67445703125,0.6035954952411076,-1.1606845855159675,-1.5624339580966504
1684002654752098700,4.6844990234375,0.6923922896493089,-1.366425514193079,-1.650419712161418
1684002654762140800,4.694541259765625,0.8243496418809892,-1.3569002152178617,-1.482273101694647
1684002654772183000,4.704583251953125,0.8696866632943127,-1.0312604905223317,-1.0595591067056511
1684002654782225100,4.71462548828125,0.9133110045445288,-0.6208124160722455,-0.6990666389774913
1684002654792266900,4.724667236328125,0.9662159682692597,-0.1829452513997778,-0.5827898978423025
1684002654802309000,4.73470947265625,1.1014991998761672,0.20134258288327533,-0.45909214034296264
1684002654812351200,4.74475146484375,1.342786192997995,0.4384374618744716,-0.34526157381922484
1684002654822393300,4.754793701171875,1.5926206110894487,0.4462404250049546,-0.1498541831760972
1684002654832435400,4.764835693359375,1.7814890146199551,0.2939281461994725,-0.019682884166967014
1684002654842477600,4.7748779296875,1.9070806503230948,0.18545436865116663,0.03669023530106465
1684002654852519600,4.784919921875,1.889791727088248,0.16958713531755767,0.07325553905084577
1684002654862561600,4.794962158203125,1.8058428765695163,0.08896255480270553,0.23554468151330457
1684002654872603800,4.805004150390625,1.6537792682829215,0.024702072143195943,0.31432390212695227
1684002654882645900,4.81504638671875,1.4474722147427588,-0.057275772103825125,0.36357307450993226
1684002654892687800,4.825088134765625,1.1998007297886126,-0.054756164585631255,0.30663347230753724
1684002654902729900,4.83513037109375,0.9925131201682479,-0.02059650433449664,0.17788362490313148
1684002654912772000,4.84517236328125,0.8523656128937798,-0.00042629240090366887,0.09489774705115459
1684002654922814100,4.855214599609375,0.824951410368315,-0.09216022498967416,0.050530433788907425
1684002654932856200,4.865256591796875,0.8305313587821453,-0.20428466808228768,-0.057340145176445145
1684002654942898400,4.875298828125,0.8677430152853906,-0.24779891975783866,-0.23518514619982886
1684002654952940500,4.8853408203125,1.0013245344563086,-0.18411731722334307,-0.33912801741150617
1684002654962982600,4.895383056640625,1.1301001310330216,-0.09196281444011074,-0.4263830184635335
1684002654973024600,4.905425048828125,1.269790172464824,0.12475013735223577,-0.46961498274468666
1684002654983066600,4.915467041015625,1.3852766751407941,0.301102638309264,-0.43981266016293913
1684002654993108900,4.92550927734375,1.4570980071931086,0.2791385649700142,-0.26371765147895154
1684002655003150800,4.93555126953125,1.531894683709067,0.25039482124057705,-0.12785005577977898
1684002655013192900,4.94559326171875,1.5497460365581706,0.2581548690471196,0.0137810706425674
1684002655023235000,4.955635498046875,1.591312766111534,0.22094726552686628,0.2586464881018433
1684002655033277100,4.965677490234375,1.591579198706623,0.14148330676880874,0.43252134321048596
1684002655043319200,4.9757197265625,1.549028396717898,-0.0487813951086878,0.5581240653744056
1684002655053361300,4.98576171875,1.4104112386741097,-0.06064605695762435,0.6137757300718589
1684002655063403400,4.995803955078125,1.2464294431884047,-0.13612079621852613,0.5464200973249065
1684002655073445600,5.005845947265625,1.1293821333967393,0.0846090316642641,0.20919513708285636
1684002655083487600,5.01588818359375,1.0719296931742721,0.06832599639728748,-0.00021839150814706695
1684002655093529600,5.025929931640625,1.1122858522601324,-0.10975265500776345,-0.11893558513793256
1684002655103571900,5.03597216796875,1.151780843757294,-0.2082939148221604,-0.12384939197701672
1684002655113613700,5.04601416015625,1.21443426621611,-0.17564582831489584,-0.10281324382709119
1684002655123655900,5.05605615234375,1.2283113002777228,-0.15777206424365045,-0.13730955127558245
1684002655133698000,5.066098388671875,1.1504691838951522,-0.10163116447565106,-0.17633581165765144
1684002655143740100,5.076140380859375,1.0463445185715865,-0.17461776737766557,-0.21301507967442784
1684002655153782200,5.0861826171875,0.9744607210474768,-0.20698165886530753,-0.2833366392696651
1684002655163824300,5.096224609375,0.8901810050370553,-0.21538162223390817,-0.42494535446236487
1684002655173866400,5.106266845703125,0.839615583430906,-0.23309040067509876,-0.5105638505307298
1684002655183908600,5.116308837890625,0.7987604141261532,-0.2981853484031052,-0.4803795814392839
1684002655193950600,5.12635107421875,0.8345885276913793,-0.284416198891305,-0.41683030141416044
1684002655203992600,5.136392822265625,0.8743578790853945,-0.3762474058833104,-0.3089144229007545
1684002655214034900,5.146435302734375,0.8575791119345381,-0.5519714354668096,-0.17122173310988797
1684002655224076600,5.15647705078125,0.8370435238280522,-0.5978279112991154,-0.221457004574577
1684002655234118800,5.166519287109375,0.7734895348744731,-0.4594402312106199,-0.15158176415155425
1684002655244160900,5.176561279296875,0.7540232539330705,-0.2934646606671896,-0.0021762849279683845
1684002655254203100,5.186603515625,0.665672123343091,0.05427455915242392,0.041659832182887935
1684002655264245200,5.1966455078125,0.685049772282848,0.16893196097042995,0.1786279676930779
1684002655274287300,5.206687744140625,0.7938496469407992,0.5392560958959544,0.103201389265098
1684002655284329400,5.216729736328125,0.9497991799869784,0.6218986510987612,0.20735549917037607
1684002655294371600,5.22677197265625,1.0937300920513777,0.17113685601890255,0.22031927122240388
1684002655304413600,5.23681396484375,1.2310603857373141,-0.0034971236921448492,0.20767593386896024
1684002655314455600,5.24685595703125,1.180609464806132,-0.2755661008917873,-0.05001401901538903
1684002655324497600,5.25689794921875,1.0966547727276412,-0.5518369673619161,-0.08531141283654765
1684002655334539600,5.266940185546875,1.0709445476754473,-0.7801818847924634,-0.4969394206491334
1684002655344581800,5.276982177734375,1.114896297492271,-0.7516803739967317,-0.8916182516776339
1684002655354623900,5.2870244140625,1.2149310112527614,-0.4201116563203526,-0.8249886035445454
1684002655364666000,5.29706640625,1.2092591524626848,-0.2614612578789074,-0.7267823219455942
1684002655374708100,5.307108642578125,1.0719693897716263,0.25593376145573177,-0.7713534831314259
1684002655384750300,5.317150634765625,0.8778313994936647,0.8321504592293539,-0.7695026397573407
1684002655394792400,5.32719287109375,0.6657287478233499,0.9242877960115362,-0.4546701907307273
1684002655404834600,5.33723486328125,0.4278654456717779,0.7826423645026057,-0.09185433389595576
1684002655414876300,5.34727685546875,0.22503206134191078,0.6802129744757671,0.013471126619345436
1684002655424918400,5.35731884765625,0.10508930694432217,0.6638307571790113,0.04052901274131968
1684002655434960600,5.36736083984375,0.10469862813174186,0.7599229812094502,0.06965899474123052
1684002655445002600,5.377403076171875,0.18263529247528382,0.8172483444437061,0.14535832412209623
1684002655455044800,5.387445068359375,0.2912395001617865,0.8123903274950014,0.1667332648454596
1684002655465086900,5.3974873046875,0.3718796372320279,0.8363666535310562,0.15439009667873196
1684002655475129000,5.407529296875,0.4505616425334449,0.6678924560971572,0.21755695336931724
1684002655485171100,5.417571533203125,0.5439068675455598,0.33432483669458923,0.3959231377165036
1684002655495213200,5.427613525390625,0.6661309003982517,-0.02501583107061994,0.5112068652035626
1684002655505255300,5.43765576171875,0.7426804303258936,-0.2065944671995363,0.5743439196369119
1684002655515297500,5.44769775390625,0.8526440859964212,-0.4354858397831902,0.7021601200084397
1684002655525339300,5.45773974609375,0.9233521221761547,-0.5230474472565367,0.6409852504376639
1684002655535381400,5.46778173828125,0.9024811386043831,-0.7010812760125198,0.5827250480755486
1684002655545423600,5.477823974609375,0.8983846901570256,-0.7403173445592589,0.45517897607093427
1684002655555465600,5.487865966796875,0.863871932107685,-0.8005285261751961,0.15106725684171715
1684002655565507800,5.497908203125,0.9232076405652478,-1.0616731645358712,0.037182807941871655
1684002655575549900,5.5079501953125,0.9754621386266517,-1.3537235260670648,-0.06255149841601236
1684002655585592000,5.517992431640625,1.0712809562482275,-1.4684486389823475,-0.22616052643068105
1684002655595634100,5.528034423828125,1.1383600233593374,-1.3852434157930158,-0.36860465997612946
1684002655605676200,5.53807666015625,1.2028654812825863,-1.0632047652593561,-0.4792833328533965
1684002655615718300,5.54811865234375,1.2546252012571255,-0.7189340591543395,-0.5631389617591972
1684002655625760400,5.558160888671875,1.2049827576896708,-0.3306465148829853,-0.7029948233504261
1684002655635802300,5.56820263671875,1.1241947412686357,0.011505126907537322,-0.8492543698100907
1684002655645844400,5.578244873046875,0.9718766807093829,0.2169656754655562,-0.8488035202425037
1684002655655886600,5.588286865234375,0.7257496714797215,0.28835487370477547,-0.7953546047034231
1684002655665928600,5.5983291015625,0.4609765410881876,0.252562522864978,-0.7098698616993118
1684002655675970700,5.60837109375,0.2714589834591323,0.1934413909242783,-0.5374896526701001
1684002655686012800,5.618413330078125,0.17488989220696088,0.1323242187162994,-0.3696408272682214
1684002655696055000,5.628455322265625,0.1889827550244288,0.15251350420217671,-0.1710979938436077
1684002655706097100,5.63849755859375,0.2756214140085508,0.13892173758495363,-0.035614013688180846
1684002655716139200,5.64853955078125,0.40094798799746717,0.15132141103988472,0.09430694565614173
1684002655726181000,5.65858154296875,0.5375005603634975,0.14190483078691227,0.20442485790062842
1684002655736223200,5.66862353515625,0.662223994665727,0.1585369109290341,0.3068470955835871
1684002655746265300,5.678665771484375,0.7712314725046909,0.21558570859127762,0.4209063054105338
1684002655756307400,5.688707763671875,0.8888691663208055,0.2533388138241725,0.49654483795458787
1684002655766349600,5.69875,0.9896042347640447,0.3626184462487706,0.5552787781819568
1684002655776391600,5.7087919921875,1.0360211134351738,0.43346309645283004,0.578041553608511
1684002655786433600,5.718834228515625,1.0319344998253783,0.4253320693918046,0.6243815420822927
1684002655796475800,5.728876220703125,0.9843153953701946,0.43619442002213415,0.634123325461494
1684002655806517900,5.73891845703125,0.8816537856899422,0.3776683806175026,0.6026184558537668
1684002655816560000,5.74896044921875,0.7228773237034599,0.23561477649980517,0.5491847991284967
1684002655826601900,5.759002197265625,0.4912775158673336,0.08179283147545521,0.4475708009173219
1684002655836644000,5.76904443359375,0.27118146427119694,-0.11736774436111333,0.34312510499040316
1684002655846686100,5.77908642578125,0.04348728061027133,-0.24263095858792552,0.22344779975096526
1684002655856728200,5.789128662109375,-0.19394776233045735,-0.24638366702545267,-0.059358835209954434
1684002655866770400,5.799170654296875,-0.41271168008340986,-0.32695388809084913,-0.26323246950568147
1684002655876812500,5.809212890625,-0.5044627189350667,-0.42925453182187695,-0.33338594438248587
1684002655886854600,5.8192548828125,-0.587485492093521,-0.44562816621622614,-0.4296002389130116
1684002655896896600,5.829297119140625,-0.5654525755944857,-0.4908847808393149,-0.4726984499459497
1684002655906938800,5.839339111328125,-0.5150406956138456,-0.4599885939678653,-0.4724557400230343
1684002655916980900,5.84938134765625,-0.49187207214500045,-0.4368371963508639,-0.43152451514405393
1684002655927023000,5.85942333984375,-0.49970936778595726,-0.44078731550035094,-0.32674956331131266
1684002655937064900,5.86946533203125,-0.5922725797685541,-0.5006713865863365,-0.17320084564271043
1684002655947107000,5.87950732421875,-0.6866678593966258,-0.5329675673600629,-0.028797388061425726
1684002655957149100,5.889549560546875,-0.7288485169993997,-0.4732303618726256,0.08503389355338455
1684002655967191200,5.899591552734375,-0.7742782236407337,-0.34300804127426787,0.054170370101624565
1684002655977233300,5.9096337890625,-0.8029307126853197,-0.14689254760556628,0.016223907425318332
1684002655987275400,5.91967578125,-0.7350697516802795,-0.0020561218872119998,0.04085469249965629
1684002655997317600,5.929718017578125,-0.5130575895194176,0.21578693392719311,0.07563543305306886
1684002656007359600,5.939760009765625,-0.21560788159536767,0.49930095670493263,0.19494390488399804
1684002656017401800,5.94980224609375,0.0661976337324581,0.6140241623108819,0.38382697117442294
1684002656027443900,5.95984423828125,0.28525710109285024,0.5888996122707871,0.5626657008528336
1684002656037486000,5.969886474609375,0.486522078377015,0.44837951669635967,0.7000751494752041
1684002656047527900,5.97992822265625,0.7050003408149929,0.30068302148687764,0.7721354962800386
1684002656057570000,5.989970458984375,0.8231633901552526,0.07484626780684014,0.7672758102425012
1684002656067612100,6.000012451171875,0.8280589580563659,-0.13055038458257553,0.7312824724645797
1684002656077654200,6.0100546875,0.6840774416885661,-0.518714904896308,0.7112059591662687
1684002656087696300,6.0200966796875,0.4474694728985251,-0.757449150176059,0.6230173110995234
1684002656097738400,6.030138916015625,0.21179664128522654,-0.9835176468908691,0.5196931361941448
1684002656107780600,6.040180908203125,-0.02961146831041206,-1.0353631973837498,0.4746067523907525
1684002656117822600,6.05022314453125,-0.21015548710718532,-0.87618827813259,0.45527338987046967
1684002656127864800,6.06026513671875,-0.33632540687129747,-0.49490547190447814,0.5353744031142754
1684002656137906600,6.07030712890625,-0.2737478017625119,-0.07109642020887336,0.6783783435244578
1684002656147948600,6.08034912109375,-0.18372738376263548,0.32821464528587685,0.925550460772348
1684002656157990800,6.09039111328125,-0.13363242155137128,0.633604049681599,1.1410663126113112
1684002656168032900,6.100433349609375,-0.019439101332679603,0.8666267394904535,1.2524948120735864
1684002656178075100,6.110475341796875,0.24008357523107882,1.0753817558938537,1.2654414176432833
1684002656188117200,6.120517578125,0.46159172051517167,1.066806793168576,1.1671228409736534
1684002656198159300,6.1305595703125,0.6466549634602419,0.8967456816843324,1.0287594795039536
1684002656208201400,6.140601806640625,0.8037731648515993,0.6567082404949521,0.8614888191539509
1684002656218243600,6.150643798828125,0.9454263447622165,0.37341403947138896,0.67583274850188
1684002656228285600,6.16068603515625,1.1352882385494238,0.3039941788618206,0.6250467300135117
1684002656238327600,6.17072802734375,1.2550725936724116,0.019634246782381636,0.31533670442430783
1684002656248369600,6.18077001953125,1.3617837428861261,-0.23032379153013166,-0.0033106804022774183
1684002656258411600,6.19081201171875,1.5879625081955024,-0.42802619943811643,-0.40761470807163236
1684002656268453800,6.200854248046875,1.805697321903476,-0.5357446671285079,-0.8174679279242172
1684002656278495900,6.210896240234375,1.8706214428799786,-0.6089496612614556,-1.1101617813499083
1684002656288538000,6.2209384765625,1.6206524373315538,-0.7107276915355295,-1.239006042523994
1684002656298580100,6.23098046875,1.2337515354123045,-0.8598070144631733,-1.2236254215235185
1684002656308622300,6.241022705078125,0.8026284575625716,-0.8680391311141197,-1.1697325706039214
1684002656318664400,6.251064697265625,0.3850337266046991,-0.9311389924518226,-1.0373907089352303
1684002656328706600,6.26110693359375,0.061244487817139134,-1.049335479687832,-0.8734087944176504
1684002656338748300,6.271148681640625,-0.09375453006498259,-1.2071094511468028,-0.7855477333571953
1684002656348790400,6.28119091796875,-0.16711747661582788,-1.2240304947799183,-0.9031457901409765
1684002656358832600,6.29123291015625,-0.21164381490455186,-1.0097990035154554,-0.9491982460091039
1684002656368874600,6.301275146484375,-0.31219828128438476,-0.757121086145627,-0.9577541351900171
1684002656378916800,6.311317138671875,-0.4020467995586671,-0.4198827743091703,-0.6109895705790137
1684002656388958900,6.321359375,-0.4496868849222175,-0.17989826207763315,-0.3654689789304998
1684002656399001000,6.3314013671875,-0.6151047946191172,-0.1430997848159999,-0.3197903631870192
1684002656409043100,6.341443603515625,-0.6704666614417975,-0.18005084996106147,-0.3031086922497165
1684002656419085200,6.351485595703125,-0.6443598269470643,-0.1014337540120635,-0.3235149382894705
1684002656429127300,6.36152783203125,-0.546794295365028,-0.11737155903711176,-0.3035736083879083
1684002656439169200,6.371569580078125,-0.4194320440113964,-0.183905601457121,-0.4044280053955143
1684002656449211300,6.38161181640625,-0.24673855305201703,-0.19066619872513788,-0.46551752095828924
1684002656459253400,6.39165380859375,-0.035817503783497934,-0.1044178009860133,-0.5615549088414454
1684002656469295600,6.401696044921875,0.11126536132272787,-0.06102180466224227,-0.5822424887226971
1684002656479337600,6.411738037109375,0.20311599967051278,-0.041110992380938516,-0.6734638214910229
1684002656489379800,6.4217802734375,0.31093960996509784,-0.020493030410471826,-0.7464532852699393
1684002656499421900,6.431822265625,0.3131898642837891,0.02720594410789065,-0.6601772307517447
1684002656509464000,6.441864501953125,0.12857806682742884,0.05857753742331984,-0.5421953201347921
1684002656519506100,6.451906494140625,0.13806599380513318,0.12156820313074171,-0.5379371642484527
1684002656529548000,6.4619482421875,0.2830988169030664,0.10443019875178504,-0.5983119011261823
1684002656539590300,6.47199072265625,0.3965821266032917,0.06950044624123725,-0.5893468855659356
1684002656549632200,6.482032470703125,0.38729482892923495,0.056911945415489336,-0.5431008339375526
1684002656559674300,6.49207470703125,0.360273063226655,0.01856899264175614,-0.40998125077415476
1684002656569716400,6.50211669921875,0.29623597866752954,0.026493549276583074,-0.34745407108224297
1684002656579758600,6.512158935546875,0.2834812999771116,0.05969905860495009,-0.3569369315643878
1684002656589800600,6.522200927734375,0.2885990143216274,0.07316064846445458,-0.27292490011841364
1684002656599842700,6.5322431640625,0.33616286500766884,0.08365678791334805,-0.18868970864675044
1684002656609884800,6.54228515625,0.35984760527457976,0.11289262774846405,-0.19463586804651167
1684002656619927000,6.552327392578125,0.250291407048565,0.1415705679476148,-0.1999421119795475
1684002656629969100,6.562369384765625,0.004746735207538133,0.09969091406960424,-0.21729183204327676
1684002656640010900,6.572411376953125,-0.15688616035082387,0.0636377333509442,-0.3158354759554306
1684002656650053000,6.582453369140625,-0.0811289547189428,0.05324316033675031,-0.449206352190514
1684002656660095200,6.59249560546875,0.21958929285403428,0.1670637130607446,-0.5932083129535581
1684002656670137300,6.60253759765625,0.40926897514939437,0.21451187140086012,-0.7377967834239465
1684002656680179400,6.612579833984375,0.534917592923079,0.29186105731030043,-0.7916073799625115
1684002656690221600,6.622621826171875,0.5328874586504395,0.31701517105189625,-0.6937503814453839
1684002656700263600,6.6326640625,0.4785100220797124,0.30382061005067623,-0.6171717644330039
1684002656710305600,6.6427060546875,0.3654364943227083,0.22845888146101334,-0.5234975815660137
1684002656720347800,6.652748291015625,0.2895562053463573,0.1602530478955744,-0.36503839480388806
1684002656730389600,6.6627900390625,0.23371529590840806,0.09407138825900042,-0.2212347982866064
1684002656740432000,6.67283251953125,0.1476423739896901,0.048630237656685685,-0.12358808506907426
1684002656750473900,6.682874267578125,0.03469932082433846,-0.05761337280142008,-0.024428844366195086
1684002656760516000,6.69291650390625,-0.027505040073091562,-0.16782760617909026,0.02304363248312068
1684002656770558100,6.70295849609375,-0.06281888494543778,-0.23770332338720876,0.07478666300981579
1684002656780600200,6.713000732421875,-0.02888941767424462,-0.12452697749187358,0.11088514323169538
1684002656790642400,6.723042724609375,0.07319027180365878,-0.024578094384723113,0.08580684665142076
1684002656800684500,6.7330849609375,0.10176432133336158,0.08885049822292077,0.059862136771076296
1684002656810726600,6.743126953125,0.0732310414358988,0.18263673782823125,0.08360004419075925
1684002656820768600,6.753169189453125,-0.06062364589500736,0.2115764618358017,0.18323087708105343
1684002656830810800,6.763211181640625,-0.29098296155281267,0.21615362158116527,0.3173699379447837
1684002656840852600,6.773253173828125,-0.5445898770044743,0.1889505385844907,0.49243736270306254
1684002656850894800,6.783295166015625,-0.695695459967411,0.1186094282197977,0.5734162330370706
1684002656860936900,6.793337158203125,-0.7202436327224021,-0.26210021963776436,0.6659770012452639
1684002656870979000,6.80337939453125,-0.7588118314415835,-0.6036643981297201,0.6207103730809095
1684002656881021100,6.81342138671875,-0.7871570587153954,-0.7173061369758721,0.41344642629395756
1684002656891063200,6.823463623046875,-0.5703313946577622,-0.4742946626153933,0.19820976262912549
1684002656901105300,6.833505615234375,-0.10137510299270817,-0.10857486730325301,-0.05772399905125208
1684002656911147400,6.8435478515625,0.3565242291047053,-0.038992881663836985,-0.10888957978973267
1684002656921189600,6.85358984375,0.5326512456513357,-0.2799854279244194,-0.020243167809558784
1684002656931231400,6.8636318359375,0.25881594406378505,-0.7638273239231654,0.26342010487704914
1684002656941273600,6.873673828125,-0.41619122019161897,-1.3094606398014494,0.752041816737513
1684002656951315600,6.883716064453125,-1.2071180344437535,-1.6916675567714237,1.2121191023235374
1684002656961357700,6.893758056640625,-1.8054749966038097,-1.6054067610430354,1.425605773895891
1684002656971399900,6.90380029296875,-1.936716437286494,-0.9559993745476467,1.6498374939084577
1684002656981442000,6.91384228515625,-1.4930579663942678,-0.29695796973475286,1.9724869728749064
1684002656991484100,6.923884521484375,-0.7385347484305682,0.26187229159951797,2.144562721070826
1684002657001526200,6.933926513671875,0.0224806070080374,0.656747817956786,2.0951633453119793
1684002657011568300,6.94396875,0.6974154115970137,0.9907479286611708,1.7910790442896687
1684002657021610400,6.9540107421875,1.297278165771417,1.0546436310415122,1.198245525297836
1684002657031652300,6.964052734375,1.8052766321801514,0.7832922934597893,0.44807100283553314
1684002657041694400,6.9740947265625,1.9075546264136283,0.37618541718376386,-0.28178262704730195
1684002657051736600,6.984136962890625,1.730842351840296,-0.015493393064225505,-1.0055246354552412
1684002657061778600,6.994178955078125,1.41463875776114,-0.24966716769378003,-1.6047616005046912
1684002657071820600,7.00422119140625,1.0360277892632863,-0.22917938225744072,-2.1506431102551082
1684002657081862800,7.01426318359375,0.652395725144246,-0.27642154692559384,-2.445893049361448
1684002657091904900,7.024305419921875,0.3308309914022221,-0.3254518509631575,-2.4467527866881715
1684002657101947100,7.034347412109375,0.11559462543547365,-0.3583412169536967,-2.365211248416173
1684002657111989200,7.0443896484375,0.14532476670076327,-0.39959430699762694,-2.0871937276470427
1684002657122031000,7.054431396484375,0.3734882176874075,-0.4136848449344419,-1.6780343055379516
1684002657132073100,7.0644736328125,0.6783680319819765,-0.42712879181183555,-1.2198076248415812
1684002657142115200,7.074515625,0.9608492850945113,-0.4285259245298555,-0.8071389197787936
1684002657152157400,7.084557861328125,1.130353569979523,-0.36359500869015204,-0.5586133002396907
1684002657162199600,7.094599853515625,1.1531655788129085,-0.2876195906789756,-0.48919343936898424
1684002657172241600,7.10464208984375,1.058519125027924,-0.14321327210954798,-0.5463104248755679
1684002657182283600,7.11468408203125,0.9526259899604071,-0.18625736248561867,-0.5390586851678908
1684002657192325800,7.124726318359375,0.8113694190344914,-0.19666194930395411,-0.6345491410815179
1684002657202367900,7.134768310546875,0.6796801685909267,-0.1674728392432603,-0.7270820141731547
1684002657212410000,7.144810546875,0.5617669225079138,-0.13466072079666144,-0.7685041427147837
1684002657222452100,7.1548525390625,0.4820445776561236,-0.12680625910410337,-0.8301758765625067
1684002657232494000,7.164894287109375,0.43188011634975215,-0.22972488414679035,-0.7590231895572571
1684002657242536100,7.1749365234375,0.35770469909555613,-0.27546024322926005,-0.7288968562576215
1684002657252578200,7.184978515625,0.2838331164820443,-0.2183208465243315,-0.6458599567296563
1684002657262620300,7.195020751953125,0.16580405827514094,-0.12077617648560991,-0.5676746368903638
1684002657272662400,7.205062744140625,0.05159336324689294,-0.06445598598961715,-0.3874750136609929
1684002657282704600,7.21510498046875,-0.014520168308383905,-0.10436058042634618,-0.18220281600318397
1684002657292746600,7.22514697265625,0.003008619079635906,-0.13017845147617277,-0.015915393861911594
1684002657302788800,7.235189208984375,0.1562740505533992,-0.1511869430704119,0.19329452512167544
1684002657312830900,7.245231201171875,0.4028094411525295,-0.07166671748419327,0.314315796010577
1684002657322872800,7.255273193359375,0.673298954976196,0.02681922897170003,0.3900599480738481
1684002657332914900,7.265315185546875,0.8646424412409982,0.2726726532000797,0.3312087059230014
1684002657342957000,7.275357421875,0.9879784582606396,0.41911792757523947,0.2398619652811147
1684002657352999100,7.2853994140625,0.9706687927111727,0.38254642493503843,0.1489367484395056
1684002657363041200,7.295441650390625,0.9117264747883024,0.2020597457193338,0.13089084630263736
1684002657373083300,7.305483642578125,0.7964432834940992,0.1172323227257662,0.04301548009714655
1684002657383125400,7.31552587890625,0.7089756725827623,-0.05886745463951342,0.05658197404005834
1684002657393167600,7.32556787109375,0.6041083337594276,-0.20439434056164696,-0.0964703559148435
1684002657403209600,7.335610107421875,0.5336441992725128,-0.3620157241672343,-0.24057579044458607
1684002657413251600,7.34565185546875,0.4624674321327861,-0.4048299787481266,-0.4396262169832338
1684002657423293600,7.355694091796875,0.39110019804962215,-0.3688306808880147,-0.6048879623142566
1684002657433335600,7.365736083984375,0.35140824325224007,-0.40245628362368624,-0.6603846550490502
1684002657443377800,7.3757783203125,0.42849785097023196,-0.4169902801072247,-0.6514334678041862
1684002657453420000,7.3858203125,0.46277713770334566,-0.43393230441559233,-0.6044125556873834
1684002657463462100,7.395862548828125,0.48477792731104674,-0.4007587433164576,-0.5887212754214765
1684002657473504200,7.405904541015625,0.47681787609396187,-0.2744445801847563,-0.558567047182631
1684002657483546300,7.41594677734375,0.4766988754414103,-0.10056591036325252,-0.5473544597170142
1684002657493588400,7.42598876953125,0.49183744190489587,-0.09655284875316084,-0.41891479477271243
1684002657503630600,7.436031005859375,0.5271868109013704,-0.09728622439287507,-0.25729513158469114
1684002657513672600,7.446072998046875,0.5489122271837219,-0.08619403836291975,-0.1918597222726324
1684002657523714600,7.456114990234375,0.5971841810937311,-0.06323814397380026,-0.1147408484806498
1684002657533756600,7.466156982421875,0.6216992140270486,-0.01653480543307652,-0.08334970480322497
1684002657543798600,7.47619921875,0.6562684774957106,0.017843246416559943,-0.009606838237231493
1684002657553840800,7.4862412109375,0.660782515942576,0.05418014517757593,-0.022743225268655073
1684002657563882900,7.496283447265625,0.6637584566387916,0.059199333025106896,-0.0051965713350125
1684002657573925000,7.506325439453125,0.6907698512394346,0.04027462007589866,0.012195587173047192
1684002657583967200,7.516367431640625,0.6830238102772762,0.04232597349450435,0.0763330459089696
1684002657594009300,7.52640966796875,0.6994460822575153,0.12436866765620926,0.09470367439264742
1684002657604051400,7.53645166015625,0.6712586284287424,0.18852233888119502,0.08922004714454948
1684002657614093200,7.54649365234375,0.6185173392108436,0.1926298141353913,0.08837079997141412
1684002657624135300,7.55653564453125,0.5632988214456396,0.19187259666646486,0.04975938777127956
1684002657634177500,7.566577880859375,0.5251178144999721,0.18869781491640888,-0.08719396596542488
1684002657644219600,7.576619873046875,0.49715471268274286,0.09384155276955447,-0.2311000825282482
1684002657654261600,7.586662109375,0.46535018088534025,-0.04625701896215497,-0.3249921798526037
1684002657664303800,7.5967041015625,0.4362745880790332,-0.12002372736081583,-0.4352350235223618
1684002657674345900,7.606746337890625,0.37351781120997435,-0.14737987524286045,-0.5331969260114512
1684002657684388000,7.616788330078125,0.31286662828343886,-0.15736484529885497,-0.5861315726988467
1684002657694430100,7.62683056640625,0.25065743921398215,-0.15253925321993628,-0.594676017707365
1684002657704472000,7.636872314453125,0.21663618080973152,-0.14969825740909784,-0.5786471367458775
1684002657714514100,7.64691455078125,0.23491170987822088,-0.14172172552030798,-0.5855755804697006
1684002657724556200,7.65695654296875,0.2641463876220688,-0.20862293238135537,-0.50415754322765
1684002657734598300,7.666998779296875,0.2867408096162005,-0.24551391603441766,-0.44395637511480307
1684002657744640400,7.677040771484375,0.32059210532864907,-0.24353313450990705,-0.33165907867312155
1684002657754682600,7.6870830078125,0.3556759655059572,-0.1963863373620579,-0.27427792546377994
1684002657764724600,7.697125,0.38063538080188314,-0.11672973640095435,-0.23353815093227473
1684002657774766800,7.707167236328125,0.3632721901022571,-0.16065788284880106,-0.18132972718371496
1684002657784808600,7.717208984375,0.3771362304363086,-0.17321777347910616,-0.1157608031915099
1684002657794850700,7.727251220703125,0.3337790071443006,-0.19045925156077917,-0.028015136776720302
1684002657804892800,7.737293212890625,0.26103889928036006,-0.22891235353256387,-0.019839763657838707
1684002657814935000,7.74733544921875,0.1799570620185028,-0.2480821608767802,-0.021308422205029605
1684002657824977100,7.75737744140625,0.04865983121819018,-0.2341480253518241,-0.048715591495047256
1684002657835019200,7.767419677734375,-0.05770075330684009,-0.21347904206730084,-0.05216598496577618
1684002657845061300,7.777461669921875,-0.12594836968462336,-0.16495132450626968,-0.06747674959913166
1684002657855103400,7.78750390625,-0.14757755408525916,-0.19502735147655678,-0.0006642342008077154
1684002657865145600,7.7975458984375,-0.13151317836014745,-0.135240554835779,-0.018048763359804834
1684002657875187600,7.807588134765625,-0.06692355878928966,-0.048303604097234186,0.018339633932550295
1684002657885229700,7.817630126953125,0.03317213040514007,-0.04290390016345327,0.053622722560836736
1684002657895271600,7.827672119140625,0.1656848489398986,0.061336517357783456,0.09749364849491378
1684002657905313600,7.837714111328125,0.3014056681247635,0.1378936768499227,0.20612669000917438
1684002657915355800,7.847756103515625,0.43275541069745077,0.23888015755280936,0.2816605567464433
1684002657925397900,7.85779833984375,0.5480869412730577,0.20126342768205324,0.38308334353594636
1684002657935440000,7.86784033203125,0.6330525874503424,0.1616163252505401,0.4160180091988613
1684002657945482200,7.877882568359375,0.6915433406822934,0.17666721354597517,0.3586516380743891
1684002657955524300,7.887924560546875,0.694272994939621,0.16063880919502146,0.34892749789726124
1684002657965566400,7.897966796875,0.634356498759744,0.18472290034199168,0.3061866760393283
1684002657975608600,7.9080087890625,0.5693505405902253,0.18006038671892519,0.3064856528137761
1684002657985650400,7.91805078125,0.5236444472691256,0.22710514058474915,0.3041439054678078
1684002657995692500,7.9280927734375,0.5091625452454804,0.2075090407890508,0.2549376486343387
1684002658005734600,7.938135009765625,0.47826066613012186,0.1602754592865146,0.27080249788186433
1684002658015776600,7.948177001953125,0.5038220882046887,0.14967155466662313,0.23589038856691488
1684002658025818800,7.95821923828125,0.49252176286556015,0.12070751205181744,0.31065034866525365
1684002658035860900,7.96826123046875,0.4192937314519725,0.12054634092169329,0.3797235487419932
1684002658045903000,7.978303466796875,0.3729687632146837,0.1815910340241978,0.4665083884293517
1684002658055945100,7.988345458984375,0.3635725677829739,0.3452157973737658,0.4882640838489595
1684002658065987200,7.9983876953125,0.37952345612852983,0.4450511932512027,0.5475387573852062
1684002658076029100,8.008429443359375,0.4544826745227396,0.5129089355229757,0.5992255211526655
1684002658086071200,8.0184716796875,0.5037631988629991,0.523576736533844,0.6955151558475858
1684002658096113300,8.028513671875,0.5540429949223545,0.48734092718018557,0.8237190247321453
1684002658106155400,8.038555908203126,0.6002283691607608,0.4074373246675327,0.9318203926903657
1684002658116197600,8.048597900390625,0.6554661988782191,0.3739156723542284,1.031739711912597
1684002658126239600,8.05864013671875,0.7107974289809573,0.4021787643906456,1.1348423956233435
1684002658136281800,8.06868212890625,0.7413833140119497,0.4463090895467865,1.1795854568443644
1684002658146323900,8.078724365234375,0.7848273516576856,0.5365266801044112,1.185506343883476
1684002658156366000,8.088766357421875,0.8248171211487616,0.6434774397555281,1.176014900364926
1684002658166407900,8.098808349609374,0.8831239342600615,0.6250267029201613,1.2276759148623602
1684002658176450000,8.108850341796876,0.851454854170654,0.6100559234609366,1.2092461587591539
1684002658186492100,8.118892578125,0.8154194355828472,0.6151247024742492,1.1104817390142796
1684002658196534200,8.1289345703125,0.7340354322336347,0.6329240799352901,1.0083117485044415
1684002658206576300,8.138976806640626,0.6871625780627112,0.5760803224527974,0.9121212960435783
1684002658216618400,8.149018798828125,0.6241226196023023,0.5139789581471529,0.7509250639804235
1684002658226660600,8.15906103515625,0.5730317234769082,0.37344837189125046,0.5864286421456734
1684002658236702600,8.16910302734375,0.5012480020750937,0.16749000554455104,0.4444313050416631
1684002658246744800,8.179145263671876,0.46373733886786456,-0.024878501882449625,0.2803626059163992
1684002658256786600,8.18918701171875,0.45315653079712437,-0.1986484526967617,0.13338804259030582
1684002658266828600,8.19922900390625,0.4407790898780879,-0.27318573005514024,-0.053742408739361605
1684002658276870800,8.209271240234376,0.4229837060997152,-0.4191389084235064,-0.14279174806284636
1684002658286912900,8.219313232421875,0.40924227226027254,-0.6237773895158263,-0.20652294155574713
1684002658296955100,8.22935546875,0.3349747060832798,-0.7051000596134219,-0.2882556914115339
1684002658306997200,8.2393974609375,0.2614481151921313,-0.6677608489830911,-0.3716940880955955
1684002658317039300,8.249439697265625,0.12496393169955461,-0.5867967604381257,-0.5275850296479869
1684002658327081400,8.259481689453125,-0.10179585217817845,-0.448575973370575,-0.8366696835641502
1684002658337123600,8.26952392578125,-0.4099262058482019,-0.2820615769194081,-1.114658117241515
1684002658347165600,8.27956591796875,-0.758970439334858,-0.19823837272209005,-1.3732333182085839
1684002658357207700,8.289608154296875,-1.2105642556259333,-0.1544132231233099,-1.4499673843067684
1684002658367249600,8.29964990234375,-1.4778878689552146,-0.21529293056222945,-1.4386582373958876
1684002658377291600,8.309692138671876,-1.4621026517118898,-0.4103288652283968,-1.214554309974445
1684002658387333800,8.319734130859375,-1.314918279513874,-0.6731758117065414,-0.9468481540169282
1684002658397375900,8.3297763671875,-1.0484695434617128,-0.8030586243645451,-0.7386591433173969
1684002658407418000,8.339818359375,-0.77017760278736,-0.8763790130517852,-0.6423380374587819
1684002658417460100,8.349860595703126,-0.5638669132286724,-0.8406982421148338,-0.6103391646849647
1684002658427502300,8.359902587890625,-0.5162354110241559,-0.8012599944624939,-0.6257143019422191
1684002658437544400,8.36994482421875,-0.6557604668986255,-0.8009166716663026,-0.6470804215044996
1684002658447586600,8.37998681640625,-0.8572694063590979,-0.7912654876380147,-0.7992460727940033
1684002658457628300,8.39002880859375,-0.9311429858188851,-0.7933330535421114,-0.8535170553734598
1684002658467670400,8.40007080078125,-0.8298184871102537,-0.7714557647139861,-0.8580708504443115
1684002658477712600,8.410113037109374,-0.723044872363439,-0.678397178568077,-0.8690497875166014
1684002658487754600,8.420155029296875,-0.5486091971940105,-0.5740842819432479,-0.9441509246045814
1684002658497796800,8.430197265625,-0.32499009358796427,-0.4721260070746857,-1.0510549545632357
1684002658507838900,8.4402392578125,-0.08147501948503688,-0.4077167511214688,-1.1433067323029016
1684002658517881000,8.450281494140626,0.18642097716899547,-0.32092952727921825,-1.1874048709710545
1684002658527923100,8.460323486328125,0.343503832830432,-0.2548360824712281,-1.2054481506105625
1684002658537965000,8.470365478515625,0.32238751653439,-0.24487972258314894,-1.2575285435241024
1684002658548007100,8.480407470703126,-0.0843478442041144,-0.2827882767449898,-1.3170118331544072
1684002658558049200,8.49044970703125,-0.6917461156141552,-0.2767467499323109,-1.375868320521464
1684002658568091300,8.50049169921875,-1.206290960217228,-0.31991577141840083,-1.4719429016840366
1684002658578133400,8.510533935546874,-1.2507659197642234,-0.29085922236704864,-1.5290510654784184
1684002658588175600,8.520575927734376,-0.6986652611856423,-0.1904134750715843,-1.5499644278739924
1684002658598217600,8.5306181640625,0.01566362377777617,-0.12438869481496295,-1.4486770629880685
1684002658608259800,8.54066015625,0.6741214989792742,-0.190856933655697,-1.2008180618034086
1684002658618301900,8.550702392578126,1.0659012795551743,-0.22244930249372333,-0.7133688926850074
1684002658628343600,8.560744140625,0.8937841057139945,0.011597633410437331,-0.03015375147888176
1684002658638385800,8.5707861328125,0.5653725862257122,0.33325672146511753,0.7806701659040656
1684002658648428000,8.580828369140624,0.4269551634779873,0.5442857741481865,1.295619010851874
1684002658658470100,8.590870361328125,0.3726516961533445,0.6378822325872785,1.4667243957470046
1684002658668512200,8.60091259765625,0.2820612192028821,0.635807037405397,1.1754899024688055
1684002658678554300,8.61095458984375,0.17333221434166154,0.476489067093428,0.7429523469609431
1684002658688596400,8.620996826171876,0.0747342109390301,0.28537750248875243,0.2474932669981419
1684002658698638600,8.631038818359375,-0.047484755553567896,0.11660766606613908,-0.4356946946532376
1684002658708680600,8.6410810546875,-0.218441843928077,-0.01624202724088154,-1.0465474128564751
1684002658718722600,8.651122802734376,-0.40393304818463865,-0.07194423672519543,-1.4869184493646679
1684002658728764600,8.6611650390625,-0.6805900335623986,-0.0033454894312449513,-1.6575229168220131
1684002658738806600,8.67120703125,-0.8995603322830245,0.07075214390241893,-1.4843013286105238
1684002658748848800,8.681249267578124,-0.9459946156873136,0.2342071534265373,-1.1694548130203897
1684002658758890900,8.691291259765626,-0.834303140584798,0.4589118957366135,-0.8645310401365911
1684002658768933000,8.70133349609375,-0.4620425702220803,0.5720510483287763,-0.48584413523288844
1684002658778975200,8.71137548828125,0.0050939321891560795,0.5424270630592704,-0.037940979007571325
1684002658789017300,8.721417724609376,0.36265087134012,0.27953720100483637,0.5593137741192349
1684002658799059400,8.731459716796875,0.5063086748570212,-0.21607112891187208,1.1884224416079905
1684002658809101200,8.741501708984375,0.41166210182483876,-0.5334300993624012,1.7317347527387352
1684002658819143300,8.751543701171874,0.1261745690806028,-0.6638355254570767,2.186498164976407
1684002658829185500,8.7615859375,-0.3448643683900938,-0.4680595398814521,2.574661970097476
1684002658839227600,8.7716279296875,-0.8976620435917874,0.16821098320530217,2.7232062816735865
1684002658849269600,8.781670166015624,-1.2958394288117412,1.1539835930472893,2.4577233791109028
1684002658859311800,8.791712158203126,-1.45905661577216,2.2294101715206964,1.784555673538125
1684002658869353900,8.80175439453125,-1.2766306398930973,2.1306548120182094,1.2665255068535388
1684002658879396000,8.81179638671875,-0.9378027914604709,1.4203295707416541,1.1950228214806937
1684002658889438100,8.821838623046874,-0.5870174170062311,1.0137972831248425,1.2491476534234296
1684002658899480200,8.831880615234375,-0.348882079125911,1.00552082071126,0.9087469576875321
1684002658909522400,8.8419228515625,-0.25520002843180306,1.0773148537897186,0.47076630591365615
1684002658919564200,8.851964599609374,-0.4745721817038516,1.0650568007808294,-0.04407215110647542
1684002658929606300,8.8620068359375,-0.8701224328177452,0.8618507386522999,-0.4118525982517522
1684002658939648400,8.872048828125,-1.03789627557671,0.4055652619369409,-0.560881137812154
1684002658949690600,8.882091064453125,-1.0538719892376007,0.004303932281461464,-0.6065146922374942
1684002658959732600,8.892133056640626,-0.9255745412185188,-0.1341209410367516,-0.718007087769416
1684002658969774800,8.902175048828125,-0.7390922307048342,0.19529438020853782,-0.9022593498767164
1684002658979816900,8.91221728515625,-0.5212808846596434,0.3338890074867419,-0.7629044056021503
1684002658989859000,8.92225927734375,-0.32013738153031973,0.31766891483575976,-0.5792894364058384
1684002658999901100,8.932301513671876,-0.146447658652376,0.3001289366837356,-0.3274335862212718
1684002659009943000,8.94234326171875,0.037697792062328324,0.15479469291914405,-0.04558086409691226
1684002659019985100,8.952385498046874,0.09546756757771391,0.08949375159378302,0.22713232041736436
1684002659030027200,8.962427490234376,0.09896147263508717,0.053361892763123635,0.47279596344869795
1684002659040069300,8.9724697265625,0.05372667315822645,0.043446540804121705,0.6761350630947575
1684002659050111400,8.98251171875,-0.005817771119940017,0.06905841826241252,0.8060495853097226
1684002659060153600,8.992553955078124,-0.05748319642723447,0.06315898894206924,0.9296030997740425
1684002659070195600,9.002595947265625,-0.10816955572439237,0.07580566389597174,0.9843337535376776
1684002659080237700,9.01263818359375,-0.17403376096932788,0.09941291804951753,1.050771713345922
1684002659090279900,9.02268017578125,-0.25662195677714467,0.1861171723065418,1.0612361430727502
1684002659100321600,9.03272216796875,-0.29063701630304045,0.28319835674830396,1.0112242699120486
1684002659110363800,9.04276416015625,-0.2481369970878971,0.4219598770152139,0.9658336640977566
1684002659120405900,9.052806396484376,-0.226335406230406,0.6068630218835659,1.0551834107268803
1684002659130448000,9.062848388671876,-0.23596441742336904,0.6281328201646906,0.9559135436964776
1684002659140490200,9.072890625,-0.21729004399350027,0.6887264252325495,0.8280994890622175
1684002659150532300,9.0829326171875,-0.08369350451877752,0.7572059630788983,0.8995573521259368
1684002659160574400,9.092974853515624,-0.12293839469753093,0.6815700531317791,0.9703531266441703
1684002659170616600,9.103016845703126,-0.26934611798281605,0.5468673705139778,0.990517377914458
1684002659180658600,9.11305908203125,-0.37810993194670905,0.5300827025028104,1.0183572768587936
1684002659190700500,9.123100830078124,-0.4450697899626223,0.506010055469262,1.0023531913263035
1684002659200742600,9.13314306640625,-0.4855716228940929,0.588895797687936,0.8751211166952343
1684002659210784600,9.14318505859375,-0.5034809113070011,0.5874128341021841,0.6993303298742709
1684002659220826800,9.153227294921876,-0.5177714825782184,0.528137207012363,0.5255508422543786
1684002659230868900,9.163269287109374,-0.5704494713917252,0.49955558774019915,0.4296667575954445
1684002659240911000,9.1733115234375,-0.677848577445281,0.5014390946536044,0.3530690670395479
1684002659250953100,9.183353515625,-0.8794894218529953,0.4619760513283849,0.2831041813201195
1684002659260995200,9.193395751953124,-1.0548089742914275,0.4504785538791387,0.25820851320310795
1684002659271037400,9.203437744140626,-1.1801252364322878,0.44295310969710733,0.29559636107780735
1684002659281079200,9.213479736328123,-1.136179447264631,0.42729473113796984,0.4813389779735948
1684002659291121300,9.223521728515625,-0.9734683634435988,0.3821249007886923,0.7299995423924884
1684002659301163400,9.233563720703126,-0.7932786942060776,0.434494972182804,0.8805537223931734
1684002659311205600,9.24360595703125,-0.5967298746369674,0.38368701927701526,0.9618785381551985
1684002659321247600,9.25364794921875,-0.44667118776061354,0.25844383246641045,1.0826630592569266
1684002659331289800,9.263690185546874,-0.34340190898295936,0.12618350983208768,1.061623573318055
1684002659341331900,9.273732177734376,-0.3166419863278664,0.054362296950635,0.8478968143450805
1684002659351374000,9.2837744140625,-0.3940498828907601,-0.004711151028222492,0.5430932045647641
1684002659361416100,9.29381640625,-0.5564209818985036,-0.07510757434457496,0.28842377673311304
1684002659371458000,9.3038583984375,-0.6773014069954815,-0.1424703598404039,0.019728422256571256
1684002659381500100,9.313900390625,-0.7134388685913295,-0.14696884162052096,-0.1933057307894386
1684002659391542200,9.323942626953125,-0.593245327492723,-0.14627075206268447,-0.3600282670402942
1684002659401584300,9.333984619140624,-0.46954268224942886,-0.08143901833718724,-0.3644509315642327
1684002659411626400,9.34402685546875,-0.3691533206865161,-0.012431144672839607,-0.2448782920187511
1684002659421668600,9.35406884765625,-0.2758598327738773,0.1192045211256932,0.059138059554048224
1684002659431710600,9.364111083984374,-0.20123320814174084,0.26730346686275147,0.4304521084384551
1684002659441752800,9.374153076171876,-0.1282022000381998,0.43358612070332775,0.8293416499691705
1684002659451794900,9.3841953125,-0.08241277946091799,0.5869665145814271,1.1136691569987782
1684002659461836600,9.394237060546876,-0.05921316132668537,0.6803989411435867,1.2423954008968716
1684002659471878800,9.404279296875,0.009120404828121905,0.6466541291430389,1.2039818764063763
1684002659481920900,9.4143212890625,0.1259552836731982,0.4951419829868059,1.0723946093223815
1684002659491963100,9.424363525390625,0.2455010711974835,0.31518077850675247,0.9628827572420943
1684002659502005200,9.434405517578124,0.2896121739088406,0.19924831396550904,0.8143613338998201
1684002659512047300,9.44444775390625,0.2901287375789723,0.1605014799910527,0.6772432326929437
1684002659522089400,9.45448974609375,0.2080243526681703,0.18117809287216027,0.5373275278291727
1684002659532131600,9.464531982421876,0.11289182312067636,0.21085739129909423,0.3994333745373515
1684002659542173600,9.474573974609376,0.03623440864983218,0.21005439750786362,0.28188037873059585
1684002659552215700,9.4846162109375,-0.020706474887122947,0.22831630709799394,0.2935194968476431
1684002659562257600,9.494657958984376,-0.0811860262125379,0.2775278090713887,0.26218938836740835
1684002659572299600,9.5047001953125,-0.19701966637951412,0.26220798491665814,0.29112410553483714
1684002659582341800,9.5147421875,-0.36218321331905445,0.19932174675625988,0.27065634726673
1684002659592383900,9.524784423828123,-0.4745400846590866,0.13200092318799855,0.20351171493947867
1684002659602426000,9.534826416015624,-0.5658559201799096,0.1294813154562722,0.06593036641743454
1684002659612468100,9.54486865234375,-0.5753457546653356,0.14129734032767097,-0.05155348772401211
1684002659622510300,9.55491064453125,-0.49097725747702897,0.19109725936732488,-0.20925426493192179
1684002659632552400,9.564952880859376,-0.3811501860989217,0.23581695565934632,-0.333176851218264
1684002659642594600,9.574994873046874,-0.2814539671443947,0.2327632903156711,-0.4491646289789632
1684002659652636300,9.58503662109375,-0.1558808684358554,0.18702220929820282,-0.47335577016206815
1684002659662678400,9.595078857421877,-0.05179993802401177,0.1392221449702405,-0.4206244945965519
1684002659672720600,9.605120849609374,0.006343871228065828,0.06767749771157498,-0.27017998691182904
1684002659682762600,9.6151630859375,0.011692613382482694,-0.08261299151842307,-0.07508468630454017
1684002659692804800,9.625205078125,-0.020908489742946835,-0.22303676596989014,0.1599643230257588
1684002659702846900,9.635247314453125,-0.06210336098804296,-0.2676143646207805,0.3060529231829689
1684002659712889000,9.645289306640626,-0.07500872022211658,-0.20946121216686284,0.4111371040705706
1684002659722931100,9.65533154296875,-0.08513997509211729,-0.10859584809961936,0.48475694654666573
1684002659732973200,9.66537353515625,-0.0801611020161582,0.006108283887510758,0.5004618166848751
1684002659743015100,9.67541552734375,-0.09823353590033691,0.12031078342092677,0.4297828675224258
1684002659753057200,9.68545751953125,-0.12019237886515757,0.17441558834957172,0.3233370780674729
1684002659763099300,9.695499755859377,-0.10104050487533814,0.1997509002755314,0.20301103592998343
1684002659773141400,9.705541748046874,-0.09142695367080747,0.23938751220592622,0.12140679358018673
1684002659783183600,9.715583984375,-0.066773325211068,0.21611976635434837,0.05369830130032294
1684002659793225600,9.7256259765625,-0.07842210678369842,0.2404193878918325,-0.010179042873358565
1684002659803267800,9.735668212890625,-0.14938548188871645,0.28328800205668453,-0.07723975176534581
1684002659813309900,9.745710205078124,-0.2216173111722321,0.2690439224652257,-0.16165733341895183
1684002659823352000,9.75575244140625,-0.27096587411991224,0.19629573809795317,-0.1265926359808161
1684002659833393800,9.765794189453125,-0.2521102131256513,0.06143665314305639,-0.11031508454595301
1684002659843436000,9.77583642578125,-0.1825888752403678,-0.17461013778391976,0.07087874418556862
1684002659853478100,9.78587841796875,-0.13038466871846432,-0.43528938284138496,0.3331074714501371
1684002659863520200,9.795920654296877,-0.09629375494549063,-0.5269498825139773,0.3953857422482296
1684002659873562300,9.805962646484376,-0.04042194790933766,-0.3837995528536553,0.3748807906520372
1684002659883604400,9.8160048828125,0.00644198061301184,-0.19116210936354583,0.28206920609854574
1684002659893646600,9.826046875,0.05663979043946169,-0.07256221763929122,0.1834070683813506
1684002659903688600,9.836089111328125,0.07257772990760489,0.015724182148025758,0.10281157481788887
1684002659913730700,9.846131103515624,0.06625965242134295,0.08603572848110373,0.016623497143296695
1684002659923772600,9.856173095703124,0.018949389505155675,0.1434335708323903,-0.02312541010938211
1684002659933814600,9.866215087890623,-0.033493503989913895,0.17163181300710081,-0.04783463482176783
1684002659943856800,9.87625732421875,-0.08844064168084394,0.24186420446944393,-0.03392577172979381
1684002659953898900,9.88629931640625,-0.10554026064990683,0.3157453536466724,-0.019767999637010522
1684002659963941000,9.896341552734375,-0.07315346602442444,0.327088355982288,0.05061531085202837
1684002659973983200,9.906383544921876,-0.01027357571337103,0.27920246116059977,0.08656382554250074
1684002659984025300,9.91642578125,0.06437766549817467,0.26740837100035186,0.07956600200996627
1684002659994067400,9.9264677734375,0.14142259961883183,0.18053436288215965,0.06107306464884933
1684002660004109600,9.936510009765623,0.20659556977120663,0.09285068520289018,-0.025138854879112223
1684002660014151300,9.9465517578125,0.27636790275829365,0.06572914130132944,-0.12108588233906326
1684002660024193500,9.95659375,0.3221755027358308,0.06533908856449624,-0.20978832239534395
1684002660034235600,9.966635986328123,0.3368437886636071,0.060724258403334265,-0.2793204785355379
1684002660044277600,9.976677978515625,0.39344650494058214,0.1580619811067051,-0.37663173685967594
1684002660054319800,9.98672021484375,0.44194942714002966,0.20977973925759513,-0.404535293516006
1684002660064361900,9.99676220703125,0.49202114330628854,0.27328109746423707,-0.42270874975458766
1684002660074404000,10.006804443359377,0.5130565761144489,0.24485874183812706,-0.3934614657453114
1684002660084446100,10.016846435546874,0.5430038570267939,0.18949604046981938,-0.24951291068167508
1684002660094488200,10.026888671875,0.5558809638891503,0.10756492620071849,-0.15067815767459228
1684002660104530100,10.036930419921877,0.5470024347797643,0.0016794204202616012,-0.028295040075819015
1684002660114572200,10.04697265625,0.5093575121622161,-0.05272293089466984,0.04128718374067485
1684002660124614300,10.0570146484375,0.49343603851036383,-0.09674739828399373,0.12657666212285845
1684002660134656400,10.067056884765623,0.43124365800395537,-0.17786502830870685,0.18898725508469197
1684002660144698600,10.077098876953125,0.3547966481024594,-0.20615482335982338,0.2189331053864508
1684002660154740600,10.08714111328125,0.2857061625468424,-0.20114803323174807,0.2361478806860848
1684002660164782800,10.09718310546875,0.2191858887990056,-0.17279911043303017,0.3303008079074383
1684002660174824900,10.107225341796877,0.15781736369674376,-0.15698146820160425,0.5019409656430961
1684002660184867000,10.117267333984374,0.12064492713212946,-0.1440982818818147,0.6907236574478807
1684002660194908800,10.127309326171876,0.09085774434306337,-0.08710289000906496,0.8796174524866797
1684002660204951000,10.137351318359377,0.10303866850785372,-0.05029964431867556,1.0922646521904928
1684002660214993100,10.1473935546875,0.08951753376221355,0.04439830773487266,1.2392218113140334
1684002660225035200,10.157435546875,0.05613935005806049,0.18934535963276186,1.4147887230285026
1684002660235077300,10.167477783203124,0.05033206939350462,0.28347778309827737,1.5506789684899913
1684002660245119400,10.177519775390625,0.04461377857638055,0.38167381282489393,1.7226395605570275
1684002660255161600,10.18756201171875,0.06588774914644925,0.5291709898693434,1.789200305779438
1684002660265203600,10.19760400390625,0.06396937371958278,0.6183891295654319,1.8174915313544984
1684002660275245700,10.207646240234377,0.06005710362000425,0.7258300782940694,1.8433768750609771
1684002660285287900,10.217688232421876,0.08896708496297283,0.7772340773953338,1.8141756058070406
1684002660295330000,10.22773046875,0.09955781703379128,0.7751369475817712,1.7470147608612692
1684002660305371800,10.237772216796875,0.1483204364568919,0.7268295288572648,1.6470007897209062
1684002660315413900,10.247814453125,0.19632017602508955,0.6850576399581088,1.4549138546266698
1684002660325456000,10.2578564453125,0.24963921320970195,0.575864791741499,1.2311909198559907
1684002660335498200,10.267898681640624,0.26220571999847475,0.5093536376778036,1.014500141118293
1684002660345540300,10.277940673828123,0.24402320381317702,0.4546108244440698,0.798134088604446
1684002660355582400,10.287982666015624,0.19593542824026894,0.3903226851444797,0.5561215877297901
1684002660365624600,10.29802490234375,0.1566550136076604,0.3240747452063777,0.31800508501201086
1684002660375666600,10.30806689453125,0.12351620196775077,0.24176216113719878,0.13448595996542695
1684002660385708600,10.318109130859376,0.0698184965926261,0.1173276901268351,0.0035288333781259814
1684002660395750600,10.32815087890625,0.017342865488198224,0.0034265518743266266,-0.06787920005145712
1684002660405792600,10.338193115234375,-0.061339735920802295,-0.04010963439799781,-0.13716363901492357
1684002660415834800,10.348235107421877,-0.13571751122380252,-0.07068443289648572,-0.13295340553348345
1684002660425876900,10.35827734375,-0.1753276587483513,-0.08346080788852625,-0.12495160095328635
1684002660435919000,10.3683193359375,-0.19862037893380585,-0.08542346955895656,-0.0316505431809238
1684002660445961100,10.378361572265623,-0.176664888844346,-0.11746406552890613,0.1675369738527041
1684002660456003200,10.388403564453125,-0.03541070227081806,-0.08190059659936706,0.3164150714684218
1684002660466045400,10.39844580078125,0.10300070053348807,0.006577491862525523,0.3932287692080361
1684002660476087200,10.408487548828123,0.2690098285475688,0.08543396000335397,0.4263036251697624
1684002660486129300,10.41852978515625,0.41362845904388934,0.15683364862216315,0.45132946974025384
1684002660496171400,10.42857177734375,0.5645641088907482,0.2541770934299732,0.4063985348057445
1684002660506213600,10.438614013671875,0.6972730159485634,0.3031663895280656,0.4752881528198897
1684002660516255600,10.448656005859377,0.8230304718435764,0.37781429275549333,0.48800849914304756
1684002660526297800,10.4586982421875,0.9267331361541454,0.3561611175508932,0.5282285213861359
1684002660536339900,10.468740234375,0.9912768007616205,0.2956905366695582,0.5623641014308206
1684002660546382000,10.478782470703123,1.016462206817537,0.2416858673195438,0.5805077553929814
1684002660556424100,10.488824462890625,1.0064469575413633,0.11052703855272364,0.5039658546168057
1684002660566466000,10.498866455078126,0.92914271361058,0.06728458417658482,0.38593482970164156
1684002660576508100,10.508908447265624,0.8073955179386582,0.0355033874262995,0.17696881291907768
1684002660586550200,10.51895068359375,0.6792500017729208,-0.02528572086412927,-0.012484312194456669
1684002660596592300,10.52899267578125,0.5810721517147431,-0.1199617384993106,-0.12090039250220122
1684002660606634400,10.539034912109376,0.5069931149886784,-0.6238918304235906,0.005314827094304313
1684002660616676600,10.549076904296877,0.24143981932735525,-0.7255506516038066,-0.435033082947184
1684002660626718600,10.559119140625,0.09000957008644654,-0.2002763748934346,-0.7810707092010233
1684002660636760800,10.5691611328125,0.04876989138352965,1.1401457786277678,-1.0758490562787715
1684002660646802900,10.579203369140624,0.07712668170276232,2.5096940995452104,-1.5618424415654035
1684002660656844600,10.5892451171875,0.06972819576173413,2.8069477080957217,-1.3013384342386667
1684002660666886800,10.599287353515624,0.04541862016023951,2.4024953842287076,-0.5716791152559028
1684002660676928900,10.609329345703124,0.09405899040262894,1.3154315948445285,0.3440365790852707
1684002660686971100,10.619371337890623,0.10586613417183685,0.009838104175856809,1.0178694725531778
1684002660697013200,10.62941357421875,0.08235603589296994,-0.6167621613498017,1.3559675217744775
1684002660707055300,10.63945556640625,0.13680070654131696,-0.5602588654271027,1.5847239495579277
1684002660717097400,10.649497802734375,0.10588139309001338,-0.7524557114738225,1.5344390868283393
1684002660727139600,10.659539794921876,0.056055486088542224,-1.0672864915607667,1.3216609954517073
1684002660737181600,10.66958203125,0.07234388600035037,-1.2123069761810144,1.122395515412226
1684002660747223600,10.679623779296875,0.07634824525357271,-1.5602979660274623,0.885707855350214
1684002660757265600,10.689666015625,0.08893483877602683,-1.6444664000230613,0.4568295478921932
1684002660767307600,10.6997080078125,0.09258681535333779,-1.413349151557301,0.08592033382184405
1684002660777349800,10.709750244140626,0.12785249967842993,-0.7478857040261014,-0.17841362957194026
1684002660787391900,10.719792236328123,0.10794299851309602,0.13682651524369377,-0.5278193950076758
1684002660797434000,10.72983447265625,0.077632129088265,0.7222824097034026,-0.7966604232364148
1684002660807476100,10.73987646484375,0.002832532090955616,1.0531315803552515,-0.8448905944465979
1684002660817518300,10.749918701171875,-0.13344529267888486,1.085055828166925,-0.6581041812954629
1684002660827560400,10.759960693359377,-0.3117368817525326,0.8658800125132073,-0.3148210048125677
1684002660837602200,10.770002685546874,-0.47093322871487453,0.6273546217303587,-0.10538721095961207
1684002660847644600,10.780044921875,-0.6076331139804555,0.5106458662983243,-0.07418060304258851
1684002660857686400,10.7900869140625,-0.7046295403982238,0.3509845733146123,-0.09597063060264566
1684002660867728600,10.80012890625,-0.7548091412126328,0.12954330447667547,-0.08462953579990626
1684002660877770600,10.810171142578126,-0.7795541286903813,-0.01971435562100541,-0.15030694017005483
1684002660887812800,10.820213134765623,-0.7363713384119844,-0.19723796845483568,-0.1616814136618387
1684002660897854900,10.83025537109375,-0.6373395918875683,-0.04767131811205305,-0.14870476736942653
1684002660907897000,10.84029736328125,-0.4699870349714345,0.08864498125249295,-0.11444878565934899
1684002660917939100,10.850339599609375,-0.2983309627604271,0.16639518736672673,0.04406070723995988
1684002660927981200,10.860381591796877,-0.1374980807934344,0.15721797932586348,0.2648839950115181
1684002660938023300,10.870423828125,-0.06145966049053129,0.09755897522777111,0.4341478347878105
1684002660948065200,10.880465576171876,0.06791511179064848,0.05189132681887084,0.6138720512367115
1684002660958107300,10.8905078125,0.14623802894160565,-0.049343109265473646,0.7439565659980709
1684002660968149400,10.9005498046875,0.17413720488948803,-0.2346897125600294,0.8007740973276765
1684002660978191600,10.910592041015626,0.14554134014612174,-0.3534927368064123,0.7416381836492033
1684002660988233600,10.920634033203124,0.0744002164108225,-0.3938770293762574,0.5145378112590971
1684002660998275800,10.93067626953125,-0.03642299764572882,-0.3292150497160677,0.15922594061967785
1684002661008317900,10.94071826171875,-0.16414976108006565,-0.28339576730847216,-0.15098953240053964
1684002661018360000,10.950760498046876,-0.3008040486368128,-0.30157089229445755,-0.4016082287137515
1684002661028402100,10.960802490234377,-0.44871255762734047,-0.2975301743427935,-0.6308498381946398
1684002661038444000,10.97084423828125,-0.6083539724114876,-0.27109718317469206,-0.8382408620098987
1684002661048486100,10.980886474609376,-0.7483810187491668,-0.2532749177507709,-0.9591746330028607
1684002661058528200,10.990928466796875,-0.8701297044818992,-0.15823078165930596,-1.0373044014239978
1684002661068570300,11.000970703125,-0.9836885929444892,-0.0937776564916575,-1.039808273364124
1684002661078612400,11.0110126953125,-1.0483156442320671,-0.024085998624305494,-0.9027960299880822
1684002661088654600,11.021054931640624,-1.0720765591002117,0.02935600276706751,-0.6888203621816662
1684002661098696600,11.031096923828123,-1.0001029968148814,0.1262998580923772,-0.4410345552898237
1684002661108738700,11.04113916015625,-0.8789580463468363,0.2473506927803474,-0.11679935455094322
1684002661118780800,11.05118115234375,-0.7171168327863047,0.29440975198311364,0.13311624519187856
1684002661128822600,11.06122314453125,-0.5371143221403334,0.34415912643012847,0.35453939441448057
1684002661138864800,11.07126513671875,-0.41389989839061325,0.3083724974753105,0.5121188163433755
1684002661148906900,11.081307373046876,-0.3288371862765788,0.21362590782305974,0.6349258422336568
1684002661158949000,11.091349365234375,-0.2443895934922365,0.1933546065284518,0.7102189064631262
1684002661168991200,11.1013916015625,-0.22527202958647363,0.06326198586162778,0.7495870589771579
1684002661179033300,11.11143359375,-0.18963575360500992,0.028891563350047413,0.7074804305451887
1684002661189075400,11.121475830078126,-0.12512171270523084,0.14011192336608783,0.650841712953639
1684002661199117600,11.131517822265623,-0.06721332682057242,0.18638324742672102,0.6297945975846871
1684002661209159600,11.14156005859375,0.005480244651006047,0.22523403170754266,0.6754145621721811
1684002661219201500,11.151601806640626,0.04430904972554327,0.25631999979044073,0.7008271216973964
1684002661229243600,11.16164404296875,0.06451074772109969,0.28191471092683035,0.6700286865005672
1684002661239285600,11.17168603515625,0.045815736009746116,0.24952030172818115,0.56174993505265
1684002661249327800,11.181728271484374,0.02349080129833834,0.2669086455806047,0.395632743984059
1684002661259369900,11.191770263671875,-0.04318025706380219,0.24585723883140967,0.2655091285816839
1684002661269412000,11.2018125,-0.11755481357854719,0.22709941871050024,0.12356519706209229
1684002661279454100,11.2118544921875,-0.1844228355728541,0.17735195156452202,0.015514373846120845
1684002661289496200,11.221896728515626,-0.31436562548492875,0.1303911208888838,-0.11073541650108173
1684002661299538400,11.231938720703123,-0.41309410347656655,0.06721782675185371,-0.14507627482015864
1684002661309580200,11.241980712890625,-0.539509177184478,0.05955505367736851,-0.14499402048937882
1684002661319622300,11.252022705078126,-0.6051809787016564,0.042119026292311956,-0.08561849599596874
1684002661329664400,11.26206494140625,-0.6348360775949022,0.09103775036968496,0.003637790517553308
1684002661339706600,11.27210693359375,-0.6385301947473713,0.11790275580093688,0.12421512604953527
1684002661349748600,11.282149169921874,-0.6380916833456078,0.1510553359492793,0.25617313382151585
1684002661359790800,11.292191162109376,-0.5797643065560389,0.1902360916596874,0.35662412643428154
1684002661369832900,11.3022333984375,-0.47395542251510187,0.22098636620580037,0.48681068417088647
1684002661379875000,11.312275390625,-0.32613611205659676,0.23399353018247296,0.5190448761095071
1684002661389917100,11.3223173828125,-0.14433620852082316,0.24617195122737154,0.535319328281228
1684002661399959200,11.332359619140624,0.02325723879736475,0.23418426507522114,0.48924684520256667
1684002661410001100,11.3424013671875,0.17847198260058456,0.24804878243881498,0.3987274169111312
1684002661420043200,11.352443603515624,0.2756060957449856,0.21208095556053694,0.2199387551292431
1684002661430085300,11.362485595703124,0.3288911581672216,0.1743526459287128,0.0747399331428837
1684002661440127400,11.37252783203125,0.31435668464792543,0.11859607709306508,-0.04647159591515508
1684002661450169600,11.38256982421875,0.2722626327815494,0.07106113433622649,-0.11809539793331832
1684002661460211600,11.392612060546876,0.15548436346010128,0.01282310474406969,-0.15262317653739213
1684002661470253700,11.402654052734375,0.034110039460835136,-0.04174709323925016,-0.17875719063650616
1684002661480295900,11.4126962890625,-0.1138446329781209,-0.07861518848455272,-0.1260614395071877
1684002661490338000,11.42273828125,-0.31410998115279737,-0.0534200668192447,-0.09253454222752117
1684002661500379800,11.4327802734375,-0.4439675511211055,-0.056646347108364206,-0.009591579386753602
1684002661510421900,11.442822265625,-0.5311351419947807,-0.045538902131728426,0.07228279120223503
1684002661520464000,11.452864501953124,-0.5779200792698229,-0.029870033302252255,0.12929248804328072
1684002661530506200,11.462906494140626,-0.5564201475259305,0.025544166621720262,0.1335015296914384
1684002661540548300,11.47294873046875,-0.506031811118022,0.06809806826292655,0.15139198299564047
1684002661550590400,11.48299072265625,-0.3931115567925807,0.06265831000593784,0.16856670383508396
1684002661560632600,11.493032958984376,-0.281020581708823,0.05237102493339839,0.14731550219313433
1684002661570674600,11.503074951171875,-0.1614289731727378,0.0609083174258647,0.07661056536252349
1684002661580716600,11.5131171875,-0.0493042432311678,0.055150985784121066,0.0564680099548283
1684002661590758600,11.523158935546874,0.0365684255652221,0.04475212098584656,0.08368873596311704
1684002661600800600,11.533201171875,0.08954614387990419,0.07920742033373178,0.0397205352343588
1684002661610842800,11.5432431640625,0.12617076929061102,0.06603240965192746,0.06716012946641087
1684002661620884900,11.553285400390624,0.09706482295289043,0.03898334501024317,0.06594085687168676
1684002661630927000,11.563327392578126,0.05766152970744877,0.010036468378026986,0.06003284448065189
1684002661640969100,11.57336962890625,0.004043147039758647,-0.0019187927837674445,0.040153980275847566
1684002661651011200,11.58341162109375,-0.051019940524216115,-0.03939247123968736,0.004509925747402143
1684002661661053400,11.593453857421874,-0.09540632356223928,-0.04538440709441549,-0.04176616676268957
1684002661671095500,11.603495849609375,-0.11036460112884967,-0.006371497964712956,-0.05864143368709649
1684002661681137300,11.613537841796877,-0.08473008880951355,0.003992080607377612,-0.053506851184084894
1684002661691179400,11.623579833984374,-0.06163046145049668,0.05903720855828815,0.008312702172157769
1684002661701221600,11.6336220703125,-0.043621510212318734,0.08493804919048789,0.019717216628987205
1684002661711263600,11.6436640625,-0.0194582603581371,0.10808086385692056,0.06629657749851071
1684002661721305800,11.6537060546875,-0.022449523366787637,0.07899951926321237,0.09315872178713543
1684002661731347900,11.663748291015626,-0.02858626843801977,0.12561607350567172,0.12871980671161104
1684002661741390000,11.673790283203124,-0.0422397889328168,0.10070705415722785,0.12810707090553483
1684002661751432100,11.68383251953125,-0.07206179212768027,0.07611274725959459,0.1484789847902887
1684002661761474200,11.69387451171875,-0.08665327734610316,0.04235839841983793,0.1493568420521601
1684002661771516300,11.703916748046876,-0.1100185812675543,0.01840496078908838,0.14277648915939825
1684002661781558400,11.713958740234377,-0.11165547366882951,0.0159578323780453,0.06315898893306209
1684002661791600300,11.724000732421874,-0.07577791065161484,0.05352306352880518,-0.010536670732903814
1684002661801642400,11.734042724609376,-0.0383167489984146,0.06932353973090562,-0.040523052342480985
1684002661811684600,11.7440849609375,-0.008578322969195187,0.0543317795962443,-0.05101346972247971
1684002661821726600,11.754126953125,0.01085613292802994,0.0843725204207291,-0.011781215608953685
1684002661831768800,11.764169189453124,0.005817955195610743,0.08338642120922861,0.02460575095982451
1684002661841810900,11.774211181640624,-0.016046147728623915,0.004806518645701462,0.07467556013760157
1684002661851853000,11.78425341796875,-0.0446623303904419,-0.020571708546889986,0.07468938840213349
1684002661861895100,11.79429541015625,-0.08212915809404565,-0.010063171492532802,0.03029727935915569
1684002661871937200,11.804337646484376,-0.07614464304582609,-0.06787872309175648,0.033998966305496
1684002661881979100,11.81437939453125,-0.0768823473077506,0.028416633689304936,-0.01623916627778943
1684002661892021200,11.824421630859376,-0.05140394710843825,0.0243024826666934,-0.01839590068047514
1684002661902063300,11.834463623046876,-0.026265362188481862,0.046153068539976985,0.0006694792746966784
1684002661912105400,11.844505859375,-0.013601349715236055,0.053513526996913835,0.0029373169406895997
1684002661922147600,11.8545478515625,0.007872473417718889,0.06069946287073858,0.03330850591916599
1684002661932189600,11.864590087890624,0.004789002208492319,0.05123519893893119,0.058354854499367635
1684002661942231700,11.874632080078126,-0.02701771451796371,0.0865564346539475,0.12749528899344162
1684002661952273800,11.88467431640625,-0.053854968275779645,0.09762096390021625,0.08692026127839968
1684002661962316000,11.89471630859375,-0.07039026920180666,0.04486083984025342,0.09158897403994842
1684002661972357800,11.90475830078125,-0.11163114002141872,0.011737823488679067,0.07718563086056249
1684002661982399900,11.91480029296875,-0.104411527677247,-0.034959793202549494,0.06773042685069841
1684002661992442000,11.924842529296876,-0.07127244765607944,-0.010203361472053635,0.01851940167892571
1684002662002484100,11.934884521484374,-0.041133370150984665,-0.056385993941690395,-0.003759384024247718
1684002662012526300,11.9449267578125,-0.037141989958136515,-0.07097053528426057,-0.06991291031530275
1684002662022568400,11.95496875,-0.01181183020533591,-0.007397651657296383,-0.14389467231117642
1684002662032610600,11.965010986328124,0.010702687289013017,0.06247520444815771,-0.18068313611504394
1684002662042652600,11.975052978515626,0.03525196757777685,0.004427909937983632,-0.08892154697097562
1684002662052694600,11.98509521484375,0.03109274432342278,-0.016991615239045247,-0.054434776246640934
1684002662062736800,11.99513720703125,0.014787492274203203,0.009323120011486634,-0.02693748471103197
1684002662072778900,12.005179443359374,0.010154455934825581,0.05906009672186923,-0.0203833578951264
1684002662082820800,12.01522119140625,-0.029750177701174885,0.0470514296940876,-0.001520633504181144
1684002662092862900,12.02526318359375,-0.04251220823698119,-0.05640506740347024,0.0433025359493346
1684002662102905000,12.035305419921874,-0.10134666422366966,-0.11564254754582995,0.014671802481320164
1684002662112947100,12.045347412109376,-0.0951699465508751,-0.10079574597748324,-0.03439283372015489
1684002662122989200,12.0553896484375,-0.08651876451589724,-0.11435413362882152,-0.04945898058316343
1684002662133031300,12.065431640625,-0.05667068061571356,-0.104226112299555,-0.03618001932976982
1684002662143073500,12.075473876953126,-0.022640897084775,-0.06842517860792627,-0.042060375282660024
1684002662153115600,12.085515869140623,-0.01762693373194685,-0.09926986701789217,0.0013289451915257326
1684002662163157400,12.095557861328125,0.0010057717801915437,-0.030802726744693115,0.04383611680415547
1684002662173199600,12.105599853515624,0.021596996118096626,-0.010663032470751371,0.09719181062426353
1684002662183241600,12.11564208984375,-0.018950773531599168,-0.026371002102058713,0.11391401278197302
1684002662193283800,12.12568408203125,-0.02522259959439556,-0.023254394482782173,0.1062202453909329
1684002662203325900,12.135726318359374,-0.06402305511938254,-0.003931999181477384,0.07697963715811272
1684002662213368000,12.145768310546876,-0.073903068962258,0.033657073971184504,0.031205654204801543
1684002662223410100,12.155810546875,-0.06703617423340849,0.044500350948148686,0.01160049428958843
1684002662233452200,12.1658525390625,-0.059871744542917806,0.026692390539633817,0.005957126667965112
1684002662243494300,12.175894775390624,-0.03825261456614759,-0.0028591155443238947,0.04689311984008292
1684002662253536200,12.1859365234375,-0.01920121155890934,-0.00850009928655959,0.04214429853005325
1684002662263578300,12.195978759765625,0.015663554916193232,0.018790245080702615,0.08663988107402847
1684002662273620400,12.206020751953124,0.03754295417063807,0.0902585982868853,0.13017749790921787
1684002662283662600,12.21606298828125,0.04914555693307786,0.12517547612357455,0.13756752000890876
1684002662293704600,12.22610498046875,0.0982700213877351,0.11235618589560988,0.16350698468303937
1684002662303746700,12.236147216796876,0.11190882328357346,0.11370563504668416,0.17686557758655394
1684002662313788800,12.246189208984376,0.12807300695458293,0.09365272515447519,0.18250608459794462
1684002662323831000,12.2562314453125,0.12492880230098045,0.047942161619447435,0.11014652258749032
1684002662333873100,12.2662734375,0.09753389664954219,0.03134250639947401,0.06510543820275877
1684002662343915200,12.276315673828124,0.09098590159533694,0.026885986215799865,0.051636695989373135
1684002662353957300,12.286357666015626,0.09122916313257246,0.01784515377813722,0.05262613282807623
1684002662363999200,12.296399658203123,0.0917705296949558,0.05370903017492136,0.08896732322737554
1684002662374041300,12.306441650390624,0.10200352208738794,0.10533142098766904,0.13620185857832498
1684002662384083400,12.31648388671875,0.11409360167216735,0.1206121444747328,0.16108083717636365
1684002662394125600,12.32652587890625,0.1253113150166,0.09069252004476908,0.1756405829940163
1684002662404167600,12.336568115234376,0.13587105290257745,0.1293010711128192,0.1611638068500793
1684002662414209600,12.346610107421874,0.12298002833738124,0.0847463609034584,0.13724040999415021
1684002662424251800,12.35665234375,0.12499297420748737,0.033847808962236034,0.06657600402639663
1684002662434293900,12.3666943359375,0.12931609151593432,0.01903820039675641,0.011049747466001314
1684002662444336000,12.376736328125,0.11896506687753192,0.0021438597462218392,-0.04349660862751264
1684002662454377900,12.3867783203125,0.08212248227669364,-0.014448165919254326,-0.04057812708355929
1684002662464420000,12.3968203125,0.02410697757076325,-0.04013252253736487,-0.03288912761212152
1684002662474462100,12.406862548828125,-0.016632825271882114,-0.027649879420308075,0.007795810601496964
1684002662484504200,12.416904541015626,-0.05383910608320912,-0.038793563896300745,-0.006071090709533826
1684002662494546400,12.42694677734375,-0.07055319098180951,-0.014363288887541934,0.05108022676076715
1684002662504588500,12.43698876953125,-0.036330707451925445,0.0237646103570204,0.08132791512779795
1684002662514630600,12.447031005859374,0.0078077073831698,0.08244514454557357,0.1275472640701621
1684002662524672600,12.457072998046876,0.08985118557110806,0.05292320252531408,0.14211797715768237
1684002662534714800,12.467115234375,0.133194148688335,0.10386276251572736,0.062113284949260245
1684002662544756900,12.4771572265625,0.17308171091809968,0.10682010645816964,0.04924917230158592
