time,seconds_elapsed,z,y,x
1684179744709882300,0.03328271484375,-5.524201394253568e-11,4.9580737570220513e-11,9.651294601072361e-11
1684179744719923600,0.043323974609375,0.012694358877607033,-0.23100781442664026,-0.16399085518275863
1684179744729964600,0.053365234375,0.274162292489041,-0.33612489709682547,-0.5611031653388531
1684179744740006100,0.063406494140625,0.08757877366417034,-0.41183900824435554,-1.622452974145134
1684179744750047200,0.073447509765625,0.09409618374724404,-0.6764683722723619,-2.3413331508311885
1684179744760088600,0.083489013671875,0.7086668014946259,-0.9864420891024102,-0.7843651772026905
1684179744770129800,0.0935302734375,0.25021553049948386,-1.175263881683709,-2.245507240304858
1684179744780170900,0.1035712890625,0.18532085402351495,-1.2687907218505863,-1.3575692177647398
1684179744790212300,0.11361279296875,-0.22903251649257764,-0.8545212746480352,-0.8283838034154773
1684179744800253400,0.12365380859375,-0.8303012846847522,-0.08753633491491936,-0.506433963853539
1684179744810294600,0.133695068359375,-1.5070595740611674,0.8388371467456726,-0.8420609236347985
1684179744820335800,0.143736083984375,-1.5265874862878175,1.4417734146463181,-0.35257077208340876
1684179744830377100,0.153777587890625,-1.2399630547131362,1.8773911000592403,-1.0607278347998217
1684179744840418200,0.163818603515625,-0.47281074519350763,1.3190894125781043,-0.27414607993473883
1684179744850459600,0.17385986328125,0.33477592457140926,0.9405386448648063,0.6065420506972726
1684179744860500600,0.183901123046875,1.2660255433281071,0.903152465810229,0.9586344361200013
1684179744870542000,0.1939423828125,1.8519649506752223,1.5056414603275239,1.2577824592810067
1684179744880583100,0.2039833984375,1.9365510941595294,1.9334475994959597,1.9792842863870972
1684179744890624400,0.21402490234375,1.965902328481964,2.122566461552725,2.2244589328889033
1684179744900665600,0.22406591796875,1.9162197113175572,2.286059379690223,2.4771139622550162
1684179744910706900,0.234107177734375,1.6541919708236024,2.309092521816768,2.7999885082844744
1684179744920748000,0.2441484375,1.5685253144363773,2.388113260265002,3.001515626787257
1684179744930789300,0.254189697265625,1.457493781940766,2.3466916083600804,3.065937042275256
1684179744940830400,0.264230712890625,1.275532722518633,2.173622131429894,3.633001327403663
1684179744950871700,0.274272216796875,1.1885395049536258,1.6793584824834296,3.666488885933805
1684179744960913100,0.2843134765625,0.8528270720729025,1.150553464824364,3.3127818108242426
1684179744970954200,0.2943544921875,0.3994951247484433,1.329380989013635,2.2500455380001063
1684179744980995600,0.30439599609375,-0.5508317947952293,-0.7550737856802343,2.495438337297431
1684179744991036600,0.31443701171875,-1.0265789032376629,-2.0294547080393963,2.4720945358433224
1684179745001077600,0.32447802734375,-0.35729694376419785,-0.4661083221019134,0.969742894189685
1684179745011119000,0.33451953125,0.2540731430616433,-0.30134391780297554,0.5187547207808938
1684179745021160400,0.344560791015625,0.1925163269197743,-1.2599399089655048,0.7750940322947238
1684179745031201500,0.354601806640625,0.051926612753832216,-1.0608105658964666,0.7654362917751845
1684179745041242800,0.364643310546875,-0.5590867996734691,-0.4102425573898158,0.9680206776814784
1684179745051283900,0.374684326171875,-1.6454310416539493,-0.2928616999854034,0.8743994234485056
1684179745061325200,0.3847255859375,-2.7966647148377435,-0.09490466108081701,0.8504009247719316
1684179745071366300,0.3947666015625,-2.810946464440421,0.2552211285884591,1.1651732922890612
1684179745081407600,0.40480810546875,-2.2906908989053307,0.4595358371743627,1.3854215143576467
1684179745091448800,0.41484912109375,-1.7022600174147007,0.3062615395308912,1.1312315463994909
1684179745101490100,0.424890380859375,-1.065888881581225,0.0870664119370204,0.812903404179196
1684179745111531200,0.434931640625,-0.46627998347975674,0.653237104381792,-0.16388440132444132
1684179745121572600,0.444972900390625,-0.4580259324318556,-0.49700593940128923,0.2151083947814778
1684179745131613600,0.455013916015625,-1.7878522872534695,-2.1496112345554925,0.7639207839489274
1684179745141655000,0.465055419921875,-3.3073258400447,-2.080585956516682,0.01531505583526676
1684179745151696000,0.475096435546875,0.9828634262283518,-1.330062389449786,0.8268113135280387
1684179745161737400,0.4851376953125,1.075969696113279,-0.9083902835893533,1.2689654826917136
1684179745171778600,0.495178955078125,-0.46584224691506126,-0.45706129072508733,1.509221792124478
1684179745181819800,0.50522021484375,-1.0107150077037377,-0.21797156328368997,1.5945148466735164
1684179745191860900,0.51526123046875,-0.7739968299730399,-0.21820425981875988,1.4545383453210181
1684179745201902300,0.525302734375,-0.5531406403239868,-0.4387485981511917,0.8581733701854307
1684179745211943600,0.535343994140625,-0.08495330824459718,-0.5750982762465979,0.036953449242310185
1684179745221984600,0.545385009765625,-0.1541557312937367,-0.9596712589185744,-0.5958535672711452
1684179745232026000,0.555426513671875,-0.4552106857422552,-1.0729708672991407,-0.5315871239126411
1684179745242067100,0.565467529296875,-0.747279167237681,-0.7400662899007777,-0.48548388467748754
1684179745252108500,0.5755087890625,-1.280515670828005,-0.26021528253210985,-0.6495056152894044
1684179745262149600,0.585550048828125,-0.6441693304634214,-0.21223998070293978,-0.2751379012627757
1684179745272190600,0.595591064453125,0.1876230239520404,-0.22461628914617693,0.12933635724134784
1684179745282232000,0.60563232421875,0.5013046264602262,-0.06990957262988892,1.0532431601702446
1684179745292273300,0.615673828125,0.13302898414961573,-0.5060198306649192,1.584472656339197
1684179745302314400,0.62571484375,-0.3065662382693385,0.06131100660487099,1.5197892188498467
1684179745312355800,0.635756103515625,-0.3602643013494372,0.6152818203240399,1.4988613130419384
1684179745322396800,0.64579736328125,-0.38194179523176935,0.3969256876737448,1.2020497322021684
1684179745332438200,0.655838623046875,-0.4144248963503887,0.08192706108024753,0.6488466263184636
1684179745342479300,0.665879638671875,-0.5955128669460888,0.33857369424142425,0.11820411688771158
1684179745352520600,0.675921142578125,-0.7422447204865336,-0.13934040066171913,0.06250619888067964
1684179745362561600,0.685962158203125,-0.2476797103682239,-0.08245182038156726,0.30728816987328733
1684179745372603100,0.69600341796875,-0.5488104820620255,0.3329615592505115,-0.023360252316914295
1684179745382644100,0.70604443359375,-0.6770110128589245,0.23109745986457986,0.03547143947499492
1684179745392685600,0.7160859375,-0.8288736343778774,0.1512787340911181,0.18547105801195465
1684179745402726600,0.726126953125,-0.8126597405943421,0.18127942078269663,0.4829287529536835
1684179745412767900,0.736168212890625,-0.47641754146683607,0.1536622047367811,0.7067041398489782
1684179745422809000,0.74620947265625,-0.38262605656202014,-0.023551463974658966,0.5344028472821902
1684179745432850400,0.756250732421875,-0.13389396657165925,-0.014180421755987653,0.09826135646977503
1684179745442891400,0.766291748046875,-0.09007072460344537,-0.0024080276345643478,-0.15074062348259995
1684179745452932800,0.776333251953125,-0.3193826676045456,-0.15489840506698452,-0.06382846822040568
1684179745462973900,0.786374267578125,-0.4287705422839647,-0.1079301833828315,-0.029819965346320483
1684179745473015200,0.79641552734375,-0.3909506797806064,0.07543420794404698,-0.13308048252242438
1684179745483056600,0.80645703125,-0.21416711804349653,-0.044631004508658055,-0.021218776830891163
1684179745493097600,0.816498046875,-0.1464729308681638,-0.23594021792363598,-0.016359329300002216
1684179745503138700,0.8265390625,0.1139125823177772,-0.08287382115095657,0.008832931618818844
1684179745513180100,0.83658056640625,0.013286590550111223,-0.01838946353400313,0.1340441703096831
1684179745523221200,0.84662158203125,-0.40913391112579767,0.08554768558670568,0.07976102825537842
1684179745533262600,0.856662841796875,-0.3586897850323348,-0.09249043462244058,0.08667802823387288
1684179745543303900,0.866704345703125,-0.5686974525286932,-0.05470633503553123,-0.009566784050721389
1684179745553344900,0.876745361328125,-0.5055842399289335,0.07970190035732419,-0.1506257057701962
1684179745563386300,0.88678662109375,-0.02878475185223569,-0.052906036439575976,-0.4315862656319199
1684179745573427400,0.896827880859375,0.2322478294398913,0.11680579201032291,-0.6706924439044223
1684179745583468600,0.906869140625,0.18584585185640748,-0.08892726882581914,-0.6681189537760232
1684179745593509800,0.91691015625,0.0028867722688597653,-0.28045010574629414,-0.2853760718383848
1684179745603551200,0.92695166015625,-0.1756186485208962,-0.14819645895664804,-0.26112270368000456
1684179745613592200,0.93699267578125,-0.5114359854482565,0.12249112145765294,0.20277643213897434
1684179745623633600,0.947033935546875,-0.9076232909055562,0.26811003680747125,0.1541705130690291
1684179745633674600,0.957074951171875,-0.6383004188998672,0.13099718093243884,0.21485614779811824
1684179745643716000,0.967116455078125,-0.5462327002898251,0.5824174881822642,0.5324230195063643
1684179745653757100,0.977157470703125,-0.8011188508281782,0.5466616153477708,0.37067079542707215
1684179745663798400,0.98719873046875,-0.5809626579815629,0.22941565521452695,0.3668990134202003
1684179745673839600,0.997239990234375,-0.34922981264077996,0.29709601407085207,0.43279933947249594
1684179745683880900,1.00728125,-0.007007598996569728,0.3175704479727186,0.273329735000675
1684179745693922000,1.017322265625,0.16962718978434246,0.2740383146583009,0.18127202982653748
1684179745703963300,1.02736376953125,0.5285296440536936,0.0077331066716318135,-0.08866119374880475
1684179745714004400,1.03740478515625,-0.5012211800670273,-0.003484725905812677,0.02575731281555693
1684179745724045700,1.047446044921875,0.07750892640247055,-0.2621250151348307,0.5009102820441859
1684179745734086800,1.0574873046875,0.0578141211427937,0.020552873545083637,0.5862889290344185
1684179745744128200,1.067528564453125,0.30718660343024057,0.04520106305351186,0.030166149079906043
1684179745754169300,1.077569580078125,-0.4451332093072069,0.02678179748088941,0.2875952720329931
1684179745764210600,1.087611083984375,1.2852258681834825,-0.24824619310888224,-0.27406930921834394
1684179745774251600,1.097652099609375,0.5578413010035931,-0.13203930864724714,0.03850793836028517
1684179745784293000,1.107693359375,0.3231649399228052,-0.3595736025036842,1.008422374678587
1684179745794334100,1.117734619140625,-2.392218113021047,0.3529975414792433,-1.0579624175556384
1684179745804375600,1.12777587890625,-1.3250751495468485,0.27581334110216593,-0.0034313202516745626
1684179745814416600,1.13781689453125,-0.08272266390896464,0.1763241290872511,0.561338424524671
1684179745824457900,1.1478583984375,0.43888330445235285,0.42875385299326996,0.0583930015458908
1684179745834499000,1.1578994140625,0.026724338491468966,0.3284161091046389,-0.1581454277399184
1684179745844540300,1.167940673828125,-0.09668779377040457,0.33855867395262246,-0.22531557086020662
1684179745854581400,1.17798193359375,-0.39179754255740484,0.5527710915010136,-0.353849411090678
1684179745864622800,1.188023193359375,-0.4372420311410263,0.6057658195876733,-0.4405083657753224
1684179745874663900,1.198064208984375,-0.37878608703930244,0.736829996203992,-0.5073313714817184
1684179745884705200,1.208105712890625,-0.1695756912667439,0.7618217468429177,-0.5434575080962857
1684179745894746300,1.218146728515625,-0.05699491515095199,0.5393648147396911,-0.362684726617817
1684179745904787600,1.22818798828125,-0.08806514744422067,0.61244559297969,-0.13589429854346924
1684179745914828600,1.23822900390625,-0.40912246710769806,0.6774041651091444,0.16520309446494488
1684179745924870100,1.2482705078125,-1.517073631158064,0.586350679233183,0.07818412781719405
1684179745934911400,1.258311767578125,-1.8561921119457452,0.46194791806194013,0.010080337553292936
1684179745944952600,1.268352783203125,-0.4246201515653048,0.05089569097644864,0.20289993284679972
1684179745954993600,1.27839404296875,0.033041000344157474,-0.33020949366201047,0.32287549959791256
1684179745965034900,1.288435302734375,-0.21281909941435675,-0.39423441883204124,-0.03241491323204265
1684179745975076000,1.298476318359375,-0.3795700074820936,-0.5302512646231664,-0.08365440358472069
1684179745985117400,1.308517822265625,-0.04906606663315584,-0.4139220713663773,-0.3720064161775868
1684179745995158600,1.31855908203125,0.20321369161061809,-0.24279499052065967,-0.5168313979057065
1684179746005199800,1.32860009765625,0.42867469786312196,-0.22390866261882988,-0.5204005241486946
1684179746015241100,1.3386416015625,0.48073720938346864,-0.34630155569819643,-0.5009388923617252
1684179746025282200,1.3486826171875,0.7343306540970664,-0.414449930189454,-0.312485694989074
1684179746035323300,1.3587236328125,0.5842094421288944,-0.1713485718288942,-0.20114898671075707
1684179746045364600,1.36876513671875,0.48038101201642686,-0.09711670887547753,-0.16570281973772394
1684179746055405700,1.37880615234375,0.15432310105628824,0.16183519360412657,-0.26298141484258625
1684179746065447100,1.388847412109375,0.5667977333466904,0.5224254130809697,-0.08157920836395938
1684179746075488400,1.398888916015625,0.7541329861038213,0.6193362475272617,0.09580421453737459
1684179746085529600,1.408929931640625,0.03570461275865698,0.7240865231331606,0.0334110260195051
1684179746095570900,1.41897119140625,-0.43929052347558534,1.09933578963113,-0.24402713784004113
1684179746105612000,1.429012451171875,-0.7024915217808414,0.9434214830202305,-0.6668233870456282
1684179746115653300,1.4390537109375,-0.5597608088923997,0.44377875338883216,-0.8724384307939606
1684179746125694400,1.4490947265625,0.7617955208633863,0.6656165122697107,-1.9587402342433382
1684179746135735600,1.45913623046875,1.2855017184187174,-0.3571870328500222,-1.926066398634065
1684179746145776800,1.46917724609375,0.8940029144138577,-0.8536627293728638,-1.5856223107854746
1684179746155818200,1.479218505859375,-0.6465824841915234,-0.5861244200673128,-0.8402433396014373
1684179746165859200,1.489259765625,-1.4113231896080478,-0.03025817866882601,-0.39136219022589064
1684179746175900600,1.499301025390625,-1.4413840770141688,-0.10897636415469093,-0.22283649442250714
1684179746185941600,1.509342041015625,-1.1613067389067573,-0.38594985021619804,0.1915483475012767
1684179746195983000,1.519383544921875,-0.6800770163483415,-0.3076260088304275,0.4146804809112013
1684179746206024100,1.529424560546875,-0.5922956466205725,-0.39690756805262295,1.0207252502747337
1684179746216065500,1.5394658203125,-0.9212044476337901,-0.27245903027887747,0.8733730316359803
1684179746226106600,1.5495068359375,-1.2846817969699744,0.09352231029112618,0.5854768753373265
1684179746236147900,1.55954833984375,-1.579150557559561,-0.016547202936566398,0.08879470818992513
1684179746246189000,1.56958935546875,-1.086515188094831,0.06861782067741719,-0.36887741072423924
1684179746256230300,1.579630615234375,-0.41396239411449415,-0.16444802273264628,-0.08057975756069377
1684179746266271400,1.589671875,0.017832249262456343,-0.34996795657379887,0.04554653167252357
1684179746276312800,1.599713134765625,0.3576301335913478,-0.5995428560491901,0.26559448232547367
1684179746286353800,1.609754150390625,0.728031814136861,-0.6878478527941867,0.32472419728699536
1684179746296395200,1.619795654296875,0.6414214969295824,-0.611285686514824,0.0912933349531594
1684179746306436300,1.629836669921875,0.5661506652687076,-0.57555341713766,0.14221191418888715
1684179746316477600,1.6398779296875,0.17817991969106764,-0.23282980927902092,0.20004463193745545
1684179746326518600,1.649919189453125,-0.194269731650089,-0.1971187593239712,0.377054214348591
1684179746336560000,1.65996044921875,-0.4563758967741621,-0.16819953921927724,0.25647544867168653
1684179746346601100,1.67000146484375,-0.6725708246586947,-0.09309625640063689,0.3540334701235529
1684179746356642600,1.68004296875,-0.6581444741601115,0.16477918615987763,0.3567295074471211
1684179746366683600,1.690083984375,-0.6000328659606263,0.6397180556508564,0.06836986549250997
1684179746376724900,1.700125244140625,-0.4051591752865021,0.5708112715853553,0.2714099884526688
1684179746386766000,1.71016650390625,-0.22155803431945797,0.6030266284603719,0.1541070936727745
1684179746396807300,1.720207763671875,0.13131320477620737,0.3606953620800398,0.2163906096336932
1684179746406848400,1.730248779296875,0.4693738221173553,0.25187063210037536,0.3001327514362832
1684179746416889800,1.740290283203125,0.22920632368859403,0.40176200883098034,0.052577018637057805
1684179746426930900,1.750331298828125,-0.20535826685301634,0.4775223731304461,0.21418285372539142
1684179746436972200,1.76037255859375,-0.34139442437019724,0.6194765567427605,0.26296901701494485
1684179746447013300,1.77041357421875,-0.1221485139113686,0.722536802165998,0.43377017980476973
1684179746457054600,1.780455078125,0.0012959242217558398,0.48797178271710506,0.5364789961491446
1684179746467095700,1.79049609375,-0.04966211313219071,0.17927432062828902,0.6515083313641771
1684179746477137100,1.800537353515625,-0.1709156035959637,0.023520231242061096,0.4400386810596993
1684179746487178200,1.81057861328125,-0.4128357170957508,0.2321908473287795,0.20991420760438353
1684179746497219600,1.820619873046875,-0.812938213249148,0.38129758850344025,-0.15981769549080876
1684179746507260600,1.830660888671875,-0.7709815502906671,0.4911568163850436,-0.4024009703470435
1684179746517301900,1.840702392578125,-0.2875450850908963,0.6252450943915943,-0.514161109921794
1684179746527343000,1.850743408203125,-0.07124257089001743,0.6239328383641853,-0.5716791152146518
1684179746537384400,1.86078466796875,-0.1474151612563756,0.5394446851148942,-0.6346378326503583
1684179746547425500,1.870825927734375,-0.15107190607824908,0.3471357822403158,-0.547101974375849
1684179746557466800,1.8808671875,0.04334592822642443,0.42786908155684356,-0.46600246428851994
1684179746567507900,1.890908203125,-0.20519948007656963,0.22778058057611864,-0.30779933918864866
1684179746577549000,1.900949462890625,-0.68464589100126,-0.11590385430245788,-0.23474979404610297
1684179746587590300,1.91099072265625,-0.6618968246634628,-0.18556594840286336,-0.44767093656522206
1684179746597631600,1.921031982421875,-0.716598153177815,-0.21477127063240736,-0.5726537705309458
1684179746607672800,1.9310732421875,-0.3428167105264361,-0.4272553921217591,-0.46555995953040524
1684179746617714100,1.941114501953125,-0.3959453105380995,-0.3677659035613277,-0.07553482056671029
1684179746627755200,1.951155517578125,-0.6128736734337158,-0.10565304748140594,-0.015198707702859207
1684179746637796300,1.96119677734375,-0.6736825704395958,0.07334756856094418,-0.2599792481070346
1684179746647837600,1.971238037109375,-0.638584732954359,0.3020675182548668,-0.4768209456980974
1684179746657879000,1.981279296875,-0.9483847618362914,0.3121135234510343,-0.620278358363085
1684179746667920000,1.991320556640625,-0.9918546676504819,0.33633255947546165,-0.8949489593435027
1684179746677961100,2.001361572265625,-0.7638412713610703,0.24286818497753335,-0.7141666412327399
1684179746688002600,2.01140283203125,-0.9056295157505861,-0.041866064154544094,-0.3077955245225944
1684179746698043600,2.02144384765625,-0.8202612399040795,-0.22558164605466327,0.37492370605821385
1684179746708084900,2.0314853515625,-0.45703899854145424,-0.2733612060213416,1.2520637512212196
1684179746718126300,2.041526611328125,-0.2853168249140215,0.06235504147790666,1.971644401641105
1684179746728167300,2.051567626953125,-0.4533638955720517,0.3011159896141744,2.2484045027887785
1684179746738208400,2.06160888671875,-1.240093707964502,0.3749518394629036,2.457122802611551
1684179746748249800,2.071650146484375,-1.8206007481041784,0.14224028584649923,2.3286142350124495
1684179746758290900,2.081691162109375,-1.6926627160331966,-0.21698093402199753,1.949476242093761
1684179746768332200,2.091732666015625,-1.0395978688595986,-0.3722715379359396,1.393782615674464
1684179746778373300,2.101773681640625,-0.3296586276598824,-0.30377840991728977,0.9413394928002904
1684179746788414600,2.11181494140625,0.061080694209979386,-0.13867139800821893,0.5857000351119042
1684179746798455600,2.121856201171875,0.4928069114254114,0.23927021021485217,-0.01090335844717848
1684179746808497100,2.1318974609375,0.9706848860134194,0.5216076373913728,-0.3632373810204216
1684179746818538200,2.1419384765625,1.1413238049158172,0.5323190689775603,-0.46379756920733173
1684179746828579600,2.15197998046875,0.960293829511879,0.4532594681622016,-0.626091003544719
1684179746838620600,2.16202099609375,0.43796414128645433,0.08811712269912486,-0.6299524308773181
1684179746848661900,2.172062255859375,0.019557118576050993,0.08245134364626819,-0.9366502762600232
1684179746858703000,2.182103515625,0.18472427117325443,0.14091348661422312,-1.0810203553176196
1684179746868744400,2.192144775390625,0.1023422477763646,0.15792751300177088,-0.7705612183964452
1684179746878785500,2.202185791015625,0.6068985462560328,0.040515184326096305,-0.666530609082665
1684179746888826800,2.212227294921875,0.4452454447862408,-0.2718942165750073,-0.7526340484228073
1684179746898867900,2.222268310546875,0.8704571722757406,-0.5769555569507014,-0.4241304397291482
1684179746908909200,2.2323095703125,0.7901491522865175,-0.3070788382757008,-0.1361246109006413
1684179746918950300,2.242350830078125,0.3175872564243061,-0.0782313347311147,-0.5345382690239097
1684179746928991600,2.25239208984375,0.25964593887807763,0.009355306630103095,0.319471359318876
1684179746939032800,2.26243310546875,0.26541680104702425,0.0680325030720645,0.9223022461560917
1684179746949074100,2.272474609375,0.16312944893822237,0.25454497336818016,0.603137016235523
1684179746959115200,2.282515625,0.046812653593307475,0.52726340278675,0.24269485468991261
1684179746969156600,2.292556884765625,0.4649587870568467,0.9469573497196444,0.34073734265775824
1684179746979197600,2.302597900390625,0.7426731585990217,1.568339109375284,0.5317792892114711
1684179746989239000,2.312639404296875,1.2873294352345916,2.2800669670471962,0.8411245346842471
1684179746999280000,2.322680419921875,2.014920234799152,2.5169723034230507,0.7843647002961304
1684179747009321400,2.3327216796875,2.505829811248531,1.9671553373519661,0.6271009445023649
1684179747019362600,2.342762939453125,2.305289029992363,1.4429398776916778,0.2598838805579665
1684179747029403600,2.352803955078125,1.9133267401303824,1.3508501052378037,0.04543399818238718
1684179747039444900,2.36284521484375,1.8401403426667928,1.300862550744424,0.06520748120542612
1684179747049486300,2.37288671875,1.8128640650776406,0.8710093499568363,0.3998355865979314
1684179747059527300,2.382927734375,1.9006099700852983,0.14168930064211482,1.0070705413044183
1684179747069568400,2.39296875,2.229233264942849,-0.26653432849377046,1.4064130782687323
1684179747079609800,2.40301025390625,2.486678838880969,-0.28731775281668986,1.3378248214669188
1684179747089650900,2.41305126953125,2.6299552916571107,-0.3067791460514254,0.9080381392668
1684179747099692200,2.423092529296875,2.6414237021451443,-0.5949718952174293,0.4097003935555095
1684179747109733300,2.4331337890625,2.522042751399176,-0.9432964324065634,-0.15820503239162204
1684179747119774600,2.443175048828125,2.11836481078781,-0.9942302703186672,-0.4210147857559227
1684179747129815700,2.453216064453125,1.7967388630499777,-1.0138976573843959,-0.6025638580954994
1684179747139857100,2.463257568359375,1.51183485987151,-0.9898271561924269,-0.8131561280613945
1684179747149898200,2.473298583984375,1.4890646933119966,-1.170341968642914,-1.0178942681735406
1684179747159939600,2.48333984375,1.837353467924805,-1.457786559992916,-0.8306589126485465
1684179747169980600,2.493381103515625,2.2078149317557387,-1.844556808399956,-0.5946340560695837
1684179747180021900,2.50342236328125,2.2953460216589887,-1.8401250840860843,-0.5188798904809745
1684179747190063000,2.51346337890625,1.7059078216725516,-1.7944121361254934,-1.0299749374591889
1684179747200104400,2.5235048828125,0.8003022669427287,-1.7190928459589998,-1.5961246491521737
1684179747210145500,2.5335458984375,0.30556997668799335,-1.215117454419322,-1.8827085496206606
1684179747220186800,2.543587158203125,0.2438700199175618,-0.9657254219958643,-1.3796725273523085
1684179747230227900,2.553628173828125,0.18289208415089012,-0.8191595078583942,-0.9360685348867538
1684179747240269200,2.563669677734375,0.2847639918813013,-0.2914080621082089,-0.9830408097194138
1684179747250310300,2.573710693359375,0.5669879913757552,0.5833497045644246,-1.3905239104611418
1684179747260351600,2.583751953125,0.1674459129820389,0.3377900122259731,-0.21721363065433483
1684179747270392800,2.593793212890625,0.3087294994624054,0.18822455398441912,0.7731914521683463
1684179747280434100,2.60383447265625,0.40474370125930254,0.0238590240884974,1.2989892958614322
1684179747290475200,2.61387548828125,0.3976867199918116,-0.06768989571947719,1.112702369614745
1684179747300516300,2.623916748046875,0.5574270488177274,-0.06517887104686902,0.5385608673443405
1684179747310557600,2.6339580078125,0.5214468241019022,0.0826954841158488,0.1752738951651757
1684179747320599000,2.643999267578125,0.5542521477768653,0.3853135109188233,0.3346939086049217
1684179747330640000,2.65404052734375,0.5492753983958371,0.585814475925442,0.39888191232502146
1684179747340681100,2.66408154296875,0.7929233909132076,0.5642759799369303,0.7233848571562396
1684179747350722600,2.674122802734375,1.1638224125066319,0.6134512423279447,0.826668739435361
1684179747360763600,2.6841640625,0.950654447123284,0.0549931527384652,0.6711893082141586
1684179747370804900,2.694205322265625,0.41861736782662007,0.06884431834481938,-0.31427669522372365
1684179747380846000,2.704246337890625,-0.02965503927401767,-0.09260320665825873,-0.4715557099664954
1684179747390887300,2.714287841796875,-0.2986381351991552,-0.14654541007033292,-0.5812215804311383
1684179747400928400,2.724328857421875,-0.301477104359916,0.13238668424482647,-0.8156919478638076
1684179747410969800,2.7343701171875,0.35877287381344564,0.7014827728011653,-0.8959007263743238
1684179747421010900,2.744411376953125,1.116823077161222,1.4856333732727582,-0.7083082199181232
1684179747431052200,2.75445263671875,0.9342935086887818,1.0021886824665975,0.9083662032935526
1684179747441093300,2.76449365234375,0.6819777489337039,0.23046922682288848,2.5818815232219374
1684179747451134600,2.77453515625,0.9809693692812772,0.05525922781748213,3.11621952057085
1684179747461175600,2.784576171875,0.6590471268641462,0.12166357053177126,1.3023900985624224
1684179747471217100,2.794617431640625,-0.25606369959893593,-0.05448436736831131,-0.2638244629644181
1684179747481258200,2.804658447265625,-0.7486535310323769,0.15683889406953297,-0.8822069167184886
1684179747491299200,2.81469970703125,-0.4458442330057544,0.4444804192972865,-0.5819706917712274
1684179747501340600,2.824740966796875,0.17322289928208517,0.8438181877376607,-0.5081901548378597
1684179747511381900,2.8347822265625,0.24531900897604061,0.9662628173932516,-0.38609981535674265
1684179747521423000,2.844823486328125,0.023516178221389118,1.007255554263375,-0.35975837710641445
1684179747531464100,2.854864501953125,0.06897342200671594,0.8793363571258743,0.42504882816925904
1684179747541505500,2.86490576171875,0.35389557462068877,0.5463938713620754,1.2915449143931628
1684179747551546600,2.874947021484375,0.627772390703533,-0.41667270661541433,1.433425903471802
1684179747561587900,2.88498828125,1.147320270488966,0.03364944459555741,0.8094005584784469
1684179747571629000,2.895029296875,1.1827880143963694,0.4034681320879131,0.34220695497388504
1684179747581670300,2.90507080078125,0.871177613817445,0.3206648827051243,0.3874139786504881
1684179747591711400,2.91511181640625,0.6288851500249879,0.25465488446094564,0.5047063827517865
1684179747601752800,2.925153076171875,0.3023510573685421,-0.0001440047673627177,0.506577491797632
1684179747611793800,2.9351943359375,-0.029464364058515012,-0.1010799406597512,0.45990657798115286
1684179747621835200,2.945235595703125,0.10325509306042237,0.22974586497183824,0.37002086636629433
1684179747631875800,2.955276123046875,0.22634428737383516,0.21873140337123156,0.2505369186859461
1684179747641917100,2.9653173828125,0.23992428197720078,0.09956216808626007,-0.11065101627476473
1684179747651958200,2.975358642578125,0.3506596684366844,-0.008151531249396174,-0.271660804851658
1684179747661999600,2.98539990234375,0.2159389554215394,-0.07900285712824884,-0.21709442140769833
1684179747672040600,2.99544091796875,0.23416617507931622,0.1258749961154123,0.03108787519326964
1684179747682082000,3.005482421875,0.20961242905363228,0.17315149305808442,0.5313963889590448
1684179747692123100,3.0155234375,0.07802784431671247,0.2508230209225084,0.5373945235733524
1684179747702164400,3.025564697265625,-0.022152245098083504,0.1014456749697705,0.45686149597174586
1684179747712205600,3.03560595703125,0.1295156775434871,0.04069900525789836,0.512102127064885
1684179747722246800,3.045647216796875,0.3278259633253191,0.1755428313665232,0.6096377373973715
1684179747732287900,3.055688232421875,0.3553523719507969,-0.06433963775942504,0.9573030472067141
1684179747742329000,3.0657294921875,0.9004654882465712,0.5855569839726718,1.396160125768162
1684179747752370400,3.075770751953125,1.1871550081990307,0.10408592235641893,2.2516317367311314
1684179747762411600,3.08581201171875,0.39306157826023014,-0.13354539888651654,2.4267659187112427
1684179747772452800,3.095853271484375,0.21934001153082347,0.08915233603677286,2.2831416131412325
1684179747782493900,3.105894287109375,0.45746469499976283,-0.09975624092664345,1.8327479363733208
1684179747792535200,3.115935546875,-0.34162616738124757,0.004491806097595022,1.444753646992553
1684179747802576300,3.125976806640625,-0.5048911572268321,0.26067304618217546,1.2003207206139714
1684179747812617600,3.13601806640625,-0.3719876109103386,0.43326663960930484,0.7551250456982638
1684179747822658700,3.14605908203125,0.286968201382491,0.21010732640207821,0.5453858374690967
1684179747832700100,3.1561005859375,0.7873344420790402,0.1426000595404797,-0.20521020897241013
1684179747842741200,3.1661416015625,0.9416536690218367,0.2129392623713065,-0.4443469048235803
1684179747852782600,3.176182861328125,0.9120377896902332,0.11618566510163383,-0.10372161857715986
1684179747862823600,3.18622412109375,0.9663241506458742,-0.4324140548409097,-0.06122398386450701
1684179747872864600,3.19626513671875,0.667431116104139,-0.06369972227035466,0.2476243974026205
1684179747882906000,3.206306396484375,0.5096693038545562,1.044664859891518,0.3078975678599207
1684179747892947400,3.21634765625,0.47277206180593206,1.128340244324314,-0.3901343344605559
1684179747902988500,3.226388916015625,0.43004894268216776,0.7766542435780532,-0.6213073731360133
1684179747913029600,3.236429931640625,0.9183471202764005,1.1146440506310662,-0.7016243935260427
1684179747923070900,3.24647119140625,1.0106428861244383,1.4684395788621059,-1.0621776580541373
1684179747933112000,3.256512451171875,0.5572346449616414,1.5864758490088702,-0.6795434951345105
1684179747943153300,3.2665537109375,0.28290510184209666,1.6891045572146501,0.28735399248032917
1684179747953194400,3.2765947265625,0.46534085264064134,1.482017517040356,0.9241080284993014
1684179747963235800,3.28663623046875,0.18297588819955501,1.369866848003465,0.9113450052255085
1684179747973276800,3.29667724609375,-0.13663291918731849,1.487370491125814,1.1012778282104743
1684179747983318200,3.306718505859375,-0.519711136925082,1.555277824436276,1.330767154720984
1684179747993359300,3.316759765625,-0.8217647670804441,1.484274864126094,1.4793891906570253
1684179748003400400,3.32680078125,-0.7168472408099117,1.469388485085787,1.161741256796781
1684179748013441600,3.336842041015625,-0.47334790216602385,1.5807809828115047,0.7875552177016177
1684179748023482800,3.34688330078125,-0.20413291445920742,1.4731960296746953,0.6283950805795884
1684179748033524100,3.356924560546875,0.07010006907366696,1.0483517647859553,1.304408550270402
1684179748043565200,3.366965576171875,0.31783044336045585,0.6770014763955456,1.584657669076473
1684179748053606600,3.377007080078125,0.8032103776955484,0.3850293160899884,1.5293736458015408
1684179748063647600,3.387048095703125,0.5560101270695298,0.2326383590553753,1.2178564070988853
1684179748073689000,3.39708935546875,0.20172697311623358,-0.1767406464682662,1.3993020058068866
1684179748083730100,3.407130615234375,0.0948722957717757,0.030441761146262528,0.9025039673522962
1684179748093771400,3.417171875,-0.31013482808500326,-0.009183406930088065,0.17062902463742682
1684179748103812600,3.427212890625,-0.20162260544533023,-0.223537922031395,0.35005235658421946
1684179748113853900,3.437254150390625,-0.01906150585442088,-0.023845672659241958,0.5810351371586912
1684179748123895000,3.44729541015625,-0.18861809373816024,0.3225584030850116,0.9607348442969025
1684179748133936000,3.45733642578125,-0.5448012948319828,0.5279116630844136,1.5176987648401845
1684179748143977400,3.467377685546875,-1.1219830513363591,0.5582919121777754,1.9921159743617542
1684179748154018600,3.4774189453125,-1.6989696024727907,-0.13483571994212848,2.177401542682791
1684179748164059800,3.487460205078125,-1.4081444741067468,-0.5625023841585226,1.936342716343161
1684179748174100900,3.497501220703125,0.20548796654839144,0.20590019222292946,0.5390582084949115
1684179748184142300,3.507542724609375,1.7914351225545693,1.335982799557364,-0.3438615799688893
1684179748194183300,3.517583740234375,2.2766070365650792,0.5000591278554318,-0.5739102362104492
1684179748204224600,3.527625,1.6415045262198915,-1.1474142074537126,-1.2832951545218396
1684179748214265800,3.537666259765625,0.9017586110869751,-1.9341235160251407,-1.9623765943907627
1684179748224307100,3.54770751953125,0.6758443714234543,-1.5568213462909037,-2.3697700501932006
1684179748234348200,3.55774853515625,-0.026546955208457075,-1.2375640868759556,-2.9366559981879874
1684179748244389300,3.567789794921875,-0.448132276544495,-0.9849567413727572,-2.548087596782285
1684179748254430600,3.5778310546875,0.16400408753679646,-1.6844162941472334,0.8718929290454134
1684179748264471700,3.5878720703125,1.3453713655067623,-1.6761970519671057,2.358180999781152
1684179748274513100,3.59791357421875,1.1678487063497598,-1.7092471123362962,2.654181480345488
1684179748284554200,3.60795458984375,1.384576439809588,-1.8872766494740374,2.427867412442936
1684179748294595600,3.617995849609375,1.4962368011272413,-1.9886713029434695,1.8733463286683945
1684179748304636600,3.628037109375,1.525166988306251,-2.3179678917769646,1.5289416313130537
1684179748314677900,3.638078369140625,1.4172229766535875,-2.2015285491577736,0.8373069764256874
1684179748324719000,3.648119384765625,2.138154506563294,-1.711239337817061,0.18515205384275435
1684179748334760100,3.658160400390625,2.106525421189214,-1.7585806845500638,0.21619605998700459
1684179748344801500,3.668201904296875,1.8886853456460633,-1.3435759542926278,-0.5772886277355171
1684179748354842600,3.678242919921875,1.8298804760017995,-0.5288600920633438,-1.9542632102219377
1684179748364883900,3.6882841796875,2.327351331573935,0.3118448257131766,-3.062836170239023
1684179748374925000,3.698325439453125,3.343134403233914,-0.2357363700451097,-2.9133262634181727
1684179748384966300,3.70836669921875,3.7033853532290957,-1.0325546265031837,-1.9069476125983351
1684179748395007400,3.71840771484375,3.9843945502864044,-0.9362111091463537,-2.4444622993870455
1684179748405048800,3.72844921875,3.6026060580301342,-0.8337302208427121,-3.299856185858669
1684179748415089800,3.738490234375,2.5912327766755054,-0.7772474288375508,-3.775138616650509
1684179748425131200,3.748531494140625,1.90736520295792,-0.47196006769047577,-3.810636282002816
1684179748435172300,3.75857275390625,0.5155994891944765,-0.3165297508662156,-3.289598941724748
1684179748445213400,3.76861376953125,-0.075882196468951,-0.019711971293942858,-2.9216880798487046
1684179748455254600,3.778655029296875,-0.06143188468290992,0.4877257347397094,-2.9991626739941166
1684179748465295800,3.7886962890625,-0.5308685302083406,0.30731058111782183,-2.1937589645066047
1684179748475337100,3.798737548828125,-1.235043049013377,0.03269290933734646,-0.7223362922738297
1684179748485378200,3.808778564453125,-2.1969387532024034,0.028407096794917774,0.5733013152965996
1684179748495419600,3.818820068359375,-2.0540697573550157,0.5384130479384416,1.0366702078811958
1684179748505460600,3.828861083984375,-1.6892728804014,0.12193155289562833,0.8686823846380133
1684179748515501700,3.838902099609375,-1.250092744894504,-0.15333032598692847,1.6771469115118323
1684179748525543100,3.848943603515625,-0.9118194580526241,-0.03403282161201142,1.7555031776150727
1684179748535584200,3.858984619140625,-1.239771366283582,-0.25832605364388755,1.2897281645374954
1684179748545625600,3.86902587890625,-1.3931312560555777,-0.29781341554559565,1.462320327750771
1684179748555666600,3.87906689453125,-1.2483732700754204,-0.1898078918759897,1.6666908264165579
1684179748565708000,3.8891083984375,-1.3587164878305222,-0.2193989753929359,1.7165188789490853
1684179748575749000,3.8991494140625,-1.193473577549779,-0.35162448877505775,1.6819176673570297
1684179748585790400,3.909190673828125,-1.1367912292936502,-0.7413058280727558,1.0539302825584724
1684179748595831500,3.91923193359375,-1.0768213272227904,-0.6172957420642662,0.5877542496611726
1684179748605872600,3.92927294921875,-1.4086866379764584,-0.06629133207647997,0.22941970816477655
1684179748615913900,3.939314208984375,-1.6318020819500785,0.056832313473923625,-0.02992916116860448
1684179748625955000,3.94935546875,-1.4250814913640037,-0.3105797768421375,1.7008423806386974
1684179748635996300,3.959396728515625,-0.5033612250535867,-0.08643054946698236,1.3001861572240379
1684179748646037400,3.969437744140625,0.6608388422150157,-0.06944942475118232,-2.1612691879851247
1684179748656078800,3.979479248046875,1.7916314602073775,0.3758258819174351,-5.262604236567287
1684179748666119900,3.989520263671875,1.1857033966475332,0.30468893066091646,-4.4895896911242925
1684179748676160900,3.999561279296875,0.6245930195325275,-0.4096989630883319,-1.2150506971796389
1684179748686202300,4.009602783203125,-0.13015818602854243,-3.0168242454332344,-0.9759798050462225
1684179748696243600,4.01964404296875,-0.593398332620271,-4.338473320087145,0.22182750702171541
1684179748706284600,4.02968505859375,0.025529146072888576,-3.942318916459608,0.6812715530449873
1684179748716325800,4.039726318359375,1.7229331731439985,-3.101071834465136,1.1729574203837774
1684179748726367200,4.049767578125,2.8180222511267132,-2.8085937500609273,2.0016403198083363
1684179748736408200,4.05980859375,3.059699535508803,-2.9451484680648825,1.0646505357654459
1684179748746449600,4.06985009765625,2.9738471507651822,-2.163816928813664,-1.1346092225335076
1684179748756490600,4.07989111328125,2.1143052577281702,-1.5007953644038212,-2.827929496772323
1684179748766532000,4.089932373046875,1.2264103889508116,-0.9661240578273524,-3.071508884461079
1684179748776573100,4.099973388671875,0.6015106439545744,0.026921272241719023,-3.0471796989815196
1684179748786614200,4.1100146484375,-0.05149590967349813,1.088013171982251,-3.210733890449074
1684179748796655600,4.120055908203125,-0.456799983932201,1.660148143617372,-3.3453130721526554
1684179748806696600,4.130096923828125,-0.6770288944022254,1.0558972360227727,-2.9336676596630142
1684179748816738000,4.140138427734375,-0.35538113113024444,0.9476051331562096,-2.8190026283492493
1684179748826779100,4.150179443359375,0.18206369867728608,1.2466549873552855,-1.3502812386620318
1684179748836820400,4.160220703125,1.4596152304694041,1.3267769814483876,-0.949397087208604
1684179748846861600,4.170261962890625,2.564598560281382,0.7959389687059883,-0.6229948997762415
1684179748856902600,4.180302978515625,2.466387748716583,0.14315223691970147,0.07680177689867414
1684179748866943900,4.19034423828125,2.1384460925353945,-0.17805862440882475,0.11953401555860042
1684179748876985000,4.200385498046875,2.111710071471411,0.047772884446681464,-0.7603445053870652
1684179748887026400,4.2104267578125,2.451096057981441,0.3966588973630677,-0.5294570923482157
1684179748897067400,4.2204677734375,2.4940791130284423,0.6222434043768009,-0.6185460091182193
1684179748907108800,4.23050927734375,1.5435847044245758,0.47333097458267853,-0.7194309234912379
1684179748917149900,4.24055029296875,1.234537243929832,0.14420413971416182,0.11980199809620874
1684179748927191000,4.25059130859375,0.846421301421368,0.6784868241953218,-0.14026546484774663
1684179748937232300,4.2606328125,2.120286464709255,2.2731094359236317,0.48597002035855713
1684179748947273400,4.270673828125,3.141458034491612,2.7435317040325375,1.488840103218582
1684179748957314700,4.280715087890625,3.9918794633721277,1.3258457184288182,1.2256398200784842
1684179748967355800,4.290756103515625,4.158103942853733,0.06173229201354698,0.5283718110354543
1684179748977397200,4.300797607421875,3.2124769688901433,-0.4516172409447242,-0.7098059654570983
1684179748987438300,4.310838623046875,2.528351545379194,-0.9010767937092835,-1.2051467894783139
1684179748997479300,4.320879638671875,2.591961860575964,-0.4095115662133677,-1.3715438842627243
1684179749007520600,4.330921142578125,3.17552757264825,-0.5286636352138199,-0.3626747132129548
1684179749017561800,4.340962158203125,2.939382553155548,-1.3921308516857325,0.6637692451923882
1684179749027603100,4.35100341796875,2.3975152968435816,-1.772491931894912,0.7952952383989285
1684179749037644200,4.361044677734375,2.004260778369228,-1.5143070221214758,0.8664393426198117
1684179749047685600,4.3710859375,1.5355855225726351,-1.9513759613837878,0.5608239172371862
1684179749057726600,4.381126953125,1.1854982376828356,-1.5540146827755297,-0.08702945716004555
1684179749067767600,4.391168212890625,0.8956838845392175,-1.3536653517181783,-1.1490178107939923
1684179749077809100,4.40120947265625,0.41286826128881515,-1.3630323410154035,-1.549058914144319
1684179749087850200,4.41125048828125,0.2246613502773483,-1.7161097526472069,-0.8595728874268908
1684179749097891600,4.4212919921875,0.32744169240253496,-1.1155848504622121,0.10520172127835538
1684179749107932600,4.4313330078125,0.02964949607771,-0.23446083072037271,0.7641348839531439
1684179749117973900,4.441374267578125,-0.43059110646904525,-0.47367143626732067,2.2235536576914745
1684179749128015000,4.45141552734375,-0.25130414978286664,0.418601036070064,1.9514470099552248
1684179749138056100,4.46145654296875,0.35475659371701496,0.4791951180138589,1.5594339371291175
1684179749148097500,4.471497802734375,0.7049729824703098,0.30522155752904584,0.9347777366774468
1684179749158138600,4.4815390625,0.9302188159732221,0.1313605307881184,0.814852714611754
1684179749168179900,4.491580322265625,1.072851061671563,0.21886491776450365,0.816185951145829
1684179749178221000,4.501621337890625,0.6908631325479772,0.16419696805820183,0.8707580566147765
1684179749188262100,4.511662353515625,0.29376268386484394,-0.15216588961805283,1.9130625724884571
1684179749198303400,4.521703857421875,-0.001519918373024436,0.14924049386606342,2.0891656875813154
1684179749208344600,4.531744873046875,-0.5276401042823329,0.39466285691976877,2.28365659715233
1684179749218385800,4.5417861328125,-0.04873561859709967,0.07260179524467499,3.0844912529535957
1684179749228426900,4.551827392578125,1.183813452714343,0.3491454124669211,2.447130203237952
1684179749238468000,4.561868408203125,0.15021538741317444,0.6310186385158613,1.0187773704675236
1684179749248509400,4.57190966796875,0.011914491611287112,-0.08627891544018837,1.3384370804813337
1684179749258550400,4.581950927734375,0.01338791845306003,0.31232261648088544,1.2320733070255556
1684179749268591800,4.5919921875,-0.05551791175321093,-0.41852235804992544,0.6284542083484872
1684179749278632900,4.602033203125,0.12446057801556294,-0.35268878934712816,0.3416848182633438
1684179749288674200,4.61207470703125,0.19952428335564948,-0.38633441925716533,0.7815489769474055
1684179749298715300,4.62211572265625,-0.3547867535334627,-0.6722741128244438,0.5857048034757089
1684179749308756400,4.63215673828125,-0.3470612763639435,-0.3612442017294282,0.7114934922645996
1684179749318797700,4.6421982421875,-0.012357950159991976,-0.3402113915244546,1.3885436057710603
1684179749328838800,4.6522392578125,-0.05577123175520304,-0.28137350088842583,1.195249080662911
1684179749338880200,4.662280517578125,-0.3499803542595641,-0.04754161835043638,0.5085320472667545
1684179749348921300,4.67232177734375,-0.054113030341948885,0.7256460190004218,-0.1444768905220897
1684179749358962600,4.682363037109375,-0.474323391817678,0.31843662267200556,-0.17359161376505836
1684179749369003600,4.692404052734375,-0.561622500457807,0.14494562166921407,1.111067295108594
1684179749379044800,4.702445068359375,-0.781137764456098,-0.023015499191000176,1.5505342484781761
1684179749389086100,4.712486572265625,-0.7956405280832773,1.227672100190933,1.166243076308244
1684179749399127200,4.722527587890625,-0.787306785620775,0.7456865311258618,-2.5103726387557326
1684179749409168600,4.73256884765625,-0.10988450049942654,0.208048820488698,-2.2717580793418075
1684179749419209600,4.742610107421875,0.9561514852790313,-0.11517715444911815,-1.073307514060357
1684179749429250700,4.752651123046875,2.352111339540996,-0.4201388360420763,-0.33165693272434665
1684179749439292100,4.7626923828125,1.9514689446926468,0.05894088751685073,0.12439727800775667
1684179749449333200,4.772733642578125,1.7984844445967105,1.647539138815764,2.1640233994289724
1684179749459374600,4.78277490234375,1.6187304257797224,1.9313473701645165,-0.31130361556020675
1684179749469415600,4.79281591796875,0.373852968113882,1.4986052511202363,-1.652451038272045
1684179749479456900,4.802857421875,-0.6648063659750367,0.9512844085849336,-1.8522005082114792
1684179749489498000,4.8128984375,-0.8519456981485978,0.4025535584732324,-2.1189718247365987
1684179749499539100,4.822939453125,-0.2311623693362849,-0.08639097220604781,-2.0086264608735895
1684179749509580500,4.83298095703125,0.6143326759220212,0.06553697592750284,-1.4015026093293128
1684179749519621600,4.84302197265625,1.322861432989619,0.27417898186473133,-1.3909907341555934
1684179749529662900,4.853063232421875,1.887167453767934,0.8349018097725026,-1.4808220862404844
1684179749539704000,4.8631044921875,2.2890832424838545,1.3846778870986,-0.8376293183011332
1684179749549745100,4.8731455078125,1.9682215450951046,1.371887683978996,0.3302278518777541
1684179749559786400,4.883186767578125,1.145945668323698,0.5875582695659564,1.2712588310754165
1684179749569827600,4.893227783203125,0.29657781124863963,-0.15648603441083186,1.3219327927096862
1684179749579868800,4.903269287109375,-0.03363734469904825,-1.277226924919448,2.0226325988691882
1684179749589909900,4.913310302734375,0.17215722785321086,-2.3465662002638332,2.528144836426462
1684179749599951300,4.9233515625,0.795644045018354,-1.892561435700494,1.7885260580964
1684179749609992400,4.933392822265625,0.7732228040768631,-0.7334260941047039,1.1586489677418668
1684179749620033500,4.943433837890625,0.40217143290465424,-0.05412006377677893,0.6881546974025022
1684179749630074800,4.95347509765625,0.09312677369786644,-0.16061353671346268,0.632687091787643
1684179749640115900,4.963516357421875,-0.16076254842230148,-0.11708927147081027,0.18731355665405133
1684179749650157000,4.973557373046875,-0.5876731872631776,-0.1490082741892428,-0.287010669521283
1684179749660198300,4.9835986328125,-0.5300461055654915,-0.16674041762555006,-0.17673492443469427
1684179749670239400,4.993639892578125,-0.13091373445159307,0.038077831163073256,0.060109138616726884
1684179749680280800,5.00368115234375,0.2792471646672429,0.13220977774793746,0.23063898079342504
1684179749690321800,5.01372216796875,0.6792625188373749,0.11407518388561477,0.48302221296194575
1684179749700362900,5.023763427734375,0.6974788904950325,0.19057035450598916,0.2255487442208843
1684179749710404300,5.0338046875,0.8294931650281677,1.4282636643493904,0.7893943785231465
1684179749720445400,5.043845703125,0.35422432414298305,1.5247650145939164,0.5566897392045795
1684179749730486600,5.05388720703125,0.5316061377436527,1.0302000045371,-0.1954751014023027
1684179749740527800,5.06392822265625,0.7071011065485007,0.3964452743162204,-0.7846007346037573
1684179749750569100,5.073969482421875,0.5653629900125434,-0.3776469230569515,-0.9483709335270032
1684179749760610200,5.0840107421875,0.7130151987490457,-0.6543064117864328,-0.8455028533394481
1684179749770651300,5.0940517578125,0.9011772871318945,-0.35132122030149854,-0.3850803374712306
1684179749780692600,5.104093017578125,0.9995672702712272,0.025953292947101844,0.4203896522758282
1684179749790733700,5.114134033203125,1.0589377881859625,0.48453569411574116,0.9435505867333792
1684179749800775100,5.124175537109375,1.1245124340971064,0.8650364876031975,1.4568319320155942
1684179749810816200,5.134216552734375,0.9940961599639244,1.0590825081118747,1.6768460272762344
1684179749820857300,5.144257568359375,0.590860485932097,1.2675199509003394,1.6491012572851274
1684179749830898600,5.154299072265625,0.2759543658736351,1.6584882736758266,1.394495964029222
1684179749840939600,5.164340087890625,-0.10854244232102067,2.0426921843164143,1.1479911803784273
1684179749850980800,5.174381103515625,0.19305109960929964,1.555000782012689,0.8740024565562101
1684179749861022100,5.184422607421875,0.5239314437583651,-1.1744761465999918,2.0651559830298543
1684179749871063200,5.194463623046875,2.2833886147315665,0.33536052706664393,1.2632689474687087
1684179749881104600,5.2045048828125,1.3162100314832923,0.9192714690617825,1.6509823799151215
1684179749891145600,5.214546142578125,0.5185407401415683,0.8571000097996577,0.7791762352267473
1684179749901187000,5.22458740234375,1.0820714235275881,0.9677643776070329,-0.5718393325838151
1684179749911228100,5.23462841796875,1.2925703526157684,0.25627851474418356,-1.5230641364361939
1684179749921269200,5.244669677734375,1.194084644258159,-0.5805969238840933,-1.1332931518621778
1684179749931310600,5.2547109375,0.7347766159630659,-0.7623586653590216,0.20609521872941958
1684179749941351600,5.264751953125,0.3289688826335897,-0.1773571967453322,1.570574283619279
1684179749951392900,5.27479345703125,1.2219057082114757,0.42391824725261384,2.049379348837221
1684179749961434000,5.28483447265625,1.5424599647811434,0.5992403032226274,1.631162166714957
1684179749971475100,5.29487548828125,1.0422861576074478,0.2256650923172952,0.7459192274129165
1684179749981516500,5.304916748046875,0.4969183205865181,-0.522891044628647,-0.21642780304205242
1684179749991557600,5.3149580078125,0.35406750451627694,-0.9362115859745018,-0.531473636525205
1684179750001598600,5.3249990234375,0.6500958202692613,-0.7399773598376005,-0.5955052375782125
1684179750011640000,5.335040283203125,1.0133914948306912,-0.4975867270871909,-0.532907486034096
1684179750021681100,5.34508154296875,1.3716391325469275,-0.21980905538418077,-0.18734884266537696
1684179750031722400,5.355122802734375,1.4449398516467966,-0.43946504581930407,0.45411348335394275
1684179750041763600,5.365163818359375,1.6410782337925525,-0.11722183228437114,0.7889676093722561
1684179750051804600,5.375205078125,1.5331840514498651,0.20992755881009237,0.8613567353396854
1684179750061845900,5.385246337890625,1.3454176187694515,0.27169322955448116,0.6337432862018841
1684179750071887000,5.395287353515625,1.1949927807061667,0.17093801500987998,0.23604583735460694
1684179750081928400,5.405328857421875,0.9502308369173146,0.08815479278900061,-0.594572543937164
1684179750091969500,5.415369873046875,0.6318256855668393,0.01903057102270552,-1.3563184738763123
1684179750102010600,5.425410888671875,0.4049276113195508,0.012602806038369885,-1.52487754807883
1684179750112051900,5.435452392578125,0.24488079546056368,0.03703308098532957,-1.1224188805205937
1684179750122093000,5.445493408203125,0.29931819432727713,0.09631347641591989,-0.6147818565788634
1684179750132134300,5.45553466796875,0.34232342234393603,0.14537239067556657,-0.1588525772167324
1684179750142175400,5.465575927734375,-0.04042303564430764,0.24160242086734854,0.2023229599085649
1684179750152216600,5.475616943359375,-0.33874380584102237,0.18872451790067254,0.5200161933513914
1684179750162257800,5.485658203125,-0.5111209152982578,0.11986541737987064,0.7331323624352225
1684179750172298900,5.49569921875,-0.8653366565447261,0.4897332191066993,0.8350138665643613
1684179750182340300,5.50574072265625,-1.3594785927718447,0.6334590912819914,1.025560379166192
1684179750192381400,5.51578173828125,-1.760534048040954,0.4183259010004001,1.071580886900362
1684179750202422400,5.52582275390625,-2.0130176544548415,-0.1302065849568709,0.9075899125187722
1684179750212463800,5.5358642578125,-2.018157243635704,-0.49431514744062666,0.4535775185153259
1684179750222504900,5.5459052734375,-1.5916287898066122,-0.47962474830886515,0.4755525590478985
1684179750232546200,5.555946533203125,-0.7441544532512739,-0.2560091018207555,0.8719353675778573
1684179750242587300,5.56598779296875,-0.27878832818155697,-0.09275913237678698,1.2196006774679242
1684179750252628400,5.57602880859375,-0.5469410419816961,-0.40393686291134123,0.8986725807091243
1684179750262669700,5.586070068359375,-0.683872461490465,-0.5175008772562621,0.48710107805618263
1684179750272710800,5.596111328125,-0.3860225678377694,0.06631088253396145,0.28359651559990084
1684179750282751900,5.60615234375,-0.9180486203635191,-0.09817171089788176,0.240845203424818
1684179750292793300,5.616193603515625,-1.3718514442683596,-0.6445565224484022,-0.04636287699941952
1684179750302834400,5.62623486328125,-1.6582133770831424,-1.0165915489234634,-0.18481683742745178
1684179750312875600,5.636276123046875,-1.7597730159512546,-1.4284868240247293,-0.023502349807639215
1684179750322916800,5.646317138671875,-1.7188861371620012,-1.6458115578084793,0.3112711907150621
1684179750332957900,5.656358154296875,-1.681670188954724,-1.5271210670444355,0.48149776468297434
1684179750342999200,5.666399658203125,-1.4688317775209863,-0.9806590080724715,0.1726799012063824
1684179750353040300,5.676440673828125,-1.1059186458590067,-0.45998334901504306,0.13242340085438825
1684179750363081600,5.68648193359375,-0.50790762897524,0.14571285239471787,0.03053760517216262
1684179750373122700,5.696523193359375,-0.20703482634527495,0.1552543638870703,0.09024810802608112
1684179750383163800,5.706564208984375,-0.03210520741670436,-0.10207366950277677,0.1542034149739538
1684179750393205200,5.71660546875,0.2613952159850493,-0.2846908570223959,0.24076127994158056
1684179750403246300,5.726646728515625,0.6874895094752947,-0.14751863480104593,0.36777687061290865
1684179750413287300,5.736687744140625,1.1465250254127186,0.20723342902935155,0.37221717837417995
1684179750423328600,5.74672900390625,1.2960456608306987,0.4561095237915069,0.13557815564194997
1684179750433369800,5.756770263671875,1.332143783524763,0.3869886396767508,-0.5130653381019716
1684179750443411100,5.7668115234375,1.5253021717060165,0.30642700196127126,-1.3522777558198842
1684179750453452200,5.7768525390625,1.4753319024358285,0.39430761337746156,-1.8330812454420982
1684179750463493300,5.786893798828125,1.1121814250844002,0.1501255035049769,-1.9652147291884985
1684179750473534600,5.79693505859375,1.1370441914821432,0.4180407523135251,-1.9736208914820603
1684179750483575600,5.80697607421875,0.7963864803264148,0.48648929594076756,-1.6288042068064457
1684179750493616800,5.817017333984375,0.5491974354872288,0.3082833290994272,-1.154270648866572
1684179750503658200,5.82705859375,0.7111001015001758,-0.003944873789760771,-0.8438529968510169
1684179750513699200,5.837099609375,0.6914832592913219,0.24000215539991035,-0.5901632308414386
1684179750523740600,5.84714111328125,-0.11136484144270997,-0.06204128280299962,-0.3933053018140757
1684179750533781600,5.85718212890625,-0.4341232777795466,0.24432086956986412,-0.45433378223183524
1684179750543822800,5.86722314453125,-0.6804208754425561,0.29927444472322534,-0.21671247473857425
1684179750553864100,5.877264404296875,-0.6775002480802634,-0.028336048240528933,-0.08538579934580282
1684179750563905200,5.8873056640625,-0.4638009071715788,-0.5408382416875833,0.015033245120893138
1684179750573946600,5.897346923828125,0.06618762025419085,-0.07182216627839205,0.2637209891941314
1684179750583987600,5.907387939453125,-0.04146265989229582,0.0261249542680407,0.5593881608029433
1684179750594028600,5.91742919921875,-0.234539270385617,-0.3226442337829767,0.5824975968065209
1684179750604070100,5.927470458984375,0.6668701171950754,0.0026016234783622374,0.36030435570345154
1684179750614111200,5.937511474609375,-0.4475154877447005,-1.0696353913044263,0.2567071913431749
1684179750624152200,5.947552734375,-0.061555147178831295,-0.8888955117028284,0.22775745388177288
1684179750634193600,5.957593994140625,-0.42611932759011184,-0.5083732605726332,0.40099716181328776
1684179750644234600,5.967635009765625,-0.7318170070908043,-0.23859405510446077,0.36460399640746016
1684179750654276000,5.977676513671875,-0.162243843041954,1.052082538625592,0.6153416632520946
1684179750664317100,5.987717529296875,-1.1902544498573129,0.19524908055492513,0.33370923992041795
1684179750674358200,5.997758544921875,-1.1941254139477346,-0.36641550061776645,0.13776254639710353
1684179750684399600,6.007800048828125,-0.3286850452107545,-0.6736059188627579,0.42929792405164513
1684179750694440600,6.017841064453125,1.270220041223374,-0.6607599258132137,0.6139340401435953
1684179750704481600,6.027882080078125,2.715345144310827,-0.5189633368770754,0.7818460464134936
1684179750714523100,6.03792333984375,2.457829952171295,-0.03043031694775796,-0.20353412636797952
1684179750724564100,6.047964599609375,1.9999243020876052,0.023128509573947024,-1.1694469453138945
1684179750734605600,6.058005859375,2.2102935312740795,0.4539661408294825,-1.4911808968901499
1684179750744646600,6.068046875,2.5339198113081105,0.6829080581491117,-1.6961297989050226
1684179750754687600,6.078088134765625,1.6393443345185315,0.2749643325866636,-1.492033958419482
1684179750764729000,6.08812939453125,-0.4228403568096257,0.05227136614274713,-0.20733404159393143
1684179750774770100,6.09817041015625,-2.2958931923017745,-0.2518382073403828,1.0788850785586395
1684179750784811200,6.108211669921875,-2.6611108779846933,-0.5512027740268381,1.6418743133943399
1684179750794852600,6.1182529296875,-0.8014805317273881,-0.46472454080566933,1.1310338975221543
1684179750804893600,6.1282939453125,0.17997169481569705,0.03613328938750719,-0.007551193327559709
1684179750814935000,6.13833544921875,0.1718254090514481,0.7054686546141025,-0.46775627140615117
1684179750824976000,6.14837646484375,0.4298505782533684,2.332180976958189,0.4941020010942511
1684179750835017100,6.15841748046875,-0.5373368263930228,1.2780270576939605,-0.39433431637771205
1684179750845058600,6.168458984375,-0.4309520721323441,0.21594095227674304,-1.2362508773109675
1684179750855099600,6.1785,0.23380756380045625,0.2596497535517198,-1.6257233619492002
1684179750865140600,6.188541015625,1.0582664013318976,-0.019991874738423353,-1.4829273224229258
1684179750875182000,6.19858251953125,1.3271553517190566,0.03045034417289187,-1.3402924537832752
1684179750885223100,6.20862353515625,1.4354543686691066,0.2595453261844384,-1.0457444190727474
1684179750895264200,6.21866455078125,1.4127234221830285,0.09671020515451485,-0.960548877697253
1684179750905305600,6.228705810546875,1.0334391593757035,-0.13328027709060575,-1.0420866011386605
1684179750915346600,6.2387470703125,0.15044260034115442,-0.13535499582569555,-1.4373836519173435
1684179750925388000,6.248788330078125,-1.0608065128274329,-0.03096055998518581,-2.1876301766490007
1684179750935429000,6.258829345703125,-2.0377206800986505,0.08279418950191356,-3.0441856384875416
1684179750945470100,6.26887060546875,-1.8257637024141764,0.1187834740134142,-3.1705818176678413
1684179750955511500,6.278911865234375,-1.2241606711100324,0.21574020375589711,-2.652574777594008
1684179750965552600,6.288952880859375,-0.57240915290209,0.4094200134416374,-1.8669862746808705
1684179750975593600,6.298994140625,0.08793997758397396,0.42573213571566987,-1.135441303325822
1684179750985635000,6.309035400390625,0.48876357091623157,0.321055889170424,-0.6122493743012876
1684179750995676100,6.319076416015625,0.5646343232053763,0.4605836868385753,-0.37209272374682073
1684179751005717400,6.329117919921875,0.4101619720310961,1.203918933882003,-0.21374416366624138
1684179751015758600,6.339158935546875,-0.2919797896518113,1.2797818183040082,-0.11932659156665722
1684179751025799600,6.349199951171875,-0.6796097756052483,1.3296198846198188,-0.04932832712663496
1684179751035840900,6.359241455078125,-0.8506648539101201,1.4979190826714734,-0.014978408865656132
1684179751045882000,6.369282470703125,-0.7929186820521991,1.5998020171615701,0.16935062406205428
1684179751055923100,6.379323486328125,-0.642783880255952,1.7919831276619314,0.5377211570894178
1684179751065964500,6.38936474609375,-0.45895791064388297,1.647691726627809,0.6572570800815636
1684179751076005600,6.399406005859375,-0.5130982399525369,0.11589050287016303,0.9274916647036121
1684179751086046600,6.409447021484375,-0.8246624469122408,-1.4961566925110188,1.1178221701618474
1684179751096088000,6.41948828125,-0.5232167243998207,-2.241676330558189,1.24973917008529
1684179751106129100,6.429529541015625,-0.24142098423468653,-3.3838911056398113,1.1505823135740099
1684179751116170200,6.439570556640625,-0.5233764647221805,-3.7254467010596506,0.9782295228205069
1684179751126211600,6.44961181640625,-0.8528304099635402,-2.6642389297422504,0.8815684318923023
1684179751136252600,6.459653076171875,-1.0673081874709491,-1.095347404403041,0.9363541604079391
1684179751146293900,6.4696943359375,-1.0813646315990955,-0.027585029486268703,1.1381297111636348
1684179751156335000,6.4797353515625,-1.4752235412333774,0.1599426268583269,1.3718390464845645
1684179751166376100,6.489776611328125,-2.603664636537698,-0.44407463079997017,1.5408034324554396
1684179751176417500,6.49981787109375,-3.8779010773073996,-1.2242498397644366,1.7013030051818236
1684179751186458600,6.50985888671875,-3.5320370197085165,-1.2454881667358357,2.062007904028267
1684179751196499600,6.519900146484375,-1.5191287993522486,-0.7814941405491902,2.0582041741113812
1684179751206541000,6.52994140625,0.3473846911025885,-0.6585721968295716,1.3421158789769947
1684179751216582100,6.539982421875,1.7602028847044933,-0.7325887680736944,0.6442623138913247
1684179751226623400,6.55002392578125,2.588224887921616,-1.0745439530766492,0.09793090815861519
1684179751236664600,6.56006494140625,2.3876790999812596,-0.8766593931854368,-0.4744319916708784
1684179751246705600,6.57010595703125,1.0124787090952612,-0.36948013306226324,-1.0952551364787586
1684179751256746900,6.580147216796875,-0.3604664801559313,0.02934169753580899,-1.5704817772004291
1684179751266788000,6.5901884765625,-1.1487092973308566,0.31776523575346594,-1.719890594521322
1684179751276829100,6.6002294921875,-1.3329935073950716,0.40386056903450185,-1.6620371340857087
1684179751286870400,6.610270751953125,-1.1199991703250727,-0.01101016999208459,-1.4187362192655104
1684179751296911600,6.62031201171875,-0.6146838665013676,-0.18626213066087083,-1.0975627899427105
1684179751306952600,6.63035302734375,0.06665706646869214,-0.3351945878622754,-0.6941668987336279
1684179751316994000,6.640394287109375,0.643710374745879,-0.4582071305439662,-0.10553503045978206
1684179751327035100,6.650435546875,1.2600990533658167,-0.20681476593396356,0.7289643288072156
1684179751337076100,6.6604765625,1.7134108543272286,0.5678968429457986,0.39682435982939157
1684179751347117600,6.670517822265625,1.693479061119924,0.44856071470634773,0.14825582493428324
1684179751357158600,6.68055908203125,2.2622723578830226,1.4493546485851785,0.6031112670879317
1684179751367199900,6.690600341796875,2.641206026059289,0.7066583633794801,0.47405195243484677
1684179751377241000,6.700641357421875,2.6058082581394726,-0.6263542174973835,0.5135512351822217
1684179751387282100,6.7106826171875,2.6044602394056375,-1.6468458176768561,0.3569664953859575
1684179751397323400,6.720723876953125,2.4226913452455214,-2.0198726654437245,-0.036563396427287925
1684179751407364600,6.730764892578125,2.7656016348863295,-0.5793380738045892,0.27008485798330284
1684179751417405600,6.740805908203125,2.786153555036253,0.27162170399619956,-0.10422801965738487
1684179751427447000,6.750847412109375,2.212611913709074,0.171104431248665,-0.7749929427942647
1684179751437488000,6.760888427734375,1.5121279954459075,0.2665224075625097,-1.2122213841794023
1684179751447529100,6.770929443359375,0.6338795422184852,0.2862215041589551,-1.1209390165177668
1684179751457570600,6.780970947265625,-0.15304088599704585,0.16065597526657657,-1.0715749262234413
1684179751467611600,6.791011962890625,-0.8349471092697038,-0.08324336997463666,-0.7789204121390405
1684179751477652600,6.801052978515625,-1.309597611531586,-0.10485172269240305,-0.44250154505891526
1684179751487694000,6.811094482421875,-1.2682845591056064,-0.4277305604196454,-0.04955244068630117
1684179751497735100,6.821135498046875,-0.6710894108941776,-0.1933002471779298,0.048244476325970655
1684179751507776400,6.8311767578125,-0.39265251172200843,0.03754329682540595,-0.08553695681953237
1684179751517817600,6.841218017578125,-0.3214746713546826,-0.06169605245943663,-0.2259998320552598
1684179751527858600,6.851259033203125,0.16266763205894788,-0.57555389403142,-0.19214105598140335
1684179751537899600,6.861300048828125,1.5631486178326726,-0.5525236129435098,-0.11177968977717485
1684179751547941000,6.871341552734375,1.7824872732568424,-0.7365198134829035,-0.3747391700711169
1684179751557982100,6.881382568359375,1.2186965943745456,-0.9207706451583798,-0.39821958541211694
1684179751568023600,6.891423828125,0.8148327469359764,-0.879574775872216,-0.006711482858674165
1684179751578064600,6.90146484375,0.5061362384360941,-0.8223447799756742,0.3446879386977797
1684179751588105600,6.911506103515625,0.4903786778452044,-0.2638759613182498,0.3649110794789685
1684179751598147000,6.92154736328125,0.7519921064619693,-0.22729682916046354,0.3537478446800692
1684179751608188100,6.93158837890625,0.9164316653223065,-0.360893249514763,0.006866455123235307
1684179751618229200,6.941629638671875,0.9646956323982249,-0.11133575433291017,-0.5744309426350442
1684179751628270600,6.9516708984375,0.3248923420299116,-0.2960977553533492,-1.2588613032096962
1684179751638311600,6.9617119140625,0.5563611984408572,2.868692398111103,-2.00590062138813
1684179751648352600,6.971753173828125,0.3947534562539667,2.2058043479008527,-1.2197384835587357
1684179751658394000,6.98179443359375,-0.9093042014793337,1.9534254073185802,-0.9207916260387445
1684179751668435100,6.99183544921875,-0.7591887115961432,2.5018177033600826,-0.9852442740413947
1684179751678476200,7.001876708984375,-0.04114353661229958,2.1849751473155825,-0.8976445198820899
1684179751688517600,7.01191796875,0.5198436976171315,1.8342943190180823,-1.0443139075012307
1684179751698558600,7.021958984375,1.0402115584459302,1.3270339966019555,-1.291102647750918
1684179751708600000,7.03200048828125,1.123499989546796,-0.040067672670738574,-1.7072436810345355
1684179751718641100,7.04204150390625,0.72630131253925,-1.193213462799726,-2.0259156226811945
1684179751728682200,7.05208251953125,0.6263096331155223,-1.6321706773030586,-1.864843249370175
1684179751738723600,7.0621240234375,0.1395345033796716,-2.8307695387969978,-1.6225204467194587
1684179751748764600,7.0721650390625,-0.14671480660817673,-3.971974372879424,-1.2200520037947427
1684179751758805600,7.0822060546875,0.03941428655961514,-4.082291603064297,-0.7467637061949514
1684179751768846800,7.0922470703125,0.7237277032305169,-2.009768486013512,-0.1242063045890106
1684179751778888100,7.10228857421875,1.1019744873075918,0.2825355529984001,0.5386514662755547
1684179751788929200,7.11232958984375,0.6607339978796868,0.8911285401239468,0.927196502546506
1684179751798970600,7.122370849609375,0.11650180824428576,0.3515043257395282,0.9744968414693518
1684179751809011600,7.132412109375,-0.004105448617640451,0.07773971558314582,1.054226636866
1684179751819052600,7.142453125,0.20247179281851796,0.3729925154615194,1.224221944727139
1684179751829094100,7.152494384765625,0.39105731258774135,0.7378044127686633,1.2766211033117771
1684179751839135200,7.16253564453125,0.5112074613667589,0.39372539510937504,0.8776247501392277
1684179751849176200,7.17257666015625,0.7433904409130794,0.43694114679606744,0.5756695270666333
1684179751859217600,7.182617919921875,0.9258911610562618,0.6862459183148774,0.5317890644417036
1684179751869258600,7.1926591796875,0.9455057979328635,0.6895895004730537,0.4772446155020951
1684179751879299800,7.2027001953125,0.7970657348716796,0.28621196744596883,0.5565900804223025
1684179751889341100,7.212741455078125,0.5546637773772469,-0.3139247893938829,0.6306383609584651
1684179751899382200,7.222782470703125,0.3693104088883428,-0.7369623182559163,0.5659642219783265
1684179751909423300,7.23282373046875,0.327026128789338,-1.0031213761303397,0.6830527782899551
1684179751919464600,7.242864990234375,0.375035554150057,-0.9949092864301262,0.818846464288642
1684179751929505600,7.252906005859375,0.4673979283701118,-0.7429513931722409,1.0579380988507674
1684179751939546800,7.262947265625,0.5345544219474171,-0.44819736480315037,1.2265956400346105
1684179751949588100,7.272988525390625,0.4700567423958346,-0.2906713485611356,1.1141052246559722
1684179751959629200,7.283029541015625,0.3606435657457501,-0.10954093923765525,0.8539662362217644
1684179751969670300,7.29307080078125,0.2669113576757165,0.10570049282331188,0.5455586910834872
1684179751979711600,7.303112060546875,0.12078845505746587,0.06670665726849234,0.20044565197610073
1684179751989752800,7.313153076171875,-0.031870573632111016,-0.1297597886571274,-0.10063338280373997
1684179751999793800,7.3231943359375,0.009565472642492657,-0.0956211090708181,-0.28099989893865956
1684179752009835200,7.333235595703125,0.043043106785839724,-0.1102781296167799,-0.32229518884205055
1684179752019876300,7.343276611328125,0.023096412401390615,-0.3072929383978013,-0.3249952793306089
1684179752029917400,7.35331787109375,0.029831886301429904,-0.24987316127500525,-0.21694374075412137
1684179752039958600,7.363359130859375,0.11589607584827129,0.02300930006935544,-0.1491150855261962
1684179752049999800,7.373400146484375,0.0972944498164157,0.10271263119821787,-0.032510757374457265
1684179752060040900,7.383441162109375,-0.029659271211792557,0.09195518512321288,0.1121015549362056
1684179752070082200,7.393482666015625,-0.1271501779189765,0.011683464057280194,0.28024029729069677
1684179752080123300,7.403523681640625,-0.11255162946583863,-0.09258937834622183,0.3097114564098521
1684179752090164400,7.413564697265625,0.005827665241898857,-0.21788311005225297,0.391142129794272
1684179752100205700,7.423606201171875,0.1689500808331332,-0.21295833589271487,0.4357912539940941
1684179752110246800,7.433647216796875,0.3447627724446596,0.02896690381157121,0.5739321708721519
1684179752120287900,7.443688232421875,0.5505737066288038,0.17476940140463765,0.6741583346391465
1684179752130329300,7.453729736328125,0.6620308755616343,0.24094009398862143,0.7821009159618254
1684179752140370400,7.463770751953125,0.5896685720340633,0.2892560960096417,0.8030648230087429
1684179752150411600,7.47381201171875,0.6476702690563021,0.3151683805626026,0.8287179469695669
1684179752160452800,7.483853271484375,0.6608211398188045,0.3312168121544417,0.8510544300918056
1684179752170493900,7.493894287109375,0.6175223588759322,0.1730327606036818,0.8188581468437441
1684179752180535000,7.503935302734375,0.5737947821793945,0.04399681082016442,0.823140859694265
1684179752190576300,7.513976806640625,0.5717215536910379,-0.0749168395162029,0.8616418837910867
1684179752200617400,7.524017822265625,0.5669713018943698,-0.13110637652043325,0.895935773785983
1684179752210658700,7.53405908203125,0.5944152473008462,-0.1560106279074941,0.931977272001955
1684179752220699800,7.544100341796875,0.6063187122564616,-0.12141227729341175,0.9564993380897682
1684179752230740900,7.554141357421875,0.6329576372646699,-0.06341266635441642,0.8740186691748635
1684179752240782000,7.564182373046875,0.707558035824598,0.0539636613199861,0.6472358703901901
1684179752250823300,7.5742236328125,0.7806619404889881,0.10909461961741075,0.45134592039915206
1684179752260864400,7.584264892578125,0.7647714614589866,0.09272289266249395,0.4112703799834143
1684179752270905600,7.594305908203125,0.686007499784262,0.07890701288653697,0.3931016921422423
1684179752280946900,7.60434716796875,0.5577963589846457,0.007775306512085184,0.34418368328076293
1684179752290988000,7.614388427734375,0.4752664565009918,0.006079673758479212,0.29080247883538746
1684179752301029300,7.6244296875,0.3719346522822967,-0.037801742446450654,0.2536201477213869
1684179752311070400,7.634470703125,0.31740146871698866,0.0935506820514851,0.26307773581445343
1684179752321111600,7.644511962890625,0.22102510932718797,0.23170089732067545,0.387052774323665
1684179752331152600,7.654552978515625,0.0899652839491169,0.19960117339669511,0.3912212848589061
1684179752341193900,7.66459423828125,-0.001365780983442139,0.1486015320151729,0.3012235163906669
1684179752351235000,7.674635498046875,0.01999402052955125,0.24407863616409434,0.17407512678031187
1684179752361276300,7.6846767578125,0.09160590174596882,0.4571847915661376,0.22523665433720313
1684179752371317400,7.6947177734375,0.09984749551612282,0.5195045471997553,0.32531237599369145
1684179752381358600,7.704759033203125,0.19664502158912117,0.20917415608855983,0.16078972810612924
1684179752391399600,7.714800048828125,0.29748237135050865,-0.01975250251266164,0.27114319801073716
1684179752401440900,7.72484130859375,0.3746447563569435,-0.1403188704755433,0.5055029392758427
1684179752411482000,7.73488232421875,0.4582396744680574,-0.30732154860591115,0.7829692363865998
1684179752421523100,7.744923583984375,0.5523369311494496,-0.22860813148129863,1.1475341319809742
1684179752431564500,7.75496484375,0.7432951926057668,0.04875755318464608,1.5196623802557039
1684179752441605600,7.765005859375,0.8464231490414733,0.17996883386562842,1.737567424868401
1684179752451646600,7.775047119140625,0.8740832805353403,0.17411327361751144,1.911003351100068
1684179752461688000,7.78508837890625,0.9003117680329453,0.4291505811996217,1.6975283622853803
1684179752471729100,7.79512939453125,0.8383951187872352,0.30302238458480424,1.5709373950584775
1684179752481770200,7.805170654296875,0.8925899267105106,0.2820091247265955,1.4651405811742346
1684179752491811600,7.8152119140625,0.9776405692589858,0.1522464752281397,1.349073410120393
1684179752501852600,7.8252529296875,1.103556036997606,-0.0419149399000197,1.3395116330787367
1684179752511893600,7.835294189453125,1.2105047703942013,-0.19581890106995245,1.368538379537181
1684179752521935000,7.84533544921875,1.293168306474552,-0.2798728942842325,1.4324352741281459
1684179752531976100,7.85537646484375,1.338661789919287,-0.2909698485839803,1.395095825135573
1684179752542017200,7.86541748046875,1.3008393048690639,0.03629016868233432,1.1584317684778893
1684179752552058600,7.875458984375,1.0529385804339881,-0.08806419375688186,0.918009519443292
1684179752562099600,7.8855,1.2998098134960614,0.5599966048770454,0.885963916693269
1684179752572140600,7.895541015625,0.7422046660894546,0.24654579170166077,0.39806890485491225
1684179752582182100,7.90558251953125,0.14656108606476834,0.021450042705933033,-0.46949028961648037
1684179752592223200,7.91562353515625,-0.35321271409518273,-0.14099502576739303,-1.1846576929330546
1684179752602264200,7.92566455078125,-0.6561115980591865,-0.26428985586645853,-1.547828078409665
1684179752612305600,7.9357060546875,-0.847879767261598,-0.24522876735784618,-1.6066430808331418
1684179752622346600,7.9457470703125,-1.095180153810927,-0.26026916496049296,-1.6595587730415224
1684179752632387800,7.9557880859375,-1.532357692672557,-0.24159812921311172,-1.890903711331668
1684179752642429100,7.96582958984375,-2.0792734621318316,-0.44690513621973926,-2.2445571423069177
1684179752652470200,7.97587060546875,-2.63858222954868,-0.8219041825207953,-2.6083655357286557
1684179752662511300,7.98591162109375,-2.876808404829276,-1.1881065367315562,-2.7756693362959193
1684179752672552600,7.995953125,-2.700490236291482,-1.4946880340582818,-2.8616168499428056
1684179752682593600,8.005994140625,-1.9817688464788954,-1.4831724167975726,-2.706146240141773
1684179752692634800,8.01603515625,-0.8382446766634299,-1.3935184478462375,-2.650377035205323
1684179752702676100,8.02607666015625,-0.06023836149368373,-1.3996715545455516,-2.5067539214804326
1684179752712717200,8.03611767578125,0.408609867159123,-1.0769948957872642,-2.151225805283721
1684179752722758300,8.04615869140625,0.37811517700777203,-1.19379138953254,-2.2186660766807056
1684179752732799600,8.056199951171875,0.038847565575197286,-1.1377487183117825,-2.444799423329836
1684179752742840800,8.0662412109375,-0.22574305541634437,-0.6693162917129784,-2.361634731289618
1684179752752881800,8.0762822265625,-0.33002972587753715,-0.10994625075163052,-2.033894538863867
1684179752762922900,8.0863232421875,-0.2396385669838929,0.19512653353737852,-1.5495797396396733
1684179752772964300,8.09636474609375,-0.18274474140552416,0.2436161042619286,-1.294213056579359
1684179752783005400,8.10640576171875,-0.13222336765745127,0.026405334488584245,-1.0661305188744994
1684179752793046600,8.116447021484374,-0.1892564296643266,-0.4067754746912236,-0.9794492721752486
1684179752803087800,8.12648828125,-0.32736515999633253,0.027941703861479414,-0.9254043101972175
1684179752813128900,8.136529296875,-0.356244563978159,0.2347517012252712,-0.9646252393478116
1684179752823170000,8.1465703125,-0.26579523087331214,0.2389545441083581,-1.0497326850964326
1684179752833211300,8.15661181640625,-0.059823751420646554,0.25486946104208236,-1.080848813015641
1684179752843252400,8.16665283203125,0.17540383347665753,0.22846698774885082,-1.2138223648934203
1684179752853293600,8.17669384765625,0.4694311617736489,0.29174137109368886,-1.3442689178452514
1684179752863334800,8.1867353515625,0.7658419609072263,0.3901500701714003,-1.368132233582903
1684179752873375900,8.1967763671875,0.9850070476720784,0.5552921295453432,-1.3915156125899903
1684179752883417000,8.2068173828125,1.1095558405421337,0.724883079357528,-1.2675256729833293
1684179752893458400,8.216858642578124,1.0768922566082906,0.7214956282812965,-1.0383431910797896
1684179752903499400,8.22689990234375,0.9118720292962279,0.5711250305539498,-0.875695884100097
1684179752913540600,8.23694091796875,0.6753048897052781,0.3214883803998148,-0.7935544848554018
1684179752923581900,8.246982177734376,0.37221884736528793,-0.281167030305477,-1.0109410286036116
1684179752933623000,8.2570234375,-0.16306114200878996,-0.41698265079063235,-1.1033692359073661
1684179752943664000,8.267064453125,-0.6752252577345726,-0.03022575371087634,-0.9416909814093867
1684179752953705400,8.277105712890625,-1.0371125937464412,0.47479724889967984,-0.18795681000715175
1684179752963746600,8.28714697265625,-1.0310287474644957,0.8849267958828069,0.4721838236060778
1684179752973787600,8.29718798828125,-0.7519335746134125,1.1391611099183934,0.9306482077299133
1684179752983828900,8.307229248046875,-0.347042560461165,1.327507972791307,1.290500044668217
1684179752993870000,8.3172705078125,0.04936277864040353,1.4132728576811466,1.5633090733946686
1684179753003911100,8.3273115234375,0.2806243896497711,1.3330068589823902,1.8305908440415184
1684179753013952400,8.337352783203125,0.3087912797537857,1.0445938109006792,2.061281681012258
1684179753023993600,8.347393798828126,0.15726006036505671,0.6686964035236257,2.192286729783555
1684179753034034600,8.35743505859375,-0.2912342546658896,0.28955078116510685,2.3505585193458054
1684179753044075600,8.36747607421875,-1.2415766716193213,0.019215583711099677,2.587990999038245
1684179753054117000,8.377517333984375,-2.5045094491306936,-0.02425384531577269,3.012159824376243
1684179753064158100,8.38755859375,-3.28597664823798,0.03236770639511858,3.3537731170286484
1684179753074199200,8.397599609375,-3.1324884891545306,0.1444606780796062,3.340125560790732
1684179753084240600,8.407640869140625,-2.5031175613791325,0.39116954801046017,2.941700935395303
1684179753094281600,8.41768212890625,-1.713007688503611,0.44680118550120157,2.389709472631351
1684179753104322700,8.42772314453125,-1.2848933935068743,0.3112068176987435,1.848097562896083
1684179753114364100,8.437764404296875,-1.0367174147721079,0.10045909883373443,1.4312822817569044
1684179753124405200,8.4478056640625,-0.9048097134476693,-0.14468479159853084,1.0280537605195574
1684179753134446300,8.4578466796875,-0.9090081454457971,-0.24035263072205035,0.3355950118529329
1684179753144487600,8.467887939453124,-1.0213989019081524,-0.2084817887068767,-0.19849848743799767
1684179753154528600,8.47792919921875,-0.9977740049583269,-0.16683769233424198,-0.46742069713842954
1684179753164569800,8.48797021484375,-0.8739528655543283,-0.14916515351487813,-0.659546315708606
1684179753174611100,8.498011474609376,-0.6928483248199517,-0.1264381408457182,-0.9158195853772363
1684179753184652200,8.508052490234375,-0.6517858504234986,-0.029179573150347127,-1.1068096160840224
1684179753194693300,8.51809375,-0.6837368010672593,0.003960609560895814,-1.3089418410006217
1684179753204734400,8.528134765625,-0.7208749056204282,0.023128509408886416,-1.4364514351328244
1684179753214775600,8.538176025390625,-0.7341297865162657,-0.03382492062692904,-1.4586493968711762
1684179753224816800,8.54821728515625,-0.7360994815221265,-0.16641235341814042,-1.6131076813845375
1684179753234858200,8.558258544921875,-0.6679993868395411,-0.17562198651401817,-1.8650779723436044
1684179753244899200,8.568299560546874,-0.5971473456684756,-0.06394863113693114,-1.8902561664999857
1684179753254940300,8.5783408203125,-0.5705376863443431,-0.0016422272384573732,-1.7764009236299065
1684179753264981400,8.5883818359375,-0.5914161204671453,0.015483856191650703,-1.5817301274800624
1684179753275022800,8.598423095703126,-0.6774905919081963,-0.025024414050927177,-1.3189117909846522
1684179753285063900,8.60846435546875,-0.7484322785798082,-0.07089233399870926,-1.1616283654357917
1684179753295104900,8.61850537109375,-0.850345373186777,-0.12483978272670249,-0.9505020975633235
1684179753305146300,8.628546630859375,-0.827095746960336,-0.1536655425644172,-0.6559294462126422
1684179753315187400,8.638587890625,-0.6585053206420761,-0.08094882964104108,-0.384102821387609
1684179753325228500,8.64862890625,-0.4589948652885862,-0.05232715587933931,-0.22566729794184295
1684179753335269800,8.658670166015625,-0.2635761499161652,0.004297256511949999,-0.0981971027089227
1684179753345310900,8.668711181640624,-0.09520351897197778,0.077261924584918,-0.03148794164876588
1684179753355352000,8.67875244140625,-0.004209876081184626,0.11408042919898688,0.051497876619549104
1684179753365393100,8.68879345703125,0.052655935196176035,0.14822101602247123,0.14533269403151322
1684179753375434400,8.698834716796876,0.11130118373357369,0.16530227670359576,0.24191176893454674
1684179753385475600,8.7088759765625,0.1809749602051897,0.19405746441421282,0.33364754928373086
1684179753395516600,8.7189169921875,0.2824031115139795,0.20596122738735637,0.38013958945191956
1684179753405557900,8.728958251953125,0.36010169979179973,0.2059497833011425,0.41515910631120706
1684179753415599000,8.73899951171875,0.3831658364259282,0.22274780266075977,0.42954778677783045
1684179753425640100,8.74904052734375,0.3349325656735244,0.2181777953166209,0.38101518144802465
1684179753435681500,8.759081787109375,0.28721940515378885,0.17324638368009485,0.2991338372203427
1684179753445722600,8.769123046875,0.17058861249547258,0.17407226561509245,0.2176016569754368
1684179753455763600,8.7791640625,0.02594757087712893,0.19187641145893983,0.08418732878819478
1684179753465805000,8.789205322265625,-0.09099090102408296,0.2647237776836309,-0.02908271550093448
1684179753475846100,8.79924658203125,-0.18159925941417823,0.31109619130209887,-0.12231400623545831
1684179753485887200,8.80928759765625,-0.316485285868595,0.31414890305576443,-0.14560791845226814
1684179753495928200,8.81932861328125,-0.39928078658161037,0.28579616536177754,-0.2116886376871565
1684179753505969600,8.829369873046875,-0.43465363963183334,0.30248928062600045,-0.31098845594200303
1684179753516010600,8.8394111328125,-0.4349597692444413,0.31879711151374696,-0.3667229412714484
1684179753526051800,8.8494521484375,-0.3841572999853333,0.27269172675586206,-0.39401143794444127
1684179753536093100,8.859493408203125,-0.2715127469850815,0.23368835440773325,-0.22577218725850226
1684179753546134200,8.86953466796875,-0.16522490982009116,0.23536586771884205,-0.11512658007574413
1684179753556175300,8.87957568359375,-0.011082172414259952,0.2467336654259764,-0.03573466831008314
1684179753566216600,8.889616943359375,0.06212532524309546,0.2343406676439486,0.022943616012296615
1684179753576257600,8.899658203125,0.10054802883424291,0.23401260383966666,0.06173831221960584
1684179753586298800,8.90969921875,0.15264534953077646,0.2575693129412039,0.22388507416785544
1684179753596340100,8.919740478515624,0.18501925464523145,0.35745811464991845,0.4171344638053045
1684179753606381200,8.92978173828125,0.19720578188616364,0.4571418763573008,0.5306955576421296
1684179753616422300,8.93982275390625,0.23174178609281082,0.6641759870614989,0.5772936940133266
1684179753626463400,8.94986376953125,0.22737419614205237,0.8326826095023445,0.7103455067572422
1684179753636504800,8.9599052734375,0.22277557850356186,0.9422130583703175,0.8759751318779774
1684179753646545800,8.9699462890625,0.21003353602267563,1.015058517477378,1.0504850149789233
1684179753656586900,8.9799873046875,0.19273746015546497,0.9954938889686715,1.250206232182919
1684179753666628300,8.990028564453125,0.06440150728591915,0.9529085159678675,1.4382326601739244
1684179753676669400,9.00006982421875,-0.11416649816478755,0.9018049239824332,1.5769673586447748
1684179753686710400,9.01011083984375,-0.3190530539762405,0.758520126278504,1.7068080902880434
1684179753696751800,9.020152099609374,-0.5225673915092042,0.6304187775095461,1.8156034948250306
1684179753706792900,9.030193359375,-0.7293081283352427,0.5145893097227378,1.8436791897881435
1684179753716834000,9.040234375,-0.9008044005687447,0.5037164688131637,1.8396722077212826
1684179753726875100,9.050275390625,-1.0089638231923113,0.48980903613424903,1.7230956553538723
1684179753736916400,9.06031689453125,-1.0416423081462665,0.5206375122582726,1.500089168589316
1684179753746957600,9.07035791015625,-0.9686598777296059,0.5556621551635893,1.2104090452440777
1684179753756998600,9.08039892578125,-0.8487529753077782,0.6381092071470272,0.9297206403404135
1684179753767039900,9.0904404296875,-0.7430137395485922,0.6510820387920765,0.706942856439187
1684179753777081000,9.1004814453125,-0.7029118536302963,0.6021118164401092,0.46845167878255317
1684179753787122100,9.1105224609375,-0.7652363182236389,0.47710132590750726,0.17349606733807482
1684179753797163400,9.120563720703124,-0.8966552017753313,0.33359718321915555,-0.1819807291695659
1684179753807204600,9.13060498046875,-1.074281215684472,0.1788206100178197,-0.6007214784654274
1684179753817245600,9.14064599609375,-1.2780208588904982,-0.044666290230423754,-0.8088402748856878
1684179753827287000,9.150687255859374,-1.5017325879076135,-0.22468566891832928,-0.9429159165277254
1684179753837328000,9.160728515625,-1.7095890043831525,-0.31848239900048936,-1.123037576658335
1684179753847369100,9.17076953125,-2.0080111025811145,-0.36694717407203864,-1.2833892105600269
1684179753857410200,9.180810546875,-2.3380618094398518,-0.47072601321595825,-1.3478885887789793
1684179753867451600,9.19085205078125,-2.6591162681172973,-0.8593015669831344,-1.1959813832145616
1684179753877492600,9.20089306640625,-2.8342695235323907,-1.601463317835221,-0.8313851953271995
1684179753887533700,9.21093408203125,-2.7395498752637186,-2.3165798187740636,-0.3109839557397292
1684179753897575100,9.2209755859375,-2.4945733545959747,-2.8609704969867846,0.03269213429929697
1684179753907616200,9.2310166015625,-2.0848259924359667,-2.938194274815794,0.25789284711373806
1684179753917657300,9.2410576171875,-1.5925397873564142,-2.4581794738529292,0.2716464997441859
1684179753927698400,9.2510986328125,-1.2327041626574282,-1.362916946401171,0.3631404637664924
1684179753937739600,9.26114013671875,-1.066585779160393,-0.11285495765338233,0.3102185726601925
1684179753947780800,9.27118115234375,-0.8165575862866237,0.780512809561338,0.14353775994389953
1684179753957821900,9.28122216796875,-0.48931044347581376,1.2776422501401201,-0.11269205806684997
1684179753967863200,9.291263671875,-0.16525834790543287,1.4083709717903103,-0.37285250410010845
1684179753977904300,9.3013046875,0.1714024842273158,1.1258468628573968,-0.33672326791854423
1684179753987945400,9.311345703125,0.32526397693269044,0.8106803895295457,-0.28774738328268046
1684179753997986700,9.32138720703125,0.32563745986089265,0.4700431824217735,-0.17364406574922314
1684179754008027800,9.33142822265625,0.11649617545971766,0.216090202368501,-0.037951529009936924
1684179754018068900,9.34146923828125,-0.182396024408464,-0.01368141178576285,0.11206352716915323
1684179754028110000,9.351510498046874,-0.38757595424802765,-0.2481241227252936,0.3528480530529707
1684179754038151300,9.3615517578125,-0.3222754598386869,-0.4299125669879783,0.498592019072043
1684179754048192400,9.3715927734375,-0.07960504290937058,-0.4611129759586701,0.3845520020701231
1684179754058233600,9.381634033203126,0.14907240863726945,-0.4064264299389079,0.2399964333844281
1684179754068274900,9.39167529296875,0.17935623235557077,-0.36865615829695286,0.10410535342719407
1684179754078316000,9.40171630859375,-0.022753581378106597,-0.2784242629990685,-0.06789183629250924
1684179754088357000,9.41175732421875,-0.2537272273110586,-0.14298439036249186,-0.2084431647770397
1684179754098398100,9.421798583984376,-0.301148414760499,0.06614875796788498,-0.22688996794752064
1684179754108439600,9.43183984375,-0.0992558895965415,0.3033151626899884,-0.18115258220749875
1684179754118480600,9.441880859375,0.37367779019461,0.5925188065054088,-0.2539688944600818
1684179754128521600,9.451922119140624,0.6990195512132472,0.9410800934574927,-0.38675814860662655
1684179754138563000,9.46196337890625,0.7564561366564868,1.105423927392746,-0.5001052617271328
1684179754148604100,9.47200439453125,0.28075557942639096,1.038097381548227,-0.633096635462195
1684179754158645200,9.482045654296876,-0.5741607546986154,0.6675214768450317,-0.8339879513065448
1684179754168686600,9.4920869140625,-1.4217658042754042,0.16136646267547325,-1.0632222890984024
1684179754178727600,9.5021279296875,-1.8681880235142985,-0.38430690749984425,-1.0407150984029627
1684179754188768600,9.512169189453124,-1.61918139466376,-0.6752281187790956,-0.7261818647451284
1684179754198810000,9.52221044921875,-0.7850133179247113,-0.5637121200219654,-0.17816460132515852
1684179754208851100,9.53225146484375,0.1667692512693615,-0.2610349656004451,0.23442161093036618
1684179754218892200,9.542292724609377,0.9843702317050641,0.002775192118889519,0.44950985924199416
1684179754228933300,9.552333740234374,1.493187427533961,0.06524658206314826,0.3625609874625812
1684179754238974600,9.562375,1.7490274906021406,0.034314155485045385,0.3233857154683048
1684179754249015600,9.572416015625,1.7906122207165351,0.05357551569333834,0.3088282347060846
1684179754259056800,9.582457275390626,1.792774677317609,0.07523441312789254,0.38397216806899737
1684179754269098200,9.59249853515625,1.7828857898123591,0.1350955962286837,0.608029484780776
1684179754279139200,9.60253955078125,1.7761015892211478,0.10635948179814615,0.931708097474159
1684179754289180300,9.612580810546875,1.722726225907772,0.07262325299679528,1.2049885989887932
1684179754299221400,9.622621826171876,1.6228873729569409,0.07918643958063926,1.413059353859244
1684179754309262800,9.6326630859375,1.5359203816552502,0.016015052730711354,1.5509135722946734
1684179754319303900,9.642704345703123,1.477477788965675,0.012141227748638714,1.620740532888819
1684179754329344900,9.652745361328124,1.3107588291131294,0.1199779510577873,1.5469982625576701
1684179754339386300,9.66278662109375,1.1254420279162045,0.19125938421808505,1.4072593450810231
1684179754349427400,9.672827880859376,0.9108414055425036,0.17839336396321873,1.256675958577075
1684179754359468500,9.682868896484376,0.7427086830301233,0.20121860495627586,1.0576426984033156
1684179754369509600,9.692909912109377,0.6543790698087911,0.13564682009305154,0.8513392211155207
1684179754379550900,9.702951416015624,0.6450340747811365,0.11091995244274414,0.6476882695805425
1684179754389592000,9.712992431640624,0.7059823275018826,0.017116546629021033,0.5689550638427269
1684179754399633100,9.723033447265625,0.7995637654733511,-0.05717182161138585,0.505820870436085
1684179754409674200,9.733074462890626,0.874048590738663,-0.09052753463748392,0.501469612017629
1684179754419715600,9.743115966796877,0.9120152592732592,-0.06877136227614843,0.5484899283415736
1684179754429756600,9.753156982421874,0.8610333801378169,-0.006377220076994413,0.5917541979649589
1684179754439797600,9.763197998046875,0.7933666706541227,0.05116939531761364,0.6119363307418524
1684179754449839000,9.773239501953125,0.6688417195964249,0.02508354187254389,0.6448258161076617
1684179754459880100,9.783280517578126,0.5929061173139921,0.018240928544821917,0.6686214208557113
1684179754469921200,9.793321533203123,0.5464645622838864,0.04018497459094244,0.6381576060973443
1684179754479962300,9.80336279296875,0.4817140698477377,0.06457614905986883,0.5630773304702302
1684179754490003600,9.813404052734375,0.46069049851386484,0.07226753243168064,0.4575799703264206
1684179754500044600,9.823445068359376,0.4234545231230614,0.05382537859232484,0.3700714110905021
1684179754510086100,9.833486572265626,0.4003908037961936,0.061913490381295934,0.2844669818402692
1684179754520127200,9.843527587890623,0.35980075593932376,0.043836593635162645,0.20996129515549275
1684179754530168200,9.853568603515624,0.3206616044657637,-0.0385503770186859,0.14425778393499403
1684179754540209300,9.863609619140624,0.28763145203135776,-0.09904289236046264,0.12130689614266543
1684179754550250600,9.873651123046876,0.19597321742160487,-0.10908699029652,0.11217939859417733
1684179754560291800,9.883692138671876,0.1269810794938516,-0.13328647619954445,0.1288799046987746
1684179754570332800,9.893733154296877,0.007116377430954745,-0.1643543244343708,0.1621621846366088
1684179754580374200,9.903774658203124,-0.09777796273979002,-0.11861324324193794,0.2548943758785004
1684179754590415300,9.913815673828124,-0.1506043673575785,-0.10368728630932127,0.392153262967708
1684179754600456400,9.923856689453125,-0.17679214476222954,-0.023980140643819464,0.5230605601926107
1684179754610497500,9.93389794921875,-0.16449987872015792,0.02952957158374593,0.6638231278832369
1684179754620538800,9.943939208984377,-0.14047276988109625,0.0855131149298237,0.8476799726539357
1684179754630579900,9.953980224609374,-0.14384651171142646,0.08652591708098324,0.9977093934626027
1684179754640621000,9.964021484375,-0.16103571651866683,0.10669803621572772,1.128531575257186
1684179754650662300,9.974062744140625,-0.17822980877711606,0.11966896060277203,1.256916522975973
1684179754660703400,9.984103759765626,-0.2149714231111135,0.15644264211259737,1.4042394159914091
1684179754670744600,9.994144775390623,-0.22577136753330748,0.22170639048708424,1.5009250639737528
1684179754680785600,10.00418603515625,-0.27979928262737513,0.23419094078813832,1.570871710863303
1684179754690826900,10.014227294921875,-0.33623808615902134,0.2107515334798597,1.6785979271517588
1684179754700868000,10.024268310546876,-0.3683495522061067,0.20579051968805412,1.7319481373773298
1684179754710909100,10.0343095703125,-0.4332630037519083,0.23141002657946697,1.7366508245511885
1684179754720950400,10.044350830078123,-0.49715542798683304,0.2531499861550127,1.7424991129788348
1684179754730991600,10.054391845703124,-0.5290623902320035,0.28680992124041715,1.7147476673414634
1684179754741032600,10.06443310546875,-0.5547853707938029,0.3108034134847402,1.6431140898968108
1684179754751073600,10.07447412109375,-0.5404318572786416,0.33475494372491876,1.4894528389219464
1684179754761115100,10.084515380859376,-0.5502110124786753,0.2919235229482255,1.2952029705474226
1684179754771156100,10.094556640625,-0.5096870659938233,0.2717380523984123,1.1703563928759355
1684179754781197200,10.10459765625,-0.47718036170543576,0.23092746741561107,1.0124530793208883
1684179754791238600,10.114638916015624,-0.3913251757549993,0.23337745662564516,0.9113631247693715
1684179754801279600,10.12468017578125,-0.3031074403747767,0.21013164532644069,0.8127619029405851
1684179754811320800,10.13472119140625,-0.20170551538488565,0.1851177216378237,0.8181415796946945
1684179754821361800,10.14476220703125,-0.11173641695279213,0.1347131727761486,0.8266518116355984
1684179754831403200,10.154803466796874,-0.0501138568848422,0.12519359595662416,0.8334666490239836
1684179754841444300,10.1648447265625,0.0020325780434296684,0.17467975604204897,0.8198182583015593
1684179754851485400,10.1748857421875,-0.018996477104187302,0.23749828339221749,0.7841764688399451
1684179754861526600,10.184927001953126,-0.06717926258903263,0.24043464665413078,0.7997857331741463
1684179754871567800,10.19496826171875,-0.09219962353349151,0.17749500292581738,0.8095546960942014
1684179754881608900,10.20500927734375,-0.10130292180882007,0.16277217870897065,0.8628741503165529
1684179754891650000,10.21505029296875,-0.09706407775891016,0.1954765320682737,0.84376025192
1684179754901691300,10.225091796875,-0.08392167078379628,0.2560291289881218,0.8193936348607481
1684179754911732400,10.2351328125,-0.0687113403539026,0.31800556172901806,0.8456914425360897
1684179754921773600,10.245173828125,-0.09835457791607807,0.30363941195326916,0.8271007538971877
1684179754931814600,10.255215087890624,-0.11761224276763309,0.25189208985096945,0.7761021853629199
1684179754941855900,10.26525634765625,-0.1620211601955126,0.16340446471272504,0.7569751739371524
1684179754951897000,10.27529736328125,-0.15352016692084877,0.11644840238081444,0.7808017730305405
1684179754961938100,10.28533837890625,-0.15217673766967024,0.09379386897423439,0.7571645975535489
1684179754971979200,10.295379638671877,-0.13139927388477493,0.031517028664893795,0.7598029375002302
1684179754982020600,10.3054208984375,-0.1360037327817185,0.007985114981758069,0.8141486644526267
1684179754992061600,10.3154619140625,-0.11132478709807553,0.006027221847492991,0.8599969148857207
1684179755002102600,10.325503173828125,-0.10988652710655883,0.03699207287471294,0.9136320352520554
1684179755012144000,10.33554443359375,-0.08936196564696115,0.08850860593970768,0.9370880127119339
1684179755022185100,10.34558544921875,-0.09733825929514056,0.1767368316555529,0.9452840090756053
1684179755032226200,10.355626708984374,-0.14254963410061386,0.21871948250077644,0.9952032565388036
1684179755042267300,10.365667724609375,-0.16522198917679856,0.2152547835927833,1.0414420365969699
1684179755052308600,10.375708984375,-0.17219042776754664,0.1859979629126842,1.1217584609349502
1684179755062349700,10.385750244140626,-0.141866147491913,0.12430572516712898,1.2255945205662873
1684179755072390800,10.395791259765623,-0.08588737246954493,0.004839897088400728,1.3285686970786599
1684179755082431900,10.405832275390624,-0.011328220323583788,-0.11729526511030795,1.3974280359186062
1684179755092473300,10.415873779296875,0.07849740963648287,-0.1761999129617853,1.4515796901326095
1684179755102514400,10.425914794921876,0.19179874671311228,-0.2224493026475371,1.474793076628553
1684179755112555400,10.435955810546876,0.233028829008173,-0.2516050339080982,1.4725127219461458
1684179755122596800,10.4459970703125,0.2380177975443709,-0.2663059235841699,1.4338736533573313
1684179755132637900,10.456038330078124,0.20464515681476028,-0.3068284987504665,1.3760824202055972
1684179755142679000,10.466079345703124,0.19729751350100488,-0.3797864913190154,1.313634633962135
1684179755152720000,10.476120361328125,0.19770014281387974,-0.46809387211174036,1.3101013898728118
1684179755162761400,10.486161865234376,0.2558177709298176,-0.6326351165499863,1.2940509319895417
1684179755172802600,10.496202880859377,0.35192340618543116,-0.9097843169663098,1.235252022618304
1684179755182843600,10.506243896484374,0.3931195735126882,-1.2578430175263942,1.1967817545225823
1684179755192884900,10.516285400390624,0.38658106327065117,-1.4592266082152778,1.0879999399870957
1684179755202926000,10.526326416015625,0.4002640842922306,-1.4928369521759184,0.8259727954335702
1684179755212967100,10.536367431640626,0.3528283835917139,-1.323559760922987,0.5096617936048933
1684179755223008200,10.54640869140625,0.2782418131685056,-0.9778509139198115,0.09150266637020878
1684179755233049600,10.556449951171874,0.17569738628346065,-0.587650299073872,-0.2685199974876647
1684179755243090600,10.566490966796875,0.10715430985004729,-0.17945384985275123,-0.6204575300979848
1684179755253131600,10.576531982421876,0.02759760622003316,0.21943855281024255,-0.8378101586962373
1684179755263173000,10.586573486328126,-0.05068939933457874,0.5253219604054452,-0.9478120804215581
1684179755273214100,10.596614501953123,-0.13493901482373447,0.716652870097588,-1.0309318304652377
1684179755283255200,10.606655517578124,-0.16430142522549132,0.7978906631468237,-0.8972606657813209
1684179755293296300,10.61669677734375,-0.24872657646291801,0.8378896713472661,-0.8285549282182855
1684179755303337600,10.626738037109376,-0.3484808207216804,0.8431024552139709,-0.5867308378300591
1684179755313378700,10.636779052734376,-0.5325739980501271,0.7960624694054702,-0.3789016006773779
1684179755323419800,10.6468203125,-0.8707903027538082,0.6771335601664875,-0.11955761927913035
1684179755333460900,10.656861328125,-1.296000361442515,0.596834182786147,-0.01967740059242326
1684179755343502300,10.666902587890624,-1.8191170691694456,0.46368122105814785,-0.14000034321755045
1684179755353543300,10.67694384765625,-2.38279867181841,0.1956262587944627,0.01254391667479608
1684179755363584400,10.68698486328125,-2.900184154534832,-0.14208316790182204,0.29093611243868
1684179755373625600,10.69702587890625,-3.210994243516381,-0.384777069080889,0.45479083057656366
1684179755383666900,10.7070673828125,-3.117462158176091,-0.4093351363162437,0.4571887255943189
1684179755393708000,10.7171083984375,-2.787882089771191,-0.34648799896782945,0.40767180910747575
1684179755403749000,10.7271494140625,-2.420757770528146,-0.27391719811836074,0.2853621244318584
1684179755413790400,10.737190673828126,-2.051044464032341,-0.20881843565957967,0.021014332784788564
1684179755423831600,10.74723193359375,-1.696309685720655,-0.16556549075038818,-0.2309428453400688
1684179755433872600,10.75727294921875,-1.3448137045370427,-0.1033258437883186,-0.5894949436255106
1684179755443913600,10.76731396484375,-0.8974453210911115,-0.012228965919772508,-1.022920250845154
1684179755453955000,10.77735546875,-0.3389527500008898,0.031578063857697077,-1.4026987551984733
1684179755463996100,10.787396484375,0.292335212224559,0.11947536460356076,-1.7892371415304027
1684179755474037200,10.7974375,0.9289567470631431,0.21382236481109074,-2.0805859564354536
1684179755484078600,10.80747900390625,1.398899912849191,0.18127918235985824,-2.1582522392549826
1684179755494119600,10.81752001953125,1.6674985884431044,-0.02808761600208424,-1.9476127623996613
1684179755504160600,10.82756103515625,1.621859192842667,-0.37101936337717334,-1.7755169870118757
1684179755514201800,10.837602294921876,1.5044101477247012,-0.7586746215289903,-1.519961118652971
1684179755524243100,10.8476435546875,1.4042499067037293,-0.9654703140728819,-1.2909269333075217
1684179755534284200,10.8576845703125,1.2059550285512788,-1.0741090774859976,-1.0381057261531412
1684179755544325300,10.8677255859375,1.129614114840798,-1.0148830413672996,-0.6639653444232176
1684179755554366400,10.877766845703125,1.0238866804880353,-0.8601779936531068,-0.21842837333548978
1684179755564407600,10.88780810546875,0.7124227881095914,-0.6067199707154122,0.1535722018799699
1684179755574448800,10.89784912109375,0.4721765517571556,-0.3158531188835333,0.3538795710825986
1684179755584489900,10.907890380859374,0.47971576442293085,0.04039764401650097,0.4073715210922845
1684179755594531000,10.917931396484375,0.6283347009559982,0.39508438095153553,0.3662676811802482
1684179755604572300,10.92797265625,0.7818578482445301,0.7437620161595326,0.2693164347588746
1684179755614613400,10.938013916015626,0.9655826687806482,0.9887371063168974,0.26321482659988893
1684179755624654600,10.948054931640623,1.2245924473050747,1.1375589370673957,0.27935886372054225
1684179755634695900,10.95809619140625,1.452134370818533,1.1621599197634516,0.2750698328064287
1684179755644736900,10.968137451171875,1.5064764022707915,1.1227493286631065,0.2743190526868132
1684179755654778000,10.978178466796876,1.4802064894232825,0.9741020202897474,0.3070785999398607
1684179755664819100,10.988219482421876,1.374738216483488,0.7880830764551688,0.3146311044960655
1684179755674860500,10.9982607421875,1.1493798494135878,0.5741939545872095,0.37968730916355053
1684179755684901600,11.008302001953124,0.8531429767458609,0.3990459442677921,0.37493467336196307
1684179755694942600,11.018343017578124,0.5694555044414431,0.3052091598532019,0.33916878713425436
1684179755704983700,11.028384033203125,0.2723938225797533,0.21805572503287662,0.24920248993252467
1684179755715025100,11.038425537109376,-0.02222836011027191,0.16818332668680017,0.18997883799885695
1684179755725066200,11.048466552734377,-0.3808373213817501,0.09294033053939169,0.048714160845096555
1684179755735107200,11.058507568359374,-0.6860879659029098,0.02079200751248922,-0.12171339977353413
1684179755745148300,11.068548828125,-0.7805695534164504,-0.017014503424493614,-0.406959175979976
1684179755755189600,11.078590087890625,-0.7233837843175601,0.020663261517486178,-0.6949241160878008
1684179755765230800,11.088631103515626,-0.4604555369687013,0.06533145910359492,-0.8682093620743843
1684179755775271900,11.09867236328125,-0.25553572173989203,0.11312961590455431,-1.1343250275717438
1684179755785313200,11.108713623046874,-0.15789246577023056,0.19062423692167965,-1.2867047786213053
1684179755795354300,11.118754638671875,-0.04482424266687598,0.27881050123799034,-1.445517778336983
1684179755805395400,11.128795654296876,0.10395801070594528,0.3231296539493457,-1.6080689429204607
1684179755815436500,11.1388369140625,0.12162780758444916,0.3358602524005475,-1.7261933089006052
1684179755825477800,11.148878173828123,0.11843240251683669,0.5198659896631317,-1.6587369442477753
1684179755835518900,11.158919189453124,0.16885709770637922,0.6717472075020283,-1.5879813433983117
1684179755845560000,11.16896044921875,0.24986517424133145,0.7199106216894822,-1.3605786563384492
1684179755855601100,11.17900146484375,0.27360951894341307,0.6883020399411793,-1.1539690494807178
1684179755865642400,11.189042724609376,0.20773482316132114,0.5862493515171544,-0.8997547625247716
1684179755875683600,11.199083984375,0.16594374175262291,0.4589385986271451,-0.6390516757862439
1684179755885724600,11.209125,0.14819872384520724,0.3684520721671856,-0.4866944552625922
1684179755895765600,11.219166015625,0.16795396801565418,0.3623170852155279,-0.3694686890504708
1684179755905807000,11.22920751953125,0.20713806155872305,0.3493690490931922,-0.30571079244250476
1684179755915848100,11.23924853515625,0.19589257247146094,0.2863054275340907,-0.12266325938282492
1684179755925889200,11.24928955078125,0.08295643331867084,0.2611646652158477,0.11168122294746277
1684179755935930600,11.2593310546875,-0.11349964133624525,0.21861743910019282,0.24650979056987765
1684179755945971600,11.2693720703125,-0.27408015733108526,0.17062854774812,0.4322779179087319
1684179755956012600,11.2794130859375,-0.38893842709375914,0.1791467666335716,0.6785013676634015
1684179755966053800,11.2894541015625,-0.36292338370193383,0.28005313880540994,0.9166471957267491
1684179755976095200,11.29949560546875,-0.12061119083896935,0.46940040600282845,0.8856062887866005
1684179755986136200,11.30953662109375,0.15119779113572943,0.669540405346606,0.6444089412093158
1684179755996177300,11.31957763671875,0.21369123444334656,0.7516841889697065,0.43324685110341177
1684179756006218400,11.329618896484376,0.1366972923044912,0.7100124357694841,0.32288169853546494
1684179756016259800,11.33966015625,0.04128837575806976,0.5962753296020399,0.05634760848287916
1684179756026300800,11.349701171875,-0.08431983001736981,0.5369911194015993,-0.2167038917439555
1684179756036341900,11.359742431640624,-0.32321631908210485,0.4555768966567062,-0.3694453239689444
1684179756046383000,11.369783447265624,-0.6655544043144839,0.3187856674703721,-0.5067317485019242
1684179756056424400,11.37982470703125,-0.9869108200077865,0.2082824707421518,-0.546117544306832
1684179756066465500,11.389865966796876,-1.220694303563429,0.12920379632700477,-0.4648699761567706
1684179756076506600,11.399906982421877,-1.3843036889185567,0.12257099155981259,-0.37395381924849735
1684179756086547900,11.4099482421875,-1.4069187641399448,0.25308322908916875,-0.21502971639037743
1684179756096589000,11.4199892578125,-1.256604075397,0.4251594543307504,-0.03341865531859785
1684179756106630100,11.430030517578125,-1.0164077283091026,0.7033348083640593,0.17514824863583278
1684179756116671200,11.440071533203126,-0.7689810991724388,1.0495901108073942,0.1607866287990305
1684179756126712200,11.450112548828123,-0.4770926235570628,1.3232917785781508,0.13536286362505734
1684179756136753600,11.460154052734374,-0.25083398807094254,1.3168773651195846,0.09680271150334363
1684179756146794600,11.470195068359375,-0.03508830055965031,0.9281883239789742,0.020987749102237493
1684179756156835800,11.480236083984376,0.3761023281727242,0.2126808165421462,0.007449626789347656
1684179756166877100,11.490277587890626,0.615473985690836,-0.6359701156841526,-0.05500078213564038
1684179756176918200,11.500318603515623,0.47034132492115877,-1.4340066910633074,-0.0732862949631989
1684179756186959300,11.510359619140624,0.08556544774788787,-2.186720848067062,-0.23058700571221336
1684179756197000400,11.52040087890625,-0.13882076747604818,-2.8445463181502744,-0.3949322700192908
1684179756207041600,11.530442138671877,-0.12467575079622115,-3.6995401382693425,-0.30829119694636725
1684179756217082800,11.540483154296876,-0.8293495177564281,-4.849749565127658,-0.3432205914582701
1684179756227123900,11.550524169921877,-3.4085750580785397,-6.1604099273585975,-0.4325072765110662
1684179756237165000,11.5605654296875,-5.107507705615793,-5.630054473867062,0.39058768755242457
1684179756247206300,11.570606689453124,-2.392708301575845,-1.8435258865603221,0.5465677976707237
1684179756257247400,11.580647705078125,0.27900516973177936,0.5605678558284142,0.14519643780261998
1684179756267288600,11.59068896484375,2.114306211530183,1.452308654692902,-0.18277168283877127
1684179756277329600,11.60072998046875,3.039510726918845,1.7338504789930567,-0.548869132946256
1684179756287370900,11.610771240234374,2.9160957337026283,1.9541931152411907,-0.7942554950308134
1684179756297412000,11.6208125,2.488927364372696,2.3086967468015347,-0.9834563732768313
1684179756307453100,11.630853515625,2.1365890501682725,2.606139183139553,-1.1079521180460221
1684179756317494400,11.640894775390626,1.9096114635950003,2.720552444434641,-1.1282262802027576
1684179756327535600,11.65093603515625,1.8395926951196961,2.4667425155749267,-1.0746104716738492
1684179756337576600,11.66097705078125,1.8742861747858885,1.9204177856328468,-0.9835342766783522
1684179756347617600,11.67101806640625,1.8064007758686558,1.3383235931561146,-0.8998872040502075
1684179756357658800,11.68105908203125,1.637906312872028,0.8614377976138761,-0.8394179940609771
1684179756367700100,11.6911005859375,1.3279286623180433,0.51303958885363,-0.8007888197285641
1684179756377741200,11.7011416015625,0.5361453293261803,0.08472347264608064,-0.9478344916678557
1684179756387782300,11.7111826171875,-0.14577907322681835,-0.555124282745335,-0.9934955238381753
1684179756397823600,11.72122412109375,-0.46574932325092716,-1.1059894563619852,-0.9156134128484295
1684179756407864800,11.73126513671875,-0.5459588767977891,-1.327864646990169,-0.8602896929891227
1684179756417905800,11.74130615234375,-0.4193351268415798,-1.2173957824719353,-0.8550581336400663
1684179756427946900,11.751347412109377,-0.00019389390318769767,-0.7226142883218496,-0.9549828767232091
1684179756437988300,11.761388671875,0.6252953411247518,-0.14390373223511999,-1.1066882609676907
1684179756448029400,11.7714296875,1.3066455126928886,0.13068008420259933,-1.060707449881931
1684179756458070400,11.781470947265625,1.9134182930224315,0.25034618377908885,-0.8134828209624256
1684179756468111600,11.791511962890626,2.1807966232383347,0.30592346200938403,-0.5853779913339173
1684179756478152900,11.80155322265625,2.1968436241719833,0.32575893412726875,-0.47308218476068015
1684179756488194000,11.811594482421874,2.087822914115783,0.35737705245129353,-0.48311913012226787
1684179756498235100,11.821635498046875,2.035010337908724,0.3310804367794589,-0.3824758530355835
1684179756508276100,11.831676513671876,1.9957696198961556,0.3016271591800168,-0.2428168057924311
1684179756518317600,11.8417177734375,2.0059101580700376,0.25959968551674606,-0.26258540152110665
1684179756528358600,11.851759033203123,2.0450778007044947,0.15985298165562836,-0.2859168051547063
1684179756538399600,11.861800048828124,1.9861400126925823,0.03598117829295179,-0.3324686287816505
1684179756548441000,11.87184130859375,1.8588650228047496,-0.04287910452026569,-0.44641542444361815
1684179756558482100,11.881882568359377,1.6755115987301554,-0.12235164641176385,-0.5873304606196027
1684179756568523200,11.891923583984376,1.4758257864521542,-0.15935325613979984,-0.8324867488323624
1684179756578564300,11.901964599609377,1.2758599519623701,-0.1800146103206044,-1.0622599124664553
1684179756588605400,11.912005859375,1.1910284759323784,-0.14356136327896274,-1.2032681702617276
1684179756598646600,11.922047119140624,1.1272461415102621,-0.1335849761989596,-1.2857254743447086
1684179756608687800,11.932088134765625,1.0331094265107215,-0.08531665810669034,-1.422783374954118
1684179756618728900,11.94212939453125,0.7595109938679268,-0.010543823376157299,-1.5836899281024452
1684179756628770200,11.952170654296877,0.25697067371469307,0.07170677175258264,-1.7168486118235307
1684179756638811300,11.962211669921874,-0.38122540698734697,0.14712619789754447,-1.7550997734131752
1684179756648852400,11.972252685546875,-0.9217572212791011,0.19193172458940894,-1.601430892811706
1684179756658893600,11.9822939453125,-1.1397600175079452,0.20406627652558096,-1.2425396440790324
1684179756668934800,11.992335205078126,-0.9429020880913251,0.19804000846937467,-0.7611216306904541
1684179756678975900,12.002376220703123,-0.45527362811499833,0.21896839133652093,-0.23349714269031238
1684179756689017000,12.01241748046875,0.1056541205033796,0.25683975233703304,0.24323582632295873
1684179756699058100,12.02245849609375,0.5291566847720334,0.29463195812548315,0.5561830996422491
1684179756709099400,12.032499755859376,0.8432797790812226,0.31785106670041846,0.7698128223835864
1684179756719140600,12.042541015625,1.0630921124528663,0.33126640316762657,0.9107477664633737
1684179756729181600,12.05258203125,1.1566418408724954,0.29671764362910147,0.9604842661836083
1684179756739222600,12.062623046875,1.1830942629977774,0.2692661285363317,1.000844359402079
1684179756749264000,12.07266455078125,1.1253117322585864,0.2536516188779245,1.067865610171784
1684179756759305100,12.08270556640625,1.007051229476762,0.2091865539343135,1.0993278024753113
1684179756769346200,12.09274658203125,0.8547341227516646,0.21703624726413268,1.1354985236310635
1684179756779387300,12.10278759765625,0.640725612534409,0.15032386784048668,1.1560745239939114
1684179756789428600,12.1128291015625,0.36460828767802156,0.16193103790824523,1.047503352264502
1684179756799469700,12.1228701171875,0.1274484395297488,0.16109180450677765,0.7339189052301641
1684179756809510800,12.1329111328125,-0.07080018537101203,0.09085178375148421,0.42252731328248866
1684179756819551900,12.142952392578126,-0.21714070436809568,0.05661201466963608,0.2044298647420364
1684179756829593300,12.15299365234375,-0.3091650307056114,0.0201015473667636,0.014778017841345591
1684179756839634400,12.16303466796875,-0.37796333432525225,-0.06157302850250991,-0.19869971277453355
1684179756849675400,12.173075927734375,-0.4159357548141954,-0.09023475646481538,-0.34691941738600013
1684179756859716800,12.1831171875,-0.3942131697995961,-0.09934711448481247,-0.44632148741598504
1684179756869757900,12.193158203125,-0.334497988317445,-0.12239742272516026,-0.4828532933152323
1684179756879799000,12.203199462890623,-0.2355309128488241,-0.07819366457068805,-0.5066264271788453
1684179756889840000,12.213240478515624,-0.1442716123017136,0.004500389066402391,-0.4805742503285013
1684179756899881400,12.22328173828125,-0.04760622966315998,0.08733177179937066,-0.3757593632369459
1684179756909922600,12.233322998046877,0.039608001724177055,0.1439638138081607,-0.2641922233994418
1684179756919963600,12.243364013671876,0.12196254740476226,0.18160152446800473,-0.10051417350836475
1684179756930004600,12.253405029296877,0.1825903057231002,0.19305992120684135,0.03601062306743257
1684179756940046000,12.2634462890625,0.24286234365243306,0.15443897237535176,0.21658110613378323
1684179756950087100,12.273487548828124,0.27660012246710275,0.1637268067062011,0.38335621352528026
1684179756960128200,12.283528564453125,0.29851615411487903,0.18489646905386123,0.4924845695702094
1684179756970169300,12.293569580078126,0.31174004075729683,0.23940372469926838,0.5626204014197743
1684179756980210600,12.303611083984377,0.3141111135681191,0.24352073657378842,0.6337494851090428
1684179756990251600,12.313652099609374,0.3390221000304077,0.2570066452085338,0.6573951244297731
1684179757000292800,12.323693115234375,0.35502344361482935,0.1794672011585912,0.6307659148794926
1684179757010333900,12.333734375,0.3302113413623279,0.1710653305243351,0.5371189116565455
1684179757020375200,12.343775634765626,0.3023869991880731,0.1576070785557603,0.33163857460259155
1684179757030416300,12.353816650390623,0.2644652127931704,0.0795345305944301,0.11607205864377725
1684179757040457400,12.36385791015625,0.23379063611442075,0.06137561792209574,-0.10341733697514754
1684179757050498700,12.373899169921875,0.1917905806485868,0.11026000975525295,-0.24485051624513413
1684179757060539800,12.383940185546876,0.1817519068870974,0.1401338578595871,-0.31009948256070097
1684179757070580900,12.393981201171876,0.19857680797024843,0.1892967223596558,-0.3368480802629003
1684179757080622000,12.4040224609375,0.24127012485820826,0.24097537989444784,-0.30760908111964713
1684179757090663100,12.4140634765625,0.2592144608426261,0.31421279912529826,-0.1986689568334635
1684179757100704400,12.424104736328124,0.29596006860887425,0.28475284578969123,0.0013142824584788369
1684179757110745600,12.43414599609375,0.32803970581630115,0.3247728346849134,0.21767950060141406
1684179757120786600,12.44418701171875,0.35322606549926344,0.28596115105665615,0.4758148788766199
1684179757130828000,12.454228271484377,0.39577990774116756,0.21143054958770155,0.7697823643081004
1684179757140869000,12.46426953125,0.43010711667392354,0.041566848796367475,0.9984992147650312
1684179757150910100,12.474310546875,0.514208972372574,-0.16606807699007725,1.2331273554859687
1684179757160951200,12.4843515625,0.6310997604903735,-0.43052959448098466,1.4038300513445068
1684179757170992300,12.494392822265626,0.7460075618029199,-0.6634130479393822,1.53447198871132
1684179757181033600,12.50443408203125,0.8282639979784793,-0.7909030914912467,1.6132669449347725
1684179757191074700,12.51447509765625,0.8953990341032477,-0.9231967924461935,1.6909731626587303
1684179757201115800,12.52451611328125,0.8973888756232004,-1.0507469177051094,1.8243950605716963
1684179757211157200,12.5345576171875,0.9569912553017741,-1.2332992553165119,2.0139768123823947
1684179757221198300,12.5445986328125,0.9816542267483077,-1.3800277710351556,2.1855809688652297
