time,seconds_elapsed,z,y,x
1683986465698838400,0.04423876953125,-7.353807438116626e-11,1.653632913195871e-11,-5.916086052082348e-11
1683986465708879600,0.054280029296875,-0.6716372370332845,0.17098379135320171,1.0297346115931365
1683986465718920600,0.064321044921875,-1.1186144351906668,0.5004606247404036,2.414087295629087
1683986465728961600,0.074362060546875,-0.7825078963368173,1.0755314826197278,2.714982032779391
1683986465739002600,0.08440283203125,-0.14783042666250712,1.4105596543214884,1.8142051696697716
1683986465749043600,0.094444091796875,0.3911677002308745,1.8808875082556609,0.3395137787453899
1683986465759084600,0.104485107421875,2.0367870332471556,2.8320708276515845,-1.2109565736048298
1683986465769125800,0.114526123046875,0.4168424605980265,2.3387796879623712,-1.0086784362286338
1683986465779166900,0.1245673828125,0.2708994150169007,1.8089408875342747,-0.3478479386274107
1683986465789208000,0.1346083984375,-0.5691189767444261,3.131477117589813,-0.07456588750379327
1683986465799248800,0.144649169921875,-1.2848849298214793,4.122348308550719,0.7853374479929593
1683986465809289900,0.154690185546875,-2.6483407019627117,4.307022571509287,0.812130927924167
1683986465819331000,0.1647314453125,-4.447073459621823,4.315684795354818,-1.5403442383700634
1683986465829372100,0.1747724609375,-3.7375850677187716,3.172165155350009,-3.5560445785967465
1683986465839413200,0.1848134765625,-2.177425146047641,1.9066616296863328,-5.6397347450947555
1683986465849454300,0.194854736328125,-0.004476115036453634,1.2389446495686982,-6.24685096739088
1683986465859495300,0.204895751953125,2.6093173025834275,0.8474310636307002,-6.058409690962567
1683986465869536200,0.2149365234375,4.5257797240274815,0.43953227988397153,-5.228685379004735
1683986465879577300,0.224977783203125,5.3409109116239275,0.1586687564264205,-4.588408470089731
1683986465889618400,0.235018798828125,3.7039098739478957,-0.24227660890746935,-5.73679351800262
1683986465899659400,0.245059814453125,0.2946081460931736,0.011581599711572736,-6.971517562935161
1683986465909700600,0.255100830078125,0.3373076915741464,-1.3355472086121158,-5.871423721328683
1683986465919741600,0.26514208984375,0.4312465786355152,-3.2705821990375634,-5.434841632708034
1683986465929782600,0.27518310546875,2.358721733048644,-3.6304345129113886,-4.118303298978698
1683986465939823800,0.28522412109375,3.167433023376801,-3.685887813419369,-3.562923908267514
1683986465949864600,0.29526513671875,3.399933576660808,-2.811260223251277,-3.9041986464825285
1683986465959905600,0.30530615234375,5.635111331808013,-4.309672355465032,-3.796157360021003
1683986465969946800,0.31534716796875,7.314980506837013,-5.360684394819681,-2.90587425240787
1683986465979987900,0.32538818359375,7.959104061222,-6.806053638433142,-2.9997901915349745
1683986465990029000,0.335429443359375,6.216075420526129,-6.830496311007536,-2.5917720794193664
1683986466000070100,0.345470458984375,1.966406226190478,-10.947522163342022,2.330533981359328
1683986466010110900,0.35551123046875,-1.42956018444327,-8.437439918575416,-0.03210353844623747
1683986466020152000,0.365552490234375,-1.8033605814148037,-3.625016450899658,-1.3065996169633185
1683986466030193100,0.375593505859375,-0.600800156665079,-1.3463861943254154,-1.4348473548282694
1683986466040234200,0.385634521484375,0.9711738229387274,-1.3739891052569306,-0.6303548812873608
1683986466050275200,0.395675537109375,1.2977532149022466,-1.1552844048383437,0.40177154541307947
1683986466060316300,0.405716796875,1.097482204567513,0.08429396143595305,1.2116880417447915
1683986466070357400,0.4157578125,0.6311590672944257,-0.29447418453592783,4.549134254508008
1683986466080398600,0.425798828125,0.411024212899699,-3.271452426920418,8.643829345590591
1683986466090439300,0.43583984375,1.5498548746069367,-3.581796169341989,8.963164329389363
1683986466100480400,0.445880859375,3.229482173930475,-3.5212249755715153,8.324696540873381
1683986466110521600,0.455921875,2.8738815784818033,-4.024473190296674,4.38455867780097
1683986466120562600,0.465962890625,0.8184069394787172,-4.435410976398533,1.9835538864750057
1683986466130603600,0.476004150390625,0.8433771133095349,-3.7646560668795206,1.4333782196140152
1683986466140644800,0.486045166015625,1.6340398788548265,-3.0252785682943104,1.430271148822429
1683986466150685900,0.496086181640625,2.0296065807871737,-1.891404867203877,1.254577636632187
1683986466160727000,0.50612744140625,2.051248311998439,-1.2352683544122958,2.123620033149963
1683986466170767800,0.516168212890625,1.096406459917525,-0.23121309287699546,2.180612564101921
1683986466180808900,0.526209228515625,0.19613182547723584,-0.9769301414329413,3.5098590849074536
1683986466190850000,0.53625048828125,0.102341830692092,-1.002381801665062,3.784323692333621
1683986466200891100,0.54629150390625,0.179735541179477,-0.9042861462504609,4.0416202545712085
1683986466210932100,0.55633251953125,0.31403362753228137,-0.858395576385005,4.1283798218776
1683986466220973200,0.56637353515625,0.6358908414097115,-1.0404684543262996,3.820393562435556
1683986466231014100,0.57641455078125,1.0237947702541628,-1.3160579204892506,3.1888942717354336
1683986466241055200,0.58645556640625,1.21694576750656,-1.6139712334395895,2.1761894225278104
1683986466251096200,0.59649658203125,1.1642309426966886,-1.8071843386555095,0.975695610156287
1683986466261137300,0.606537841796875,0.9940093159187833,-1.7993297576953777,-0.6412057877810765
1683986466271178400,0.616578857421875,0.7930003404346099,-1.5936315059888952,-2.2508478166161807
1683986466281219600,0.626619873046875,0.5779481528844167,-1.439965367322791,-3.3710956575118782
1683986466291260600,0.636660888671875,0.45275437825954346,-1.1699781417770607,-4.324183940764297
1683986466301301600,0.6467021484375,0.34334027759143987,-0.7461765409066035,-5.188917636891713
1683986466311342600,0.656742919921875,0.0691013337508743,-0.33562904602729043,-5.404712200167038
1683986466321383600,0.666783935546875,-0.13399726161559342,0.023256748936386032,-5.342492580347877
1683986466331424600,0.6768251953125,-0.2193743438668015,0.3245070576906319,-5.356390476338815
1683986466341465800,0.6868662109375,-0.20203784097655142,0.5260341762030591,-5.436240673058913
1683986466351506900,0.6969072265625,0.0049066841906084836,0.7241815328748904,-5.524367332438028
1683986466361548000,0.7069482421875,0.2259372174460881,0.8723758459900859,-5.483057498775429
1683986466371589000,0.716989501953125,0.36332184084929453,0.6624577641686884,-5.126121521013616
1683986466381630100,0.727030517578125,0.5415377616317671,0.29327791938898057,-4.413436412809802
1683986466391671000,0.7370712890625,0.630348801632559,-0.017330884788182094,-3.848083496052564
1683986466401712000,0.747112548828125,0.25218641753507953,-0.4687309265922907,-3.3250865936207905
1683986466411753100,0.757153564453125,0.14025366305711304,-0.9483311175929654,-2.4701719284198123
1683986466421794200,0.767194580078125,0.287384748359235,-1.3630067110281239,-1.1207284927443035
1683986466431835300,0.777235595703125,0.15485453602207788,-1.7717075347272615,0.03382492070362328
1683986466441876400,0.78727685546875,0.3962051868041143,-1.9331619740267136,0.6992483140511236
1683986466451917600,0.79731787109375,0.667851686668318,-2.1439771653923967,1.1722412108216178
1683986466461958600,0.80735888671875,0.5910265445764044,-2.2930064200660336,1.1863708496823808
1683986466471999400,0.81739990234375,0.5090181827684823,-2.1792728901974736,0.7750825883001934
1683986466482040600,0.82744091796875,0.381924390776466,-1.8640935421367433,0.2308864594832892
1683986466492081600,0.83748193359375,0.2674391269720127,-1.4953236579554408,-0.41533279413719487
1683986466502122600,0.847523193359375,0.25935721392823863,-1.0816407203752691,-0.47235393508666174
1683986466512163800,0.857564208984375,0.47736954693937755,-0.857574701293226,0.39080142973253784
1683986466522204800,0.867605224609375,0.8208615778759929,-0.900329112887621,1.458859443613181
1683986466532245900,0.877646240234375,1.2123863695729136,-0.9256083966021078,2.1427240372281706
1683986466542287000,0.8876875,1.2279865741321647,-0.8125548364083615,2.257717132506605
1683986466552327900,0.897728271484375,1.2325813769866645,-0.8496613502556017,2.2163867950928733
1683986466562368900,0.907769287109375,1.3290930985843283,-0.8659386635260689,1.946193695019565
1683986466572410000,0.917810546875,1.2709741592219022,-0.7220129967086915,1.6889038086566803
1683986466582451100,0.9278515625,1.151333927969542,-0.5934953690025337,1.4858083724836184
1683986466592492200,0.937892578125,1.0220602751104022,-0.720412731272776,1.042346954274686
1683986466602533300,0.94793359375,0.8530362845021399,-1.0345282555833968,0.49920463558781863
1683986466612574400,0.957974853515625,0.8777030705028981,-1.1501479150229588,0.3553624153689193
1683986466622615200,0.968015625,0.8589258192797019,-1.0329880714685695,0.6194086074531956
1683986466632656300,0.978056640625,0.6446831226681126,-0.8460688591162896,0.7161059380418218
1683986466642697400,0.988097900390625,0.45546483997644177,-0.6821074485001815,0.6853127478752408
1683986466652738600,0.998138916015625,0.40564107889413054,-0.5669622421005831,0.4224214554362452
1683986466662779600,1.008179931640625,0.46971654887967446,-0.5565361976803505,-0.09699344633864049
1683986466672820600,1.018220947265625,0.7390239236836096,-0.7192997932791008,-0.6193819045649636
1683986466682861700,1.02826220703125,0.937173962523071,-0.6481213569498325,-0.5807104111721411
1683986466692902800,1.03830322265625,1.0197434425119618,-0.36552667623230534,-0.41677999501506735
1683986466702943600,1.048343994140625,0.8909612895439454,0.07490634923948603,-0.06832265858307138
1683986466712984800,1.05838525390625,0.6648041011070991,0.5806617737114826,0.46811532964448244
1683986466723025800,1.06842626953125,0.4522044658751627,1.0798673628610422,1.0804371833810376
1683986466733066900,1.07846728515625,0.35514974606024574,1.41106939313313,1.6068439483381267
1683986466743108000,1.08850830078125,0.2698084117752895,1.6201844215153918,2.066855907459325
1683986466753149100,1.098549560546875,0.2253109215984,1.771902561229657,2.5515060425807357
1683986466763190200,1.108590576171875,0.12529313548930726,1.8210172653256487,2.9194688796536394
1683986466773231300,1.118631591796875,-0.14949852232084185,1.899954795911175,3.1014800070935964
1683986466783272100,1.128672607421875,-0.5358932018758532,1.9217281341245487,3.3935551643812345
1683986466793313200,1.138713623046875,-0.9608049393734024,1.988336563041153,3.6230401992687074
1683986466803354300,1.148754638671875,-1.3608164787506776,2.2519426345826083,3.906385421825267
1683986466813395400,1.158795654296875,-1.6139148473157865,2.3858470916135963,4.052165985134419
1683986466823436500,1.1688369140625,-1.7904051541516979,2.508011817832601,3.80096864696564
1683986466833477600,1.1788779296875,-1.6311688423312396,2.3862547873994746,3.808434009618975
1683986466843518600,1.1889189453125,-1.3167587519492365,2.1029224394320525,3.8925805090408865
1683986466853559600,1.198960205078125,-0.791091322977461,1.7905550003257515,3.5181088448609312
1683986466863600800,1.209001220703125,-0.37533137194174293,1.6828031541225825,3.252845764236544
1683986466873641600,1.2190419921875,-0.29326337573489625,1.6285758019843484,2.8786077499528675
1683986466883682700,1.229083251953125,-0.4084415138614599,1.6825165748477096,1.949850559127329
1683986466893723800,1.239124267578125,-0.5373752116480939,1.7570943832586727,1.3989963531167706
1683986466903764900,1.249165283203125,-0.41862607006774133,1.7573442459573883,0.09819793708780826
1683986466913806000,1.259206298828125,-0.25317427518872615,1.628452300848103,-1.119224071370106
1683986466923847100,1.26924755859375,0.12072879068986468,1.328076839336167,-1.8265271187058474
1683986466933888200,1.27928857421875,0.5607353448244443,0.5604686738649999,-1.982333660220114
1683986466943929300,1.28932958984375,1.0139085055395474,-0.4811773299307279,-1.3547163010226713
1683986466953970400,1.299370849609375,0.9795154334239193,-1.1233153343529354,-0.3488082885948965
1683986466964011200,1.30941162109375,0.7461943625081385,-1.501259326783668,0.21981143966335193
1683986466974052300,1.31945263671875,0.2060202358677331,-1.7500963209610134,-0.20558404924497908
1683986466984093400,1.32949365234375,-0.5842163561525818,-1.594687461851946,-1.4141821862854829
1683986466994134400,1.339534912109375,-1.5255358219748214,-1.2938323021303757,-2.636423110977357
1683986467004175600,1.349575927734375,-2.2075138091654884,-1.13513231281062,-3.5866241455839263
1683986467014216600,1.359616943359375,-2.260977506582347,-1.0048871039611509,-4.010281562817202
1683986467024257600,1.369658203125,-1.628820776909925,-1.2403097153279825,-3.7392573356365806
1683986467034298600,1.379698974609375,-0.5133744477345002,-1.7909102438811684,-3.2215414047961075
1683986467044339600,1.389739990234375,0.6482424734975024,-2.4390344620518816,-2.8154087066329345
1683986467054380600,1.399781005859375,1.5907593966201832,-3.0879049301698323,-2.4155974388632364
1683986467064421800,1.409822265625,2.4808647631625815,-3.573302745808696,-2.2459726333942807
1683986467074462900,1.41986328125,3.0518159867584997,-3.648672103881103,-2.2010974884449874
1683986467084504000,1.429904296875,3.201323032370211,-3.478894233712728,-2.2943396566741976
1683986467094545100,1.439945556640625,3.0527429580422187,-3.3535294532529067,-2.478093147209673
1683986467104586200,1.449986572265625,2.912302017256506,-3.2993721963882567,-2.7858247756475856
1683986467114627200,1.460027587890625,2.484831809817681,-2.9409327507081424,-2.9615826606483315
1683986467124668100,1.470068359375,1.9661988019974006,-2.3900742530373718,-3.129580497699497
1683986467134709200,1.480109619140625,1.5335608720847378,-1.7355327606534066,-3.2796041965897356
1683986467144750300,1.490150634765625,1.105996012643235,-1.319264411976219,-3.4030628204245104
1683986467154791300,1.500191650390625,0.7025728821199495,-0.9628329277953854,-3.4635138510225034
1683986467164832400,1.51023291015625,0.3893497585127378,-0.76644802091551,-3.7016758919082795
1683986467174873600,1.52027392578125,0.2390174270602013,-0.3003511428870351,-3.8998725413882265
1683986467184914600,1.53031494140625,0.42284095276811823,0.1192202566676771,-3.9740536212617203
1683986467194955600,1.540356201171875,1.1649764775240934,-0.08473873126805058,-4.289628028691247
1683986467204996800,1.550397216796875,2.226181745534865,-0.3172893525064699,-4.615452766448973
1683986467215037600,1.56043798828125,3.182715892860458,-0.5769519806271293,-4.70737504959025
1683986467225078600,1.57047900390625,3.6009206771283955,-0.7298135756143689,-4.852363586381689
1683986467235119800,1.580520263671875,3.5218145845553543,-0.6022496223481123,-4.776022434100271
1683986467245160900,1.590561279296875,3.2156095505417195,-0.0077681542032192455,-3.982017517018663
1683986467255202000,1.600602294921875,2.521742820697291,0.28624057768113137,-2.856546163538147
1683986467265243100,1.6106435546875,1.695472955661356,0.13830804828191703,-1.9059972762302497
1683986467275284100,1.6206845703125,1.1095802784781268,-0.12552595127438645,-1.2579536436316492
1683986467285325200,1.6307255859375,0.6367444993557009,-0.37395429608944264,-0.8439326285005795
1683986467295366300,1.6407666015625,0.27584183203438367,-0.8249559401592194,-0.31210613242900975
1683986467305407400,1.650807861328125,0.3115944863356974,-0.744691848864358,0.16516399369588386
1683986467315448200,1.6608486328125,0.2172157762812386,-0.4587483405771115,0.26368474946470666
1683986467325489300,1.6708896484375,0.03546297560033142,-0.2194881440064505,0.5447182656263466
1683986467335530400,1.680930908203125,-0.3279283046534561,0.1396527289883381,0.9027514457560453
1683986467345571600,1.690971923828125,-1.040698647616776,0.5301637648805098,0.9772343635288699
1683986467355612600,1.701012939453125,-1.735210537862186,0.8142867088139815,0.9286417959586174
1683986467365653600,1.71105419921875,-2.124810934158799,0.991173267361157,0.9435448647458756
1683986467375694800,1.72109521484375,-2.113510131763586,1.2188086510115281,1.075001716511267
1683986467385735900,1.73113623046875,-1.9017208814644584,1.4736599921445626,1.3654675483645156
1683986467395776900,1.74117724609375,-1.5592303274853125,1.6993055344744328,1.745067119542483
1683986467405817800,1.75121826171875,-0.9922015666295572,1.950366496952393,1.9427423475660381
1683986467415858900,1.76125927734375,-0.24024236197363058,2.2072811126736807,1.8821134566890614
1683986467425900000,1.77130029296875,0.24695277212021854,2.278982162491035,1.8236174583580385
1683986467435941000,1.781341552734375,0.8078658581272449,1.8627629280109517,1.6674442290595088
1683986467445982100,1.791382568359375,1.1685488222597142,1.5928897857647304,1.531895637561513
1683986467456023200,1.801423583984375,1.5771803855632955,1.4450597761767385,1.3860025406022474
1683986467466064300,1.811464599609375,1.9273794889895302,1.2062611578938385,1.1842184066475838
1683986467476105400,1.821505859375,2.5720520019942934,0.9086022378585998,1.2475786208910815
1683986467486146600,1.831546875,2.6846518515673523,0.7087845801580689,1.1451859475277797
1683986467496187600,1.841587890625,2.658699035706711,0.4761838913741454,0.7713813781527009
1683986467506228400,1.85162890625,2.506354093475523,0.32235431678253074,0.4306859970928221
1683986467516269600,1.861669921875,2.3650500773273024,0.32296371452724937,0.19917535770267025
1683986467526310600,1.8717109375,2.166954040469763,0.11042690262570284,0.15210056303582628
1683986467536351600,1.881751953125,1.820279836644782,0.10656356808481231,0.009682178368466868
1683986467546392800,1.891793212890625,1.0488088131032283,-0.3976764677622896,0.2699394224947618
1683986467556433800,1.901834228515625,-0.006851196374309549,-1.3758602141904126,0.8918509484433998
1683986467566474900,1.911875244140625,-0.9580792188716755,-2.3335504533455604,1.6645488740240448
1683986467576516000,1.92191650390625,-1.5992054939973184,-3.011284828243604,2.307684183058244
1683986467586557100,1.93195751953125,-2.1342964173683243,-3.309987068196691,2.801581144228823
1683986467596598200,1.94199853515625,-2.5383138657158986,-3.2715530395192833,3.117550373053806
1683986467606639000,1.952039306640625,-2.746890544866663,-2.9826383590290346,3.2461378575368665
1683986467616680100,1.96208056640625,-2.689552307012223,-2.6592054366492976,3.1563107967373667
1683986467626721200,1.97212158203125,-2.4672908783177028,-2.6199226378437563,2.8034508229028843
1683986467636762300,1.98216259765625,-2.216746330429429,-2.8105134964274834,2.38698148737421
1683986467646803400,1.992203857421875,-1.8556602001524591,-3.1257057188220716,2.0023646354785956
1683986467656844500,2.002244873046875,-1.5907084940964216,-3.4223070146448853,1.8441631794177564
1683986467666885600,2.012285888671875,-1.3503944874750597,-3.4285850524571364,1.7335789203900513
1683986467676926600,2.0223271484375,-1.1338655949330851,-3.3294658659611773,1.7353155613047953
1683986467686967600,2.0323681640625,-0.9992794395058293,-3.2527179716771792,1.8912289141796244
1683986467697008800,2.0424091796875,-1.0956113337278364,-3.1158580779716134,2.1227426529492264
1683986467707049600,2.052449951171875,-1.325205564513653,-2.89231491095877,2.3239581586551554
1683986467717090700,2.0624912109375,-1.7021625041498638,-2.5098848342511775,2.4738264083897725
1683986467727131800,2.0725322265625,-2.2562332152891407,-1.9359102248795508,2.471173286348398
1683986467737172900,2.0825732421875,-2.613176822710776,-1.283153534022296,2.264742851296701
1683986467747214000,2.092614501953125,-2.560750245898547,-0.7258129120583053,2.0029652117855683
1683986467757255100,2.102655517578125,-2.420549392709916,-0.3293342591313032,1.5980684757576835
1683986467767296200,2.112696533203125,-2.034790039192027,0.5477361677484823,0.9142005442923189
1683986467777337300,2.122737548828125,-1.4054903984582279,0.6625308990959409,0.5684576035541803
1683986467787378400,2.13277880859375,-0.6407134531608696,0.3922519683814552,0.20353364948458164
1683986467797419400,2.14281982421875,0.13996529570549704,-0.07088088982822109,-0.0674149990684849
1683986467807460600,2.15286083984375,0.8780260087802987,-0.5379934310592273,-0.3157548903487544
1683986467817501400,2.16290185546875,1.4969503880167598,-0.9414281845401694,-0.667722463629171
1683986467827542600,2.172943115234375,2.011456489476883,-1.2063703536975148,-1.0715427398725088
1683986467837583600,2.18298388671875,2.4619371891745407,-1.3696947097962429,-1.459443211679151
1683986467847624600,2.19302490234375,2.803810596460588,-1.4320106507536983,-1.827306747357486
1683986467857665600,2.203066162109375,3.031947135828871,-1.3857364654328108,-2.1174483299273095
1683986467867706800,2.213107177734375,3.153876304591683,-1.2021493912334984,-2.302402973181285
1683986467877747900,2.223148193359375,3.2283902168511003,-1.0068778992835499,-2.341897010778721
1683986467887789000,2.233189453125,3.2503366470934907,-0.901694297683035,-2.2931785581960495
1683986467897830100,2.24323046875,3.1489512921900333,-0.8502511978654659,-2.2444219590425263
1683986467907871200,2.253271484375,2.9949250222377204,-0.7665796280818311,-2.1806490420813276
1683986467917912200,2.263312744140625,2.614740848458455,-0.821322441210165,-2.203344345106081
1683986467927953300,2.273353759765625,2.256898403060279,-0.9056577681863908,-2.2678592205237296
1683986467937994400,2.283394775390625,2.072017908235493,-0.9183683396841338,-2.33090972903487
1683986467948035200,2.293435546875,2.0667107106140366,-0.8279867173692722,-2.341295003798689
1683986467958076300,2.303476806640625,2.1845231056477137,-0.5997924805625632,-2.302873372971856
1683986467968117400,2.313517822265625,2.359954357104172,-0.24673461919113077,-2.185209035860936
1683986467978158600,2.323558837890625,2.486870288902812,0.1591610910124259,-2.098249912273987
1683986467988199600,2.33360009765625,2.4895243644726746,0.23803043374952557,-2.049183607134782
1683986467998240600,2.34364111328125,2.4886927603669533,0.3875880242691963,-2.2822797298191935
1683986468008281800,2.35368212890625,2.4560019970171107,0.6979713439047778,-2.735284566867754
1683986468018322900,2.36372314453125,2.372577190451695,1.081892967232655,-3.222087621534081
1683986468028364000,2.373764404296875,2.2317910192862014,1.3801231383756671,-3.6160960198203256
1683986468038405000,2.383805419921875,2.0469503402903175,1.6356830597159382,-3.8406224251578394
1683986468048446100,2.393846435546875,1.8550935985003778,1.9211158752544677,-3.8421049117561274
1683986468058487000,2.403887451171875,1.6724742650755557,2.191340446586631,-3.6750631332479764
1683986468068528000,2.413928466796875,1.5119889974372436,2.4069824218013007,-3.4116001130395137
1683986468078569100,2.423969482421875,1.3421413899285728,2.5638194083948505,-3.1300721168898433
1683986468088610200,2.4340107421875,1.1976952551859,2.583130359783967,-2.8876616954999035
1683986468098651300,2.4440517578125,1.0514736174637684,2.464965820396355,-2.6602821351583623
1683986468108692400,2.4540927734375,0.8853280544972153,2.225405693055125,-2.4317760466035128
1683986468118733600,2.4641337890625,0.6523821353727306,1.8453369140681393,-2.1878919602023372
1683986468128774600,2.474175048828125,0.32843208321016193,1.2593579293636838,-1.925095796727396
1683986468138815600,2.484216064453125,-0.04449248322713349,0.6807508468244218,-1.6987206936588557
1683986468148856800,2.494257080078125,-0.4938232899347822,0.20646667483746334,-1.5119783879186093
1683986468158897800,2.50429833984375,-1.0954215525728643,-0.17065954197273756,-1.3331370355648482
1683986468168938900,2.51433935546875,-1.8300426007241684,-0.47021436692685087,-1.0797004699743886
1683986468178979800,2.524380126953125,-2.632917880977418,-0.744459629085047,-0.5824494362147095
1683986468189020800,2.534421142578125,-3.177804708562674,-0.9631533624093624,0.14865303036043098
1683986468199061900,2.54446240234375,-3.311021327793107,-1.0134654044356872,0.9553790093533915
1683986468209103000,2.55450341796875,-3.156004905622977,-0.9886341094848607,1.8550720215246206
1683986468219144100,2.56454443359375,-2.99191665636146,-0.9940209390213054,2.7741265297820634
1683986468229185200,2.574585693359375,-2.726894616986474,-1.0395421981982589,3.482430458155847
1683986468239226300,2.584626708984375,-2.166240215247968,-1.2571868897277965,3.6081533433181634
1683986468249267400,2.594667724609375,-1.5033422707321054,-1.3701357842150725,3.3013253212978113
1683986468259308500,2.604708984375,-1.0014151334209913,-1.5254445075540835,2.9404783248001065
1683986468269349600,2.61475,-0.6055232286187625,-1.8107271194651293,2.5502743720320318
1683986468279390600,2.624791015625,-0.3260177373944827,-2.1366238594097973,2.101638317133754
1683986468289431700,2.63483203125,-0.5085477829148365,-2.5660586357799295,1.6263942718917157
1683986468299472600,2.644873046875,-1.830926537470664,-3.274055004135596,1.3119554519221839
1683986468309513600,2.6549140625,-2.6784977912104355,-3.9808225631353,1.198401451247282
1683986468319554700,2.664955078125,-2.299402236976077,-4.3462100030498885,1.1539049149678662
1683986468329595800,2.674996337890625,-1.1876163483931463,-4.216933727282322,0.8876357079565679
1683986468339636900,2.685037353515625,-0.003898382022820984,-3.740590572214995,0.37986755363811714
1683986468349678000,2.695078369140625,0.8679743408299841,-3.1316719054626203,-0.1260018348339054
1683986468359719100,2.705119384765625,1.3932628630408348,-2.269163131721127,-0.6120953558966269
1683986468369760200,2.71516064453125,1.6697208880686347,-1.2787322998318145,-1.0661664007593432
1683986468379801300,2.72520166015625,1.7658232451530775,-0.3218402861777275,-1.449273586328153
1683986468389842400,2.73524267578125,1.7312312126573357,0.5473942758095287,-1.759727954909159
1683986468399883400,2.745283935546875,1.6250009537614645,1.2853202818932465,-1.9743103981927923
1683986468409924600,2.755324951171875,1.5011157989489905,1.8629298209865846,-2.1708645820535777
1683986468419965600,2.765365966796875,1.4258141517296226,2.2336201668628624,-2.3363051416064655
1683986468430006600,2.775406982421875,1.4967787265663934,2.4001784325619036,-2.3882284165862404
1683986468440047800,2.7854482421875,1.709598302792004,2.324184894601117,-2.2916622162036173
1683986468450088600,2.795489013671875,1.9882568120627535,2.011088371232425,-2.0260670183960294
1683986468460129600,2.805530029296875,2.2771263124060486,1.6017632483362252,-1.6526834965080561
1683986468470170800,2.8155712890625,2.534250020856694,1.195306778046527,-1.2554614543583684
1683986468480211900,2.8256123046875,2.72295737264441,0.8177800178100267,-0.9060339927613354
1683986468490253000,2.8356533203125,2.807335376692876,0.44369459158487395,-0.5990729331032988
1683986468500294100,2.845694580078125,2.7513399124606814,0.14684867846465974,-0.4285597802293508
1683986468510335200,2.855735595703125,2.5758321286264123,-0.08700180041182164,-0.2821359634294005
1683986468520376200,2.865776611328125,2.2935142515908398,-0.23504924757978027,-0.16202354439293842
1683986468530417300,2.875817626953125,1.9111239911741245,-0.37587928767169965,-0.0666236877422833
1683986468540458400,2.88585888671875,1.485100388714265,-0.5394773483690829,-0.016977310226478838
1683986468550499600,2.89589990234375,1.0589820146097186,-0.6968927381927736,-0.05423498156001658
1683986468560540600,2.90594091796875,0.5525121688899304,-0.8263115883029007,-0.23199558246477048
1683986468570581600,2.915982177734375,-0.9425052999549749,-0.9497375488346848,-0.6702332497107226
1683986468580622800,2.926023193359375,-1.6776503326107097,-1.0437870025538993,-0.9618740081058821
1683986468590663600,2.93606396484375,-1.2994050979878753,-0.9905767440748472,-0.8374047277648299
1683986468600704900,2.946105224609375,-0.7131131292280205,-0.7976064682405751,-0.7517733573988551
1683986468610745800,2.956146240234375,-0.23975217336473442,-0.5692367553164939,-0.7754988669801204
1683986468620786900,2.966187255859375,0.09960699076919768,-0.3438568114749882,-0.7828230857625778
1683986468630828000,2.976228271484375,0.3092383147003525,-0.13656902319972508,-0.7203354834752316
1683986468640869000,2.98626953125,0.41021943093024194,0.059044837944779695,-0.5949263572842463
1683986468650910100,2.996310546875,0.42315530775843957,0.24467468259305314,-0.4343118669315407
1683986468660951200,3.0063515625,0.38786840427997193,0.40937900534563454,-0.20688915247920067
1683986468670992300,3.016392822265625,0.3311768771907841,0.5635824203206992,0.06740713102409919
1683986468681033400,3.026433837890625,0.27098119251147496,0.722417831356762,0.363516807525532
1683986468691074600,3.036474853515625,0.22020709520684742,0.8851723672083248,0.6382136345724213
1683986468701115600,3.046515869140625,0.1867471931699127,1.0507841111710758,0.887883663164854
1683986468711156600,3.05655712890625,0.1711882352134213,1.186404228342528,1.0935773849818768
1683986468721197700,3.06659814453125,0.15222442146802315,1.2814188003393938,1.2283377647756626
1683986468731238800,3.07663916015625,0.13614416136982846,1.3658447264906397,1.2811927793892295
1683986468741279900,3.086680419921875,0.14027166369320787,1.4335770607943057,1.2890024185753945
1683986468751321000,3.096721435546875,0.168784976002514,1.4337978363242492,1.2657055853465515
1683986468761361800,3.10676220703125,0.2086956499684891,1.3656697271994154,1.2569537162666997
1683986468771402900,3.11680322265625,0.2441971301804289,1.2415065765065343,1.2198152543465006
1683986468781444000,3.126844482421875,0.2652434109674798,1.086026191891789,1.176520824420283
1683986468791485100,3.136885498046875,0.2717522381561045,0.897055625943077,1.1378688813604825
1683986468801526200,3.146926513671875,0.25620293612358636,0.7023415567203249,1.1264333724772075
1683986468811567300,3.1569677734375,0.2027125358582316,0.5116887093022863,1.1199350356357753
1683986468821608400,3.1670087890625,0.0898163319250105,0.3311328887240879,1.1214509009726779
1683986468831649500,3.1770498046875,-0.1566816567580082,0.15140342702667156,1.162325382431488
1683986468841690600,3.187091064453125,-0.74519431582724,-0.10122489928600327,1.3384923934145836
1683986468851731600,3.197132080078125,-1.07281506045554,-0.2948970795262927,1.6353373527376018
1683986468861772600,3.207173095703125,-1.0137114523846695,-0.33263969420676115,1.9175882338856818
1683986468871813800,3.217214111328125,-0.7531611919481761,-0.2833213805701343,2.182276725889944
1683986468881854900,3.22725537109375,-0.4464374782261892,-0.23179244998606163,2.509440899033284
1683986468891896000,3.23729638671875,-0.16868805875120663,-0.20107364658542506,2.927654743383499
1683986468901937100,3.24733740234375,0.0039260387159868815,-0.1793680191173054,3.3666796685202276
1683986468911978200,3.257378662109375,0.04607844359227388,-0.13841533667293365,3.7971234320951575
1683986468922019200,3.267419677734375,-0.016636490809552193,-0.08604526527348169,4.22910785669989
1683986468932060300,3.277460693359375,-0.15738093847563228,-0.021096229576168114,4.606089115125386
1683986468942101200,3.28750146484375,-0.3157795072903086,0.059585571286190624,4.85862827291285
1683986468952142300,3.297542724609375,-0.5314687491769157,0.12368583683766833,4.95424890526222
1683986468962183300,3.307583740234375,-0.8500837683557638,0.11959934238528593,4.748491764088125
1683986468972224400,3.317624755859375,-1.1358733177087241,0.06373977675982638,4.221550941449794
1683986468982265600,3.327666015625,-1.1733373403118428,-0.028153419342223276,3.4436192512132715
1683986468992306600,3.33770703125,-0.9894828795202106,-0.10376310339005058,2.4850864409653637
1683986469002347600,3.347748046875,-0.7225326896566562,-0.2059121132302651,1.475780486993659
1683986469012388800,3.3577890625,-0.364022374324944,-0.39363861103541775,0.5558085441059368
1683986469022429900,3.367830322265625,-0.0038749575715198528,-0.7091116906106477,-0.03178548818255588
1683986469032471000,3.377871337890625,0.3222178221947247,-1.0871229170906216,-0.36899900440645333
1683986469042512000,3.387912353515625,0.6914159654025542,-1.398167133321538,-0.6453723907545905
1683986469052553100,3.39795361328125,1.1722726822467684,-1.692423343792776,-0.9462118148387313
1683986469062594200,3.40799462890625,1.707908868640011,-1.9841942787432132,-1.283340453928195
1683986469072635300,3.41803564453125,2.2207589149129996,-2.230338096690167,-1.668523311747151
1683986469082676400,3.428076904296875,2.616821050655692,-2.3742108346668727,-2.0251836776487084
1683986469092717600,3.438117919921875,2.7271795273780848,-2.489963054625941,-2.155017376013851
1683986469102758600,3.448158935546875,2.6325755119672007,-2.4807124136159624,-2.107061862826926
1683986469112799600,3.458199951171875,2.511878013501464,-2.3337078093325183,-2.062239647078209
1683986469122840800,3.4682412109375,2.537945270507153,-2.092480182553289,-2.060789585255996
1683986469132881800,3.4782822265625,2.816308498335111,-1.8396143912528613,-2.0578484535377872
1683986469142922600,3.488322998046875,3.033143997062612,-1.573987484014007,-1.964136600553472
1683986469152963800,3.4983642578125,3.0379395485483545,-1.3218841553994907,-1.7922644615128465
1683986469163004800,3.5084052734375,2.880628824253191,-1.0854358673024702,-1.579055309208726
1683986469173045900,3.5184462890625,2.6686196326491256,-0.86791658409584,-1.3541975019603063
1683986469183087000,3.5284873046875,2.4939508436612936,-0.6512522698975747,-1.1289734841306023
1683986469193128100,3.538528564453125,2.4127948283419998,-0.4560618401331272,-0.9279279710126253
1683986469203169200,3.548569580078125,2.3927433490469125,-0.2818455695885169,-0.7810821534002885
1683986469213210300,3.558610595703125,2.355936050395922,-0.13505125047348127,-0.7089142798666936
1683986469223251400,3.56865185546875,2.311961650796662,-0.0047988891438156605,-0.7446422575431324
1683986469233292500,3.57869287109375,2.287643194115288,0.12089109431860383,-0.8487658500868709
1683986469243333600,3.58873388671875,2.2611751557238615,0.23825693122393893,-1.0483622549784566
1683986469253374600,3.598775146484375,2.2212021350340696,0.35664558406532487,-1.3532700538960827
1683986469263415600,3.608816162109375,2.1826481818235157,0.4478449821942213,-1.7176032066337479
1683986469273456800,3.618857177734375,2.165934562546198,0.477351665468824,-2.0919904707924477
1683986469283497900,3.628898193359375,2.1529862879955384,0.4583172798776752,-2.464030265786579
1683986469293539000,3.638939453125,2.0943198203868585,0.39354944217665294,-2.8086080551356427
1683986469303580100,3.64898046875,1.9766073226650058,0.3107714653417605,-3.0946097373096526
1683986469313621200,3.659021484375,1.8260512352042566,0.23049068454001437,-3.304872512775512
1683986469323662300,3.669062744140625,1.6560811994971407,0.1819806098942791,-3.4568576812139207
1683986469333703300,3.679103759765625,1.4773313998907773,0.17063188542531066,-3.556001901703675
1683986469343744400,3.689144775390625,1.2495310307358958,0.1409726141132381,-3.5722346304834147
1683986469353785600,3.69918603515625,0.967680692577906,0.07710504543880252,-3.451242923738023
1683986469363826600,3.70922705078125,0.6956480741278321,0.012030124692765364,-3.248513460084464
1683986469373867600,3.71926806640625,0.43214583388775407,-0.05398654936657855,-2.984242916229811
1683986469383908800,3.72930908203125,0.14885032171498533,-0.1268849373742727,-2.701671123615467
1683986469393949900,3.739350341796875,-0.20538365824853697,-0.207353591793882,-2.3598093986093622
1683986469403990600,3.74939111328125,-0.6251504422452941,-0.3198432921541463,-1.865419864653058
1683986469414031800,3.75943212890625,-1.0580548046916938,-0.48265647876602163,-1.1862196921196224
1683986469424072900,3.769473388671875,-1.51051533218874,-0.6408152579865309,-0.35040092465326844
1683986469434114000,3.779514404296875,-1.9829887151952699,-0.7285261153264769,0.5568428040269603
1683986469444155100,3.789555419921875,-2.4165892602386503,-0.6431908606432976,1.3720574378132946
1683986469454196100,3.799596435546875,-2.616587638907411,-0.3613409995725402,2.023477077595893
1683986469464237200,3.8096376953125,-2.5489094257392,0.019159793902803545,2.525152683294312
1683986469474278300,3.8196787109375,-2.354776859227801,0.3830103874026606,2.8656578064275506
1683986469484319400,3.8297197265625,-2.0819675923077576,0.6244239806160145,3.008317947392283
1683986469494360600,3.839760986328125,-1.698178529558648,0.6019611359260281,2.9933867455295164
1683986469504401600,3.849802001953125,-1.2382146119524835,0.23187971118347392,2.8941788673941335
1683986469514442600,3.859843017578125,-0.7728012799216724,-0.33904361713633757,2.6910333633395664
1683986469524483800,3.86988427734375,-0.38519799697980434,-0.9885749816571705,2.462526798287158
1683986469534524800,3.87992529296875,-0.05880689614754016,-1.6771678924596873,2.286796569765244
1683986469544565900,3.88996630859375,0.08901369561106973,-2.397195339103726,2.1649317741640437
1683986469554607000,3.90000732421875,-0.1927739381892916,-3.1584882737879667,2.089805602992386
1683986469564648100,3.910048583984375,-0.30402815327149285,-3.65880441649452,2.0119609833776897
1683986469574689200,3.920089599609375,0.06219363221617038,-3.708176135949701,1.7897114753147991
1683986469584730300,3.930130615234375,0.6781926155919152,-3.423189163219869,1.4097442628702983
1683986469594771400,3.940171875,1.3016617298587345,-2.9664363862906415,0.9258751867463918
1683986469604812500,3.950212890625,1.7631819247881921,-2.3802585601858994,0.35154676430705845
1683986469614853600,3.96025390625,1.9928039312525436,-1.689177989915799,-0.30612039566707483
1683986469624894600,3.970294921875,2.047760009723295,-0.9522247313346667,-0.9939832686692608
1683986469634935600,3.980336181640625,1.9856505394022015,-0.2268538475323945,-1.6410746575848592
1683986469644976800,3.990377197265625,1.8405666351824728,0.4645833968999675,-2.227961540255315
1683986469655017900,4.000418212890625,1.657464980928007,1.1141757965841155,-2.7355005741013287
1683986469665059000,4.01045947265625,1.4488754273819093,1.6525950432501908,-3.126883268399489
1683986469675100100,4.02050048828125,1.140320182037096,1.8682160377777837,-3.4381351472347133
1683986469685141200,4.03054150390625,1.0289545059284293,1.7258777618712926,-3.4983048437797843
1683986469695182300,4.040582763671875,1.237057328382857,1.3513708114124123,-3.219207048477076
1683986469705223300,4.050623779296875,1.5733183621291114,0.8275179863474345,-2.750884532976961
1683986469715264400,4.060664794921875,1.8744139671351898,0.1859211921255372,-2.23121833812832
1683986469725305600,4.070705810546875,2.086489677352031,-0.5017361641462166,-1.71722698209362
1683986469735346600,4.0807470703125,2.185920953698629,-1.1839284895747926,-1.2402911186726653
1683986469745387600,4.0907880859375,2.1991910934405516,-1.8134684563392207,-0.9063024521163693
1683986469755428800,4.1008291015625,2.1596846579814617,-2.304687976793464,-0.7924761773137093
1683986469765469900,4.110870361328125,2.0667269229715926,-2.537545203981773,-0.8475713729945092
1683986469775511000,4.120911376953125,1.9127017259710584,-2.5002956390683644,-1.0308041573143751
1683986469785551800,4.1309521484375,1.6137740612401223,-2.287292480569143,-1.3070511818134085
1683986469795592900,4.1409931640625,1.1219038962293648,-1.9534063339405332,-1.5630288123260776
1683986469805634000,4.151034423828125,0.5171864628188172,-1.5575003622627361,-1.7158193589233568
1683986469815675100,4.161075439453125,0.07236184179889174,-1.1992311478041477,-1.7592372893355523
1683986469825716400,4.17111669921875,-0.07675014440936416,-0.9116148948833992,-1.7243547440698033
1683986469835757200,4.18115771484375,0.037957459675077014,-0.6962037088027019,-1.6626343727362782
1683986469845798300,4.19119873046875,0.3218435049333,-0.5013566017056694,-1.598537922040793
1683986469855839400,4.20123974609375,0.6448097230302416,-0.33697700492260846,-1.494196891969685
1683986469865880600,4.211281005859375,0.9215996267048263,-0.20563364041709228,-1.3858232499466636
1683986469875921600,4.221322021484375,1.1583111285843644,-0.08242702479699333,-1.2174835206535546
1683986469885962600,4.231363037109375,1.3437898160564674,0.018116474197595774,-1.0230774879064684
1683986469896003800,4.241404052734375,1.4777679442008398,0.09306192401224825,-0.7985339164842663
1683986469906044800,4.2514453125,1.565937042222177,0.15209054947703643,-0.5513997077567484
1683986469916085900,4.261486328125,1.6037945747633573,0.21857643131224416,-0.3586683272659667
1683986469926127000,4.27152734375,1.6359961034091726,0.31497144715227,-0.15439510345857418
1683986469936168100,4.281568603515625,1.668552517772569,0.37517976760454214,0.057011604371496404
1683986469946209200,4.291609619140625,1.6965527534442748,0.42000055322943836,0.2721405028169138
1683986469956250300,4.301650634765625,1.714754343035319,0.44414758689313055,0.4735503196907033
1683986469966291400,4.31169189453125,1.712372541504081,0.45490837093182257,0.6471104621232545
1683986469976332500,4.32173291015625,1.68597400188479,0.4736943245017159,0.7928209304937631
1683986469986373600,4.33177392578125,1.6275287866612294,0.5146493912386245,0.9058489800014135
1683986469996414600,4.34181494140625,1.5333390236524902,0.563337802817468,0.9887652398143943
1683986470006455600,4.351856201171875,1.3617451191941594,0.6100745201640708,1.0610947610000576
1683986470016496800,4.361897216796875,1.0633292198014739,0.6542568206450945,1.118328571374181
1683986470026537900,4.371938232421875,0.6515444516611492,0.6710891723666919,1.1622347831399704
1683986470036579000,4.3819794921875,0.1922338603832907,0.6507663726792711,1.1788382530500474
1683986470046620100,4.3920205078125,-0.25223088259954013,0.5682077407479537,1.1630167961776618
1683986470056661200,4.4020615234375,-0.6056377887635577,0.435173034712677,1.1154255866343181
1683986470066702300,4.4121025390625,-0.7599664928236931,0.2868452071221391,1.0541591643182702
1683986470076743300,4.422143798828125,-0.6978733540509354,0.18774509437105913,1.0064306258502624
1683986470086784400,4.432184814453125,-0.45478096598871526,0.13968849177513717,0.9892611503491675
1683986470096825600,4.442225830078125,-0.08074909448562984,0.1589627265377871,1.0274982451950698
1683986470106866600,4.45226708984375,0.3671113848379123,0.20629024506981813,1.1154613493170085
1683986470116907600,4.46230810546875,0.8144316076272298,0.26131105429678575,1.2303209305028615
1683986470126948800,4.47234912109375,1.238447189460301,0.3040037154799736,1.380710124953393
1683986470136989900,4.482390380859375,1.62216460711026,0.3215408326618911,1.5581908225902443
1683986470147031000,4.492431396484375,1.9584521053540223,0.30598831166830975,1.7447609901064407
1683986470157072000,4.502472412109375,2.2384846210622684,0.23793458953673272,1.9349198341286669
1683986470167113100,4.512513427734375,2.456305980702171,0.14421606062951492,2.0956797600845203
1683986470177154200,4.5225546875,2.605678319932985,0.036972999565437474,2.20088338842024
1683986470187195300,4.532595703125,2.672963619353111,-0.07267570499224976,2.220672130445067
1683986470197236400,4.54263671875,2.6600956916734684,-0.21649932856584192,2.1661067008418176
1683986470207277600,4.552677978515625,2.549871444759371,-0.3930034637491226,2.0154752731974526
1683986470217318600,4.562718994140625,2.300843000491705,-0.5880107880632479,1.7768588065603705
1683986470227359600,4.572760009765625,0.8666102885694504,-1.098106861168498,1.2265524864335484
1683986470237400800,4.58280126953125,-0.9226770996138017,-1.8309354782427,0.4179821012880573
1683986470247441800,4.59284228515625,-1.9094277622173037,-2.3476748465913984,-0.28332614886535673
1683986470257482900,4.60288330078125,-2.251851797077356,-2.573809623709923,-0.8308653832690167
1683986470267524000,4.61292431640625,-2.1539769173411676,-2.548208236633154,-1.2934126853163859
1683986470277565100,4.622965576171875,-1.7729353905745542,-2.3676404952133923,-1.6587610243358324
1683986470287606200,4.633006591796875,-1.2450972794113646,-2.1086401939064436,-1.9348390102032031
1683986470297647300,4.643047607421875,-0.6713549495554186,-1.843546390708135,-2.1701664925007944
1683986470307688400,4.6530888671875,-0.13981199269684075,-1.633325576635297,-2.4002890586250842
1683986470317729500,4.6631298828125,0.3117176890140875,-1.5156898497947733,-2.642082214444599
1683986470327770600,4.6731708984375,0.6787591576225845,-1.4919829369231974,-2.890372753193046
1683986470337811600,4.6832119140625,0.9388005733018219,-1.5373764039263234,-3.1374909879508968
1683986470347852600,4.693253173828125,1.0729126929113009,-1.6390600204279706,-3.3787312506598477
1683986470357893800,4.703294189453125,1.1400523187520237,-1.7868890761674152,-3.583195209552411
1683986470367934900,4.713335205078125,1.2334686518230222,-1.9462900162309833,-3.7112987040638057
1683986470377976000,4.72337646484375,1.3905814886054684,-2.085564136626806,-3.735240459453156
1683986470388017100,4.73341748046875,1.5804436207111467,-2.2042732239704743,-3.6535851954546166
1683986470398058200,4.74345849609375,1.767119645969176,-2.3004574775451276,-3.458435773861815
1683986470408099200,4.753499755859375,1.9293427467341684,-2.3531022071214287,-3.1991398333678704
1683986470418140300,4.763540771484375,2.0453262330935296,-2.344022750904083,-2.918891191418269
1683986470428181400,4.773581787109375,2.0846037864537728,-2.266763210173584,-2.663707017892123
1683986470438222600,4.783622802734375,2.0492231844353257,-2.119657516442011,-2.4262337684827937
1683986470448263600,4.7936640625,1.974896907758094,-1.9292802810826606,-2.2066440582766336
1683986470458304600,4.803705078125,1.8500852586137426,-1.7321696280682408,-2.0209639071921535
1683986470468345800,4.81374609375,1.6794331074009297,-1.5494179724317898,-1.8648149968374388
1683986470478386900,4.823787353515625,1.4702411889883216,-1.3870224954129002,-1.7457013130778618
1683986470488428000,4.833828369140625,1.2593058347510426,-1.2389311790966362,-1.6538152693930854
1683986470498469000,4.843869384765625,1.0643668173396668,-1.1060290336451033,-1.5779764653102437
1683986470508510100,4.85391064453125,0.8805174828284119,-0.9889702796401891,-1.5277884005403943
1683986470518551200,4.86395166015625,0.7237567901177874,-0.8723816870212037,-1.4962894915463072
1683986470528592300,4.87399267578125,0.5973451137456215,-0.755651474097653,-1.4619717598929347
1683986470538633400,4.88403369140625,0.5153551103333597,-0.6331191063234441,-1.4117999077941017
1683986470548674600,4.894074951171875,0.5097002983714383,-0.5098843572805607,-1.3554954528964613
1683986470558715600,4.904115966796875,0.5767884254827981,-0.3806810378615069,-1.2691597940092931
1683986470568756600,4.914156982421875,0.6889135837347142,-0.24451017380891793,-1.13780117045263
1683986470578797700,4.9241982421875,0.8300914765660685,-0.08059644704519374,-0.9742264748038764
1683986470588838800,4.9342392578125,0.9958286284521072,0.10282564163315092,-0.7953095435480527
1683986470598879900,4.9442802734375,1.1821076869317577,0.27767324440976654,-0.6221575736615026
1683986470608921000,4.9543212890625,1.3436993358989366,0.4421916007637141,-0.46294403075079904
1683986470618962100,4.964362548828125,1.4201188087330818,0.5733318329849667,-0.30471372589574575
1683986470629003200,4.974403564453125,1.3788651227717266,0.6692724228592093,-0.12968349456617878
1683986470639044300,4.984444580078125,1.2409634589683418,0.713880538835544,0.03714370721834858
1683986470649085400,4.99448583984375,1.0705423355707757,0.7292633055848059,0.18388080598101322
1683986470659126400,5.00452685546875,0.9447028638023521,0.7311863898692185,0.2814602852590593
1683986470669167600,5.01456787109375,0.8856630325676395,0.7300815582490313,0.3255105018256399
1683986470679208600,5.024609130859375,0.8693196773499843,0.7088580132447,0.3084135055247364
1683986470689249600,5.034650146484375,0.9057815075118404,0.6838598250434286,0.24922800055750316
1683986470699290800,5.044691162109375,0.9503829480295465,0.6759076118874789,0.1547861098493287
1683986470709331900,5.054732177734375,0.9660177231087174,0.681213378854472,0.05260610581019342
1683986470719373000,5.0647734375,0.9323382377898447,0.7035222053381436,-0.038937091812523576
1683986470729414100,5.074814453125,0.8714311122743601,0.7360148428989002,-0.11422252643847766
1683986470739455400,5.084855712890625,0.7645385264967243,0.7507104873509804,-0.16969251640196442
1683986470749496600,5.09489697265625,0.5881769658156244,0.7214579581811037,-0.1859784126018885
1683986470759537600,5.10493798828125,0.36034417160052823,0.6480813027701209,-0.17727613456072205
1683986470769578600,5.11497900390625,0.09673333168500985,0.5494008063225957,-0.15548324570537958
1683986470779619800,5.125020263671875,-0.15710067767881297,0.4508976935318272,-0.13133859633182285
1683986470789660800,5.135061279296875,-0.3751046658326457,0.36810970304089774,-0.11616325377307166
1683986470799701900,5.145102294921875,-0.5452709197787117,0.3167681694592805,-0.13631820680418777
1683986470809743000,5.155143310546875,-0.6653418541552737,0.3010253904880185,-0.18549728397092716
1683986470819784100,5.1651845703125,-0.7349963187415237,0.31082105626279893,-0.24868822087065173
1683986470829825200,5.1752255859375,-0.7420535087707836,0.33389902114339604,-0.3057913779600047
1683986470839866300,5.1852666015625,-0.6825385095255407,0.3540120125095376,-0.37301206586304
1683986470849907400,5.195307861328125,-0.5868215561333237,0.3438911439158134,-0.43824911102567526
1683986470859948500,5.205348876953125,-0.4971685409695841,0.304805278739411,-0.5137448310812824
1683986470869989600,5.215389892578125,-0.4482257365111837,0.2445473671533403,-0.5862121581864371
1683986470880030600,5.22543115234375,-0.43799376484050123,0.17528486262918141,-0.6508650779892756
1683986470890071700,5.23547216796875,-0.452014684786864,0.11630868910780491,-0.7170376778328489
1683986470900112800,5.24551318359375,-0.47556996356347214,0.06275844571685066,-0.7751064300598622
1683986470910153900,5.25555419921875,-0.4821782110993232,0.026041507813003066,-0.8137993812789549
1683986470920195000,5.265595458984375,-0.44775032989637437,0.019424438545285874,-0.8153653144112994
1683986470930236100,5.275636474609375,-0.3525571823578964,0.04952240003056817,-0.8003635406655164
1683986470940277200,5.285677490234375,-0.20244050024700885,0.1336054800523558,-0.7669281958075904
1683986470950318300,5.29571875,-0.02834200865062168,0.24596929549991173,-0.7149572370864162
1683986470960359300,5.305759765625,0.13240242018546056,0.37586832061954434,-0.6671137809109751
1683986470970400400,5.31580078125,0.2504220008647631,0.5054249763154859,-0.619393825536899
1683986470980441600,5.325842041015625,0.29270875461832774,0.6354551315716715,-0.5822949408976732
1683986470990482600,5.335883056640625,0.24696767341057543,0.7587513923930451,-0.5382018088517823
1683986471000522900,5.34592333984375,0.11351192010369238,0.8529877663034788,-0.4609031677735503
1683986471010564000,5.35596435546875,-0.08378076539328894,0.9256858826029185,-0.3404712675877599
1683986471020605100,5.366005615234375,-0.33004343492408866,0.974987983783356,-0.1817655563215922
1683986471030646200,5.376046630859375,-0.5864840746692843,1.0096569061779443,0.018213272063020505
1683986471040687300,5.386087646484375,-0.8200024366479444,1.0561156271569998,0.23018264782152725
1683986471050728400,5.396128662109375,-1.0031675100321438,1.100314617291053,0.46165704722115675
1683986471060769600,5.406170166015625,-1.120598554658427,1.1594762802039333,0.6607661246011312
1683986471070810800,5.416211181640625,-1.2074717283386687,1.2283687589697327,0.8205661774277442
1683986471080851900,5.426252197265625,-1.3028604983169156,1.2861952782268347,1.0001339911854745
1683986471090893000,5.43629345703125,-1.39766609671829,1.368741512234209,1.1188707350287823
1683986471100934100,5.44633447265625,-1.4599744081614154,1.4656805993051591,1.1670036316381756
1683986471110975200,5.45637548828125,-1.4758434295537795,1.5094466209526993,1.1374917029744114
1683986471121016200,5.466416748046875,-1.497059106763047,1.4944753647818445,1.0951328275958123
1683986471131057300,5.476457763671875,-1.5363030433812885,1.2936568260323242,1.1786632538496853
1683986471141098400,5.486498779296875,-1.5906685590698308,0.8041214944033973,1.5252332687687011
1683986471151139600,5.496539794921875,-1.7605483532604873,-0.007705211626632644,2.0733804702542113
1683986471161180600,5.5065810546875,-2.193521022855697,-1.0343990326872905,2.7470574379396795
1683986471171221600,5.5166220703125,-2.8147935867334426,-2.087159633777501,3.4436430930190576
1683986471181262800,5.5266630859375,-3.3516857624146916,-2.8128752709015563,3.902389049370053
1683986471191303900,5.536704345703125,-3.545595169028365,-2.9033608435629836,3.6721467971778687
1683986471201344900,5.546745361328125,-3.222648859099517,-2.6460394858776386,2.9049024583085066
1683986471211386000,5.556786376953125,-2.421538353079158,-2.2621312141468195,1.8430886267937823
1683986471221427100,5.56682763671875,-1.4571077824664147,-1.9028191566713955,0.7307572366188743
1683986471231468200,5.57686865234375,-0.69758605951025,-1.5201354027447116,-0.2386455536172794
1683986471241509300,5.58690966796875,-0.26306080811059274,-1.0825524329470937,-1.1244564055975839
1683986471251550400,5.59695068359375,-0.026828080455664313,-0.5718226431108906,-2.0407376290393375
1683986471261591600,5.606991943359375,0.21640264990870733,-0.03387594215982713,-2.857440948539702
1683986471271632600,5.617032958984375,0.5425851344845832,0.43537998197440314,-3.403054475642061
1683986471281673600,5.627073974609375,0.907417237748636,0.6513347626669982,-3.524605512580465
1683986471291714700,5.637115234375,1.2685549259555544,0.6108546256618094,-3.360821723897239
1683986471301755800,5.64715625,1.63459527487604,0.42935419086406873,-3.0267164707541925
1683986471311796900,5.657197265625,2.007720708880505,0.16376733787657913,-2.5807530880861216
1683986471321838000,5.66723828125,2.361984729739346,-0.12431526173936445,-2.0503726006616056
1683986471331879100,5.677279541015625,2.6903278827857697,-0.3753604889853247,-1.4913439750134934
1683986471341920400,5.68732080078125,2.943983078067927,-0.5532803534948273,-0.9825320244107015
1683986471351961600,5.69736181640625,3.1210086346260613,-0.6499004362173215,-0.5419535636322727
1683986471362002600,5.707403076171875,3.2034070493452056,-0.6615996360656752,-0.17515182487083228
1683986471372043600,5.717444091796875,3.190600395135249,-0.6061544418195767,0.15353536622383668
1683986471382084800,5.727485107421875,3.086998224230648,-0.49925088876579415,0.4819703102383296
1683986471392125900,5.7375263671875,2.9206228256579685,-0.3559746743212983,0.8102593423075019
1683986471402167000,5.7475673828125,2.727008819738788,-0.1776289940130149,1.106662750368291
1683986471412208000,5.7576083984375,2.516692876890667,0.03203821181688491,1.3625221251594848
1683986471422249100,5.7676494140625,2.2848253249803383,0.27236413966763373,1.5593895912045448
1683986471432290200,5.777690673828125,2.0159919261738906,0.5467176436555415,1.680573940369215
1683986471442331300,5.787731689453125,1.7030466795141865,0.8235707281603412,1.7159681319526934
1683986471452372400,5.797772705078125,1.3605964183857682,1.0818862915965575,1.6830620766092812
1683986471462413600,5.80781396484375,1.016311287960311,1.29118919389379,1.6064991951088377
1683986471472454600,5.81785498046875,0.6890015602144347,1.4334192276493125,1.520333290184391
1683986471482495600,5.82789599609375,0.37170469757263824,1.5104179381205138,1.4354019165367067
1683986471492536800,5.837937255859375,-0.14197242243623356,1.4902091026581725,1.3747467994469622
1683986471502577800,5.847978271484375,-0.7124779821145361,1.320110321121162,1.3600258828735312
1683986471512618900,5.858019287109375,-1.0283861161027932,1.0799732208826065,1.285604476950932
1683986471522660000,5.868060302734375,-0.9881733654565583,0.8699116706958099,1.1575651168145344
1683986471532701100,5.8781015625,-0.7058986425062634,0.7396497725113538,1.0260434151946811
1683986471542742200,5.888142578125,-0.3361033202369731,0.6823658943176653,0.9428558348689401
1683986471552783300,5.89818359375,0.006293654454739714,0.677701950023593,0.9118647574380961
1683986471562824400,5.908224853515625,0.2798041105118944,0.7109923363163849,0.9220485687818273
1683986471572865500,5.918265869140625,0.4618930816576832,0.7580709456810716,0.9613733290351568
1683986471582906600,5.928306884765625,0.5512264966090344,0.7947020529764262,1.0029454232319217
1683986471592947900,5.938348388671875,0.5649813414260164,0.8188304901255882,1.0179948807167156
1683986471602989000,5.948389404296875,0.517286658345025,0.8068485259929853,1.0154943466903112
1683986471613030100,5.958430419921875,0.4275956152432575,0.7660193443144224,1.0062379836485897
1683986471623071200,5.968471435546875,0.3162220717213406,0.7057366371412217,0.9794592857526789
1683986471633112200,5.9785126953125,0.17943286900301175,0.6475462912255858,0.9205560682754699
1683986471643153300,5.9885537109375,0.028668403644813736,0.6043872835070816,0.823845863519745
1683986471653194400,5.9985947265625,-0.12459135054399631,0.5768795012354379,0.7166466713093051
1683986471663235600,6.008635986328125,-0.25614035116200684,0.5556125640862499,0.6349182129749901
1683986471673276600,6.018677001953125,-0.36704325683332467,0.5627007483846581,0.5622630119597336
1683986471683317600,6.028718017578125,-0.4319314955736063,0.5843615530325519,0.4774603843256103
1683986471693358800,6.03875927734375,-0.44004476087090816,0.5699610710597051,0.424889087782772
1683986471703399900,6.04880029296875,-0.43080973629807623,0.5336079597940194,0.39003992068905874
1683986471713440900,6.05884130859375,-0.41155970104312917,0.5117678643507422,0.36965322496442754
1683986471723482000,6.06888232421875,-0.3799767494133026,0.4928288458555523,0.36975812900443306
1683986471733523100,6.078923583984375,-0.3371721506097805,0.4868302345094505,0.3770399094953684
1683986471743564200,6.088964599609375,-0.29083096991173824,0.48415470107627,0.401251316114691
1683986471753605300,6.099005615234375,-0.2464270591873082,0.4868388175438816,0.44222879426497697
1683986471763646400,6.109046875,-0.21099781993935704,0.5045681001398955,0.48112869250270285
1683986471773687600,6.119088134765625,-0.18618237984597233,0.5251803398456061,0.5415062903849206
1683986471783728800,6.129129150390625,-0.1636108160819553,0.5243954658517728,0.6559658052083125
1683986471793769900,6.13917041015625,-0.13975036141430583,0.5038533211454495,0.851645946596681
1683986471803811000,6.14921142578125,-0.11703979966298937,0.4938158987294326,1.1081461905964205
1683986471813852100,6.15925244140625,-0.08737719066121213,0.5200519561791465,1.3821983338062216
1683986471823893200,6.16929345703125,-0.06249332444363228,0.5842008590113392,1.6568861006952504
1683986471833934300,6.179334716796875,-0.05103659633892097,0.6969652177694483,1.9239039421320836
1683986471843975300,6.189375732421875,-0.055692434419525476,0.8380136488189585,2.174536228190561
1683986471854016400,6.199416748046875,-0.08118450640600998,1.003480911337142,2.4209108353830047
1683986471864057600,6.2094580078125,-0.12120938309667324,1.1778922079842433,2.6582465171584024
1683986471874098600,6.2194990234375,-0.17404830445815414,1.3533730506539414,2.9013419151821407
1683986471884139600,6.2295400390625,-0.24453365797546056,1.5262627601423537,3.1317186354899045
1683986471894180800,6.239581298828125,-0.3380548955354255,1.6665554046271067,3.3750147819657963
1683986471904221900,6.249622314453125,-0.4572713375940436,1.7907223700959916,3.6201157569532953
1683986471914263000,6.259663330078125,-0.6579592228995649,1.8534569740722837,3.896011352549972
1683986471924304000,6.269704345703125,-1.440210699977043,1.8227324486313232,4.238183498305823
1683986471934345100,6.27974560546875,-3.122577667313537,1.5862588882922595,4.842431545202508
1683986471944386600,6.289786865234375,-3.856906414027739,1.3007497788825952,5.286246776634901
1683986471954427600,6.299827880859375,-3.8193879127535957,1.1201801301120382,5.471887111595127
1683986471964468600,6.309869140625,-3.6095223426226593,1.0136184691845622,5.580973625167164
1683986471974509700,6.31991015625,-3.351686000795946,0.9198141098456437,5.65489959713264
1683986471984550800,6.329951171875,-2.9807922840884067,0.9137148858577397,5.536005973772858
1683986471994591900,6.339992431640625,-2.530550956855069,0.9575991630063775,5.114645004178118
1683986472004633000,6.350033447265625,-2.111253976782325,0.8927030564453047,4.466996192811147
1683986472014674100,6.360074462890625,-1.7528961896862316,0.5612082481871782,3.7568578720123944
1683986472024715200,6.370115478515625,-1.4214357137161988,-0.029671192138313564,3.0565471649329714
1683986472034756300,6.38015673828125,-0.9255182741998021,-0.7902216911180604,2.365161895796696
1683986472044797400,6.39019775390625,-0.21207666383711618,-1.4749460220436021,1.5841135977774419
1683986472054838400,6.40023876953125,0.6445745228532882,-2.077958583947284,0.9971261024091082
1683986472064879600,6.410280029296875,1.5457165241307635,-2.6692166329514406,0.6884412765063439
1683986472074920600,6.420321044921875,2.3029856681553813,-3.3163800239164893,0.4556441307270161
1683986472084961600,6.430362060546875,2.9919974804494442,-4.048620700824178,0.10156679154356726
1683986472095002800,6.4404033203125,3.4807925224985423,-4.752139568370208,-0.25163126004887504
1683986472105044100,6.450444580078125,3.6476442814384034,-5.389212131572419,-0.5642066002109275
1683986472115085200,6.460485595703125,3.348863124888549,-5.886484622910204,-0.7253522872131257
1683986472125126300,6.470526611328125,2.60827660573414,-5.877562046158555,-0.9060244561134063
1683986472135167400,6.48056787109375,2.0117018222792624,-5.305894374891969,-1.1921439170661294
1683986472145208600,6.49060888671875,1.7896437644993062,-4.459957599671841,-1.475226402234426
1683986472155249600,6.50064990234375,1.8351658583140191,-3.566961288404567,-1.7079615593541868
1683986472165290600,6.510691162109375,2.1029946804148922,-2.7254061699353365,-1.8427653312202121
1683986472175331800,6.520732177734375,2.4846127034135463,-1.9737539292412498,-1.9110550880085169
1683986472185372800,6.530773193359375,2.8426339625387156,-1.3406319618395368,-2.0209503173001666
1683986472195413900,6.540814453125,3.0699553490263227,-0.8248238562344751,-2.2022566793855405
1683986472205455000,6.55085546875,3.177137374824217,-0.4100012779195294,-2.3976907730594745
1683986472215496100,6.560896484375,3.174017429316198,-0.10072135937531322,-2.5669822693753983
1683986472225537200,6.5709375,3.11522436143908,0.09130620958660292,-2.7183947563840563
1683986472235578600,6.58097900390625,3.09624052047044,0.20482826231944867,-2.8574986456968
1683986472245619600,6.59102001953125,3.144878387348134,0.2776875496436297,-2.9886260031435534
1683986472255660600,6.60106103515625,3.1831541061100403,0.3432240486271441,-3.112936496554815
1683986472265701800,6.611102294921875,3.101072311415284,0.4023141862348556,-3.2274870871592616
1683986472275742900,6.621143310546875,2.911483764687533,0.43871545782613963,-3.3147058486516907
1683986472285784000,6.631184326171875,2.6108112334002014,0.43278169613564677,-3.364121437220868
1683986472295825100,6.6412255859375,2.1954514980017312,0.36554145817487765,-3.368856429971251
1683986472305866200,6.6512666015625,1.7323793171243835,0.2128763198466448,-3.2977027892645765
1683986472315907200,6.6613076171875,1.3666949271672735,0.009015083175791907,-3.1546030045348323
1683986472325948300,6.6713486328125,1.2022148369723735,-0.20258617384209654,-2.9632387161660945
1683986472335989400,6.681389892578125,1.2345287799691989,-0.38412618651975344,-2.756379127505457
1683986472346030600,6.691430908203125,1.2550392151538947,-0.5639195442516807,-2.5254192353661753
1683986472356071600,6.701471923828125,1.1207176445955394,-0.7410640716264679,-2.2919492720620536
1683986472366112600,6.71151318359375,0.7458853721387578,-0.8728075027631182,-2.0732612609559897
1683986472376154000,6.721554443359375,0.23110294349503785,-0.93628072725984,-1.8318204879406226
1683986472386195100,6.731595458984375,-0.4398164749084411,-0.9910149575199657,-1.5579967498652665
1683986472396236200,6.74163671875,-1.3212089538351997,-1.0525708198422348,-1.181914329475109
1683986472406277300,6.751677734375,-2.15682411210109,-1.1216731070985693,-0.7393221856420142
1683986472416318400,6.76171875,-2.755264282375204,-1.2185373306770713,-0.3463239668945646
1683986472426359500,6.771759765625,-2.954093217888504,-1.2810940742915393,-0.08921051026196601
1683986472436400600,6.781801025390625,-2.7467074393248554,-1.2545857429850515,0.03984975803145168
1683986472446441600,6.791842041015625,-2.2986569404171275,-1.0979371072451198,0.07640790942094239
1683986472456482700,6.801883056640625,-1.7447187900773573,-0.8287963868396646,0.020792484207922693
1683986472466523800,6.81192431640625,-1.178396225033721,-0.48941040032203387,-0.10420084006129307
1683986472476564900,6.82196533203125,-0.6939661502621645,-0.10240507123179053,-0.2714457510839474
1683986472486606000,6.83200634765625,-0.32205057140063037,0.29910182956657716,-0.46527004237773595
1683986472496647300,6.8420478515625,0.03148317347494375,0.6932001114526808,-0.6629691123388413
1683986472506688400,6.8520888671875,0.3684175014086878,1.0386228560568274,-0.8796577453466888
1683986472516729600,6.8621298828125,0.6184209585252326,1.2928171157875972,-1.1017394066612147
1683986472526770600,6.8721708984375,0.9411228894316211,1.4593458176277938,-1.2722039223304693
1683986472536811600,6.882212158203125,1.4264508485096412,1.5006899833539165,-1.358148574815734
1683986472546852800,6.892253173828125,2.009023189648754,1.3752598763619297,-1.3200449943031907
1683986472556893900,6.902294189453125,2.5298254488831757,1.1423792840672835,-1.1367311476557145
1683986472566935000,6.91233544921875,2.8227853774176204,0.8511657713085496,-0.8566131591885495
1683986472576976000,6.92237646484375,2.842988967955403,0.5132002832206621,-0.5158224105623684
1683986472587017100,6.93241748046875,2.563624382062676,0.1177315713052428,-0.09223175038118091
1683986472597058200,6.942458740234375,2.0524601936964166,-0.3647279739992631,0.599432468412988
1683986472607099300,6.952499755859375,1.3211312294327684,-0.8699779509017372,1.4907293319957384
1683986472617140400,6.962540771484375,0.4748499691772554,-1.337653636891421,2.307120799963881
1683986472627181600,6.972581787109375,-0.5111593604900635,-1.7276229859292134,2.933319091674285
1683986472637222800,6.982623291015625,-1.6788884402301174,-2.0065755844540942,3.334474086663863
1683986472647263900,6.992664306640625,-2.6862125396615295,-2.071141242966866,3.361800193751587
1683986472657305000,7.002705322265625,-3.292092084916409,-1.8228163720071464,3.008946418788311
1683986472667346100,7.01274658203125,-3.5743496416380105,-1.5378623007151278,2.0996866226718245
1683986472677387200,7.02278759765625,-3.636877298364618,-1.3369855880030337,0.8897013665455258
1683986472687428300,7.03282861328125,-3.3369133473057353,-1.1203818320920185,-0.42043352118787447
1683986472697469400,7.042869873046875,-2.662767171954084,-0.9869794845754947,-1.315327644166512
1683986472707510400,7.052910888671875,-1.8009027243533384,-0.8531160353790642,-1.6716399191957265
1683986472717551600,7.062951904296875,-0.9370716212848355,-0.5375008584097717,-1.8036079405292296
1683986472727592900,7.0729931640625,-0.19840811200690697,-0.09876823418838715,-1.8607130049472371
1683986472737634000,7.083034423828125,0.3619913458618142,0.33005857473974,-1.8638181687127071
1683986472747675100,7.093075439453125,0.8390874861479126,0.556682109792731,-1.7120814322367945
1683986472757716100,7.103116455078125,1.3423461914549668,0.5206351281724679,-1.398172855344871
1683986472767757200,7.11315771484375,1.8612349033441082,0.2927961349817868,-0.9980225564379049
1683986472777798300,7.12319873046875,2.3288378715859115,-0.03389692313496435,-0.5740871429786384
1683986472787839400,7.13323974609375,2.673943757916183,-0.3593134878932679,-0.15701866141967272
1683986472797880600,7.143281005859375,2.838003158602133,-0.614431381234813,0.20872163763217502
1683986472807921600,7.153322021484375,2.810814619094995,-0.7725977897996864,0.5226879119591296
1683986472817962600,7.163363037109375,2.6259722709477313,-0.8274497986640251,0.752370357592064
1683986472828003800,7.173404052734375,2.3425636292323566,-0.7608170511259751,0.9007701874086727
1683986472838044800,7.1834453125,1.9973280430542262,-0.6098046301579403,0.9912333488406814
1683986472848085900,7.193486328125,1.6036872862170086,-0.398878574377326,1.0491399763826021
1683986472858127300,7.203527587890625,1.1943153142702652,-0.1475577354173127,1.0753736496415633
1683986472868168400,7.21356884765625,0.7697076796933389,0.12651824948895435,1.079532146478459
1683986472878209500,7.22360986328125,0.32644283767181703,0.40563535687419106,1.0595059395246231
1683986472888250600,7.23365087890625,-0.6249877213958165,0.6863727568674255,0.981276512050162
1683986472898291600,7.243692138671875,-2.2994923590295033,0.8638639450015931,0.9221782683788949
1683986472908332600,7.253733154296875,-3.3302941323976087,0.8657522201264767,0.8562374114276582
1683986472918373800,7.263774169921875,-3.2786719799461888,0.8337645530921483,0.721967220379384
1683986472928414900,7.273815185546875,-2.723171234172591,0.8478674889913286,0.5671205521371095
1683986472938456000,7.2838564453125,-2.0972812174170907,0.8804216385100175,0.476737022257005
1683986472948497100,7.2938974609375,-1.5123404264528058,0.9356994630166796,0.4688391686502902
1683986472958538200,7.3039384765625,-1.0271983145086307,1.0339279173625564,0.5073342323748065
1683986472968579600,7.31397998046875,-0.6656881570182039,1.1781902313317554,0.5914001464789856
1683986472978620600,7.32402099609375,-0.3959623575007476,1.3748822210392229,0.7188029290508837
1683986472988661600,7.33406201171875,-0.16865897169370356,1.605153083832304,0.8793616295397085
1683986472998702800,7.344103271484375,0.007787585199086492,1.8262143134385203,1.0706129073722068
1683986473008743900,7.354144287109375,0.10611295702174509,2.0035867692610525,1.3152704239795097
1683986473018784900,7.364185302734375,0.1021209954678555,2.117783069736311,1.622269630456452
1683986473028826000,7.374226318359375,-0.02947497362094463,2.1834306717328005,1.9739308358209333
1683986473038867100,7.384267578125,-0.3642573355783003,2.230579853006411,2.325947284797973
1683986473048908200,7.39430859375,-0.9213804006100301,2.296136856211746,2.6710162163092086
1683986473058949600,7.404349853515625,-1.579950094168174,2.3573427198472077,3.0376410485745824
1683986473068990600,7.41439111328125,-2.491122722566653,2.400609970171282,3.434403419443137
1683986473079031600,7.42443212890625,-3.3107151984658043,2.363809108840162,3.848143100659482
1683986473089072800,7.43447314453125,-3.1662492751528792,2.23012065903589,4.114248275742429
1683986473099113900,7.444514404296875,-2.568386077806468,2.012509345997317,4.174433231266863
1683986473109155000,7.454555419921875,-1.964329838723063,1.6844396591061426,4.248139858081845
1683986473119196100,7.464596435546875,-1.7399398086855926,1.213398933345,4.561912536781715
1683986473129237200,7.474637451171875,-2.106856346033796,0.6094188689663732,5.105980396335269
1683986473139278300,7.4846787109375,-2.7153587340595937,0.010760307477856005,5.603916645019941
1683986473149319300,7.4947197265625,-3.021549940223824,-0.4768886566128571,5.755904674507759
1683986473159360400,7.5047607421875,-2.924642324580207,-0.8181920051800875,5.456720352122977
1683986473169401600,7.514802001953125,-2.5855166912587997,-1.1282668114406162,4.798521041853953
1683986473179442900,7.52484326171875,-2.300908803889168,-1.5695385933799335,4.021485805611879
1683986473189484000,7.53488427734375,-1.8491259813564198,-2.1242580412198286,3.1945781708225693
1683986473199525000,7.544925537109375,-1.0933680533939232,-2.7440190314660162,2.3500123023964368
1683986473209566100,7.554966552734375,-0.12424737217293608,-3.3357467651092954,1.623204708004796
1683986473219607200,7.565007568359375,0.9259381889452363,-3.7391958236719782,1.0874929428085325
1683986473229648300,7.575048583984375,1.8347737789041063,-4.050129890496966,0.7060189246118959
1683986473239689400,7.58508984375,2.5288166999284245,-4.379341602339941,0.3846139908750871
1683986473249730600,7.595130859375,3.0334072113282358,-4.64527416220592,0.07110166554882036
1683986473259771600,7.605171875,3.3624324799307965,-4.721509456694327,-0.45046949397597985
1683986473269812600,7.615213134765625,3.372259140029813,-4.645594596881085,-1.0714712143278304
1683986473279854000,7.62525439453125,2.887296914950283,-4.371213436079663,-1.5235643386644033
1683986473289895100,7.63529541015625,2.0963783264806524,-3.9300642014185714,-1.7613568305963188
1683986473299936200,7.645336669921875,1.4784677028062783,-3.4315848350381866,-1.9073987007649196
1683986473309977300,7.655377685546875,1.4010517596860375,-2.9462161063665797,-2.0408859252177995
1683986473320018400,7.665418701171875,1.6442000867282969,-2.449740409841467,-2.221344470931716
1683986473330059400,7.6754599609375,2.118747949627925,-2.0057568550907328,-2.403501510672186
1683986473340100600,7.6855009765625,2.8454716205673307,-1.6320028304127865,-2.640276908904894
1683986473350141600,7.6955419921875,3.423034667903377,-1.2807831765266333,-2.7721734046073587
1683986473360182600,7.7055830078125,3.559272766102983,-0.9661474227824873,-2.8821802139323354
1683986473370223800,7.715624267578125,3.410666465698428,-0.6770062444853272,-2.9824314117771036
1683986473380265100,7.72566552734375,3.08775281901992,-0.39544534675382204,-3.0589079857212322
1683986473390306200,7.73570654296875,2.7845695017885093,-0.1489601133882267,-3.0969181061133613
1683986473400347300,7.745747802734375,2.683912992494772,0.07588291174057087,-3.169396877334002
1683986473410388400,7.755788818359375,2.7551708220939313,0.2684035302311495,-3.310471534743632
1683986473420429600,7.765829833984375,2.9218263625959806,0.42530727377573385,-3.4580655098711763
1683986473430470600,7.77587109375,3.081403255536186,0.5388860703104023,-3.5623688697531657
1683986473440511600,7.785912109375,3.1776654720064363,0.5877356527846392,-3.6058716772858603
1683986473450552800,7.795953125,3.1459276677636874,0.5764713287986531,-3.609835624539961
1683986473460593800,7.805994140625,2.959799051293179,0.5146522520730465,-3.6508064270354867
1683986473470634900,7.816035400390625,2.664679050373722,0.45216321946438787,-3.830384969728539
1683986473480676300,7.82607666015625,2.2959454058857447,0.3795442580721427,-4.059272766034325
1683986473490717400,7.83611767578125,1.9094204904158836,0.2786383627253579,-4.233341217068091
1683986473500758400,7.846158935546875,1.5915663241819846,0.11627483374907206,-4.243617057866959
1683986473510799600,7.856199951171875,1.287991166243427,-0.08957624428938954,-4.030734062084951
1683986473520840600,7.866240966796875,0.8621230125214321,-0.3408427237936758,-3.621863365058762
1683986473530881600,7.8762822265625,0.32446169845481687,-0.5162010193809907,-3.088950633870441
1683986473540922800,7.8863232421875,-0.49257087698754715,-0.43979454041038996,-2.1544237137002953
1683986473550963900,7.8963642578125,-1.5471956729635423,-0.10074758530619704,-0.6338973046220049
1683986473561005200,7.906405517578125,-2.5423252583800373,0.30245256420818784,1.240164756780566
1683986473571046300,7.91644677734375,-3.3549447059177444,0.7356858252259613,3.0446472167072343
1683986473581087400,7.92648779296875,-3.6055362224841856,1.2165508270335466,4.355024814661954
1683986473591128600,7.93652880859375,-3.1837642192789164,1.6693677902555695,4.829887867043802
1683986473601169600,7.946570068359375,-2.4605460167209756,1.909818649313835,4.726641654988324
1683986473611210600,7.956611083984375,-1.8214097022750124,1.8627176283985574,4.276710033576104
1683986473621251800,7.966652099609375,-1.2710433007922894,1.6901950836987687,3.415416717521243
1683986473631292800,7.976693359375,-0.7417929172996208,1.5364656448027885,2.287385940527748
1683986473641333900,7.986734375,-0.2709467411647351,1.4488453865496138,1.1119260787786498
1683986473651375300,7.996775634765625,0.07651543604002022,1.4028978347603,0.03664445872081784
1683986473661416400,8.006816650390626,0.2496097087280772,1.382310390453977,-0.8423595429358037
1683986473671457500,8.01685791015625,0.2937821149660835,1.361969947810114,-1.4978857041397051
1683986473681498600,8.02689892578125,0.2674125432618613,1.339448452085299,-1.8842229842320737
1683986473691539600,8.03693994140625,0.37778389443367294,1.2280211449479823,-1.9465737343092608
1683986473701580600,8.046981201171874,0.6173447369164363,0.8835353849639384,-1.6634936332175108
1683986473711621800,8.057022216796875,0.8808355331635812,0.297778129656475,-1.065144061870213
1683986473721662900,8.067063232421875,1.0310325623017491,-0.5099668502453718,-0.2805514335854946
1683986473731704200,8.077104736328126,1.2246390580129962,-1.4679450989803005,0.7805438042149305
1683986473741745300,8.087145751953125,1.0302491189227658,-2.5857067107784566,2.0060977935897792
1683986473751786400,8.097186767578124,-1.1105626820857033,-3.851266861000605,3.4583830833151654
1683986473761827600,8.107227783203125,-2.2692370415871963,-4.161859035435546,4.4844112395975975
1683986473771868600,8.11726904296875,-2.2515890596787402,-3.820401191657099,4.753618717223806
1683986473781909600,8.12731005859375,-1.4511061907454417,-3.2240695953445266,4.263911247400267
1683986473791950800,8.13735107421875,-0.4272561075039314,-2.6537141800714075,3.371058463903133
1683986473801991900,8.147392333984374,0.3400330542284602,-2.076149463617463,2.3004446031085144
1683986473812032900,8.157433349609375,0.7979006767459784,-1.4896931649944258,1.223276615167446
1683986473822074300,8.167474609375,1.0142673252575511,-0.9051537515369907,0.24826335914965045
1683986473832115400,8.177515869140626,1.0374746322661064,-0.341412067534479,-0.6073346138857875
1683986473842156500,8.187556884765625,0.9514603019270352,0.2130198478998736,-1.4081268309017094
1683986473852197600,8.197597900390624,0.7158609629304425,0.7261099814303341,-2.225725173979503
1683986473862238600,8.20763916015625,0.057065278114930576,1.0186815261318907,-3.1043972968846414
1683986473872279700,8.21768017578125,-0.10041242842482324,1.0412678718455168,-3.381123542867535
1683986473882320800,8.22772119140625,0.34241420037819825,0.9239249228443394,-3.1397912502921566
1683986473892361900,8.23776220703125,1.0264973641020454,0.6764779089768659,-2.644834518387176
1683986473902403000,8.247803466796874,1.644592642851322,0.3189501761653757,-2.025183200926982
1683986473912444300,8.2578447265625,2.112823247957401,-0.10220813768084118,-1.409799098910431
1683986473922485400,8.2678857421875,2.4573228359889367,-0.44387817369937815,-0.926464557731607
1683986473932526600,8.277927001953126,2.6705610752527575,-0.6724686623260708,-0.6302051545301142
1683986473942567600,8.287968017578125,2.6916935443083987,-0.8066015244979748,-0.4814696313051175
1683986473952608600,8.298009033203124,2.5525784493039714,-0.8602409363929717,-0.43034124376541777
1683986473962649800,8.30805029296875,2.3544917105079857,-0.834285735963103,-0.4422082900749125
1683986473972690900,8.31809130859375,2.103057861366107,-0.7601757050021342,-0.5085425377041718
1683986473982732000,8.32813232421875,1.7950413228249296,-0.6509032249841952,-0.5934119225643972
1683986473992773000,8.33817333984375,1.395513773095834,-0.506767273095454,-0.6442003250237536
1683986474002814400,8.34821484375,0.29903781422757375,-0.2417893407988461,-0.6393322945726722
1683986474012855500,8.358255859375,-1.2733843326326029,0.08214473728507124,-0.4459667204772659
1683986474022896600,8.368296875,-2.2092576027396467,0.34493350968192066,-0.2454981803444338
1683986474032937600,8.378338134765626,-2.284371375942454,0.5572214126602504,-0.16941738124169936
1683986474042978700,8.388379150390625,-1.8172683716073263,0.7310819626014322,-0.14870119103488333
1683986474053019800,8.398420166015624,-1.1476058959676614,0.8369059561952271,-0.1390347480911166
1683986474063060900,8.40846142578125,-0.49970602984359785,0.8931813240687134,-0.10730743406850302
1683986474073102000,8.41850244140625,0.022936820993436812,0.9418563841825603,-0.06912231433645838
1683986474083143300,8.428543701171876,0.4186273218120449,1.0025582312309107,-0.047983169385043094
1683986474093184400,8.438584716796875,0.6974267958060647,1.0624895096345994,-0.02075862880923137
1683986474103225600,8.4486259765625,0.8720943927364939,1.1076374054487061,0.034485340118421255
1683986474113266600,8.4586669921875,0.9519326687301228,1.128872871446059,0.14671564107602406
1683986474123307600,8.4687080078125,0.9705261588640136,1.1306648252769693,0.30556678768901196
1683986474133348800,8.478749267578126,0.9555801152634495,1.1277670861099418,0.4966621398257759
1683986474143389900,8.488790283203125,0.9017721414971906,1.1533575057741934,0.6791453360545119
1683986474153431000,8.498831298828126,0.8137304782638602,1.193685054792007,0.8419466019766424
1683986474163472300,8.508872802734375,0.6985760927713399,1.243866443604174,1.0133481026335598
1683986474173513400,8.518913818359374,0.32522058475385324,1.403538227119687,1.6194443702003933
1683986474183554600,8.528954833984375,0.08621275428714954,1.3949604034369822,1.6548576356149778
1683986474193595600,8.538995849609375,-0.16054642208289008,1.268548965427431,1.516633033637571
1683986474203636600,8.549037109375,-0.509735584163936,1.0918111800680697,1.3465962409626897
1683986474213677700,8.559078125,-1.0234032868520562,0.8782086371566633,1.0687742233191122
1683986474223718800,8.569119140625,-1.494521856434126,0.5146026610684364,0.946402549675281
1683986474233759900,8.579160400390625,-1.7511343956907057,0.0764393806008037,0.9726762773057186
1683986474243801000,8.589201416015625,-1.9123743771148247,-0.35598421102831596,1.0104994773300442
1683986474253842400,8.59924267578125,-1.9835517407197305,-0.6997566222523488,1.1228389739094922
1683986474263883400,8.609283935546875,-1.825043439889146,-0.8944220543933104,1.4336333274078064
1683986474273924600,8.619324951171874,-1.2537336348615475,-0.7453389168385985,1.8545045852969055
1683986474283965600,8.629365966796875,-0.5664472580637109,-0.17440843577808313,2.2252516745920556
1683986474294006600,8.639406982421875,-0.06001198306194952,0.5499892234636027,2.5135879515738666
1683986474304047800,8.6494482421875,0.08393168439504806,1.1072359085112145,2.7885694503531164
1683986474314088900,8.6594892578125,-0.006348729111360022,1.2713322639567857,3.2642650603920575
1683986474324130000,8.6695302734375,-0.011477470529330064,0.9515385628300392,4.055315494406476
1683986474334171300,8.67957177734375,0.024164319189787068,0.5310292243493495,4.90340709675497
1683986474344212400,8.68961279296875,-0.006642937755581108,0.44838237764477945,5.542829990330993
1683986474354253600,8.69965380859375,-0.2902845142463347,0.6075110435035992,5.978041648921448
1683986474364294600,8.709695068359375,-0.9476180672871929,0.888698100947065,6.3234944343734005
1683986474374335600,8.719736083984374,-1.7669430972431308,1.3120498656777662,6.571614265320025
1683986474384376800,8.729777099609375,-3.103114128033617,1.9817738534329365,6.471104144932635
1683986474394417800,8.739818359375,-3.9096593856824877,2.650353431727291,5.966716766494902
1683986474404459200,8.749859619140626,-2.862308740617286,2.9827733041025986,5.155467987129053
1683986474414500300,8.759900634765625,-0.814774632433159,2.8888978958299356,3.6932024956661924
1683986474424541400,8.769941650390624,0.7582229972085464,2.0649027823357824,1.6782526970564846
1683986474434582400,8.77998291015625,1.6972076892520152,0.825219154264148,-0.4167575837760036
1683986474444623600,8.79002392578125,1.843399166964778,-0.4446339607310935,-2.1434769630382173
1683986474454664600,8.80006494140625,1.6542365550263223,-1.7746834753395844,-3.0165598392838833
1683986474464705600,8.810106201171875,1.183459997180541,-3.0905370714101457,-2.362445354497113
1683986474474746800,8.820147216796874,1.338527917832086,-3.707377910702879,-1.7237915993047381
1683986474484788100,8.8301884765625,1.8913271426189473,-3.6540007591360957,-1.6409273148582306
1683986474494829200,8.840229736328125,2.530891895213591,-3.8349313735702073,-1.4664087296504278
1683986474504870300,8.850270751953126,3.2452032567443343,-4.166625499785677,-0.8601393698359774
1683986474514911400,8.860311767578125,3.715007543690853,-4.3205823898740014,-0.05798435217531498
1683986474524952600,8.870352783203124,3.603540420428767,-4.029449462930596,0.3601260186529066
1683986474534993600,8.88039404296875,2.9298400878035795,-2.9293441772814446,-0.30649757399456984
1683986474545034600,8.89043505859375,2.7127251624119793,-1.6217536927675757,-0.999533653223223
1683986474555075800,8.90047607421875,2.905849933649561,-0.5931401253520243,-1.3025717735715112
1683986474565117100,8.910517578125,3.36419582356906,-0.0053591727812421375,-1.2633175849736116
1683986474575158200,8.92055859375,3.435452461240534,0.25640726093998534,-1.1652588842698082
1683986474585199300,8.930599609375,3.2648258208466046,0.34764909750934003,-1.059144496809555
1683986474595240400,8.940640869140625,2.8531007765711913,0.5078377723467398,-0.8864264486837011
1683986474605281500,8.950681884765626,2.4239587783875893,0.5912938117023123,-0.7094178200557197
1683986474615322600,8.960722900390625,2.122566699843436,0.4770569799587118,-0.9172573087903012
1683986474625363600,8.970763916015626,2.726138115023878,0.4757652282760336,-1.2711143493147496
1683986474635404600,8.98080517578125,3.43689346308491,0.3919844627369094,-1.2157597543235943
1683986474645446100,8.990846435546874,3.879594087761274,0.3486771582911408,-1.2273998259418468
1683986474655487200,9.000887451171875,3.597824811887173,0.31673002229284447,-1.2252397537861703
1683986474665528200,9.0109287109375,3.28181171424639,0.3061795233992478,-0.9365205764705417
1683986474675569300,9.0209697265625,2.821896553056131,0.21566724764847398,-0.5721645356114876
1683986474685610400,9.0310107421875,2.372920751595181,0.1717228889388184,-0.38937234867411336
1683986474695651600,9.041052001953124,1.9183565377241967,0.16956090928355413,-0.3522691727953622
1683986474705692600,9.051093017578124,1.6937246321517054,0.12688493725931554,-0.47457599640153336
1683986474715733600,9.061134033203125,1.589716196174431,0.17713975911206378,-0.7619090081045726
1683986474725775000,9.071175537109376,1.7019388676177025,0.11076784151564918,-1.235910892582373
1683986474735816100,9.081216552734375,1.671515583948913,-0.17468166358195603,-1.875973224584248
1683986474745857200,9.091257568359374,1.4331802130908085,-0.5421023369315313,-2.507937908032099
1683986474755898300,9.101298583984375,1.0692169666505886,-0.88487100587808,-2.873326301604497
1683986474765939400,9.11133984375,0.7056411504567737,-1.1849923132874056,-3.1009263992366183
1683986474775980500,9.121380859375,0.19127678871680331,-1.3918013571969552,-3.223643779689693
1683986474786021600,9.131421875,-0.33827447880659517,-1.4809927939114926,-3.106560707045995
1683986474796062600,9.141463134765624,-0.8703744411186973,-1.5437874794814028,-2.7162113191255584
1683986474806104000,9.15150439453125,-1.4216316938274782,-1.513546943731666,-2.360299110368687
1683986474816145100,9.16154541015625,-1.862358212476119,-1.4553499221088169,-1.997138500303561
1683986474826186200,9.171586669921876,-1.8775180578779305,-1.3260669709044872,-1.7525968550917
1683986474836227200,9.181627685546877,-1.4935064316540918,-1.2626214027090468,-1.7000403404257736
1683986474846268300,9.191668701171874,-1.0514863729135266,-1.0618419645894062,-1.8439664840923073
1683986474856309400,9.201709716796875,-0.9192616940551657,-0.9556403160292134,-1.7478795050987883
1683986474866350600,9.2117509765625,-0.5342841148398273,-0.8009376525264612,-1.4865326882493968
1683986474876391900,9.221792236328126,-0.3080761434260892,-0.3738946913699292,-1.1299233436516578
1683986474886432900,9.231833251953123,-0.11569619177359311,0.1829652785873622,-0.540293693597949
1683986474896474000,9.24187451171875,0.05875778202482903,0.64574480061763,0.10621166230236313
1683986474906515100,9.25191552734375,0.25134491926016744,1.0175347327947482,0.6624517442303224
1683986474916556200,9.26195654296875,0.42913246147945855,1.3182606696322443,1.1471362112986463
1683986474926597300,9.271997802734376,0.5071678161661465,1.4942355154735445,1.4646887780371387
1683986474936638400,9.282038818359377,0.35242950927013056,1.7120532989189239,1.612511157829092
1683986474946679600,9.292080078125,0.0641025305170614,1.9586336612466526,1.6375298500206472
1683986474956720800,9.302121337890624,-0.12772059439047703,2.1527891159335875,1.4703702927145768
1683986474966761900,9.312162353515625,-0.31081569200824954,2.251369953151868,1.022027492579972
1683986474976803000,9.322203369140626,-0.523308277173196,2.053835868745227,0.3713998794385722
1683986474986844100,9.332244384765623,-0.15328323838067345,1.0898966790313185,0.22694873812414895
1683986474996885200,9.34228564453125,0.4208848474776491,-0.2680010796491953,0.6294002534629779
1683986475006926300,9.35232666015625,0.5953581929204639,-1.456163406374092,1.308702468806373
1683986475016967600,9.362367919921876,-0.2527639865436243,-2.75676393492692,2.05286026004659
1683986475027008600,9.3724091796875,-1.0958117246984798,-4.106142520851875,2.9131669997831033
1683986475037049800,9.3824501953125,-2.327803135011099,-5.6833806038163015,4.0401215552751575
1683986475047090900,9.3924912109375,-3.7103900909306606,-7.2468533515297615,4.929664611764004
1683986475057132000,9.402532470703123,-1.8382912874316015,-7.060807227968794,4.944031238524846
1683986475067173000,9.412573486328125,1.7174327374792113,-4.132751941758654,3.516176223620777
1683986475077214100,9.422614501953126,4.358712196308523,-1.9078521727145805,2.4077467919837106
1683986475087255600,9.43265576171875,5.362234115540528,-0.7126078605838849,1.6384267806799797
1683986475097296600,9.442697021484374,5.236629009154522,0.052760600889849005,0.8434662817477239
1683986475107337600,9.452738037109375,4.45229959475327,0.8294024467167538,-0.34417915350539846
1683986475117378700,9.462779052734374,3.667557239590059,1.4926209450671954,-1.3497638701570394
1683986475127419800,9.4728203125,2.8786675930320733,2.068269729632114,-2.2585611343578598
1683986475137460900,9.482861328125,2.146388769182114,2.452489852765204,-2.6703290939046997
1683986475147502000,9.49290234375,1.5043896435304256,2.8435080051363375,-3.0680217742085705
1683986475157543300,9.50294384765625,0.8078120947080228,3.199662923923636,-3.637753724871922
1683986475167584400,9.51298486328125,-1.5464961528628214,3.117533445235415,-4.883766174241822
1683986475177625600,9.52302587890625,-3.713633298858785,1.9100103376477886,-5.408752441392472
1683986475187666600,9.53306689453125,-2.2098672389306255,0.7593269347189969,-3.6993622780990782
1683986475197707600,9.543108154296876,0.07463246588382644,0.42486715304055,-1.9725127220268626
1683986475207748800,9.553149169921875,1.81124484522686,0.22652292253963027,-0.6567645073244968
1683986475217789900,9.563190185546874,2.8552997113307863,-0.41917896268464705,0.35847282416373866
1683986475227831200,9.573231689453126,3.3819961547971054,-1.3311142920768406,1.3426203729021988
1683986475237872300,9.583272705078125,3.5839326379998044,-2.319155216248864,2.1172723769680193
1683986475247913400,9.593313720703126,3.537313222804014,-2.974586486936171,2.4866857529740476
1683986475257954600,9.60335498046875,3.1911597252063393,-3.062306880914088,2.1783699988820695
1683986475267995600,9.61339599609375,2.74737620353427,-2.7586293221270193,1.4175705908887521
1683986475278036600,9.62343701171875,2.3853542804616,-2.1242418289468916,0.3897614478868102
1683986475288077700,9.63347802734375,2.144391775046347,-1.483409881602525,-0.5436425210097257
1683986475298118800,9.643519287109376,1.9807848928975496,-0.8902411462332088,-1.2662453651187655
1683986475308160200,9.653560546875,1.7637184858903598,-0.4586977958280481,-1.7154254912013045
1683986475318201300,9.6636015625,0.9495654105509053,-0.2407298086872026,-2.1665635107901724
1683986475328242400,9.673642822265624,-0.7200285196239785,-0.2207732199743968,-2.6651005745737444
1683986475338283400,9.683683837890625,-1.7862532139332992,-0.27619171142827253,-3.0230464936381747
1683986475348324600,9.693724853515626,-1.4550784825642287,-0.24167442315275586,-2.854161739538303
1683986475358365600,9.70376611328125,-0.3929837347391601,-0.20154953007913018,-2.097687721381315
1683986475368406600,9.71380712890625,0.4583186508281838,-0.12619066249005204,-1.39579534549213
1683986475378448000,9.723848388671875,0.9083200096875271,-0.05375862113856844,-0.8361873625657315
1683986475388489100,9.7338896484375,0.9908369183161208,0.00045394897962009844,-0.25942230229034097
1683986475398530200,9.7439306640625,0.9453140498138303,0.15012216557122665,0.06576967240109025
1683986475408571300,9.7539716796875,0.8726552723958507,0.43340206159404193,0.18767881379518164
1683986475418612400,9.7640126953125,0.911999702528062,0.7109055517506272,0.24929714195396
1683986475428653600,9.774053955078124,0.9366275666586691,0.8811855316193146,0.3808546066683705
1683986475438694600,9.784094970703125,0.9557289480579132,0.9653611182952624,0.5530247688362141
1683986475448735900,9.79413623046875,1.0295543670748,0.927173614535869,0.7701511383420754
1683986475458777000,9.804177490234377,1.0613491534454824,0.857042312547797,1.0270137786561628
1683986475468818100,9.814218505859374,0.9656558037643254,0.7687411307055017,1.284873485598091
1683986475478859200,9.824259521484375,0.7758417726196825,0.7621607780891211,1.5027480125532584
1683986475488900300,9.83430078125,0.539079964210886,0.7819190025225994,1.5728917122635087
1683986475498941400,9.844341796875,0.31003195044301873,0.8110089301594691,1.5856719016507743
1683986475508982400,9.8543828125,0.058352172312660266,0.8201546669147957,1.5159187316932772
1683986475519023800,9.864424072265624,-0.15189147009848347,0.7848944664690125,1.4173240663130242
1683986475529064900,9.87446533203125,-0.2650585175483283,0.703009128705064,1.2634439468910124
1683986475539106000,9.88450634765625,-0.32013225555486047,0.5943174361951373,1.055356502510862
1683986475549147100,9.89454736328125,-0.36683297152260647,0.4766602515419973,0.7925124167816338
1683986475559188100,9.904588623046877,-0.3554331063714349,0.3176722526080019,0.5458345413042712
1683986475569229200,9.914629638671874,-0.4344627260798823,0.11572694774205745,0.3208241464098262
1683986475579270600,9.9246708984375,-0.6023910643233774,-0.13974428159285116,0.04219675062899309
1683986475589311600,9.934712158203125,-0.7820658684023168,-0.4189014435089939,-0.2223277093059377
1683986475599352800,9.944753173828126,-0.9087764025755191,-0.5994653701969153,-0.41537714003856047
1683986475609393800,9.954794189453125,-0.9171868562868604,-0.7481818199722146,-0.620415210776197
1683986475619434900,9.96483544921875,-0.8363219499323085,-0.8029899597337118,-0.6796550750247798
1683986475629476000,9.97487646484375,-0.6074342728392929,-0.7809758186452674,-0.6125001908134642
1683986475639517400,9.984917724609376,-0.19917738437573143,-0.6488046646522273,-0.5095543861395527
1683986475649558400,9.994958740234376,0.3386393189669594,-0.4194011687830283,-0.24719285966302054
1683986475659599600,10.005,0.9144091011034747,-0.16882991800488917,0.19381523128015216
1683986475669640600,10.015041015625,1.4526387453743996,-0.030656337684464678,0.7746744156989287
1683986475679681600,10.02508203125,1.9132816792469114,0.03693056103615131,1.3118734359160873
1683986475689722800,10.035123291015625,2.291068315592336,-0.0004878044049328895,1.6920795439268188
1683986475699763900,10.045164306640626,2.591444492389064,-0.07929372786716597,2.017326831816999
1683986475709805200,10.05520556640625,2.790233135158178,-0.13802909844924618,2.275261402065361
1683986475719846300,10.065246826171874,2.7770419120390915,-0.2290992736812452,2.528611660037663
1683986475729887400,10.075287841796875,2.4521875381163785,-0.2770066261642399,2.5738935469857447
1683986475739928600,10.085328857421874,1.779871106214828,-0.24166059506002513,2.311451912036358
1683986475749969600,10.095369873046875,0.7204520703431483,-0.24100542063472938,1.7843852043205142
1683986475760010600,10.1054111328125,-0.9347224830684676,-0.39795351021271197,1.196797370783627
1683986475770051800,10.1154521484375,-3.179302930672443,-0.5653123856363675,0.6175804138100468
1683986475780092800,10.1254931640625,-4.221915244909325,-0.5883464812012476,0.18418216708837157
1683986475790134200,10.13553466796875,-3.4673018456117584,-0.3292417526376883,-0.18933629999647486
1683986475800175300,10.14557568359375,-2.2697429656577177,0.09304237367088272,-0.4966049194864157
1683986475810216400,10.15561669921875,-1.1312971115815007,0.5002613067441626,-0.7340326309026426
1683986475820257500,10.165657958984376,0.056713491686405576,0.7496075630185716,-0.9410638808843894
1683986475830298600,10.175698974609375,1.1505264043988743,0.9322471618154222,-1.2053437233394697
1683986475840339600,10.185739990234374,1.9884785413433288,0.923974990796744,-1.3345012665697633
1683986475850380600,10.195781005859375,2.1979298591655074,0.7451267243355892,-1.237745285044704
1683986475860422100,10.205822509765625,1.9197607041994549,0.4544224738568951,-1.131720543024161
1683986475870463200,10.215863525390626,1.4799399376048163,0.08971166606852907,-1.03530740734971
1683986475880504200,10.225904541015623,1.1060730219239396,-0.1701517105922626,-0.8311824798092596
1683986475890545300,10.23594580078125,0.9294501542756193,-0.3950967789075423,-0.610869407614845
1683986475900586400,10.24598681640625,0.9466129542042842,-0.39637804017989847,-0.3868064881943752
1683986475910627600,10.25602783203125,1.0419672727877762,-0.35549211516504053,-0.2882428170277418
1683986475920668800,10.2660693359375,1.1528934241661526,-0.3770589828648047,-0.26282215108236057
1683986475930709900,10.2761103515625,1.2132143974722476,-0.5297422410001298,-0.26752996441167914
1683986475940751000,10.2861513671875,1.22769939911622,-0.7149758338572305,-0.23254823700282798
1683986475950792100,10.296192626953124,1.0940616131150758,-0.8873596189996678,-0.2388963699730971
1683986475960833200,10.306233642578125,0.9383177160858646,-1.0497336387404943,-0.26287364966117027
1683986475970874300,10.316274658203126,0.9499279855878503,-0.9782719611189371,-0.31221771239357954
1683986475980915600,10.32631591796875,1.0715341567858085,-0.8605465889213539,-0.4521069526252028
1683986475990956600,10.336357177734374,1.1489528417817527,-0.6298279761307909,-0.5579185485869358
1683986476000997800,10.346398193359375,1.1330418588257225,-0.3368825911482001,-0.5200715064147923
1683986476011038900,10.356439208984376,0.9509571790589252,-0.0963993073770472,-0.52727937698933
1683986476021080000,10.36648046875,0.6922318338957787,0.07590007769703389,-0.480405807334671
1683986476031121100,10.376521484375,0.35905587685485285,0.15401887889138893,-0.38910770416274354
1683986476041162400,10.386562744140624,0.10523653023076865,0.11719083789728545,-0.32018899931541955
1683986476051203600,10.39660400390625,-0.06825196759965009,-0.006682872688757797,-0.42049551014965414
1683986476061244600,10.40664501953125,-0.14009535312980645,-0.0965361594912818,-0.5949368476783475
1683986476071285600,10.41668603515625,-0.100146889721548,-0.27807712558288133,-0.8636450767347984
1683986476081326800,10.42672705078125,0.06713855264687592,-0.45458507541115634,-1.1419782638326907
1683986476091367900,10.436768310546874,0.3055493831994899,-0.6763458250762212,-1.3442835807620561
1683986476101408900,10.446809326171875,0.44601964937188254,-0.846391677845074,-1.440660476764072
1683986476111450000,10.456850341796876,0.42318987860407087,-0.9089941978107381,-1.4732198714882139
1683986476121491400,10.466891845703126,0.3561214208288683,-0.918066024661717,-1.5193438530786614
1683986476131532500,10.476932861328123,0.1481220721905497,-0.9018659591325178,-1.460840702054304
1683986476141573600,10.486973876953124,-0.04362106330732861,-0.9030714034570863,-1.3327674864532162
1683986476151614600,10.49701513671875,-0.12105405320073315,-0.8844566345139814,-1.2391042710147449
1683986476161655600,10.50705615234375,-0.17631566521299832,-0.8682980536474876,-1.1670079230436918
1683986476171696800,10.51709716796875,-0.21372306337204683,-0.8907027244520676,-1.0335555077450578
1683986476181738200,10.527138671875,-0.2607495785345938,-0.8822255133891264,-0.9340248108559482
1683986476191779200,10.5371796875,-0.3160551785529316,-0.8564047813964875,-0.8503351212176602
1683986476201820300,10.547220703125,-0.37990331636525243,-0.8703112601114273,-0.6746654508767321
1683986476211861400,10.55726171875,-0.35242605205326627,-0.8960857391511274,-0.48703002929637307
1683986476221902600,10.567302978515626,-0.2888666390940377,-0.8618812561484668,-0.40897321690788996
1683986476231943600,10.577343994140625,-0.16578447820283168,-0.8246068955219825,-0.3607764244838542
1683986476241984600,10.587385009765624,0.05854606624524186,-0.718578815508894,-0.34600543976934406
1683986476252026000,10.597426513671875,0.2838931083063018,-0.5710444449157676,-0.372882843110658
1683986476262067100,10.607467529296876,0.45086538787605324,-0.440525054785321,-0.3759641646448372
1683986476272108200,10.617508544921876,0.5626949071775275,-0.32813549051725505,-0.42373037342563885
1683986476282149300,10.6275498046875,0.6433295010822443,-0.18995571132153713,-0.47226572023181596
1683986476292190400,10.6375908203125,0.6315085886653956,-0.09558963785832089,-0.4638829231385058
1683986476302231600,10.6476318359375,0.41821801668950126,-0.08602714549476467,-0.417140960707844
1683986476312272800,10.657673095703124,0.008625268978294872,-0.21633625023510875,-0.3242721558440575
1683986476322313900,10.66771435546875,-0.3930346965574338,-0.37374353408240424,-0.19456672660072355
1683986476332355000,10.67775537109375,-0.6285707949671973,-0.36226797107495257,-0.11732435208885085
1683986476342396100,10.68779638671875,-0.6378737687267848,-0.28491020199738254,-0.13260316833516037
1683986476352437200,10.697837646484375,-0.41528034212867715,-0.21867132187064575,-0.13515853884204027
1683986476362478300,10.707878662109374,-0.14532649514140747,-0.20994710936435068,-0.0879106520931622
1683986476372519600,10.717919921875,0.013866186191725268,-0.18540573107179967,-0.07848548874718259
1683986476382560600,10.727961181640625,0.009028673302478835,-0.21929883953970247,-0.15977716441156067
1683986476392601800,10.738002197265626,-0.14381766306436983,-0.22989654549171548,-0.17924308777873063
1683986476402642900,10.748043212890623,-0.32943820961775644,-0.21832418426611522,-0.219307899311511
1683986476412684000,10.75808447265625,-0.36992740633798427,-0.24746561050815324,-0.3133115768783926
1683986476422725000,10.76812548828125,-0.29775261892588134,-0.21589469915819187,-0.4551286695929593
1683986476432766100,10.77816650390625,-0.10538530344102154,-0.257103919944524,-0.571400642537889
1683986476442807500,10.788207763671876,0.090349554911086,-0.35446310054481645,-0.6355118752051349
1683986476452848600,10.7982490234375,0.18239974974979434,-0.3985748291593895,-0.6581587792140429
1683986476462889600,10.8082900390625,0.0906533002830314,-0.4666533470812363,-0.5741066932122529
1683986476472930700,10.8183310546875,-0.05527663221679602,-0.5348401068717852,-0.5292758942131444
1683986476482971800,10.828372314453125,-0.22357559213814884,-0.5169343948377748,-0.5148463248697479
1683986476493012900,10.838413330078126,-0.36174333098769146,-0.5422401428663424,-0.4843835830726365
1683986476503054000,10.848454345703123,-0.4311981199437746,-0.5345778466696542,-0.6847677229213972
1683986476513095300,10.858495849609374,-0.38637876510914637,-0.5945000649672151,-0.950724124753326
1683986476523136400,10.868536865234375,-0.25848221774298813,-0.6744694709109856,-1.194067478226347
1683986476533177600,10.878577880859376,0.004283189684575032,-0.7459673881284471,-1.3865427971148025
1683986476543218600,10.888618896484376,0.3151727916241418,-0.847484111764537,-1.4617910385019997
1683986476553259600,10.89866015625,0.5881220102742022,-0.9239048956929383,-1.4892697335002798
1683986476563300800,10.908701171875,0.778604626545905,-1.0419645310575114,-1.4281148910318915
1683986476573342100,10.918742431640624,0.8346749543881978,-1.146487236103425,-1.3547234536681747
1683986476583383200,10.92878369140625,0.7895284892912598,-1.156309127828949,-1.3003315925265002
1683986476593424300,10.93882470703125,0.7431149482192648,-1.0455832482902245,-1.296277522887447
1683986476603465400,10.94886572265625,0.7192032335724885,-0.8838324548123874,-1.2755551337508184
1683986476613506600,10.958906982421874,0.7111309766917907,-0.7545833587466994,-1.266512870803249
1683986476623547600,10.968947998046875,0.6532620192921873,-0.7079095840663747,-1.1946997643712787
1683986476633588900,10.9789892578125,0.5233566761752416,-0.7031092642464436,-1.1220021249179675
1683986476643630000,10.989030517578126,0.3956735133325373,-0.7258424758014399,-1.112958907968231
1683986476653671100,10.999071533203123,0.2880464790587985,-0.7352652550105353,-1.1437053679861164
1683986476663712200,11.009112548828124,0.2700570821417606,-0.7360644339576043,-1.185905456691671
1683986476673753300,11.019153564453124,0.28475153433515527,-0.7353453635510588,-1.2375206947374418
1683986476683794400,11.02919482421875,0.36006844036971636,-0.7500724791274842,-1.2749791143618372
1683986476693835600,11.039236083984376,0.467319011645698,-0.7137126922660284,-1.3510818480465066
1683986476703876800,11.049277099609377,0.5969240664260853,-0.7003931999446619,-1.4297590254495174
1683986476713917900,11.059318359375,0.6555405855957279,-0.7027363777852331,-1.4701657296125348
1683986476723959000,11.069359375,0.6288169621646136,-0.7493548393284838,-1.4555754662862321
1683986476734000000,11.079400390625,0.6299287080267096,-0.785228729420897,-1.4478907584628822
1683986476744041100,11.089441650390626,0.8261045814503607,-0.843936920190122,-1.3682041169514096
1683986476754082200,11.099482666015623,1.157520174909863,-0.8130545615501347,-1.2974963189646593
1683986476764123600,11.10952392578125,1.453307032525241,-0.759378910216989,-1.175258159655203
1683986476774164600,11.11956494140625,1.6120634077989675,-0.6829543114660044,-1.00883674621221
1683986476784205700,11.129606201171876,1.7086946964106229,-0.5964765548592821,-0.7781281470088969
1683986476794246800,11.139647216796876,1.6621997356048994,-0.4854536055047794,-0.7270932196671906
1683986476804287900,11.149688232421877,1.4936586618692937,-0.2896146773209494,-0.760937690566918
1683986476814329000,11.1597294921875,1.232347607456882,-0.1979770659789391,-0.8446836471080233
1683986476824370400,11.169770751953124,0.856439709627418,-0.32951450347711586,-0.5873012544083122
1683986476834411400,11.179811767578125,0.2647531032497094,-0.7225136756628092,-0.03719949732576857
1683986476844452600,11.18985302734375,-0.634340941933215,-1.1293768882886501,0.571726322231393
1683986476854493600,11.19989404296875,-1.3053495882970736,-1.3671870230267626,1.008058071083554
1683986476864534600,11.20993505859375,-0.9481098653326586,-1.2198386193211088,1.0410766602257926
1683986476874575800,11.21997607421875,-0.00920206319325069,-0.7482500075088683,0.9171519277719499
1683986476884617100,11.230017578125,0.7265584468517944,-0.3970026970216304,0.9525551795640911
1683986476894658200,11.24005859375,0.9104833005424406,-0.1909132004156494,1.1124958990963245
1683986476904699300,11.250099609375,0.5342568756092525,-0.026788234755126848,1.2559776305847916
1683986476914740400,11.260140869140624,-0.048613086240972325,0.21966505066216607,1.213483810420757
1683986476924781600,11.270181884765623,-0.3881987333655574,0.5273685454179486,1.0982069968363388
1683986476934822600,11.280222900390624,-0.4370426833048828,0.8399548532367055,0.8586597443260836
1683986476944863900,11.290264404296876,-0.14337316140826487,0.9482564926898257,0.6964063644405198
1683986476954905000,11.300305419921877,0.33013147110156565,0.9803318978115496,0.5185923576539077
1683986476964946100,11.310346435546874,0.6970058082886773,1.0689048766713212,0.20645093930884498
1683986476974987200,11.3203876953125,0.7935703993623665,0.7376766203845319,0.3348007201852966
1683986476985028300,11.3304287109375,0.5515521764147984,0.4314007760058974,0.7758712769969526
1683986476995069400,11.3404697265625,-0.04249501227329574,-0.1726913452363547,1.6322269440767017
1683986477005110400,11.3505107421875,-0.8390849232315368,-0.7251987456312264,2.1709365844858928
1683986477015151800,11.36055224609375,-1.4855787753579734,-0.8849997519851921,2.191649913826999
1683986477025192900,11.37059326171875,-1.9791336059959173,-0.3589754104457119,1.6978874206774814
1683986477035234000,11.38063427734375,-2.2140889167917717,0.46401357650871217,1.1002860069802431
1683986477045275100,11.390675537109376,-1.8153998852320126,1.1296634674187311,0.7933635710617492
1683986477055316100,11.400716552734377,-1.1088418959680324,1.462729930902923,0.8685984613025058
1683986477065357200,11.410757568359376,-0.394928336068253,1.5226697922692523,1.1300458908289375
1683986477075398600,11.420799072265623,0.20238178961313671,1.4462528229806983,1.3390321730523613
1683986477085439600,11.430840087890624,0.5901424288668186,1.3555555342392147,1.5621023178066704
1683986477095480800,11.440881103515624,0.7247456311955981,1.3372178078535495,1.6652836800240784
1683986477105521800,11.450922119140625,0.7286866306867238,1.2679677009450654,1.6899857521810182
1683986477115562900,11.46096337890625,0.6710755229277785,1.1625385284337886,1.7299480438827868
1683986477125604000,11.47100439453125,0.568133413701954,1.0419154166576836,1.8999061584429864
1683986477135645400,11.481045654296874,0.31510865679508127,1.0515952108689317,2.0259699820196024
1683986477145686400,11.4910869140625,0.06115502122275828,1.1794118881212607,2.128047943091226
1683986477155727600,11.5011279296875,-0.1401851774516009,1.379833221329671,2.1652793884976655
1683986477165768600,11.5111689453125,-0.12918746473549578,1.59544277188622,2.045794487040467
1683986477175809600,11.521210205078123,-0.04400134085350286,1.783376216782681,1.7689523696698712
1683986477185850800,11.531251220703124,0.12627708913914434,1.8913779258519754,1.5692000389717486
1683986477195892100,11.54129248046875,0.26039272560968035,1.807345867125983,1.39916133881257
1683986477205933200,11.551333740234377,0.34943336239879813,1.4720625878421814,1.2454466821438825
1683986477215974300,11.561374755859376,0.3448998927346576,1.2261104582691922,1.033334732046881
1683986477226015400,11.571415771484377,0.33768099543153224,1.0222845076553588,0.8787813185133044
1683986477236056600,11.581456787109374,0.31217974412474764,0.9488139153550241,0.7885971069813728
1683986477246097600,11.591498046875,0.3225771785506899,0.9096503257446664,0.7140731811548117
1683986477256138900,11.601539306640625,0.3881070615136571,0.9715857505939178,0.5923924446392981
1683986477266180000,11.611580322265626,0.48941540719622795,0.9503498078261469,0.5808176995796874
1683986477276221100,11.62162158203125,0.5902779101957325,0.9104337692240057,0.5977101325953241
1683986477286262200,11.63166259765625,0.6716445088947349,0.8640093803068924,0.5957775116898228
1683986477296303300,11.64170361328125,0.7498919963819899,0.7972426414832684,0.5759792328603838
1683986477306344400,11.651744873046876,0.7583814858432729,0.7033352852910293,0.5007839202772196
1683986477316385500,11.661785888671876,0.6928330660105805,0.6111712456812466,0.46629667288186055
1683986477326426800,11.6718271484375,0.5232236384024658,0.5257129669633925,0.43223857880300803
1683986477336467900,11.681868408203124,0.357456743724215,0.48991584780413244,0.4248561860474136
1683986477346509000,11.691909423828124,0.17258232816697422,0.541988849658286,0.5393242834771071
1683986477356550100,11.701950439453125,0.10217535508998196,0.5980610846216986,0.7364401819248011
1683986477366591200,11.711991455078126,0.03620779531712277,0.724760532379118,0.9103140829640782
1683986477376632200,11.72203271484375,0.0029420852748278654,0.8571047782259527,1.07740879045963
1683986477386673600,11.732073974609374,0.03670614953616527,0.9901504516363234,1.2210583687283887
1683986477396714600,11.742114990234375,0.13427692649929193,1.178573131640757,1.2599496841986755
1683986477406755800,11.75215625,0.2641413213168635,1.3861203193555884,1.2489919662782558
1683986477416796800,11.762197265625,0.37861049180276596,1.574266910552263,1.2691864966692732
1683986477426837900,11.77223828125,0.4902526140455813,1.5924181938645274,1.351202010999474
1683986477436879000,11.782279541015624,0.6115770934883626,1.6056818963079387,1.4636530876530383
1683986477446920400,11.79232080078125,0.7013639807249438,1.5832724572464834,1.5590777397003532
1683986477456961500,11.80236181640625,0.7610211372881694,1.5349011422443684,1.637754917311502
1683986477467002600,11.81240283203125,0.817873418409242,1.5085539816723317,1.6547369957381144
1683986477477043600,11.822444091796877,0.8234509228761058,1.5591711998913511,1.6222977638007394
1683986477487084600,11.832485107421874,0.8158465622026404,1.6482987405060217,1.5118794441641736
1683986477497125800,11.842526123046875,0.8153877256679011,1.7710695266478267,1.3856191634683435
1683986477507167200,11.852567626953125,0.828261852265347,1.8509612082382745,1.3149995803512644
1683986477517208200,11.862608642578126,0.8746001720623358,1.8544220924333996,1.3424777986472287
1683986477527249300,11.872649658203123,0.9857286809880352,1.7958073614683023,1.4651956559819872
1683986477537290400,11.88269091796875,1.135043620941627,1.7729625701803244,1.6134357451679173
1683986477547331600,11.89273193359375,1.245380640013796,1.6748347282125597,1.7357516288547024
1683986477557372600,11.90277294921875,1.2552514077787147,1.5249290466627232,1.6036829946974793
1683986477567413600,11.91281396484375,1.2142024039663346,1.5825452804759024,1.4385852815182631
1683986477577455000,11.92285546875,1.1892203092671738,1.5556740761204384,1.463325500585197
1683986477587496100,11.932896484375,1.0657913684230573,1.3586044312718923,1.3589692115891074
1683986477597537200,11.9429375,0.9492316841028201,1.07832384122528,1.2988348005656665
1683986477607578300,11.952978759765625,0.7894703744165537,0.7478284837046605,1.3136591910541215
1683986477617619400,11.963019775390626,0.6281808613036638,0.347518444232232,1.2566881179967893
1683986477627660500,11.973060791015625,0.40682351604916145,-0.040181160047853035,1.1945466995293654
1683986477637701800,11.983102294921874,0.06802779424885046,-0.4810471533113989,1.0623674393847957
1683986477647742900,11.993143310546875,-0.3337463736684408,-0.8153986929528767,0.9815282822226132
1683986477657784000,12.003184326171874,-0.6600708961666674,-0.996932029639943,0.7958583831837192
1683986477667825100,12.0132255859375,-0.9150700569405844,-1.2373266219664818,0.6247277260406505
1683986477677866200,12.0232666015625,-1.1663395165495856,-1.391831874840908,0.4894447328099478
1683986477687907200,12.0333076171875,-1.4263552428646509,-1.4617609978191595,0.33468151097582494
1683986477697948600,12.043348876953123,-1.7150074244265967,-1.6881337166758812,0.22342014315129113
1683986477707989600,12.05339013671875,-2.1384060382768517,-2.023400783462928,0.08118867891396465
1683986477718030800,12.06343115234375,-2.6599435806898164,-2.4672503470171354,-0.29660606384657284
1683986477728071900,12.07347216796875,-3.127566576113563,-2.8664116860862547,-0.719311237225089
1683986477738112900,12.083513427734376,-3.319324255103443,-3.0783934592506244,-0.739250183219803
1683986477748154300,12.0935546875,-3.2164959908543787,-2.773711681497008,-0.6543283461928104
1683986477758195400,12.103595703125,-2.727872133298884,-2.046108245921852,-0.6002130508536878
1683986477768236500,12.113636962890626,-1.9404035807196478,-1.5170774460087364,-0.6198811529655769
1683986477778277600,12.123677978515625,-0.82311463348171,-1.1750392912454424,-0.7391495706544653
1683986477788318600,12.133718994140626,0.4041587711236263,-0.9778108597383426,-0.7872023581811716
1683986477798359700,12.143760009765623,1.2248313427089115,-0.8769083022445079,-0.7835464476866575
1683986477808400800,12.15380126953125,1.5729566812566322,-0.849062919567345,-0.735465049725822
1683986477818442200,12.163842529296875,1.8375183342984105,-0.879941940187378,-0.6956233978724331
1683986477828483200,12.173883544921877,1.991483688322021,-0.9800782204257076,-0.8633794784878677
1683986477838524300,12.1839248046875,2.2299618721370646,-1.0856709482010514,-1.1519622802356604
1683986477848565400,12.1939658203125,2.4788446426203192,-1.1513948441506008,-1.2921724319388315
1683986477858606600,12.2040068359375,2.550533294507097,-1.31204080597568,-1.2916693688621281
1683986477868647600,12.214048095703124,2.4346485137887903,-1.2652573584583928,-1.4614000320788891
1683986477878688900,12.22408935546875,2.151589393593093,-1.1236772538630762,-1.6432962416779047
1683986477888730000,12.23413037109375,1.921465039228278,-0.8506426811905996,-1.7295074462871056
1683986477898771100,12.244171630859377,1.5711722372648098,-0.4172439575270641,-1.8399572371724713
1683986477908812200,12.254212646484374,1.304448008529255,-0.05573940272620359,-1.9275946618727493
1683986477918853300,12.264253662109375,1.0768210887465135,0.20652723319667934,-1.8147811888331307
1683986477928894400,12.274294677734376,1.2290492057779643,0.3561792373684988,-1.6724433898945963
1683986477938935600,12.284336181640626,1.4782637358499169,0.29383325570558433,-1.7070608139418113
1683986477948976800,12.294377197265623,1.779867291404712,0.26848506916400133,-1.7337188720274561
1683986477959017900,12.304418212890624,1.8000292778057672,0.18394803995053532,-1.5612087248624738
1683986477969059000,12.31445947265625,1.5810205936792514,0.15794229517506805,-1.4822993278963332
1683986477979100100,12.32450048828125,1.204056858996934,0.2826581002053747,-1.6640415192158764
1683986477989141200,12.33454150390625,0.9408589006526573,0.5326662062985549,-1.8486914632898745
1683986477999182600,12.3445830078125,0.8481165767252696,0.5653228758058094,-1.8024168014844801
1683986478009223600,12.3546240234375,0.8215773106070348,0.5377793312948812,-1.69597101213064
1683986478019264600,12.3646650390625,0.6501088739341989,0.6059579848106333,-1.6222848891773136
1683986478029305800,12.3747060546875,0.4554145335915463,0.483528137322187,-1.3926277159634177
1683986478039346900,12.384747314453126,0.3625836373008474,0.21849107726253036,-0.9718813897054188
1683986478049388000,12.394788330078123,0.035650491600271055,0.0774092674709098,-0.6866383551707738
1683986478059429000,12.404829345703124,-0.5575795172294703,-0.02200746536730564,-0.25063657766331265
1683986478069470400,12.414870849609375,-1.2356538771892505,-0.07148599620917996,0.25433349597784977
1683986478079511600,12.424911865234376,-1.917788743805114,-0.2629485130263914,0.37745189671427265
1683986478089552600,12.434952880859376,-2.3727328776429353,-0.6556034088060354,0.4741172789123035
1683986478099593600,12.444994140625,-2.754381418202955,-1.2486243248235052,0.7402777670948685
1683986478109634700,12.45503515625,-3.071053981819778,-1.6560368538634673,0.8863902090640411
1683986478119675800,12.465076171875,-3.3452773095439525,-1.8379998206030224,0.6246576308993196
1683986478129717200,12.47511767578125,-3.4467420578301726,-1.9216241836071453,0.33532238018911803
1683986478139758300,12.48515869140625,-3.4335846899719904,-1.843012333076105,-0.06070566180597253
1683986478149799300,12.49519970703125,-2.9442682267355376,-1.7594103813268835,-0.6530838012494878
1683986478159840400,12.50524072265625,-2.0702292918971565,-1.7762084007618584,-1.1117734910232346
1683986478169881600,12.515281982421875,-1.086758613578621,-1.844001293178524,-1.566706180514142
1683986478179922600,12.525322998046876,-0.17629665147602966,-1.8833775520258238,-2.003078937592022
1683986478189964000,12.5353642578125,0.5901370048422733,-1.7636609076965166,-2.3672523497444886
1683986478200005000,12.545405517578123,1.0895177126142908,-1.69319438927583,-2.46497488032201
1683986478210046100,12.555446533203124,1.3302326202022527,-1.7372932434229063,-2.518899917689986
1683986478220087200,12.565487548828123,1.0514473914494316,-1.8817787171153988,-2.099959373426661
1683986478230128300,12.57552880859375,-0.4358319044027067,-2.1193189620501736,-2.096385479025597
1683986478240169400,12.58556982421875,-2.1652445791595105,-2.1832003593487417,-2.4223217963116532
1683986478250210700,12.595611083984377,-2.655922889588216,-2.135378837681582,-2.2037668228140017
1683986478260251800,12.60565234375,-1.6327784060685242,-1.9906711578312224,-1.6369490623342153
1683986478270292900,12.615693359375,0.025053620384964517,-1.5892963409148237,-0.9300389290777984
1683986478280334000,12.625734375,1.8297231197417907,-1.01648187635909,-0.24780702581399686
1683986478290375100,12.635775390625,3.3262624740664664,-0.42201280599806007,0.16539096833114936
1683986478300416200,12.645816650390625,4.279888153044234,0.040266036996442385,0.4250898362888321
1683986478310457600,12.65585791015625,4.649300575209955,0.46302032471650245,0.46713972092615175
