time,seconds_elapsed,z,y,x
1684180468826814100,0.034214599609375,2.1205204074470432e-11,3.887651434158782e-11,1.0673394405129347e-10
1684180468836855500,0.044255859375,-0.12728691097625375,0.13167095188392147,-0.035370349715534606
1684180468846896800,0.054297119140625,0.10651111617606972,-0.2179794312332144,-0.3326952457783645
1684180468856938400,0.0643388671875,-0.0733585357820496,-0.15048074737793474,-0.19803285598919643
1684180468866979800,0.074380126953125,-0.5519065856921715,-0.11531400681589106,-0.021896123970401894
1684180468877021100,0.08442138671875,-1.1912307737612875,-0.03882241250667083,0.27622842771172806
1684180468887062600,0.094463134765625,-1.553472042109969,-0.10381984698884592,0.7049055098887806
1684180468897104000,0.10450439453125,-1.6106839178741832,-0.0550491809927568,1.0378456116357546
1684180468907145600,0.114546142578125,-1.7376227378274682,-0.4615876673866992,1.183056354643251
1684180468917187000,0.12458740234375,-0.8346428871937562,0.31045627591238384,1.0125212667861183
1684180468927228300,0.134628662109375,0.24209690092190278,1.1881433725532884,0.5771260263511278
1684180468937269900,0.14467041015625,0.8501615522769362,2.221164226503439,-0.3449735641225035
1684180468947311300,0.154711669921875,0.5671906469998687,1.2909803391274333,-0.9856262207698743
1684180468957352900,0.164753173828125,-0.11043882362185506,-0.07263994215496802,-1.2116489410038815
1684180468967394200,0.174794677734375,-0.4093370437031267,-1.2631118296771684,-1.0092320441922502
1684180468977435600,0.1848359375,-0.09082126605477175,-2.8277733326537,-0.33501386636274166
1684180468987477200,0.194877685546875,0.5046191214071336,-5.918256759745274,1.859810829118878
1684180468997518600,0.2049189453125,1.715220451349789,-2.2849798203916203,-0.04930305470160106
1684180469007560100,0.21496044921875,1.5521540640417681,0.6650784016661362,-1.427357673637146
1684180469017601500,0.225001953125,0.5358524320769417,0.1938889025586078,-0.6460666656718622
1684180469027642800,0.235043212890625,0.026622772140502935,-0.5091214179928899,0.19187259664713008
1684180469037684400,0.245084716796875,-0.6272835730671542,-0.3721365927125593,1.1681923865015298
1684180469047725700,0.255126220703125,-1.6616935728568012,-0.11612319952137007,2.5469851495045175
1684180469057767100,0.26516748046875,-2.2965955733997423,0.30318140984488595,2.519748687720727
1684180469067808600,0.275208984375,-1.8157854079051263,0.6717636584197361,2.761309146890683
1684180469077850000,0.28525048828125,-1.049264907783651,0.8408753872964239,2.4599404335494697
1684180469087891600,0.2952919921875,-0.11915874481271822,1.29390215880559,1.489009380338999
1684180469097933000,0.30533349609375,0.22927570354081714,0.7378942966546231,0.45209074034639785
1684180469107974300,0.315374755859375,-2.188807249021851,-0.4175214766119168,-1.2701983451126724
1684180469118015900,0.325416259765625,0.34714460363174626,-1.3332695962484458,-1.2768979073478581
1684180469128057300,0.335457763671875,1.3669657705874303,-2.2940230369202017,-2.566219806598559
1684180469138098900,0.345499267578125,2.100625991716037,-1.915575265801995,-2.6442179679943476
1684180469148140200,0.35554052734375,2.64791536338775,-0.8353221417346892,-1.1406593321917797
1684180469158181600,0.36558203125,2.0490779876115224,-0.3259544372009588,-0.030911445609124188
1684180469168223200,0.37562353515625,1.0014252662144794,0.003977298845269862,0.24807167051995718
1684180469178264600,0.385664794921875,0.17866754530179746,0.7124650478737103,0.04411840455411913
1684180469188305800,0.395706298828125,-0.4841556548605958,1.0702824594047406,-0.2680964468929876
1684180469198347400,0.405747802734375,-0.8577494621764159,0.5189063547756043,-0.8942718505252993
1684180469208388800,0.4157890625,-1.2462532518780147,-0.17492032060534404,-1.0990519524683198
1684180469218430400,0.425830810546875,-0.9366102218150507,-0.9113161564122297,-1.2158551214888662
1684180469228471600,0.4358720703125,-0.2776670455654936,-1.1580247879436476,-1.6439208983708462
1684180469238513100,0.44591357421875,0.5115156174709493,-1.1032981872419596,-1.7564878462756288
1684180469248554600,0.455955078125,0.823039531600633,-0.8214433192291061,-1.613270759692692
1684180469258596000,0.465996337890625,0.7742271422222905,-0.7006151675257912,-1.0622863770180775
1684180469268637600,0.4760380859375,0.7864017486635628,-0.5060405731223647,-0.45191574096838694
1684180469278679000,0.486079345703125,0.348998308296671,-0.27046871189270755,-0.06632804872348137
1684180469288720300,0.49612060546875,-0.25022864334582157,0.10991144189513777,0.24779224394422722
1684180469298761900,0.506162353515625,-0.635161638271287,0.167207479307554,0.26212310801227157
1684180469308803200,0.51620361328125,-0.5819127559693171,-0.050483942150378464,-0.15223789225789236
1684180469318844600,0.526244873046875,-0.4520959854736253,-0.3191862106366898,-0.6391468048154809
1684180469328886200,0.53628662109375,0.06059932721536051,-0.39495110493852725,-0.915134429832257
1684180469338927600,0.546327880859375,0.7497675420428385,-0.5311517716806864,-1.204091548770544
1684180469348969100,0.55636962890625,1.0172917843389029,-0.7089064120127597,-0.9059066772201497
1684180469359010600,0.566410888671875,1.0788531302630249,-1.0716247559164498,-0.2554941178056176
1684180469369051800,0.5764521484375,0.7967081070068052,-0.9787168500960057,-0.07198619834814102
1684180469379093400,0.586493896484375,0.13093829149065786,-0.3567519187842298,-0.11866950980373252
1684180469389134800,0.59653515625,-0.4631754160883134,0.07113099093301047,-0.2702608108734077
1684180469399176400,0.60657666015625,-0.6772230862825703,-0.14504694952431615,0.1674251556952309
1684180469409217600,0.6166181640625,-0.6612639425594262,-0.043616771793650866,0.0676479339521831
1684180469419259100,0.626659423828125,-0.42554211616580423,0.15385794654059287,-0.24401950839747308
1684180469429300600,0.636701171875,-0.1847747564207433,0.1884682179434142,-0.6138792038996717
1684180469439342000,0.646742431640625,-0.05835688120859007,-0.21043181427815888,-0.7374038697168176
1684180469449383600,0.656783935546875,0.07095932967610072,-0.5645065306737707,-1.0603861809560111
1684180469459424900,0.666825439453125,0.4842090606589071,-0.762328624620646,-1.1640205382792477
1684180469469466300,0.67686669921875,1.1300311089661488,-0.5450000764174284,-1.1843929291787871
1684180469479507900,0.686908203125,1.4939901827898665,-0.4629874230644775,-0.8728051186645981
1684180469489549200,0.69694970703125,1.3349388837855785,-0.6432352066077615,-0.4703931807567071
1684180469499590800,0.7069912109375,0.9513831138909761,-0.6072320938186884,-0.47107219705918035
1684180469509632200,0.717032470703125,0.4340395926245802,-0.2868366241006705,-1.1255640981871635
1684180469519673600,0.727073974609375,-0.0011749863567954637,-0.5615639685771273,-0.9003291131436082
1684180469529715100,0.737115478515625,-0.007007308273710312,-0.4114160537876994,-0.5388841627899723
1684180469539756500,0.747156982421875,0.44278275971615105,-0.07564735415718732,-0.8813009262461735
1684180469549797800,0.7571982421875,0.6524558066476406,-0.1037793159260934,-1.0055403708995776
1684180469559839400,0.76723974609375,0.7626259326566991,-0.3499951363664745,-0.42063426954158445
1684180469569880800,0.77728125,0.7923393249449024,-0.4007291793408568,-0.515114784338953
1684180469579922400,0.78732275390625,0.4105660318950784,-0.493563175230953,-0.42449951179149814
1684180469589963600,0.797364013671875,-0.2903000115998143,-0.6090130805319226,0.30401134487285464
1684180469600005000,0.807405517578125,-0.7456324101359794,-0.12590026870124488,1.0580577850485275
1684180469610046600,0.817447021484375,-1.1707988978459627,0.41968727120050026,1.360171317982002
1684180469620088000,0.82748828125,-1.5456968546608467,0.4256820678630111,1.3755950927384257
1684180469630129600,0.837530029296875,-1.315530180855221,0.36544179915800634,1.1458759308169593
1684180469640170900,0.8475712890625,-0.8253287075642823,0.3065953253795745,0.883474349985588
1684180469650212300,0.85761279296875,-0.346268653822006,-0.004804134230220784,0.4091701509104589
1684180469660253900,0.867654296875,0.056341290421198516,-0.5008802414162306,-0.03544521329676986
1684180469670295200,0.877695556640625,0.3128978014078426,-0.779037952353293,-0.18661689765837727
1684180469680336800,0.8877373046875,0.3850833177348886,-1.1985697746045822,0.03960418703177706
1684180469690378200,0.897778564453125,0.5840516090222184,-1.200752258171409,0.27486133582923644
1684180469700419600,0.90781982421875,0.7105849980673536,-0.5969252586876199,0.2239995002097206
1684180469710461100,0.917861572265625,0.7588098048055338,-0.3485503197691993,0.35298061371151634
1684180469720502400,0.92790283203125,0.7006615401882914,-0.45383691780081026,0.7644252776427566
1684180469730544000,0.9379443359375,0.5299081802018512,-0.790471077062177,1.2224946022020058
1684180469740585400,0.94798583984375,0.575419426015552,-0.8175354004899903,1.515049457534502
1684180469750626700,0.958027099609375,1.8635144234418919,0.0724015235026977,1.449668884303023
1684180469760668300,0.96806884765625,1.2707008124133252,0.07680606838066201,0.6678948402385919
1684180469770709600,0.978110107421875,0.2353309391657236,-0.45723247524118177,0.056350231097080365
1684180469780751000,0.9881513671875,-0.07081532472739328,-0.8715815543393268,-0.005343437198357632
1684180469790792600,0.998193115234375,0.18519318109396507,-0.7606420516558148,0.05210065845339929
1684180469800834000,1.008234375,0.5650802849833456,-0.6595177650072658,-0.0773229599013128
1684180469810875600,1.01827587890625,0.8603191376000743,-0.0785498619177123,-0.0035033225332092017
1684180469820916900,1.0283173828125,0.5940831899973102,-0.3144392965688387,-0.513659953982596
1684180469830958600,1.03835888671875,0.1715657710221323,-0.9839601517857457,-0.4580044747071633
1684180469840999900,1.048400146484375,-0.7188282012243565,-1.4259662627080656,-0.37904453283657347
1684180469851041200,1.058441650390625,-0.7605192661015157,-0.5133385659436807,-0.2536039352124622
1684180469861082800,1.068483154296875,-0.1086485385776439,-0.09082937238503895,-0.025564670517415542
1684180469871124100,1.078524658203125,0.05992555617219864,-0.5056028367718642,0.14269542680215666
1684180469881165700,1.088566162109375,0.00259637818133445,-0.7171916961431127,0.2768335341718369
1684180469891207100,1.098607421875,0.110377550053558,-0.42468786241193246,0.3136467935310295
1684180469901248400,1.10864892578125,0.17783021927066064,-0.13535165793550283,0.06382989874763602
1684180469911290000,1.1186904296875,0.09051012998886526,-0.2061190606078989,-0.34104824059261235
1684180469921331400,1.128731689453125,0.5939011575251983,-1.001851081997629,-0.31661558147625685
1684180469931373000,1.1387734375,1.420017957682666,-0.6982321738177822,0.027949810078222517
1684180469941414300,1.148814697265625,1.4735040664918837,0.05739402764661294,-0.3187975883075249
1684180469951455600,1.15885595703125,0.4795513153883696,-0.4325046539413106,-0.7121138572828678
1684180469961497300,1.168897705078125,-0.010110616652095642,-0.5812158584171695,-1.4275116920680426
1684180469971538600,1.17893896484375,0.26424121855902905,-0.45776748668406864,-1.6150488853016467
1684180469981580200,1.188980712890625,0.628069758399897,-0.43476438513809734,-1.2494544983558977
1684180469991621600,1.19902197265625,0.8480864762921105,-0.43201827992547276,-0.5978412627240925
1684180470001662900,1.209063232421875,0.9101296663572448,-0.26297903058468447,0.01298379893700719
1684180470011704600,1.21910498046875,0.6948180199894947,-0.23683929453361488,0.7713899612322578
1684180470021745800,1.229146240234375,0.5070770978701353,-0.14793539050199142,0.7722101213093022
1684180470031787400,1.239187744140625,0.238544702609393,-0.15066909784390267,0.4831447601206136
1684180470041828800,1.249229248046875,-0.08630990976933764,0.04309177397279091,0.1529345511919967
1684180470051870100,1.2592705078125,-0.12262439731346811,0.2610220908823852,-0.1317963601482286
1684180470061911700,1.26931201171875,-0.04390597348341295,0.508620738912825,-0.6494936941862345
1684180470071953100,1.279353515625,-0.04022455199662057,0.9928445814515836,-1.2475638390971135
1684180470081994400,1.289394775390625,0.3041546343809112,1.1964225768812067,-1.2086987496006918
1684180470092036000,1.2994365234375,0.4203281401616794,0.7338542938274073,-0.8638916017241682
1684180470102077400,1.309477783203125,0.31008386626494977,0.41116237630552016,-0.21439695370910483
1684180470112119000,1.319519287109375,0.18976998334763862,0.3798213005605607,0.37288999567046704
1684180470122160300,1.329560791015625,0.02963995936891213,-0.6291561125535078,1.506975173930582
1684180470132201600,1.33960205078125,0.07703280449173326,-0.9899711610448737,2.2792048454267118
1684180470142243200,1.3496435546875,0.16813111315378104,-1.013143062633658,2.579529762394665
1684180470152284600,1.35968505859375,0.2849082948045819,-0.16723775864554868,2.2027344702485605
1684180470162326200,1.3697265625,0.23887467367708232,0.20604324335196586,1.233848571727075
1684180470172367600,1.379767822265625,0.17093133927174878,-0.3897414208293574,0.3706145286477868
1684180470182409100,1.3898095703125,0.21535682696773947,-1.039978981030089,-0.5731792448360742
1684180470192450600,1.399850830078125,0.0842790602620638,-1.124598026281692,-1.1152915954158378
1684180470202491800,1.409892333984375,0.0843451023840409,-0.759827136908309,-1.312061786548065
1684180470212533400,1.419933837890625,-0.01241779341514238,-0.5844211577174013,-1.2947592734725892
1684180470222574800,1.42997509765625,-0.09358620657223182,-0.5741295814948933,-1.1121525764315146
1684180470232616400,1.440016845703125,-0.0488109589819975,-0.6039428709004262,-0.9236054420373256
1684180470242657600,1.45005810546875,0.032387733573010294,-0.7047119139307813,-0.6921381950090718
1684180470252699100,1.460099365234375,0.06258177764052314,-0.7277870177717944,-0.4205269812913671
1684180470262740600,1.47014111328125,0.19413709639826612,-0.8120646477167497,-0.46081113824556036
1684180470272782000,1.480182373046875,0.16399884212923238,-0.42715024948390007,-0.6850004195716526
1684180470282823600,1.49022412109375,0.08629655839454907,-0.6882677077468319,-1.0255308151224225
1684180470292864900,1.500265380859375,-0.33194446577720765,-1.168446063870803,-0.8384594917333666
1684180470302906300,1.510306640625,-0.7375328541826429,-2.782476425229245,1.0548863410022693
1684180470312947900,1.520348388671875,0.4123189447734404,-1.8172655104134487,2.756636619632681
1684180470322989200,1.5303896484375,1.2994909288022014,0.7318663595989723,1.3038730619929595
1684180470333030800,1.54043115234375,1.769529580990857,0.6514868734843735,-0.1043334007308404
1684180470343072200,1.55047265625,1.346082448934609,0.6424942016034397,-0.324181079969263
1684180470353113600,1.560513916015625,1.1276338101812171,0.5164699552657821,0.3176159858788097
1684180470363155100,1.570555419921875,1.094003677273215,0.44355773919490243,0.5588593482722377
1684180470373196500,1.580596923828125,0.7543344497221894,2.707269668745446,0.06460571302487368
1684180470383238100,1.590638427734375,-0.3274405003376534,0.14599847777249042,-0.08786058422922648
1684180470393279400,1.6006796875,-0.684344530152638,-0.5628967285677396,-0.3459262846538013
1684180470403321000,1.610721435546875,-0.8168556690185278,-0.8375835417623992,-0.5132842063142232
1684180470413362400,1.6207626953125,-0.7926943301710736,-0.22342920297125118,-0.2808094025612927
1684180470423403600,1.63080419921875,-1.1668863297898746,-0.06223869334499642,0.41949844344407244
1684180470433445300,1.640845703125,-1.2455425263289441,0.468122482216331,1.2011723518286705
1684180470443486600,1.650886962890625,-1.1767816543922804,0.32745790481015086,1.447056293555621
1684180470453528000,1.660928466796875,-0.8080816269034053,-0.06287431715868981,1.453409671690617
1684180470463569600,1.670969970703125,-0.4505679606837138,-0.4930315017443282,1.096389293680602
1684180470473610900,1.68101123046875,0.35996389395415473,0.6681900023325781,-0.02512121201970051
1684180470483652600,1.691052978515625,0.3633847236992183,1.228192806360917,-0.5080370901627176
1684180470493693900,1.70109423828125,-0.058997631107368574,1.5094723700053296,-0.7275104521899591
1684180470503735200,1.711135498046875,-0.6331300736414627,0.39010000223440644,-0.40816974625838703
1684180470513776800,1.72117724609375,-0.4345734119322434,-0.7269549370303572,-0.31774377818706445
1684180470523818200,1.731218505859375,0.09778571120493681,-1.1848030090495247,-0.17580842972856633
1684180470533859800,1.74126025390625,0.34377980230805616,-0.9733386039588778,-0.5381817818560706
1684180470543901100,1.751301513671875,0.3285255431666189,-0.49860191359214273,-1.038794994329831
1684180470553942400,1.7613427734375,0.05381822587789647,-0.29130363457923814,-1.4103889463475316
1684180470563984000,1.771384521484375,0.058370113384340075,-0.2932028770098925,-1.5249509811410658
1684180470574025400,1.78142578125,0.41079282770227155,0.15008115772293898,-1.3952422142109524
1684180470584067000,1.79146728515625,-0.22821497910895916,-0.36641454701447695,-1.8024992941922713
1684180470594108300,1.8015087890625,-0.3730261326349975,-0.2244305609884281,-1.6989221573522337
1684180470604149600,1.811550048828125,-0.485960721981674,-0.28634309769005467,-1.4356241224659922
1684180470614191300,1.821591796875,-0.3629097940394093,-0.028545856513115624,-1.1347365379305898
1684180470624232600,1.831633056640625,-0.3189713953843141,-1.097195625381584,0.3130726815071232
1684180470634274200,1.841674560546875,0.3783380984665764,0.42599344239341524,-0.023235797870202756
1684180470644315600,1.851716064453125,0.3594465255614394,0.45837783804356047,-0.639126777650426
1684180470654356900,1.86175732421875,0.013476610243761275,0.18109273899738007,-1.2698013782054456
1684180470664398600,1.871798828125,0.3365683555396987,1.1571178435413891,-2.0256311894113583
1684180470674439900,1.88184033203125,0.42456293092862685,2.302997589077508,-2.721451520998797
1684180470684481500,1.8918818359375,0.16237735756072186,1.589910983979272,-2.6823003292600367
1684180470694522800,1.901923095703125,-0.050768136861796806,0.2628269194637334,-2.2273151874066643
1684180470704564100,1.911964599609375,-0.4296844005223828,-2.0321292876035613,-1.2771649361355026
1684180470714605700,1.922006103515625,-0.36204361919540645,-3.6979494094983774,-0.4804687500243922
1684180470724647100,1.932047607421875,0.010009050221549354,-3.7335672378600337,-0.38829946526952874
1684180470734688600,1.942089111328125,0.44285798077861044,-1.6129951476247446,-0.3864841460567925
1684180470744730000,1.95213037109375,0.4962816238776756,-0.16735267640980644,-0.06658744803547482
1684180470754771600,1.962172119140625,0.13145208363906613,-0.41344261170851954,-0.027954101557302345
1684180470764813000,1.97221337890625,-0.06505322457800286,-0.30768489831492096,0.19662094130083396
1684180470774854300,1.982254638671875,-0.26526093479474966,-0.4462842939812215,0.2440204619862192
1684180470784895900,1.99229638671875,-0.5161809922268049,-0.4488954544397459,0.1613955499317637
1684180470794937300,2.002337646484375,-0.6735222338629646,-0.3678417206042695,-0.18317008019657632
1684180470804978900,2.012379150390625,-0.6414930819916909,-0.32568168635901484,-0.5362439154532233
1684180470815020200,2.022420654296875,-0.39858078963667853,-0.3133506774366859,-0.7657320498956892
1684180470825061600,2.0324619140625,0.012523174434446789,-0.2829828261259821,-0.9403166770816791
1684180470835103200,2.042503662109375,0.4583749770197199,-0.30219078076084,-0.9093577861181644
1684180470845144600,2.052544921875,0.677556991520089,-0.46944999697939577,-0.8885302542618045
1684180470855186100,2.06258642578125,0.8603131771188981,-0.14775753009818965,-1.0298397541022248
1684180470865227400,2.0726279296875,0.5642948150976405,-0.28953838353673184,-0.8077054023873518
1684180470875268800,2.082669189453125,0.43475770954858256,-0.2047166822885382,-1.0400965214882307
1684180470885310400,2.092710693359375,0.08735442161613081,0.09083557145502198,-1.155187606849054
1684180470895351600,2.102752197265625,-0.32777047163555434,0.4397525786246268,-1.05102801321681
1684180470905393300,2.112793701171875,-0.6044366360254975,0.5499553679662597,-0.9117102622608709
1684180470915434600,2.1228349609375,-0.5187225341962888,1.03489875779229,-0.9084417819789521
1684180470925476300,2.132876708984375,-0.7399754522654981,0.6754436494084318,-0.6897659302362696
1684180470935517600,2.14291796875,-0.5967378615142173,0.3296413422098263,-0.5229308605668523
1684180470945559000,2.15295947265625,-0.2520093916924665,0.03285217284135617,-0.4748327731195174
1684180470955600600,2.1630009765625,0.13042449943421697,-0.12060642232564557,-0.34467530263845464
1684180470965641900,2.173042236328125,0.4733924867108425,-0.3235321044137211,-0.1287372111487653
1684180470975683600,2.183083984375,0.8037903308572814,-0.46373367316453695,0.08815550812206567
1684180470985724800,2.193125244140625,1.163919925816042,-0.37808990478397,0.28732848166264685
1684180470995766200,2.20316650390625,1.3594379424221166,-0.20714187610072482,0.5699846746175853
1684180471005807800,2.213208251953125,1.3630666733680563,-0.10870361311773766,0.8248367309524697
1684180471015849100,2.22324951171875,1.29812788967526,0.06705474837458368,1.119481086776673
1684180471025890700,2.233291015625,0.9771945475781156,0.0066871643921217055,1.3408720493885251
1684180471035932100,2.24333251953125,0.6305527686247934,0.08413505545799708,1.4377939699969788
1684180471045973600,2.2533740234375,0.1798932551641734,0.0540561675562678,1.4947686194954832
1684180471056015000,2.26341552734375,-0.1444282532524898,-0.06490707411206843,1.417845249307818
1684180471066056400,2.273456787109375,-0.40406346308751273,0.09714889521143694,1.1781485082115755
1684180471076098000,2.283498291015625,-0.5851123333528874,0.17029190070869016,0.8270857333162351
1684180471086139300,2.293539794921875,-0.677110910267631,0.314531326305566,0.6097419262074358
1684180471096180900,2.303581298828125,-0.6994535923377828,0.41783809653905923,0.20605707170804854
1684180471106222300,2.31362255859375,-0.8072280883806942,0.626018524087229,-0.04528570163255907
1684180471116263600,2.3236640625,-0.8952543736826292,0.6265707016702512,-0.2756506205656939
1684180471126305200,2.33370556640625,-0.8456635476233653,0.6430282592499074,-0.4020779131211407
1684180471136346600,2.343746826171875,-0.6096317767365043,0.5269908903889294,0.07868289953352156
1684180471146388100,2.35378857421875,-0.41011905665727005,0.45029067992168825,0.15199708929260425
1684180471156429600,2.363829833984375,-0.19527792923329668,0.4024553298189218,0.15609765040271156
1684180471166471100,2.37387158203125,-0.032934904039829356,0.233328819133518,0.20602250109386144
1684180471176512400,2.383912841796875,0.15649676321649794,0.241576194781535,0.24854278557683196
1684180471186553800,2.3939541015625,0.28749942770848375,0.08165073409929909,0.20147180560662395
1684180471196595400,2.403995849609375,0.3486111165489948,-0.009197235159421453,0.1654577254917926
1684180471206636600,2.414037109375,0.3118364810742737,0.026424407979712485,0.25955939308098
1684180471216678300,2.42407861328125,0.06021499630304178,0.015736580030133646,0.23973631860820888
1684180471226719600,2.4341201171875,-0.04231142989048996,-0.008102416848537469,0.2535440922121885
1684180471236761300,2.44416162109375,-0.12782025322217705,0.5969352722339539,0.7571280002153077
1684180471246802600,2.454203125,-0.37297630310690666,-0.17770004272749904,0.4031655787476332
1684180471256844000,2.464244384765625,-0.7575137615579542,-0.8561716079098445,0.13207507114832673
1684180471266885600,2.474285888671875,-1.045496702214093,-1.509756088274447,0.053287029231628
1684180471276926900,2.484327392578125,-1.2988421916644741,-1.9907884599338646,0.23583078388315057
1684180471286968600,2.494368896484375,-1.3970162866812665,-2.052624702416804,0.5065782069013218
1684180471297009800,2.50441015625,-1.4420320987352857,-1.808032989564058,0.9494698046734406
1684180471307051200,2.51445166015625,-1.641619563056471,-1.6070384979653511,1.2964425086905453
1684180471317092800,2.5244931640625,-1.8222451210637132,-1.2418594359563193,1.209225892905836
1684180471327134100,2.534534423828125,-1.808813214419284,-0.6448431014106069,0.6120338439793035
1684180471337175700,2.544576171875,-1.8244806527847652,-0.06175708774641204,0.17760968211068123
1684180471347217100,2.554617431640625,-1.7890564203022052,0.16448116306882926,-0.15466976178331368
1684180471357258400,2.564658935546875,-1.889980196925945,0.18829154952206106,-0.44496917732209007
1684180471367300000,2.574700439453125,-1.758655905712021,0.2800798415731592,-0.8183004855689646
1684180471377341400,2.58474169921875,-1.5355206729137836,0.36475372305374776,-1.168503880349241
1684180471387383000,2.594783447265625,-0.9732131959422751,0.3795900343847844,-1.2636907101745112
1684180471397424300,2.60482470703125,-0.32392537601525967,0.426371574497175,-1.463657379247694
1684180471407465900,2.6148662109375,0.4335910080574688,0.27146434794443236,-1.50613820551575
1684180471417507200,2.62490771484375,0.9101985096253711,0.03784751891055487,-1.3569771050071286
1684180471427548600,2.634948974609375,1.186297893388474,-0.0405769349740239,-1.0564267636818265
1684180471437590200,2.644990478515625,1.1737027168131509,-0.0031929016525237028,-0.6822731495511618
1684180471447631600,2.655031982421875,0.947580337443557,0.05791282650261182,-0.31378173813181814
1684180471457673100,2.665073486328125,0.6551750898626447,0.057980537309137034,0.07707595811662711
1684180471467714600,2.675114990234375,0.5376687049619222,0.001135825977830973,0.419475316862311
1684180471477755800,2.68515625,0.594677329192127,-0.0812530517061827,0.6293938160029491
1684180471487797400,2.69519775390625,0.6204262971505454,-0.16741085041199313,0.6023435593497821
1684180471497838800,2.7052392578125,0.24221253406738186,-0.2671566009736372,0.5436754226786219
1684180471507880400,2.71528076171875,0.29453802109316807,0.021159172071830084,0.40872025496279174
1684180471517921600,2.725322021484375,0.0355710983704527,-0.2037372588560034,0.4145224095619272
1684180471527963100,2.735363525390625,0.2311291695361751,-0.3103237152276287,0.1829404830760229
1684180471538004600,2.745405029296875,0.2603353261217708,-0.29306411731377147,-0.12695884701509988
1684180471548046000,2.7554462890625,0.5862808823904387,0.17454624156467072,-0.3945198058801325
1684180471558087600,2.765488037109375,0.3345768450494231,0.10051155088285793,-0.5273177624093053
1684180471568128900,2.775529296875,0.3187313078756573,0.1919355392463205,-0.6508085727627264
1684180471578170600,2.785571044921875,0.4657968282284925,0.28587055223306324,-0.6853232382958958
1684180471588211900,2.7956123046875,0.8322290182359985,0.6611957548884417,-0.6756434441159157
1684180471598253200,2.805653564453125,1.1342048644550444,0.9195957183758199,-0.5119729041694444
1684180471608294800,2.8156953125,1.3058445453300513,0.7928228378537454,-0.24283742918886805
1684180471618336200,2.825736572265625,1.516359805929261,0.7249383925652754,-0.1754841804269614
1684180471628377800,2.835778076171875,1.6827280520967807,0.7842941283062044,-0.3036465645923649
1684180471638419100,2.845819580078125,1.6264500618834155,0.5921659468283798,-0.4599463937980708
1684180471648460600,2.855861083984375,1.448115825839682,0.43684959401659335,-0.5276303290880214
1684180471658502100,2.86590234375,1.130627870642555,0.1477251052139135,-0.3575885295078884
1684180471668543600,2.875944091796875,0.8536158800718433,-0.31793498996378633,-0.195326089937493
1684180471678585000,2.8859853515625,0.6983211039875851,-0.6477327345511412,-0.1636533737176444
1684180471688626400,2.89602685546875,0.548724532144829,-0.7808074950135656,-0.1428766251143177
1684180471698668000,2.906068359375,0.37732022987726865,-0.827717780923966,-0.041236877437324335
1684180471708709300,2.916109619140625,0.2232659161279303,-0.7466096877554085,-0.043292045578703774
1684180471718750900,2.9261513671875,0.11589866888653752,-0.6740903853988989,-0.07269430162722193
1684180471728792200,2.936192626953125,0.04637962589976104,-0.6931447983364613,-0.057886600428825506
1684180471738833600,2.94623388671875,0.016947895188893114,-0.5282258987456099,0.011327028146956325
1684180471748875200,2.956275634765625,-0.11399069417990142,-0.4086141586820506,0.17908978468628467
1684180471758916600,2.96631689453125,-0.29206967340397477,-0.32260894776082844,0.27909779532758155
1684180471768958100,2.976358642578125,-0.3231763838008423,-0.1179628372575917,0.2880475521172976
1684180471778999500,2.98639990234375,-0.13448828455271034,0.28371238695927026,0.30190277089233186
1684180471789040800,2.996441162109375,0.07820530249655373,0.4025697706284658,0.281427860295005
1684180471799082400,3.00648291015625,0.3464923501623901,0.48570919038181004,0.32302403453389933
1684180471809123800,3.016524169921875,0.5851147174437509,0.6240396501458007,0.39541482920974913
1684180471819165400,3.026565673828125,0.7144562006130473,0.6261072159207024,0.4708480833419351
1684180471829206600,3.036607177734375,0.8526886701786487,0.6039056778958668,0.5473699571300928
1684180471839248300,3.046648681640625,1.0329462291032903,0.6171064377346547,0.5719208717245142
1684180471849289600,3.05668994140625,1.096199035597194,0.529881477214531,0.5666384695602695
1684180471859331000,3.0667314453125,1.1219131946626493,0.569179534821679,0.6241161824369907
1684180471869372600,3.07677294921875,1.0543327330753398,0.4811248779683102,0.6661934853190254
1684180471879413900,3.086814453125,0.981331586819913,0.3731527329095917,0.6421401500673647
1684180471889455600,3.09685595703125,0.8879495860458562,0.30721378329951027,0.6071088314407286
1684180471899496900,3.106897216796875,0.8682159184172085,0.26691913611652784,0.4769310951385641
1684180471909538600,3.11693896484375,0.9111378193472772,0.2743558884265067,0.4566478730436065
1684180471919579800,3.126980224609375,0.9400072097432687,0.27981281292121984,0.48238396646788806
1684180471929621200,3.137021484375,0.8657883405834313,0.3098096847785025,0.5875971317464876
1684180471939662800,3.147063232421875,0.7640382051999344,0.4118576050502318,0.7668645381033291
1684180471949704100,3.1571044921875,0.6350156068367114,0.4881505968111509,0.87353372591731
1684180471959745600,3.16714599609375,0.4929203392093048,0.6006088257092291,1.1062214374200496
1684180471969787100,3.1771875,0.3243491054600392,0.6147117614511574,1.3696191309919619
1684180471979828600,3.18722900390625,0.11654809108493762,0.4966144561635117,1.5730767249474376
1684180471989870000,3.1972705078125,0.051328688813044254,0.39968299858798384,1.7100479602368366
1684180471999911300,3.207311767578125,0.06980168069300396,0.24982929236741477,1.8471086024396932
1684180472009952900,3.217353271484375,0.13030532005797876,0.18091011062447637,1.9459254740908822
1684180472019994300,3.227394775390625,0.18065458530824025,-0.009366989119746575,1.7561149597413934
1684180472030035900,3.237436279296875,0.2652695774061995,-0.052684783951575796,1.5264255999691703
1684180472040077200,3.2474775390625,0.3959644140035783,0.026235580547117856,1.4490618706477816
1684180472050118600,3.25751904296875,0.4251380562121426,0.12368679057498204,1.2731969356984947
1684180472060160200,3.267560546875,0.37622070314962797,0.2657279968638291,1.0584642886231495
1684180472070201600,3.277601806640625,0.329325229005031,0.402553558442485,0.7229132653017675
1684180472080243100,3.2876435546875,0.2895056604677665,0.45614814755414657,0.41237354270867427
1684180472090284500,3.297684814453125,0.27779614926693724,0.47522163386755956,0.15522599227713912
1684180472100326100,3.3077265625,0.30044305327969495,0.4748373030661643,-0.07295513139150006
1684180472110367400,3.317767822265625,0.2652684749179615,0.3288803100520956,-0.26881957049327615
1684180472120408800,3.32780908203125,0.18999660026037316,0.1333560945198362,-0.4608466624960488
1684180472130450400,3.337850830078125,0.2563302815936427,0.029536247286898278,-0.6265056132997261
1684180472140491600,3.34789208984375,0.34309455757658003,-0.06862068170824605,-0.7053501607575577
1684180472150533300,3.35793359375,0.38477194317487806,-0.18743896487910527,-0.8190543652457076
1684180472160574600,3.36797509765625,0.4827232658430442,-0.2551536559968133,-0.9306702612974264
1684180472170616200,3.3780166015625,0.5452855229581347,-0.2960023879617692,-0.9493241311357469
1684180472180657600,3.38805810546875,0.5629111529585488,-0.27240085606411935,-0.9214458465499535
1684180472190699200,3.398099609375,0.5400327442980298,-0.18510150894995364,-0.8552052973559401
1684180472200740600,3.408140869140625,0.4556183813295228,-0.12558937085156655,-0.7518179417640699
1684180472210781900,3.418182373046875,0.349116831950807,-0.0945215226024534,-0.6300537585174896
1684180472220823600,3.428223876953125,0.1901673080311729,-0.1140708922212111,-0.4279439450374625
1684180472230864800,3.43826513671875,0.06721985354791626,-0.1371440888308246,-0.24656581888329582
1684180472240906400,3.448306884765625,-0.006041198979425591,-0.13569736468792837,-0.02169847480577696
1684180472250947800,3.45834814453125,-0.08789500606810305,-0.15063762664070582,0.20455861092010877
1684180472260989100,3.468389404296875,-0.16026225694967508,-0.12222480757156812,0.34848964220023826
1684180472271030600,3.47843115234375,-0.2234562636059823,-0.11265945433973362,0.5029845238477139
1684180472281072000,3.488472412109375,-0.29626718157521376,-0.07420635209591228,0.6383270023603045
1684180472291113600,3.49851416015625,-0.3589743972171441,-0.03549861904466176,0.6634984015597409
1684180472301155000,3.508555419921875,-0.43684655418025004,0.058667182852053947,0.6750688551576747
1684180472311196600,3.518596923828125,-0.4684899448723563,0.19184589379808448,0.5790456532802053
1684180472321237900,3.528638427734375,-0.5218008755282326,0.25919628147308116,0.5462054014553096
1684180472331279300,3.5386796875,-0.535795032919729,0.3207321165361052,0.5833001136485354
1684180472341320900,3.54872119140625,-0.5427576302901668,0.33127689376739666,0.5395138263853878
1684180472351362200,3.5587626953125,-0.537180662090928,0.34601211558503786,0.5412907003295033
1684180472361403800,3.56880419921875,-0.5116674901002911,0.3315515519741042,0.561446547519254
1684180472371445200,3.578845458984375,-0.4565370679146851,0.3119935989596585,0.5142022371770528
1684180472381486800,3.58888720703125,-0.36924898626763875,0.24691104888500673,0.4311758280545572
1684180472391528100,3.598928466796875,-0.2568509578200691,0.20342540744837698,0.33246636379939987
1684180472401569600,3.60897021484375,-0.16488271938885188,0.10040855416793074,0.24555212254500788
1684180472411611100,3.619011474609375,-0.048411547963705934,0.00966358172202855,0.20241057886827396
1684180472421652400,3.629052734375,0.06788915406153596,-0.04501724240600172,0.1513208448450072
1684180472431694000,3.639094482421875,0.14700859777941938,-0.0686244964518343,0.08606317644078988
1684180472441735300,3.6491357421875,0.2563506960747918,-0.09966182718206096,-0.00948053587568864
1684180472451776900,3.65917724609375,0.35030788172126714,-0.06439113627073381,-0.0018417836568117739
1684180472461818300,3.66921875,0.3958078623001384,-0.05397224433863119,0.030677616536854708
1684180472471859600,3.679260009765625,0.43204146620333544,-0.06372165683201407,0.02819229669977266
1684180472481901200,3.689301513671875,0.42143309106196414,-0.04831790909225331,0.016761092431268013
1684180472491942600,3.699343017578125,0.38671779645209975,-0.08660602574455634,0.037292234736317015
1684180472501984200,3.709384521484375,0.2969023586488195,-0.1591959000698609,0.008704304777681018
1684180472512025600,3.719426025390625,0.16991817951523858,-0.253827094988811,-0.07944688205736161
1684180472522067100,3.729467529296875,-0.005002081328509536,-0.26516818990892543,-0.18458704641883883
1684180472532108500,3.7395087890625,-0.16398972280388224,-0.22663593294139509,-0.2377360463003795
1684180472542150100,3.749550537109375,-0.347586929860931,-0.20732307417259416,-0.24817183610228208
1684180472552191400,3.759591796875,-0.48648107058027673,-0.24514007557094047,-0.2863796055004388
1684180472562232800,3.769633056640625,-0.6071137189890302,-0.06527996064691466,-0.4405434728947089
1684180472572274400,3.7796748046875,-0.6388884782953005,0.02122402200209968,-0.3708578050811178
1684180472582315600,3.789716064453125,-0.5738147496076924,0.007414817760610414,0.019346416065332273
1684180472592357300,3.7997578125,-0.4981982708053952,0.0199689864971942,0.2796407342972943
1684180472602398600,3.809799072265625,-0.4898064135262081,0.07541084285937129,0.4029363392606951
1684180472612440000,3.81984033203125,-0.47471034532358014,0.14970779411890225,0.511826753608955
1684180472622481600,3.829882080078125,-0.47593700896100527,0.1593351363739382,0.575045347207557
1684180472632522900,3.83992333984375,-0.4591927528153883,0.11410236357536466,0.6284291744213901
1684180472642564600,3.84996484375,-0.4074103832853438,0.10729980472219361,0.6463555693488527
1684180472652605900,3.86000634765625,-0.35930222289527747,0.10058212280269119,0.6813482046218853
1684180472662647500,3.8700478515625,-0.31081801656274005,0.07953262336057045,0.7050397395176051
1684180472672688800,3.880089111328125,-0.291340589451519,-0.04185485842266615,0.7866988182872978
1684180472682730400,3.890130859375,-0.23010569810013573,-0.13449668877165494,0.7784636021817846
1684180472692771800,3.900172119140625,-0.22322803719605347,-0.2057008743646855,0.8167849779563299
1684180472702813100,3.910213623046875,-0.25119906666272585,-0.13608169570580744,0.8293591738615855
1684180472712854600,3.920255126953125,-0.2985175848338214,-0.09067344678458789,0.8785852194589859
1684180472722896000,3.93029638671875,-0.2993548513732253,-0.12182998661915297,0.9169341326416147
1684180472732937600,3.940338134765625,-0.29578721509202743,-0.11214733111900993,1.0957716703185376
1684180472742979000,3.95037939453125,-0.24885773658279295,-0.1905708312282538,1.1638011932455288
1684180472753020600,3.9604208984375,-0.17541074756052918,-0.2876625060545533,1.234161138442961
1684180472763061900,3.97046240234375,-0.08282315727568734,-0.3411989211438412,1.317307829829856
1684180472773103300,3.980503662109375,0.03568899634737946,-0.2747812271074691,1.4210810662185036
1684180472783144900,3.990545166015625,0.15554249300017844,-0.20339965817491956,1.4786143303062422
1684180472793186200,4.000586669921875,0.27585673348593537,-0.19165229806877748,1.5167154073457871
1684180472803227800,4.010628173828125,0.35966098312656636,-0.10098552704926128,1.5877089500820818
1684180472813269200,4.020669677734375,0.439104795541774,-0.03672599788727283,1.6855868100514533
1684180472823310800,4.030711181640625,0.4603362081978043,0.1086282730075043,1.6941525936154884
1684180472833352100,4.04075244140625,0.4106245041188734,0.30611038206738594,1.5086069107394557
1684180472843393500,4.0507939453125,0.3449705839386549,0.3004207610578165,1.2086687087388008
1684180472853435100,4.06083544921875,0.23374366742828398,0.16289806374288862,0.8030967712585731
1684180472863476400,4.070876708984375,0.10866713537852908,0.08646106734601743,0.33769941329199293
1684180472873518000,4.08091845703125,0.02412617199850968,0.09603309624589881,-0.006204128333607653
1684180472883559300,4.090959716796875,0.004285096995764479,-0.0193805696069318,-0.3805500863656287
1684180472893600900,4.10100146484375,0.034675598110839596,-0.1024227142871095,-0.6482903956501261
1684180472903642300,4.111042724609375,0.1538625956162001,-0.18709564204552973,-0.8316401243053565
1684180472913683600,4.121083984375,0.32666480546529,-0.25064945220220514,-0.8881376981881144
1684180472923725200,4.131125732421875,0.4839397669800178,-0.35557079314589995,-0.9836841224746821
1684180472933766600,4.1411669921875,0.6636220218201127,-0.401795387261997,-1.0005283356657573
1684180472943808200,4.15120849609375,0.7956572769327838,-0.3465585707670572,-0.8551509975961976
1684180472953849600,4.16125,0.8532083033671715,-0.2065258026025229,-0.5430575608569548
1684180472963891100,4.17129150390625,0.793473720527901,0.01633262638228743,-0.20372176163476652
1684180472973932500,4.181332763671875,0.6562105418651558,0.05955791473956098,-0.16577076914387337
1684180472983974100,4.19137451171875,0.4764156341499664,-0.31526279457196044,-0.3469253779947056
1684180472994015400,4.201415771484375,0.19238984590726846,0.022635459840718773,-0.23389947415158718
1684180473004056800,4.21145703125,-0.046608328784737925,0.7536153793193322,-0.18271875378631386
1684180473014098400,4.221498779296875,-0.3194046020643988,0.9978942871013038,-0.009391665427163446
1684180473024139600,4.2315400390625,-0.5306462049687277,0.9744911194875645,0.23880565157288047
1684180473034181300,4.241581787109375,-0.6876589059052096,0.8710050581313887,0.5378730891774303
1684180473044222600,4.251623046875,-0.7807100415853384,0.6930379867868144,0.6879660486474581
1684180473054264200,4.26166455078125,-0.8250429033628945,0.7178220747846552,0.7345680595273126
1684180473064305600,4.2717060546875,-0.7584024071743029,0.5100193022945777,0.7327488662257543
1684180473074346900,4.281747314453125,-0.6275525688664665,0.2512445447887841,0.6303440928636536
1684180473084388600,4.291788818359375,-0.41319525245595845,-0.12562465672701742,0.5191618203249054
1684180473094429900,4.301830322265625,-0.16945052142977465,-0.5534477232951848,0.38336622716750307
1684180473104471600,4.311871826171875,0.024085998539344428,-0.8388576508208825,0.1831723450871798
1684180473114512800,4.321913330078125,0.1430703401389232,-0.9970359803128207,-0.15652787702960969
1684180473124554400,4.331954833984375,0.20382428152711382,-0.9329862594143998,-0.3237695693943268
1684180473134595800,4.34199609375,0.24430906786762796,-0.6926984785981577,-0.500451922485032
1684180473144637400,4.352037841796875,0.23119044296477292,-0.5297155380727514,-0.6247415543710954
1684180473154678600,4.3620791015625,0.16442883001614886,-0.4223394394892409,-0.7831531762772272
1684180473164720000,4.372120361328125,0.032338976751712226,-0.35605430598657994,-0.9043421745212737
1684180473174761600,4.382162109375,-0.12958705423239106,-0.31395053862664246,-0.946935653576778
1684180473184803000,4.392203369140625,-0.33631670474142644,-0.2837352753274758,-0.909704446822521
1684180473194844600,4.402244873046875,-0.5355256796912905,-0.24590396886825416,-0.6959359645241902
1684180473204885900,4.412286376953125,-0.8049751520514222,-0.00014877314751106797,-0.6344864367745283
1684180473214927300,4.42232763671875,-1.04939651487421,0.22100734718536733,-0.3832454681122751
1684180473224968900,4.432369384765625,-1.2318996191875335,0.27948760974403875,0.0982525348413195
1684180473235010200,4.44241064453125,-1.3375709057306926,0.23825740821211328,0.4765719176085546
1684180473245051800,4.4524521484375,-1.3942945004445713,0.26972198486528887,0.748496532540224
1684180473255093200,4.46249365234375,-1.4371100664763332,0.32601833344192305,0.9379381536863288
1684180473265134800,4.47253515625,-1.4820997714960853,0.37609481796035504,1.0803511143138058
1684180473275176100,4.482576416015625,-1.5381786823260424,0.40568065641796014,1.225281953974262
1684180473285217600,4.4926181640625,-1.5929470062009246,0.39561843872740987,1.2485101224520525
1684180473295259100,4.502659423828125,-1.6057968140372176,0.501005172606693,1.2032085657098701
1684180473305300400,4.51270068359375,-1.6839344503189377,0.40128612518682405,1.0472273826405267
1684180473315342000,4.522742431640625,-1.7641878128651778,0.0704917908734281,0.8480235338495904
1684180473325383300,4.53278369140625,-1.8174225092464504,0.2515316011231029,0.6304929257183718
1684180473335424900,4.542825439453125,-1.783595204269688,0.274179458718043,0.45644170041472915
1684180473345466300,4.55286669921875,-1.5434619188224936,0.2794141768956247,0.25111079211598303
1684180473355507900,4.562908203125,-1.106314778343566,0.2786388396468827,-0.0009455679493357063
1684180473365549200,4.57294970703125,-0.6467848418939875,0.03736400597242243,-0.14111942061688912
1684180473375590800,4.5829912109375,-0.16821688424067113,-0.13615894315502503,-0.37110304833132696
1684180473385632200,4.593032470703125,0.2671260238383697,-0.1897048951548218,-0.4888334273978609
1684180473395673600,4.603073974609375,0.5198795795472426,-0.6153030394437249,-0.5999068020990084
1684180473405715100,4.613115478515625,0.6679914594964684,-1.1610651016648765,-0.7560574412762585
1684180473415756500,4.623156982421875,0.7126539349961363,-1.773901939318277,-0.890806496323936
1684180473425798100,4.633198486328125,0.6499475836981389,-2.095261573739867,-1.0539727209987457
1684180473435839400,4.64323974609375,0.7323564887389793,-2.2499351500217517,-0.9129801392630517
1684180473445881000,4.653281494140625,1.291007042005993,-2.1235752106004444,-0.8816920518700659
1684180473455922400,4.66332275390625,2.020824432339282,-1.728402137634454,-0.8157483339194864
1684180473465963600,4.673364013671875,2.447294235287456,-1.1768865586665083,-0.7961877583650331
1684180473476005300,4.68340576171875,2.5316629408797255,-0.9918355941945739,-0.635862529253073
1684180473486046600,4.693447021484375,2.361960411126705,-0.6010160445735079,-0.4112748502456588
1684180473496088200,4.703488525390625,2.1071772575634,-0.3604993819492123,-0.1164510845822958
1684180473506129600,4.713530029296875,1.7898427247328035,-0.24132537830393672,0.11990416047468899
1684180473516171200,4.723571533203125,1.4453545809326702,-0.21016407011996704,0.13923707588640016
1684180473526212600,4.733613037109375,1.2656621932480805,-0.21716022507333776,0.09898310902261571
1684180473536254100,4.743654541015625,1.2611746787368325,0.021685600302565177,0.028098315053194725
1684180473546295500,4.75369580078125,1.3192481994142915,0.25741958614874433,-0.03943866502735975
1684180473556336800,4.7637373046875,1.3156328201166816,0.5258932112268542,-0.1748741268468021
1684180473566378400,4.77377880859375,1.104484081414307,0.7049303055245666,-0.3638052345174117
1684180473576419800,4.783820068359375,0.9110057353038424,0.9113264084563877,-0.5652496813927235
1684180473586461400,4.79386181640625,0.7621144651003414,1.1257514952633123,-0.7884109616521994
1684180473596502600,4.803903076171875,0.6737719774887364,1.2981157304156152,-0.9638890028182242
1684180473606544300,4.81394482421875,0.5659402608772752,1.4000015259051812,-1.2628285883566968
1684180473616585600,4.823986083984375,0.4709773063448913,1.407861709472856,-1.57647752749408
1684180473626627200,4.834027587890625,0.39465773091220496,1.3317432403152136,-1.8476032017242616
1684180473636668600,4.844069091796875,0.3215259314105366,1.3320798874625428,-2.064546823506773
1684180473646709900,4.8541103515625,0.2126954794312086,1.2154569627305307,-2.157488346054675
1684180473656751600,4.86415185546875,0.13471317280300152,1.0468349456707813,-2.1454851626854454
1684180473666792900,4.874193359375,0.11073160182508442,0.7788791655438361,-2.0290784835366495
1684180473676834600,4.88423486328125,0.02313733099115589,0.5530471800875023,-1.833056688153133
1684180473686875800,4.894276123046875,-0.08961677568811668,0.34786701190302266,-1.6356024742001485
1684180473696917200,4.904317626953125,-0.19089651096269852,0.19651412973310026,-1.470679283157073
1684180473706958800,4.914359130859375,-0.21774935711737683,0.06984043122098738,-1.2798306941836644
1684180473717000100,4.924400390625,-0.1423103809378476,-0.012992858894559384,-0.9475941659450465
1684180473727041600,4.934442138671875,-0.039326190903089676,-0.18556499489394152,-0.5769596100610731
1684180473737083100,4.9444833984375,0.037995338450982054,-0.30412197119433154,-0.30305653802563576
1684180473747124600,4.954525146484375,0.17702054965362507,-0.38048172002841574,-0.048691153568396435
1684180473757166000,4.96456640625,0.29320073120313206,-0.4002780914947701,0.18280753491656956
1684180473767207600,4.97460791015625,0.3434925078200626,-0.44964790354351886,0.30427047620144954
1684180473777248900,4.9846494140625,0.30666732777330263,-0.4903631209582597,0.4836751223014993
1684180473787290600,4.99469091796875,0.2211346626169567,-0.08548164379425738,0.4305315912275552
1684180473797331900,5.004732177734375,0.22573423392283795,0.2766256331427825,0.26975572104208434
1684180473807373200,5.014773681640625,0.28420734415094934,0.41225433343558315,0.15591511135382974
1684180473817414800,5.024815185546875,0.26498329649128,0.5559759139099547,0.050664067238832274
1684180473827456200,5.034856689453125,0.16836333284072513,0.6455783843384547,0.047499477870763904
1684180473837497800,5.044898193359375,0.06826686860393526,0.6716337204469378,0.12491369229143605
1684180473847539100,5.054939453125,-0.05973243710196436,0.6629877090082935,0.2851616144208893
1684180473857580600,5.064981201171875,-0.25815701484809583,0.6290798187283039,0.5497705340635398
1684180473867622100,5.0750224609375,-0.39619088178534473,0.45247554774213405,0.8876079321355705
1684180473877663600,5.08506396484375,-0.36381411553774307,0.16879940032856622,1.1896404026677732
1684180473887705000,5.09510546875,-0.33866715424982824,-0.06714820867490805,1.4697849750414687
1684180473897746400,5.105146728515625,-0.4866293668111093,-0.1627435685009774,1.6120370628057616
1684180473907788000,5.115188232421875,-0.6606452465669477,-0.0728683472129971,1.4256403446286652
1684180473917829300,5.125229736328125,-0.8501192330965875,0.1497888563832284,1.170015335090292
1684180473927870900,5.135271240234375,-1.1996420621435286,0.25895690927916687,0.8469306230613797
1684180473937912200,5.145312744140625,-1.8430417777683519,0.14447402943235324,0.5686025618607274
1684180473947953800,5.155354248046875,-2.816222667671858,-0.3017959595190718,0.4498677252924575
1684180473957995200,5.1653955078125,-3.4382886886039,-0.6666946410518774,0.148338675543404
1684180473968036800,5.175437255859375,-3.0457944870376745,-0.8111457824649552,-0.2832836507196793
1684180473978078100,5.185478515625,-1.1463953255805635,-0.39713859540166724,-1.3001973629024848
1684180473988119600,5.195519775390625,1.0307016371617306,0.5346641541133471,-2.1668848991518432
1684180473998161100,5.2055615234375,2.3644020557879037,0.9871797560601854,-2.6299421787326422
1684180474008202400,5.215602783203125,2.6579103469835452,0.6220932006617891,-3.059388160771466
1684180474018244000,5.22564453125,2.2818284034949126,-0.017267227070166483,-3.4055857659486435
1684180474028285400,5.235685791015625,1.8870620726514793,-0.5498218535848642,-3.677872180912419
1684180474038327000,5.245727294921875,1.2988821266223065,-0.9143257140764671,-3.626287221905475
1684180474048368300,5.255768798828125,0.31520271296743135,-1.1191902161076779,-3.5533525943937834
1684180474058409900,5.265810302734375,-0.6851521729811626,-1.232766151528465,-3.3009741304822695
1684180474068451200,5.2758515625,-1.6638607977837503,-1.2039594650285552,-2.7509331703334094
1684180474078492600,5.28589306640625,-2.6951191424820995,-0.9247140883946788,-1.5138398408275413
1684180474088534200,5.2959345703125,-3.5790593624297746,-0.6392526625293113,0.18149900435815863
1684180474098575600,5.305975830078125,-3.422543048987839,-0.011795997722422923,1.6023025512902425
1684180474108617100,5.316017578125,-2.211840152797778,0.6085700989089431,2.5226604938739725
1684180474118658600,5.326058837890625,-0.6307376624984049,0.9691276550873116,2.880011558554913
1684180474128699800,5.336100341796875,0.7631133794712446,0.9840526580357664,2.7676913739617985
1684180474138741400,5.346141845703125,1.893313646462453,0.7961416244764893,2.3353760243436597
1684180474148783000,5.356183349609375,2.653997659833899,0.6952228547660297,1.856834411661083
1684180474158824400,5.366224853515625,3.13551259045049,0.7669143676486975,1.2417490482577935
1684180474168865600,5.37626611328125,3.2367806435307767,0.8862285614067896,0.8511954546424484
1684180474178907300,5.3863076171875,3.110072135891819,0.7637643813375454,0.6793462635313563
1684180474188948600,5.39634912109375,2.946677207836429,0.5410022734475078,0.5729387999005086
1684180474198990300,5.406390625,2.726642131831061,0.103440284771641,0.4462949633381708
1684180474209031600,5.416431884765625,2.4477038383989176,-0.1260852813813621,0.2406615020109647
1684180474219073200,5.4264736328125,2.157851696009537,-0.44969177248811704,0.08298254010164566
1684180474229114600,5.436514892578125,1.842446684900117,-0.6433467866356545,-0.12282991417011961
1684180474239155900,5.446556396484375,1.5093604327561316,-0.5423269272963979,-0.16127777103602411
1684180474249197600,5.456597900390625,0.8797870874832906,-0.23814868942968986,-0.14805257316972867
1684180474259238800,5.46663916015625,-0.1852698624231955,-0.019742012125969956,-0.18289124979157503
1684180474269280400,5.476680908203125,-1.3289529084308656,0.02546596543556243,-0.3116513490812173
1684180474279321800,5.48672216796875,-2.2783508300164663,-0.04726219159611469,-0.4859771727550254
1684180474289363400,5.496763671875,-2.7586503027808487,-0.1146745680723444,-0.6255600452794495
1684180474299404600,5.50680517578125,-2.6828005313585144,-0.13734245299640171,-0.6609293222713255
1684180474309446300,5.5168466796875,-2.0254008769088565,-0.12198829662386461,-0.4534955025727622
1684180474319487600,5.52688818359375,-1.0532190801281411,-0.10190296156937005,0.07945740218205948
1684180474329529000,5.536929443359375,-0.2150090188654373,-0.0171442032735977,0.6434705256493608
1684180474339570600,5.546970947265625,0.37553784255968614,0.07029438009207817,1.0156393050694026
1684180474349612000,5.557012451171875,0.7154038548644993,-0.009024620147774302,1.0856947899495228
1684180474359653600,5.567053955078125,0.9119777084028479,-0.11619377124409722,0.9599253536965787
1684180474369694900,5.57709521484375,1.017212152549494,-0.05553436277238404,0.6715325117148285
1684180474379736600,5.587136962890625,1.090903282129029,-0.002137184059005873,0.30924034099732745
1684180474389777800,5.59717822265625,1.118108868637956,0.18229293812173572,0.022921323791561626
1684180474399819400,5.6072197265625,1.1313639880141515,0.344674110432704,-0.18814229965029713
1684180474409860800,5.61726123046875,1.1738085746190527,0.33689880361412416,-0.41662168501916796
1684180474419902100,5.627302490234375,1.2302240133508888,0.40983676914332207,-0.5888648033768731
1684180474429943600,5.63734423828125,1.3138651847172063,0.46292686463639765,-0.5161223411536845
1684180474439985300,5.6473857421875,1.3912049531050812,0.350719452052728,-0.350775718648226
1684180474450026600,5.657427001953125,1.4369840623071186,0.27421188343948893,-0.22675192349082218
1684180474460068000,5.667468505859375,1.4740970136088898,0.25247764596489797,0.013301611081610943
1684180474470109600,5.677510009765625,1.4990078209764897,0.22346782694164982,0.29875099658835824
1684180474480151000,5.68755126953125,1.466669797931484,0.23037433636980098,0.5327658651720112
1684180474490192600,5.697593017578125,1.3794472216182299,0.2015438080192458,0.7030392885441996
1684180474500233900,5.70763427734375,1.2937438488450441,0.1299123764248792,0.8405167460926161
1684180474510275600,5.717676025390625,1.1652499437886197,0.11348629005264144,0.8686413169109182
1684180474520316800,5.72771728515625,1.0144253969516215,0.004054069583983587,0.8900904059291733
1684180474530358400,5.7377587890625,0.8620754480437776,-0.10984611511329438,0.8403573036649353
1684180474540399800,5.74780029296875,0.6700080633751944,-0.11842250830303033,0.8010071516551865
1684180474550441100,5.757841552734375,0.4184179902922098,-0.24161148083996167,0.7289943695350938
1684180474560482700,5.767883056640625,0.18643492467795209,-0.2880163192286325,0.7010626196501858
1684180474570524100,5.777924560546875,-0.01577419036649059,-0.3460884094796681,0.6124711037562935
1684180474580565600,5.787966064453125,-0.14718818657179694,-0.28435420984185084,0.5738930701625523
1684180474590607000,5.79800732421875,-0.1893083750411101,-0.22960472118396028,0.5189895033216657
1684180474600648600,5.808049072265625,-0.17012518647111058,-0.11488056179798412,0.47429823862608494
1684180474610690000,5.81809033203125,-0.03551167265150368,-0.054972648644118466,0.4207608699858
1684180474620731600,5.828132080078125,0.12885755301855134,-0.03550243371327777,0.42281377321717445
1684180474630772900,5.83817333984375,0.32528865338463236,-0.03258419038059298,0.358168601993212
1684180474640814300,5.848214599609375,0.4962076544698235,-0.0320014954320829,0.3415585755138383
1684180474650855900,5.85825634765625,0.6135597227764967,-0.0028190611609006304,0.3059917689074638
1684180474660897200,5.868297607421875,0.7030559182876611,0.0190143587089052,0.3136941194245076
1684180474670938800,5.878339111328125,0.7577601672776888,0.000107765071654196,0.3047690391242497
1684180474680980100,5.888380615234375,0.825428366726367,0.03845214843670962,0.2936990261794819
1684180474691021700,5.898422119140625,0.8624501228720578,-0.08104324342720357,0.2206603287405047
1684180474701063100,5.90846337890625,0.8896889687799681,-0.09303092962216009,0.16751623170351493
1684180474711104600,5.918505126953125,0.8446788192202354,-0.098080635149941,0.12211334719599747
1684180474721146000,5.92854638671875,0.7731360791389545,-0.11769676211883216,0.08677673342044283
1684180474731187400,5.938587890625,0.6264676451576582,-0.13027763367190767,0.06401169303217381
1684180474741229000,5.94862939453125,0.46608108282749683,-0.1596736909154386,0.03975999353508526
1684180474751270300,5.958670654296875,0.3529407978737112,-0.1961765287459202,0.07835006712283708
1684180474761311900,5.96871240234375,0.27806687360607,-0.19439792639216116,0.08922815315599288
1684180474771353300,5.978753662109375,0.23674023142796033,-0.18784236905844556,0.17031431209077733
1684180474781394900,5.988795166015625,0.20970892914639638,-0.12392997744179025,0.2375006675531987
1684180474791436200,5.998836669921875,0.21047103413820867,-0.07206344605259979,0.3119779825104274
1684180474801477800,6.008878173828125,0.20481610292285765,-0.029771804656182312,0.35246455667984333
1684180474811519200,6.01891943359375,0.1777049900159228,0.04527473456047684,0.351521849665998
1684180474821560800,6.028961181640625,0.18884682665743244,0.03446865085401091,0.3591294288379327
1684180474831602100,6.03900244140625,0.2001290320558479,-0.05368328097464243,0.31628334529760377
1684180474841643400,6.0490439453125,0.22620737559181497,-0.10727596274335457,0.23841369160399284
1684180474851685000,6.05908544921875,0.22959005830837245,-0.030320167666713978,0.17543494696325498
1684180474861726400,6.069126708984375,0.2701094746955474,-0.027441978422890683,0.15557587135893286
1684180474871768000,6.07916845703125,0.34809935094239275,-0.14675426473545436,0.13559234155347805
1684180474881809300,6.089209716796875,0.44871097800547255,-0.19085693369318682,0.07563304904382244
1684180474891850900,6.099251220703125,0.5730146168429324,-0.19884300232079666,0.04765558240646106
1684180474901892300,6.109292724609375,0.7006446719412385,-0.1996545790463485,-0.017100572650059327
1684180474911933900,6.119334228515625,0.8047596216939827,-0.13701248176735537,-0.03534519674767033
1684180474921975200,6.129375732421875,0.849521458036719,0.10328960416464783,-0.035949349393828496
1684180474932016600,6.1394169921875,0.8645488024331717,-0.10775947578305337,-0.027125358470825058
1684180474942058200,6.14945849609375,0.8452149629578737,-0.03993034351049487,-0.07730448241138417
1684180474952099800,6.159500244140625,0.8010012508309057,0.031244277873736438,-0.13061773788120634
1684180474962141100,6.16954150390625,0.7462410332547696,0.12440967567326874,-0.19571578506325124
1684180474972182400,6.179582763671875,0.6441314220494426,0.13806056979944123,-0.16912317268192859
1684180474982224000,6.18962451171875,0.5481861829372259,0.16065692902059034,-0.1769073010056203
1684180474992265400,6.199665771484375,0.45697861895987774,0.10032844533426105,-0.14092552663290525
1684180475002307000,6.209707275390625,0.4252675175307891,0.10913372040220763,-0.09698104861696975
1684180475012348300,6.219748779296875,0.4310257435324177,0.16943073266949896,0.020794868564040794
1684180475022389900,6.229790283203125,0.4596728682928178,0.12501239772037184,0.07215917102908767
1684180475032431300,6.239831787109375,0.5485518575271809,-0.07876968373176113,0.21764063850950516
1684180475042472900,6.249873291015625,0.6489026545850455,0.022231102064796327,0.332551956104854
1684180475052514200,6.25991455078125,0.7566015721374599,0.05327033988453232,0.4570875168491479
1684180475062555600,6.2699560546875,0.8086343407225104,0.048460006695563294,0.5363039970801776
1684180475072597200,6.27999755859375,0.8277716637018471,0.015368461732966703,0.5543115138710483
1684180475082638600,6.290038818359375,0.7527253628430466,-0.010257720868812388,0.5120733977917155
1684180475092680100,6.30008056640625,0.609224796301868,-0.047331809914159924,0.5141562224050736
1684180475102721500,6.310121826171875,0.4655618071482033,-0.029652595485855596,0.44914317122818587
1684180475112763100,6.32016357421875,0.3161280752762044,0.0041799544078484725,0.4177942276343957
1684180475122804400,6.330204833984375,0.1768951415839063,-0.011925697320947361,0.38215136520843285
1684180475132846000,6.340246337890625,0.14585429439719022,-0.02058029182976858,0.3474625349618773
1684180475142887300,6.350287841796875,0.1418887376532869,-0.019558906614301076,0.3282272815394903
1684180475152928600,6.3603291015625,0.20007055996091505,0.059272766024664046,0.37122631078043516
1684180475162970300,6.37037060546875,0.29513359072989487,0.03332996365768596,0.37394893158207204
1684180475173011600,6.380412109375,0.39461821310100065,0.03852653494420478,0.46134746073303606
1684180475183053200,6.39045361328125,0.48971939098575307,0.05549430858821327,0.5207040311063889
1684180475193094600,6.400494873046875,0.5555651188153884,0.06517696384648383,0.5425611735342908
1684180475203136200,6.41053662109375,0.5516334176848718,0.04178428650248776,0.5107235909162947
1684180475213177600,6.420577880859375,0.5117434859232838,0.02824878701465149,0.4376499653244201
1684180475223219100,6.43061962890625,0.4106934667781883,0.019621849183900027,0.32212829585790337
1684180475233260500,6.440660888671875,0.29272395383305194,0.02293395995992018,0.19556045544700273
1684180475243302100,6.450702392578125,0.1778504849362181,-0.006740570043494343,0.11502683174229165
1684180475253343400,6.460743896484375,0.07630330319228835,0.008859634410618104,0.035331606812706653
1684180475263385000,6.470785400390625,-0.05139797918787366,0.07377243051708088,0.010515570604573928
1684180475273426400,6.48082666015625,-0.15968030687488635,0.20374584199114418,-0.0736367701761634
1684180475283467600,6.4908681640625,-0.2836310266945212,0.2023334503812449,-0.14542198194846911
1684180475293509300,6.50090966796875,-0.349876403869772,0.28826045998347083,-0.22350335106854957
1684180475303550600,6.510950927734375,-0.40859556196221175,0.35178947457991055,-0.23240506650102508
1684180475313592200,6.52099267578125,-0.4829723836093092,0.33914661393064444,-0.3472331761897246
1684180475323633600,6.531033935546875,-0.5417687892868807,0.3055982590104288,-0.40042662610744184
1684180475333675200,6.54107568359375,-0.5359991789302418,0.23019599909793947,-0.4749467373465352
1684180475343716600,6.551116943359375,-0.4767327012187091,0.1041383742631063,-0.4478945731723788
1684180475353758100,6.561158447265625,-0.3822518884542717,0.05536270129853525,-0.4719150065391842
1684180475363799600,6.571199951171875,-0.29599952689287173,0.02600669849042387,-0.45889806736659017
1684180475373841100,6.581241455078125,-0.1849138736879849,0.013433456457006216,-0.37676823151981265
1684180475383882400,6.59128271484375,-0.11028367279920306,0.041008949283027195,-0.2859635351916626
1684180475393924000,6.601324462890625,-0.0266193746356344,0.01149559031552923,-0.18631434441682618
1684180475403965400,6.61136572265625,0.00420075663720375,0.029475212037754477,-0.0737519265366596
1684180475414006600,6.621406982421875,0.04145592461314934,0.016571044922066288,-0.0151286124955528
1684180475424048300,6.63144873046875,-0.016172826377994182,-0.06441688523597829,0.08489191532985603
1684180475434089600,6.641489990234375,-0.09372824426169565,-0.014630317767995716,0.06585252274889859
1684180475444131200,6.65153173828125,-0.2278581261927816,-0.06692123410290861,0.1557492018895262
1684180475454172600,6.661572998046875,-0.33005562433350033,-0.04051971421928249,0.12847566609739408
1684180475464214200,6.671614501953125,-0.43111258740251435,0.02086257932462126,0.10624480242954723
1684180475474255600,6.681656005859375,-0.4883218406401565,0.05775928486094299,0.11268305771416806
1684180475484297100,6.691697509765625,-0.5158777832640326,0.11999130245472997,0.0722410678205855
1684180475494338600,6.70173876953125,-0.5068781971367374,0.19767570506418417,0.047098875086200365
1684180475504380100,6.711780517578125,-0.42669820777819556,0.20116519945131087,0.06471824646828012
1684180475514421400,6.72182177734375,-0.29872477054075175,0.1622762679749032,0.13822686657276287
1684180475524463000,6.731863525390625,-0.10425472269359198,0.13586807248948488,0.15557277209172632
1684180475534504400,6.74190478515625,0.04344624289416967,0.0911083221939062,0.15282464017616726
1684180475544545600,6.751946044921875,0.1722155212576797,0.05178928369559236,0.1516445875443244
1684180475554587300,6.76198779296875,0.2439337075224872,0.0037631989035455497,0.16811347010959737
1684180475564628600,6.772029052734375,0.32575449342279766,-0.010428428568082048,0.20202302924621915
1684180475574670300,6.782070556640625,0.371368288907333,-0.05009937292518157,0.19159913070655682
1684180475584711600,6.792112060546875,0.41781646016247515,-0.04646205906123717,0.17266500007443467
1684180475594753200,6.802153564453125,0.4992113411877144,-0.09669399262047368,0.15935909735041576
1684180475604794600,6.81219482421875,0.575886607050735,-0.09634017933299983,0.050652861721053585
1684180475614836100,6.822236572265625,0.6366688013511556,-0.09822940810257395,-0.054301142705908786
1684180475624877600,6.83227783203125,0.675048828169841,-0.20135879529894088,-0.19712972644266355
1684180475634919100,6.842319580078125,0.6700040101155927,-0.1545715331406704,-0.3745241164732629
1684180475644960400,6.85236083984375,0.6096329093897281,-0.11585712420002522,-0.5078164338497693
1684180475655002000,6.86240234375,0.4874493776471321,-0.18877029428140507,-0.6702790261668092
1684180475665043400,6.87244384765625,0.3565905988627299,-0.24919509903566775,-0.9618724584287653
1684180475675084600,6.882485107421875,0.14279124136622337,-0.29740905764672637,-1.1753236055357925
1684180475685126300,6.892526611328125,-0.08592472960897403,-0.34761714941060445,-1.282102227294152
1684180475695167600,6.902568115234375,-0.2236412466092288,-0.3503198623024941,-1.4280102252252265
1684180475705209300,6.912609619140625,-0.3693226278116922,-0.31815528874208904,-1.5134239198171662
1684180475715250600,6.922651123046875,-0.465146631067211,-0.303494453417878,-1.5301775931895785
1684180475725292200,6.932692626953125,-0.5555698276825746,-0.27940368654624,-1.5772712230248314
1684180475735333600,6.94273388671875,-0.635902881529383,-0.3010559082037074,-1.4899256229702003
1684180475745375200,6.952775634765625,-0.7056347130551431,-0.28231143955938715,-1.4168283939040012
1684180475755416600,6.96281689453125,-0.7665038109208967,-0.3192319869828081,-1.368037939065315
1684180475765458100,6.9728583984375,-0.7272764444526195,-0.3497829437750072,-1.1995398998493725
1684180475775499400,6.98289990234375,-0.6167935131636455,-0.3044900893297982,-0.9415214062140195
1684180475785541000,6.99294140625,-0.5083986521663034,-0.1809711456877207,-0.7290105819295445
1684180475795582400,7.002982666015625,-0.3843200206252684,-0.053345680206898914,-0.5818138123756786
1684180475805623600,7.013024169921875,-0.28668674830302215,-0.02904987341617647,-0.5313827990553882
1684180475815665300,7.023065673828125,-0.21949782970067444,0.011455535807427768,-0.5225026606783377
1684180475825706600,7.033107177734375,-0.15365618461724148,0.03435993209577002,-0.5780704021777968
1684180475835748300,7.043148681640625,-0.0780198573971181,-0.013087272661163343,-0.6088442802152885
1684180475845789600,7.05318994140625,-0.013274610012085119,0.027311325029942414,-0.5067546366510031
1684180475855831200,7.063231689453125,0.05843997002563346,0.06509017954677059,-0.4316852091947257
1684180475865872600,7.07327294921875,0.14785528181123186,0.052822113095413556,-0.3225481511961589
1684180475875914200,7.083314453125,0.18951511373924249,0.13147354113473947,-0.2314286230336335
1684180475885955600,7.09335595703125,0.20925873510578033,0.2482404708218885,-0.03607177730930897
1684180475895997100,7.1033974609375,0.23530101777294352,0.2527484894752559,0.1147730349792346
1684180475906038400,7.11343896484375,0.2705675958304794,0.17622184760203294,0.19042730333680571
1684180475916080000,7.12348046875,0.32581144565214193,0.07129001611633541,0.2625644207682655
1684180475926121400,7.133521728515625,0.3637751340479186,-0.11192512519664989,0.37750530242287483
1684180475936163000,7.1435634765625,0.39120388031465575,-0.1912698745399297,0.5548208951189282
1684180475946204300,7.153604736328125,0.4299255608559084,-0.21194458017375933,0.7004882098839926
1684180475956245900,7.163646240234375,0.5110419987480078,-0.0997152328603562,0.785888195122041
1684180475966287300,7.173687744140625,0.7357310651796501,-0.08599662773075874,0.8862619399335081
1684180475976328600,7.18372900390625,1.0359616279305752,-0.04364395136256116,0.7739126681331167
1684180475986370200,7.1937705078125,1.3336690664828703,-0.14200305933458296,0.5972391365647838
1684180475996411600,7.20381201171875,1.6297442913297495,-0.2491512298918473,0.33021640795902546
1684180476006453200,7.213853515625,1.8335704802654413,-0.29152584067758874,-0.15403175363132013
1684180476016494600,7.22389501953125,1.998292803734679,-0.280025482076837,-0.9095716477807388
1684180476026536100,7.2339365234375,2.0622029305263747,-0.17517852776633774,-1.567816018992715
1684180476036577500,7.243977783203125,2.0869362354895777,-0.015286445622489786,-1.9372447727998285
1684180476046619100,7.25401953125,2.1581263541370244,0.25555610662479955,-1.9062044620346343
1684180476056660400,7.264060791015625,2.3930969238233493,0.5120544433038311,-1.753475427533241
1684180476066702000,7.274102294921875,2.510455369902878,0.5738897323055694,-1.3070099354485163
1684180476076743300,7.284143798828125,1.6090143917936348,0.5882568357802888,-1.067018389787273
1684180476086784900,7.294185302734375,0.3147541284009762,0.6121110916131836,-0.630171060595419
1684180476096826300,7.304226806640625,-0.9207917453483075,0.5164070128306086,-0.10074245932362232
1684180476106867900,7.314268310546875,-1.423959255242873,0.3699932098900233,0.35419309150079636
1684180476116909200,7.3243095703125,-1.036334872176362,0.16484928130786913,0.6155444979014206
1684180476126950600,7.33435107421875,-0.24261879932427075,0.0726890565023078,0.6169381142101387
1684180476136992200,7.344392578125,0.2838077545963871,-0.041825294641176215,0.35051894185351906
1684180476147033600,7.354433837890625,0.33872258661633053,-0.1144695283166363,0.08022028208074972
1684180476157075100,7.3644755859375,-0.0905216932739173,-0.13937759389505935,0.004839181833843397
1684180476167116500,7.374516845703125,-0.792615175060294,-0.051372527912955095,0.00295090673211661
1684180476177158100,7.384558349609375,-1.4651732443971113,0.06891345976218309,-0.03219544888987604
1684180476187199400,7.394599853515625,-1.5680782793979307,0.04453849792893722,0.06856867684150594
1684180476197241000,7.404641357421875,-1.3043748140453235,0.05816173539255372,0.29239511491077563
1684180476207282400,7.414682861328125,-0.936389327090455,0.06023502357409289,0.29070991285893655
1684180476217324000,7.424724365234375,-0.8954989909925165,0.06738090526397952,0.15183435381251972
1684180476227365300,7.434765625,-0.7905633448653183,0.13208198556997633,-0.24628239881218433
1684180476237406900,7.444807373046875,-0.5137670039510708,0.4074592591741351,-0.981227636360045
1684180476247448200,7.4548486328125,-0.20552289482211397,0.7122087477161844,-1.3773746491939027
1684180476257489800,7.46489013671875,-0.07013189799005765,0.9442577362272038,-1.6230336427967582
1684180476267531200,7.474931640625,0.06628942496581865,1.059060096736536,-1.7549996376840735
1684180476277572800,7.48497314453125,0.266480803590346,1.1102571487834638,-1.7061636447209771
1684180476287614100,7.4950146484375,0.4605814218953916,1.1201000213982168,-1.490894436860853
1684180476297655500,7.505055908203125,0.5796990394584516,1.040925979560694,-1.0975400209893205
1684180476307697100,7.515097412109375,0.6104259491234776,0.831805229228081,-0.7126672864085798
1684180476317738400,7.525138916015625,0.6568939684703606,0.6070337294585104,-0.3479560315672924
1684180476327780000,7.535180419921875,0.6762572526960006,0.4402132032572256,-0.03892728678336984
1684180476337821400,7.5452216796875,0.715412616706634,0.3667564392715699,0.14369119713803094
1684180476347863000,7.555263427734375,0.7557691930150359,0.4245347976160499,0.25791919247134265
1684180476357904300,7.5653046875,0.7757314441964506,0.5845699309490187,0.25671356909202786
1684180476367945900,7.57534619140625,0.78187966338096,0.8132553099594816,0.1382769643523073
1684180476377987200,7.5853876953125,0.7780541182282064,0.9362258911344332,-0.06678256396847555
1684180476388028800,7.59542919921875,0.7710247636196068,0.9824476241380937,-0.2259385882730674
1684180476398070200,7.605470703125,0.5727436543324592,0.9949645995980149,-0.38327777389001266
1684180476408111800,7.61551220703125,0.2946666478486905,0.9497556686668961,-0.47254431228221566
1684180476418153100,7.625553466796875,-0.03607928761228955,0.870685577211587,-0.47698524599289444
1684180476428194700,7.63559521484375,-0.3188416958990211,0.745810508748319,-0.4418995081858049
1684180476438236100,7.645636474609375,-0.49755489826099714,0.6326894758615808,-0.3957342206719823
1684180476448277600,7.655677978515625,-0.6499915122591958,0.4382896422779168,-0.33149257314975006
1684180476458319000,7.665719482421875,-0.7959309816416213,0.2465181349860971,-0.22447913893826793
1684180476468360600,7.675760986328125,-0.9851448536799046,0.004876136922733347,-0.0368436575182708
1684180476478402000,7.68580224609375,-1.1639838218901184,-0.32240867598280776,0.01009058963166302
1684180476488443300,7.69584375,-1.2341794967131847,-0.5918760299648171,0.062385499485001175
1684180476498484900,7.70588525390625,-1.264541030107647,-0.8037118912338156,0.18384492395926075
1684180476508526300,7.7159267578125,-1.2111784219902124,-0.8075532913922422,0.4004845024244518
1684180476518567900,7.72596826171875,-1.1093991994885366,-0.7232437134808061,0.4835321903681981
1684180476528609200,7.736009521484375,-1.0667462350076753,-0.6130104065443805,0.48801937699620307
1684180476538650800,7.74605126953125,-1.1258227826981009,-0.5390663145211777,0.35764601823011427
1684180476548692100,7.756092529296875,-1.2241798638539725,-0.4035320281322531,0.1324834227425408
1684180476558733700,7.766134033203125,-1.172000646443969,-0.17776584627559758,-0.1000729203607843
1684180476568775100,7.776175537109375,-1.0033075808480676,0.026100158664838162,-0.3552041649227591
1684180476578816600,7.786217041015625,-0.7782500982202305,0.19648075109657356,-0.5713265538522011
1684180476588858000,7.796258544921875,-0.534561276471561,0.2620000839039099,-0.8210154770710076
1684180476598899600,7.806300048828125,-0.22997951518306908,0.21097660064315524,-1.0193032025598088
1684180476608941000,7.81634130859375,0.078083515188683,0.1654319763772776,-1.1134357451397305
1684180476618982600,7.826383056640625,0.2271822690897368,0.13729190825935506,-1.1922529934414794
1684180476629023900,7.83642431640625,0.13696885114817098,0.15268039696894226,-1.2464724778988794
1684180476639065600,7.8464658203125,-0.10984551910290939,0.26609802248542314,-1.3636330367077494
1684180476649106900,7.85650732421875,-0.41157913220166625,0.2739543914323559,-1.4064874649359886
1684180476659148500,7.866548828125,-0.7957240341719751,0.07121753693090141,-1.456770539273638
1684180476669189800,7.876590087890625,-1.3268376590217514,-0.3657674789303765,-1.4439115523022275
1684180476679231400,7.8866318359375,-1.979079604151215,-0.9724426269550841,-1.2336153984753444
1684180476689272800,7.896673095703125,-2.274445533899067,-1.6408939361232033,-0.5668848752879712
1684180476699314100,7.906714599609375,-2.107586383633332,-2.2508697510416744,0.3037976028033506
1684180476709355600,7.916756103515625,-1.6456134318525986,-2.6082687376255187,1.1860704420361774
1684180476719397300,7.926797607421875,-0.9905303718229908,-2.395433425836909,2.1824359894572085
1684180476729438600,7.936839111328125,-0.23481392844413634,-1.7257699966368163,3.1087629794977114
1684180476739480000,7.94688037109375,0.6095497607533502,-0.7032518386641641,3.6366088390081663
1684180476749521600,7.956921875,1.482935905549693,0.29629135116078287,3.6880104542858154
1684180476759562900,7.96696337890625,2.078442335086887,0.7232723236119355,3.0072016715701864
1684180476769604600,7.9770048828125,2.423311948672791,0.6804933549706857,1.7305474280456359
1684180476779645900,7.98704638671875,2.515179157229044,0.4691781997582493,0.7109594343808705
1684180476789687500,7.997087890625,2.4174647330394237,0.4127349853736729,0.20138168334360235
1684180476799728800,8.007129150390625,2.264372348667065,0.578938484076374,-0.07014274599239309
1684180476809770400,8.0171708984375,2.059990644392126,0.887733459563937,-0.31429219254812324
1684180476819811800,8.027212158203126,1.811171293181117,1.0897607804703309,-0.5939049719993669
1684180476829853400,8.037253662109375,1.5174224376351635,1.0546483992831457,-0.9132518767916654
1684180476839894600,8.047295166015624,1.1639056204753417,0.9107866285822435,-1.3138856886903494
1684180476849936300,8.057336669921876,0.6996429563557481,0.7233562470416127,-1.4694221019674554
1684180476859977600,8.0673779296875,0.25646102433161116,0.5169906615613697,-1.4856588839816929
1684180476870019200,8.077419677734374,-0.0602185726099014,0.3310956954968599,-1.486264943997584
1684180476880060600,8.0874609375,-0.24523377406191557,0.15040016166668643,-1.6359841823490577
1684180476890102200,8.097502685546875,-0.36079370989792664,0.08189296714512367,-1.7735772132215541
1684180476900143600,8.1075439453125,-0.36079895508622273,0.04426288591204409,-1.8966562746249274
1684180476910185100,8.11758544921875,-0.2749590872890202,0.07632446281820084,-1.9011529684378439
1684180476920226600,8.127626953125,-0.12543249128976855,0.1356849670577674,-1.7476440666703819
1684180476930268100,8.13766845703125,0.025621950676741265,0.27781677231249746,-1.4849872589252058
1684180476940309400,8.147709716796875,0.1594507695165227,0.26153755187973593,-1.26891303051276
1684180476950351000,8.15775146484375,0.25566935535490004,0.16595554341450924,-1.068327426949064
1684180476960392400,8.167792724609376,0.3833821117791257,0.10570049289150232,-0.7996129991006131
1684180476970434000,8.17783447265625,0.5823428629661475,0.08318138126270465,-0.4833847283960589
1684180476980475300,8.187875732421874,0.787714064277827,0.03892612450590168,-0.2144567966181406
1684180476990516600,8.1979169921875,1.0116202830294456,0.15966701505469652,0.07071065900760541
1684180477000558300,8.207958740234375,1.1477786302538178,0.24238681785198302,0.27378678331353806
1684180477010599900,8.218000244140624,1.2287297249645812,0.24696445465378503,0.463735699684478
1684180477020641200,8.22804150390625,1.2113332749039076,0.19294643397292377,0.5901386737294493
1684180477030682600,8.2380830078125,1.092809915702244,0.1329860686855185,0.6580729484767072
1684180477040724100,8.24812451171875,0.8651636243128977,0.08357715607839762,0.720612168430118
1684180477050765600,8.258165771484375,0.6003817917107968,0.049172401299866525,0.7136335374023649
1684180477060807100,8.26820751953125,0.3296900987066488,-0.006431579473679511,0.7073194980945502
1684180477070848400,8.278248779296876,0.0839179456033418,-0.06194686883696098,0.6617524622899237
1684180477080890000,8.28829052734375,-0.13083451973816512,-0.06973361976628546,0.5582488775134617
1684180477090931400,8.298331787109374,-0.32812690733143285,0.020167350853892128,0.37102961546620056
1684180477100973000,8.308373291015625,-0.42181724306448726,-0.014712333718154634,0.17037856579197078
1684180477111014300,8.318414794921875,-0.47883579131522663,0.052639961186666674,0.06242394454015399
1684180477121055900,8.328456298828126,-0.46078974004910245,0.08349704737485718,0.037316680027402356
1684180477131097300,8.33849755859375,-0.38862943646812576,0.08997726438152634,0.04667294025350906
1684180477141138900,8.348539306640625,-0.2502451538036657,-0.07585144048662677,0.06868338587750125
1684180477151180200,8.35858056640625,-0.07504495976986279,-0.19379234300824189,0.14384782323665918
1684180477161221800,8.368622314453125,0.0898962989057824,-0.15623378754347447,0.2781376838806293
1684180477171263200,8.37866357421875,0.23319780833165027,-0.2809839249001192,0.3560014962440251
1684180477181304800,8.388705078125,0.31746062652699786,-0.2666110993882787,0.44877719873935995
1684180477191346100,8.39874658203125,0.341405332136065,-0.199271202209693,0.5031411646631703
1684180477201387600,8.4087880859375,0.3189965485933875,-0.1267728806325805,0.53540337087151
1684180477211429000,8.418829345703125,0.22183643289057503,-0.046789169277405354,0.4740653038690423
1684180477221470600,8.42887109375,0.06298271548822548,-0.023946762063253944,0.42729282369375354
1684180477231512000,8.438912353515626,-0.12534552824322193,-0.022379875260964376,0.2903439998469885
1684180477241553600,8.4489541015625,-0.28974190361787167,0.07723140712100902,0.14526605613778393
1684180477251594900,8.458995361328125,-0.4484348297874955,0.03806400282841616,-0.0357769728441266
1684180477261636600,8.469036865234376,-0.5905499458341698,0.0489645004768925,-0.16821610943314447
1684180477271677900,8.479078369140625,-0.6763412355780393,0.03097343439274969,-0.3067599534726876
1684180477281719500,8.489119873046874,-0.7090816497619682,0.03905200957815975,-0.4055647850547971
1684180477291760800,8.4991611328125,-0.6471529602642002,0.09462642666859652,-0.4381760360391953
1684180477301802400,8.509202880859375,-0.5124179123369048,0.0662708282574487,-0.4143643379085611
1684180477311843800,8.519244140625,-0.30176773653974875,0.07128334036497797,-0.34899544700738755
1684180477321885400,8.52928564453125,-0.0695796013980961,0.11203956597176018,-0.2211380006209091
1684180477331926600,8.5393271484375,0.14480294290651755,0.09539985668631705,-0.09117126454616827
1684180477341968300,8.54936865234375,0.3649387060432753,0.05024623879121053,0.004611253566171539
1684180477352009600,8.55941015625,0.5618710517327048,-0.011424064666029042,0.08785450473837553
1684180477362051200,8.56945166015625,0.7372853756272844,-0.09666061404738586,0.19394898409067077
1684180477372092600,8.579492919921876,0.8806691764884254,-0.12890338901420126,0.27933609501575934
1684180477382133900,8.589534423828125,1.0093563795993192,-0.16076469406010402,0.27912354468544315
1684180477392175600,8.599575927734374,1.0874078273631347,-0.0943918229472264,0.25568187235339646
1684180477402217100,8.609617431640626,1.0842806099569031,-0.025726318421088863,0.16673779487562496
1684180477412258600,8.619658935546875,0.9666333794384173,0.021209716814398313,0.020160555909070715
1684180477422299800,8.6297001953125,0.7773967981571365,0.03685379033788961,-0.052218198720530726
1684180477432341400,8.639741943359375,0.5600299238574794,0.01172542573543001,-0.14592468742199316
1684180477442383000,8.649783447265625,0.34809568510685207,-0.011072158782454112,-0.2726298570119934
1684180477452424400,8.65982470703125,0.1763956545735618,-0.02669715866615139,-0.3082209824709881
1684180477462465600,8.6698662109375,0.026781827237746313,-0.0041294097767382056,-0.3911170959532063
1684180477472507300,8.67990771484375,-0.0715330839244213,0.020773887670219808,-0.40668010706697255
1684180477482548900,8.68994921875,-0.11353021868067556,0.009811401330659893,-0.44333255288080814
1684180477492590300,8.69999072265625,-0.1346874237161429,-0.06560707090614051,-0.45768237106391785
1684180477502631600,8.710031982421874,-0.10565450785503089,-0.20052146912426935,-0.42100918299836143
1684180477512673200,8.720073486328126,-0.028110146548080087,-0.2777166366715806,-0.3597410918077649
1684180477522714600,8.730114990234375,0.047770947229426826,-0.3522024154119947,-0.3291512726759572
1684180477532756100,8.740156494140624,0.16906768093645558,-0.46218109140962704,-0.27452194686890535
1684180477542797600,8.750197998046875,0.2867931723141485,-0.5001983643357697,-0.2768465281462481
1684180477552839100,8.760239501953125,0.43325668588603455,-0.5405511855965911,-0.2283294199690813
1684180477562880600,8.770281005859376,0.6097946166074732,-0.5689468384200664,-0.21508276448269767
1684180477572922000,8.780322509765625,0.7509229183211749,-0.6665649413929872,-0.14913642414353093
1684180477582963400,8.79036376953125,0.8559720517333604,-0.7257747649164016,-0.16445839412217833
1684180477593005000,8.8004052734375,0.9670394658375181,-0.7992496490454342,-0.22257816782432213
1684180477603046300,8.81044677734375,0.9947562218831033,-0.8893861769314004,-0.2898102998170341
1684180477613087900,8.82048828125,0.9812670945593456,-1.0200424193793016,-0.382857799535128
1684180477623129300,8.83052978515625,0.8662352561624127,-1.2245330809998463,-0.4803043604419335
1684180477633170900,8.8405712890625,0.6639462709656215,-1.3235635757017403,-0.5510830880158402
1684180477643212200,8.850612548828124,0.4037393928153289,-1.3604745863311918,-0.6137645245700554
1684180477653253800,8.860654296875,0.13753573601059327,-1.285249710055186,-0.615691304278319
1684180477663295200,8.870695556640625,-0.08221329744268116,-1.1578044891599404,-0.5929081440034824
1684180477673336800,8.880737060546876,-0.2891414164999397,-0.9399776457963297,-0.5002667902909855
1684180477683378100,8.890778564453125,-0.4558036922421453,-0.7942399980017135,-0.38639652732412905
1684180477693419600,8.900820068359375,-0.5435768366375356,-0.7249784469267108,-0.31227791309692254
1684180477703461000,8.910861328125,-0.5381612182928184,-0.6149253843822355,-0.23047375670148945
1684180477713502600,8.920903076171875,-0.36635786297551,-0.528658866882803,-0.0741122961467805
1684180477723544000,8.9309443359375,-0.040072701791193995,-0.5854825974445975,0.2184234858292265
1684180477733585600,8.940986083984376,0.3457722961398429,-0.5486564635551971,0.4793802500721749
1684180477743626900,8.95102734375,0.6201542616265044,-0.3422956466464868,0.6547845601444919
1684180477753668600,8.96106884765625,0.7138491867731895,0.04487705222342779,0.7433128356236706
1684180477763709900,8.9711103515625,0.6439471840438812,0.40482711789415554,0.7111039758157982
1684180477773751500,8.98115185546875,0.12671266497226388,0.5922126770888393,0.493245482437946
1684180477783792800,8.991193115234376,-0.7588448524574025,0.7457304001298102,0.23265612116608675
1684180477793834400,9.00123486328125,-0.8985667227023892,1.0656147003257452,0.12496423720679792
1684180477803875800,9.011276123046876,-0.2116656900775289,1.362582206657886,0.16705000394059352
1684180477813917400,9.02131787109375,0.8351418971093376,1.4642229079458282,0.03755974766337598
1684180477823958600,9.031359130859377,1.7046408653564196,1.3898725509855119,0.09643578544852326
1684180477834000300,9.041400634765624,2.2762606144449964,1.2503347397191804,0.30524551863390226
1684180477844041600,9.051442138671876,2.576483249701935,1.0799112321226163,0.39589393142330276
1684180477854083200,9.061483642578125,2.6799602508956,0.9174757002677687,0.23609435559386518
1684180477864124600,9.07152490234375,2.7245504855407776,0.7444667815832078,-0.07592821122747648
1684180477874166200,9.081566650390624,2.620413541789658,0.5281286239686122,-0.4234602450659687
1684180477884207600,9.09160791015625,2.258371352971357,0.25468540202362,-0.9361542463654581
1684180477894249100,9.1016494140625,1.5782837867882926,0.03110313414806356,-1.5207936764877457
1684180477904290600,9.11169091796875,0.8693445919769868,-0.06520652781141964,-2.02823472018483
1684180477914332100,9.121732421875,0.19259440900621239,-0.03319358825811816,-2.3273975848214286
1684180477924373400,9.13177392578125,-0.33825269332233776,0.030734062234006845,-2.4650740622952507
1684180477934415000,9.1418154296875,-0.6341223715267874,0.12617683401518962,-2.4450275896540856
1684180477944456400,9.151856689453124,-0.5774562358127902,0.2624568939849284,-2.144831657481205
1684180477954498000,9.1618984375,-0.20816263555530415,0.3370456697348584,-1.5474265813372552
1684180477964539300,9.171939697265625,0.3271479904665419,0.24532985688074171,-0.9509757756680831
1684180477974580900,9.181981201171874,0.8053421974887467,0.06200313563734943,-0.32980287067434727
1684180477984622300,9.192022705078124,1.15801215161039,-0.028307914597375337,0.2663465739285575
1684180477994663900,9.202064208984376,1.3350765704673702,-0.022748947281253984,0.765538394443826
1684180478004705200,9.212105712890626,1.3653759956337082,-0.004716873028370331,1.0471534728184828
1684180478014746800,9.222147216796875,1.2441134454308995,0.0282726287936091,1.252342700958761
1684180478024788100,9.2321884765625,0.9965034722787616,0.03320884691899117,1.4240858555188514
1684180478034829700,9.242230224609376,0.6682816147151154,0.11758804331543816,1.5286643505016841
1684180478044871100,9.252271484375,0.3211093247277669,0.19512939439541113,1.6542222499496846
1684180478054912600,9.26231298828125,0.058819949676153956,0.2704715728792804,1.711978316349704
1684180478064954300,9.272354736328126,-0.012741357195359484,0.4651556014470111,1.7072209120278108
1684180478074995600,9.28239599609375,0.05283892163180879,0.6902503966985244,1.660417199069586
1684180478085037000,9.292437255859374,0.22155003241992785,0.7808113096688789,1.6155964136770775
1684180478095078600,9.30247900390625,0.3534765241618133,0.8496417999181821,1.5631991625215997
1684180478105120200,9.3125205078125,0.4219630360282583,0.8636665343209706,1.4454874992816569
1684180478115161600,9.32256201171875,0.3825684486753663,0.9806423187621324,1.220080375530584
1684180478125202900,9.332603271484375,0.29745939363133106,1.188001632628292,1.0415372848761297
1684180478135244500,9.342644775390625,0.19204513723406702,1.41114425659053,0.8509230613024075
1684180478145286100,9.3526865234375,0.13277274369635275,1.5637426376802623,0.6989617348346537
1684180478155327400,9.362727783203123,0.1824253796208844,1.6719775199672322,0.5310530663580502
1684180478165368800,9.37276904296875,0.3013983964318675,1.8764715196249235,0.4034153222584729
1684180478175410400,9.382810791015626,0.46910822383643735,1.9760956764028816,0.31710088249880075
1684180478185452000,9.392852294921877,0.6541509627676455,1.9045400618510782,0.332734227209781
1684180478195493300,9.402893798828124,0.8347675800703367,1.7702102660627297,0.3093521593652534
1684180478205534900,9.412935302734375,1.0064423085316767,1.5734252929733161,0.25864052773162927
1684180478215576200,9.4229765625,1.1546764373434184,1.474397659355567,0.19786071770381936
1684180478225617600,9.43301806640625,1.3148608207253403,1.3441848756392416,0.2152378559046374
1684180478235659200,9.4430595703125,1.4003520012564161,1.2978878019682538,0.33396744723191746
1684180478245700800,9.45310107421875,1.4574012757133228,1.2928037643042847,0.48808431622652165
1684180478255742100,9.463142578125,1.419311761734213,1.3222246169382152,0.7542337178344176
1684180478265783500,9.473183837890623,1.3533046245079108,0.8968362808680416,0.929556250628727
1684180478275825100,9.4832255859375,1.2571667431382993,0.23778343213464873,1.1103606224970968
1684180478285866600,9.49326708984375,1.1885185243180965,-0.39363670338794915,1.273653030448896
1684180478295908000,9.503308349609377,1.152762770675818,-1.0829610823865592,1.4731566905874098
1684180478305949600,9.51335009765625,1.0991725921158473,-1.7579526900358258,1.5742721556789228
1684180478315991000,9.523391357421875,0.9838670493773136,-2.4281234740420534,1.5826251508017066
1684180478326032600,9.533432861328125,0.8688736558051976,-3.148616790585436,1.4279119969059482
1684180478336073900,9.543474365234376,0.6277657746214618,-3.7601079940502573,1.0507787467000327
1684180478346115600,9.553515869140623,0.22586008895607945,-3.93674087509596,0.6093481779227998
1684180478356156800,9.56355712890625,-0.2162353395793261,-3.499201774771032,0.07265949253169077
1684180478366198400,9.573598876953126,-0.8674350977070554,-2.671958923425352,-0.45004105556115176
1684180478376239800,9.58364013671875,-1.4707204103864375,-1.771513938797942,-0.8631453514352624
1684180478386281400,9.593681884765624,-2.0332608224288284,-0.9390373229525317,-1.2457029818805394
1684180478396322700,9.60372314453125,-2.481152296075138,-0.28186607370898115,-1.5811035633164847
1684180478406364300,9.6137646484375,-2.5923070907618735,0.2526302336883808,-1.8302302360583769
1684180478416405600,9.62380615234375,-2.4465398787728874,0.6907243727066348,-1.952113866820967
1684180478426447300,9.63384765625,-2.013562917710788,0.9843864442007016,-2.03877258296964
1684180478436488600,9.643888916015625,-1.38542246821344,1.1382160187219523,-1.9353621007139874
1684180478446530200,9.6539306640625,-0.6602211594171072,1.0905303955236576,-1.6153500080257253
1684180478456571600,9.663971923828123,0.027103960549109844,1.0117578506868838,-1.2317659853642495
1684180478466613200,9.674013671875,0.6024347543896486,1.0268249512539591,-0.8119239808579115
1684180478476654600,9.684054931640626,1.0377125740419244,1.043156623848961,-0.3746268750727457
1684180478486696100,9.694096435546877,1.361130356625172,1.0783185957585988,0.005867958086494448
1684180478496737500,9.704137939453124,1.5999721289835076,0.9947719574649513,0.4368145465403639
1684180478506779100,9.714179443359376,1.7588630914220118,0.7701396943182789,0.7170631885745068
1684180478516820400,9.724220703125,1.8501851557216316,0.43919658663543687,0.8281894921810944
1684180478526862000,9.734262451171874,1.8393845558941566,0.09328079221119542,0.7611914874214983
1684180478536903300,9.7443037109375,1.7538677454215819,-0.16048431406150016,0.5252453088248599
1684180478546944900,9.754345458984377,1.5282852648935992,-0.22765541072936285,0.31349408624108754
1684180478556986300,9.76438671875,1.2572737931642999,-0.2885732649545379,0.12235355378809934
1684180478567027900,9.77442822265625,0.9895679950263794,-0.31734657287743023,-0.09505033497994797
1684180478577069200,9.7844697265625,0.6771191358428865,-0.3286151887260366,-0.3114442824963965
1684180478587110800,9.79451123046875,0.3403069377078656,-0.41114521012291116,-0.5619320870521742
1684180478597152200,9.804552490234377,-0.020289302024162768,-0.4721088408654893,-0.7528603076120395
1684180478607193800,9.81459423828125,-0.3814519642288774,-0.5932292937894955,-0.975127935355024
1684180478617235400,9.8246357421875,-0.7102500200285908,-0.736494064338234,-1.1120352746313946
1684180478627276600,9.834677001953125,-0.9310305714899919,-0.8927059173336823,-1.2376925945982649
1684180478637318100,9.844718505859374,-1.0461300612439886,-1.0022945403383285,-1.302249908519978
1684180478647359600,9.854760009765624,-1.0219430923067916,-0.9937076569048563,-1.3633811472953075
1684180478657401300,9.8648017578125,-0.8821661473544194,-1.0152750015412022,-1.4443583487328602
1684180478667442600,9.874843017578126,-0.7135301828328107,-0.9784765242747239,-1.4847152233176963
1684180478677484200,9.884884521484375,-0.4445176124821322,-0.7351369857906391,-1.4608705044780972
1684180478687525600,9.894926025390625,-0.21796822548176675,-0.4477481841765607,-1.3526515961351215
1684180478697567200,9.904967529296876,0.0031563043337975694,-0.14245891569234315,-1.3494193552287497
1684180478707608600,9.9150087890625,0.18655103443827478,0.14981746676189867,-1.319757938323475
1684180478717650100,9.925050537109374,0.30259692660287224,0.39590358743583315,-1.2593784332404758
1684180478727691400,9.935091796875,0.3527073862021825,0.6629753112057752,-1.2521066666302123
1684180478737733000,9.945133544921877,0.30306983006353083,0.8747644424345274,-1.2194781304680122
1684180478747774400,9.9551748046875,0.24727129928946348,0.9742021559155268,-1.2384409905407032
1684180478757816000,9.96521630859375,0.18855667103886162,0.9496355058199405,-1.2018513680768272
1684180478767857300,9.9752578125,0.15183043462682025,0.8299884795250492,-1.2463290691063629
1684180478777898900,9.98529931640625,0.10183799272799289,0.6631374358264791,-1.261704683250158
1684180478787940300,9.995340576171875,0.04346227630049298,0.475337982171003,-1.302512407371342
1684180478797981900,10.00538232421875,-0.044445395321960575,0.3236875533510781,-1.367848157849953
1684180478808023200,10.015423583984376,-0.08720421793792008,0.16488266003716964,-1.449995517685906
1684180478818064800,10.02546533203125,-0.07726144797442352,0.09212493886407955,-1.3775885104245542
1684180478828106200,10.035506591796874,-0.04144287116418439,0.25344181055059206,-1.230378627673596
1684180478838147800,10.045548095703126,0.05232644080597886,0.4000167846863483,-0.9891922474068727
1684180478848189100,10.055589599609377,0.16898953931140118,0.4317588806848352,-0.8330705164238175
1684180478858230600,10.065631103515624,0.2637516260207524,0.26313877095222976,-0.763481378681355
1684180478868272000,10.07567236328125,0.3548395633499888,0.16418361671912832,-0.7876091002939445
1684180478878313600,10.085714111328125,0.3627959489667935,0.1844434738739885,-0.7118065356592396
1684180478888355000,10.09575537109375,0.31910896299180225,0.3164558409615781,-0.5435080526854147
1684180478898396600,10.105796875,0.250869989415981,0.4309425354451597,-0.39068436619764363
1684180478908438200,10.115838623046876,0.26909506316009896,0.3173809050861931,-0.4530816077554215
1684180478918479600,10.1258798828125,0.317049384244465,0.16942691786948008,-0.5216732025337762
1684180478928521100,10.135921630859375,0.35440909859447234,0.12079524986587799,-0.6274640560898116
1684180478938562600,10.145962890625,0.2880321741553655,0.19993019100034184,-0.8016872405506142
1684180478948604100,10.15600439453125,0.08729302882720265,0.3134765624557086,-0.870558738606411
1684180478958645400,10.1660458984375,-0.2627109290006617,0.4351940154514599,-0.8623619079149772
1684180478968687000,10.17608740234375,-0.6730195282863145,0.46724224090379013,-0.7535152434425665
1684180478978728400,10.186128662109375,-1.173622846755801,0.38405036913512264,-0.4268059730568733
1684180478988770000,10.19617041015625,-1.6870417595722762,0.1602649687645808,-0.011748790859331386
1684180478998811300,10.206211669921874,-1.6295001506699471,-0.03362846363808662,0.3063862322038658
1684180479008852900,10.21625341796875,-1.1784408091152458,-0.15365982055472682,0.6341166496507591
1684180479018894300,10.226294677734376,-0.5412929058351899,-0.3061199189592498,1.166845202483591
1684180479028935900,10.236336181640626,-0.23656296720429407,-0.4230146408074741,1.9663000108118291
1684180479038977200,10.246377685546875,-0.23773193349772181,-0.48083209982752395,2.7993242740730806
1684180479049018800,10.256419189453124,-0.5105755328965598,-0.7180233001969668,3.2718658447825284
1684180479059060100,10.26646044921875,-0.49504613876717496,-0.9815998077982826,4.0262107848080655
1684180479069101700,10.276502197265623,0.03697681432663895,-1.0794267654611727,4.552373886096579
1684180479079143100,10.28654345703125,0.558134078908123,-1.0099515915024329,4.459158897429344
1684180479089184600,10.296585205078124,1.0865898132528486,-0.7964620591606135,4.023939609577038
1684180479099226000,10.30662646484375,1.2196884153730214,-0.588715553333553,3.442967891548606
1684180479109267600,10.31666796875,1.171224832521392,-0.40822410589669333,2.8578612805466865
1684180479119309200,10.326709716796875,0.8527439832522151,-0.22578144085402815,2.0309405327778784
1684180479129350600,10.3367509765625,0.33468747144805183,-0.019879341206308777,1.1983540058373383
1684180479139391900,10.346792236328126,-0.41689419741339334,0.14445972435403848,0.43442010879449333
1684180479149433600,10.356833984375,-1.185774803169044,0.3285732268124645,-0.22250628481119292
1684180479159475100,10.36687548828125,-1.7263512611140661,0.4958276748747309,-0.6710510252381783
1684180479169516500,10.376916748046876,-1.8740538358120673,0.6416025162880634,-0.8622751236903261
1684180479179558100,10.38695849609375,-1.6089638471912586,0.7360219956461955,-0.8273136616561797
1684180479189599400,10.396999755859374,-1.0976413489642725,0.770599365255045,-0.7326369285765622
1684180479199641000,10.40704150390625,-0.5809506176758918,0.8239698409961846,-0.8675899505988122
1684180479209682400,10.417082763671877,-0.14403915412005003,0.9244804381550482,-0.7730264664825527
1684180479219724000,10.427124267578124,0.4138278959983616,1.0060186385490268,-0.5150053501960538
1684180479229765300,10.437165771484375,0.8719248174715916,0.9260292053494078,-0.3922283649409679
1684180479239806900,10.447207275390625,1.1064751148143246,0.830373764034972,-0.4421489240534055
1684180479249848200,10.45724853515625,1.2124867439197669,0.744671821738079,-0.5388600825569777
1684180479259889800,10.467290283203123,1.2441707848935928,0.6901855468908589,-0.6420128345174912
1684180479269931200,10.47733154296875,1.128840208157111,0.6052360535050494,-0.6371176243317024
1684180479279972800,10.487373291015626,0.8968625664915215,0.5735368727259629,-0.7140545843483179
1684180479290014100,10.49741455078125,0.49671781067013887,0.41533184048771266,-0.8449316026387165
1684180479300055700,10.5074560546875,0.07491123674808846,0.16388607019994877,-0.882424354495922
1684180479310097100,10.51749755859375,-0.26858186730301775,-0.06374835978598645,-0.8592531679442196
1684180479320138600,10.5275390625,-0.5252233744953766,-0.25560855880132477,-0.7754113674798344
1684180479330180300,10.53758056640625,-0.6289899349475032,-0.3614368437816453,-0.6409699915785165
1684180479340221600,10.5476220703125,-0.6381919385305396,-0.4982366562022508,-0.4303033352454894
1684180479350263200,10.55766357421875,-0.5581185817165997,-0.5225582122449927,-0.239350080623606
1684180479360304600,10.567705078125,-0.4243506191834777,-0.5494899750281904,-0.027152538261046064
1684180479370346200,10.57774658203125,-0.22447097297161625,-0.5218372344866407,0.1920166016637091
1684180479380387600,10.587787841796874,-0.07982540113145371,-0.4635572434784125,0.42724871633768435
1684180479390429100,10.59782958984375,0.09382444630459014,-0.42954254157287713,0.6565022467866649
1684180479400470400,10.607870849609377,0.21306419364483772,-0.4077014922372568,0.8603689670867669
1684180479410512000,10.617912353515624,0.30654639008991347,-0.3285074233949367,1.023952245729073
1684180479420553400,10.627953857421875,0.29083240026298507,-0.23003482827399377,1.2133888005550169
1684180479430595000,10.637995361328125,0.25448727616163824,-0.17426204673252818,1.3064215183381849
1684180479440636300,10.64803662109375,0.22578236461291815,-0.17516994473489478,1.403023242849357
1684180479450677900,10.658078369140624,0.13252729173176964,-0.13694667814619887,1.4193091392294814
1684180479460719300,10.66811962890625,0.05276775369876461,-0.07862567905079183,1.4220312834471092
1684180479470760900,10.678161376953126,-0.06481969368293422,-0.08147048949404949,1.3254545926939907
1684180479480802200,10.68820263671875,-0.19022667408831728,-0.13120460510523774,1.2260578871508836
1684180479490843800,10.698244140625,-0.36679992089100466,-0.22552108769961746,1.0455080271067438
1684180479500885400,10.708285888671876,-0.62017297738364,-0.4716930387773699,0.8359792231844326
1684180479510926800,10.7183271484375,-0.8561552764098045,-0.6498641967954626,0.5692758559992636
1684180479520968400,10.72836865234375,-1.1303093432568847,-0.7560615539407921,0.23527574554152975
1684180479531009600,10.73841015625,-1.5774688721862506,-0.7648439407029561,-0.03987288474030979
1684180479541051300,10.74845166015625,-2.1272799969883716,-0.8079738616451975,-0.06953740114686734
1684180479551092600,10.7584931640625,-2.5757379532956253,-0.7990655897851829,0.09952235217760215
1684180479561134300,10.76853466796875,-2.4956736564739033,-0.6590194703534727,0.26293897632449104
1684180479571175600,10.778575927734376,-1.9341411588724544,-0.5433149336512275,0.25611090648107737
1684180479581217200,10.78861767578125,-1.3418855665493001,-0.44458961498902844,0.14616155619778684
1684180479591258600,10.798658935546875,-0.9653918743166681,-0.38410854322513,0.05948233609801549
1684180479601300100,10.808700439453125,-0.7455621957566099,-0.2829952239825182,-0.08497524275777403
1684180479611341700,10.8187421875,-0.6089627744179882,-0.09383296968331052,-0.18593335151286755
1684180479621383100,10.828783447265623,-0.501261055413565,-0.005653381261526318,-0.23825645443770502
1684180479631424400,10.838824951171874,-0.38250708590759586,0.15360450752619298,-0.28227305414549125
1684180479641466000,10.848866455078126,-0.21701717384165217,0.2212972640683602,-0.2675704957174956
1684180479651507400,10.85890771484375,-0.08974396444649688,0.19531440739713646,-0.14186334622174498
1684180479661549000,10.868949462890624,-0.04701930280580458,0.1356878279576182,0.06086397173564633
1684180479671590600,10.878990966796875,-0.007360018850765543,0.11189174661970648,0.3734028340099436
1684180479681631900,10.8890322265625,0.003920018673817868,0.05477046957547425,0.6897082327413097
1684180479691673600,10.899073974609376,0.03522451973703302,0.08866596216906535,0.9163461925386504
1684180479701714900,10.909115234375,0.1526311039224012,0.1274757384596864,1.0842567683262827
1684180479711756500,10.919156982421876,0.27602034792846514,0.15699672701743111,1.123890042370744
1684180479721797800,10.9291982421875,0.3872819542854253,0.16530036932043954,1.178932428296073
1684180479731839400,10.93923974609375,0.46403318641365304,0.20260715489127265,1.1728887558573022
1684180479741880800,10.94928125,0.45841446518383067,0.2329597473463698,1.1514678002757788
1684180479751922400,10.95932275390625,0.42304956902108193,0.18705654132736743,1.0790654420207586
1684180479761963600,10.969364013671877,0.4244263767880919,0.12952613842161256,0.9798058271857105
1684180479772005300,10.97940576171875,0.3905864357181857,0.131909370450894,0.8469812869999165
1684180479782046900,10.989447265625,0.3743508160727443,0.05070590958029908,0.6927673818001238
1684180479792088200,10.999488525390625,0.3331959843141908,0.08657169341033734,0.4842255116304335
1684180479802129800,11.0095302734375,0.3037833273693206,0.050781250106189384,0.3542850016994864
1684180479812171200,11.019571533203123,0.30607679486829104,0.02698230749521266,0.1406967639051801
1684180479822212800,11.02961328125,0.27088961010219836,0.036394119227428384,0.021265029841752613
1684180479832254100,11.039654541015626,0.2699365019565354,0.07649803141706225,-0.03277182575968935
1684180479842295600,11.049696044921877,0.25366318225422485,0.1375656127901817,-0.009271383293349136
1684180479852337100,11.059737548828124,0.24742737413109137,0.12411403657924223,0.03638219833797525
1684180479862378600,11.069779052734376,0.2665295004136782,0.09377288800914574,0.13240528116574832
1684180479872420000,11.0798203125,0.31790161124185773,0.1421327591269201,0.17831468592450667
1684180479882461600,11.089862060546874,0.36712184564592176,0.16154193879758288,0.20996856689293306
1684180479892503000,11.0999033203125,0.3608292043020754,0.24522590626292268,0.2678489685024773
1684180479902544600,11.109945068359377,0.35138642803941245,0.15184211745890303,0.3135333061412095
1684180479912586200,11.119986572265624,0.3506183922857438,0.14449214936165017,0.28265929219326985
1684180479922627600,11.13002783203125,0.31806215643656427,0.1441574096882137,0.19687318811642748
1684180479932669100,11.140069580078125,0.29424050454310463,0.05295562745501947,0.13248491277933397
1684180479942710400,11.15011083984375,0.2526300848340308,-0.01906108857510031,-0.015620231633068343
1684180479952752000,11.16015234375,0.14544463170325972,-0.08635997773045745,-0.19199895858327556
1684180479962793400,11.17019384765625,0.016408622261052955,-0.05580615997181067,-0.29383778562813967
1684180479972835000,11.1802353515625,-0.16660958519786132,-0.08043384549468245,-0.3164479732202392
1684180479982876300,11.19027685546875,-0.3514048157535163,-0.0861253739235228,-0.4168157579009711
1684180479992917900,11.200318359375,-0.4136929513302464,-0.10872077949232192,-0.4411363600964988
1684180480002959300,11.210359619140624,-0.3994733393085452,-0.11460208894992596,-0.3749978543038636
1684180480013000900,11.2204013671875,-0.2723271250289779,-0.12514305126790148,-0.28092432038111853
1684180480023042200,11.230442626953124,-0.05098402503562124,-0.15701293956390816,-0.19296264647604205
1684180480033083800,11.240484130859375,0.17528003450428142,-0.1671838761095686,-0.08332228662458718
1684180480043125400,11.25052587890625,0.3509892819967001,-0.15108966825361464,-0.08367943762633202
1684180480053166800,11.260567138671876,0.45308578010798023,-0.1567859649816731,-0.04523134224883504
1684180480063208400,11.27060888671875,0.5055752395216219,-0.16021347049558074,-0.025997400332542876
1684180480073249600,11.280650146484374,0.532909929869984,-0.02984809887544957,-0.0003352164489198669
1684180480083291300,11.290691650390626,0.5261337161046367,0.14332866668829952,-0.06646394725430634
1684180480093332600,11.300733154296877,0.5182344914452518,0.2903184889134881,-0.21298217773395417
1684180480103374300,11.310774658203124,0.4974961280345811,0.3356199264919005,-0.33480787280931507
1684180480113415900,11.320816162109375,0.5017668604294344,0.3395938872662518,-0.4338955880125786
1684180480123457200,11.330857666015625,0.5263633131788207,0.3405857087008979,-0.4915852546834004
1684180480133498600,11.34089892578125,0.5196380018901714,0.406813621435278,-0.4938130379217883
1684180480143540100,11.3509404296875,0.5225727557813956,0.46180152885230197,-0.4693593979177558
1684180480153581700,11.360982177734376,0.544437765904427,0.5339183806669238,-0.4136848449440648
1684180480163623100,11.3710234375,0.5281973481392366,0.43673801439542254,-0.37621808050512123
1684180480173664600,11.381065185546875,0.5093801022363457,0.2930793763286048,-0.32836627961171905
1684180480183706000,11.3911064453125,0.42170339810692054,0.05905723568661196,-0.2002785205986848
1684180480193747600,11.40114794921875,0.29462194446464357,-0.19775581351847926,-0.06930637344611158
1684180480203789000,11.411189453125,0.13814055931129998,-0.35431861878055104,0.17167973525997143
1684180480213830600,11.42123095703125,-0.012001514483930125,-0.5980882645670408,0.4093595744316172
1684180480223871900,11.431272216796875,-0.17312866438165544,-0.7815036773862064,0.6946494579095365
1684180480233913600,11.44131396484375,-0.3532004952989564,-0.9851284025720622,1.0760799647060129
1684180480243955100,11.45135546875,-0.5652704238600388,-1.170612335187709,1.328600168327857
1684180480253996500,11.46139697265625,-0.7749322057932644,-1.2861356734321319,1.61604118338982
1684180480264038100,11.4714384765625,-1.0562973022451225,-1.348639488064674,1.9237190485652873
1684180480274079400,11.481479736328126,-1.442024231041483,-1.5466289519872702,2.1751880646174317
1684180480284121000,11.491521484375,-1.8924121857487237,-1.5829954147534298,2.4497554302403604
1684180480294162400,11.501562744140625,-2.29666638369439,-1.59589004509877,2.6317605972641465
1684180480304204000,11.511604248046876,-2.618180274984842,-1.527427673268764,2.697605848270179
1684180480314245300,11.521645751953123,-2.679183960064377,-1.3605709075542962,2.7399642466871286
1684180480324286900,11.531687255859374,-2.4078750610549116,-1.0094490051640508,2.6247091293040485
1684180480334328600,11.54172900390625,-1.853672027586585,-0.5584239961226388,2.289723634887685
1684180480344369800,11.551770263671877,-1.1606956720932116,-0.22349452961526967,1.677696227972925
1684180480354411400,11.561811767578124,-0.5372721552314177,0.027297973637171527,0.9322881699405245
1684180480364452800,11.571853271484375,-0.10858857622662545,0.23087310788969742,0.38012099268232574
1684180480374494400,11.581894775390625,0.20993077764373766,0.38936996460659384,0.04830598825936812
1684180480384535700,11.59193603515625,0.39304751159383206,0.5080232621427448,-0.057197570892018205
1684180480394577300,11.601977783203123,0.5359811783594707,0.6014909744758403,-0.11592674251006391
1684180480404618600,11.61201904296875,0.5641949774536129,0.6243581772399038,-0.22909235951640067
1684180480414660300,11.622060791015626,0.5365219711846964,0.6387434006177936,-0.35209608064564557
1684180480424701600,11.63210205078125,0.5256519317126622,0.580102920603808,-0.45290589350322263
1684180480434743200,11.6421435546875,0.4578893183390729,0.4391050338814195,-0.5482051373458323
1684180480444784600,11.65218505859375,0.38075596106065607,0.23030376433512362,-0.5236012935298756
1684180480454826200,11.6622265625,0.26508700853362993,0.04480838781451776,-0.3447291850730375
1684180480464867800,11.67226806640625,0.13929063083746296,-0.09796142572792384,-0.12613582622714925
1684180480474909100,11.6823095703125,0.03488057847176926,-0.25280189516885276,0.09054470049410598
1684180480484950600,11.69235107421875,-0.0946519375334662,-0.32884502409387084,0.2529116867237891
1684180480494992000,11.702392333984376,-0.20428818456178477,-0.43593025214110803,0.46840631945645195
1684180480505033600,11.71243408203125,-0.2997173070466987,-0.5045137404352865,0.6672881841189624
1684180480515075000,11.722475341796876,-0.3160613774057276,-0.5178689955684794,0.8660036324163642
1684180480525116600,11.73251708984375,-0.24673187724347573,-0.4163618086691329,1.0592855213795125
1684180480535158200,11.74255859375,-0.15192407371947173,-0.2814540861238695,1.201543927261383
1684180480545199600,11.752599853515624,-0.04096108679264274,-0.2231044768931561,1.2907425165189734
1684180480555241100,11.7626416015625,0.10551166518205676,-0.22443675989224465,1.348720550623783
1684180480565282600,11.772682861328123,0.23696982861834567,-0.23038959498659387,1.4280066489350438
1684180480575324100,11.782724365234374,0.3648188114393624,-0.2982063293065485,1.4755177497276326
1684180480585365400,11.792765869140624,0.48084336518157084,-0.36566638941438767,1.4886317253856642
1684180480595407000,11.802807373046877,0.5890386105778137,-0.42570781716316414,1.4890891313400307
1684180480605448400,11.812848876953124,0.6673335433550884,-0.6314554214011857,1.2797114849560682
1684180480615490000,11.822890380859375,0.6695656180405755,-0.4403343201483646,1.3187714816050995
1684180480625531600,11.832931884765625,0.6147774456522824,-0.05837821971254956,1.3915945291839333
1684180480635572900,11.842973388671876,0.55639004701312,0.05782318111654118,1.3311469555266295
1684180480645614600,11.853014892578123,0.46670556083483594,0.1287460328295859,1.3143726587217524
1684180480655655900,11.86305615234375,0.4206146597717129,0.04215431219922778,1.076812863336941
1684180480665697500,11.873097900390626,0.39935719966487493,-0.06322002413291695,0.8778088093138159
1684180480675738800,11.88313916015625,0.3504713178318238,-0.06321239476984217,0.684149384514693
1684180480685780400,11.893180908203124,0.32891720531273844,-0.003529548678427169,0.5319075584016533
1684180480695821700,11.90322216796875,0.3035389185380286,-0.030078888019145895,0.37356269358119265
1684180480705863300,11.913263671875,0.2931284904350978,-0.020842552070910746,0.2304582596291936
1684180480715904900,11.923305419921874,0.27807337051335157,0.03836917864699358,0.14083361630556387
1684180480725946300,11.9333466796875,0.2916013001092301,-0.017196655328698233,0.10622310645579956
1684180480735987900,11.94338818359375,0.33097654591100195,-0.10119914996647925,0.009045600982491332
1684180480746029200,11.9534296875,0.34988456961620945,-0.046379089368980934,0.004382610261256101
1684180480756070800,11.96347119140625,0.3524093626865016,0.0393753051534631,-0.0678353310351701
1684180480766112200,11.9735126953125,0.3689529897168029,0.07460498814114297,-0.1041285991705039
1684180480776153800,11.98355419921875,0.3562002182462299,0.04747581494853734,-0.19050431255461714
1684180480786195100,11.993595458984377,0.3192248940190047,0.06576728828735619,-0.2534148693868243
1684180480796236600,12.00363720703125,0.25883942838308327,0.060274124074580604,-0.29339575785982025
1684180480806278100,12.013678466796875,0.20222806931357953,0.08118724818273866,-0.3723113535365323
1684180480816319600,12.023719970703125,0.13816869240339874,0.07098293309647195,-0.5083744525462113
1684180480826361300,12.03376171875,0.0836098790362924,0.14661026014780174,-0.5646357536193285
1684180480836402600,12.043802978515624,0.0025657416387008967,0.19071102142874816,-0.6578497887406236
1684180480846444200,12.0538447265625,-0.05469614264519676,0.23449993131113808,-0.7500653266074572
1684180480856485600,12.063885986328126,-0.1283712387851803,0.22795009602186447,-0.8225896359297822
1684180480866527200,12.073927490234375,-0.20801550155361379,0.19254970557752285,-0.900975704163702
1684180480876568600,12.083968994140625,-0.2620104253188065,0.17826557162633322,-0.9601440429831264
1684180480886610100,12.094010498046876,-0.3329161405110791,0.14442825317691713,-0.9211657047585262
1684180480896651600,12.104052001953123,-0.36039423953344846,0.02682781210388439,-0.8376226423574422
1684180480906693000,12.114093505859374,-0.3752748966065787,-0.0834856034910414,-0.6813082694827548
1684180480916734600,12.124135009765626,-0.37308135610811194,-0.12912273410405703,-0.4791722298225586
1684180480926776000,12.13417626953125,-0.33119818575004273,-0.1507596968707176,-0.3012537957335755
1684180480936817600,12.144218017578124,-0.29207706441076886,-0.14837837223080977,-0.10044622424573335
1684180480946858900,12.15425927734375,-0.2526812254850747,-0.07901191701193384,0.0462441444227357
1684180480956900600,12.164301025390625,-0.2690581978111414,-0.026340484685707433,0.19580411906356934
1684180480966942100,12.174342529296876,-0.3149826526438736,-0.016677856370464345,0.17901062969300097
1684180480976983600,12.1843837890625,-0.38955146085876147,0.012177467272406806,0.173200607291003
1684180480987025100,12.194425537109376,-0.4821172953110935,0.08646869653847489,0.13789033886657137
1684180480997066400,12.204466796875,-0.5607538223624291,0.1368846893154667,0.11608982079098379
1684180481007108000,12.21450830078125,-0.6630920768345898,0.1324720383370125,0.026587486376255118
1684180481017149400,12.2245498046875,-0.7258408069247453,0.14723777783584208,-0.024513959894432488
1684180481027191000,12.23459130859375,-0.7624266148026283,0.09503459914652906,-0.0318353176942192
1684180481037232600,12.244633056640623,-0.7738926411875445,0.0693120957648132,-0.05070829402194055
1684180481047273900,12.25467431640625,-0.7399334310993063,0.10836601243449126,0.0044896602934209415
1684180481057315600,12.2647158203125,-0.667715311237851,0.1689491272902528,0.021669149331668275
1684180481067356800,12.27475732421875,-0.5230264067519158,0.29895019527763006,0.10973429690027596
1684180481077398400,12.284798828125,-0.3988861442965416,0.3691549300237216,0.10360908495841957
1684180481087439800,12.294840087890623,-0.253610610947719,0.3820180893115309,0.06330418588906621
1684180481097481400,12.3048818359375,-0.11222961529633928,0.41652584067220283,-0.023310661338444366
1684180481107523000,12.31492333984375,-0.0015591085898907977,0.3697319031527257,-0.14824795709388006
1684180481117564300,12.32496484375,0.06187075384637451,0.31563186655055003,-0.2746243476831
1684180481127605900,12.33500634765625,0.10717630390649181,0.258860588160479,-0.3587863445815668
1684180481137647300,12.345047607421876,0.14887499811518903,0.18753719323255902,-0.3389203548236437
1684180481147688900,12.35508935546875,0.16741234060985166,0.145023345846574,-0.28539752956213443
1684180481157730200,12.365130615234374,0.18295270212717293,0.16657447816251394,-0.2088506220427545
1684180481167771800,12.375172119140624,0.15431901824466157,0.1616125106512354,-0.10018301002621127
1684180481177813200,12.385213623046877,0.10268747819604009,0.1445741654509368,-0.016024112786726875
1684180481187854800,12.395255126953124,0.016365855908399392,0.12268733984263269,0.04646944996618523
1684180481197896400,12.405296875,-0.07521937793050351,0.1172924041017635,0.14628958708823653
1684180481207937600,12.415338134765625,-0.18517600001937037,0.07392120354398402,0.22891426074798182
1684180481217979300,12.425379638671876,-0.3094158469309757,0.05916309355724194,0.27579665192395714
1684180481228020600,12.435421142578123,-0.415805399488303,-0.01702213294174276,0.2715802192277654
1684180481238062300,12.445462646484376,-0.4991599620272684,-0.007425308259180907,0.3647089004178601
1684180481248103600,12.45550390625,-0.5828797818851336,-0.033101081904662814,0.4508457182603951
1684180481258145200,12.465545654296877,-0.6364634037121168,-0.04848766321223839,0.4703984259469028
1684180481268186600,12.4755869140625,-0.6836709976140414,-0.15495777131697744,0.450345516237537
1684180481278228100,12.485628662109375,-0.7167305947202738,-0.4402561187848371,0.3107357026500635
