time,seconds_elapsed,z,y,x
1683985132554028600,0.03142919921875,-3.2794343817644775e-11,-2.1581028480492897e-11,-2.8113572105175938e-11
1683985132564069300,0.0414697265625,0.43814969062833437,0.05820560464477362,0.674338817561188
1683985132574109900,0.05151025390625,1.1096837520160852,0.4948482514149559,1.3261933326311108
1683985132584150600,0.061551025390625,1.1602668762213997,0.31276226035831733,1.7716641425940816
1683985132594191300,0.071591796875,0.8243010043739479,-0.13571929929790916,1.8674969672167698
1683985132604231900,0.08163232421875,1.456632137215663,0.03743839263728669,2.172154903449118
1683985132614272400,0.0916728515625,2.7547552585053587,0.4376363755020763,2.58371448506363
1683985132624313300,0.101713623046875,3.4359426499073815,0.31315994270533815,3.0308070182803197
1683985132634353800,0.111754150390625,3.231693744838344,0.2248458863526506,2.66789627083435
1683985132644394400,0.121794921875,2.11704206464852,0.14769077295519378,2.2525849342145525
1683985132654435200,0.131835693359375,0.8130650520441344,0.3327617644773478,2.416409492417245
1683985132664475800,0.141876220703125,-0.46276688568511987,0.8320255278926896,3.3696131705287677
1683985132674516400,0.151916748046875,-1.431271791326217,1.764351368094398,5.124192237851896
1683985132684557000,0.161957275390625,-1.6720516681686928,2.497892379798939,6.476589202842645
1683985132694597600,0.171998046875,-2.9735126495567616,1.673576831813977,6.903007507243155
1683985132704638400,0.182038818359375,-1.8295903205278874,3.4400973320613497,7.212830543505547
1683985132714679000,0.192079345703125,-2.7478010653349414,3.72416353218923,5.990064620980935
1683985132724719600,0.202119873046875,-4.283335685757095,3.6871161461096422,4.822698593152757
1683985132734760400,0.212160888671875,-6.085691451881782,4.369666099436584,4.500399589647522
1683985132744800900,0.222201416015625,-8.260858535834465,4.12135982500133,2.573712348890721
1683985132754841600,0.232241943359375,-11.611424446103777,3.6292552948037793,-0.962857246458218
1683985132764882100,0.242282470703125,-9.196748733475468,3.4855134487856843,-1.6262092590483
1683985132774922900,0.2523232421875,-5.832653999224545,2.9892246724318285,-2.0361576081942543
1683985132784963600,0.262364013671875,-3.55815744401851,2.2057969571689053,-2.5593461989874378
1683985132795004100,0.272404541015625,-2.3646738529151503,0.8585762976157031,-4.9158964157148075
1683985132805044600,0.282445068359375,1.1953246594147833,-0.09900760639062868,-6.896865844699091
1683985132815085600,0.29248583984375,4.630297660896166,-0.1050059794333969,-9.079073905979671
1683985132825126100,0.3025263671875,4.406749725292125,0.10456991202218335,-11.35934734354022
1683985132835166600,0.312567138671875,-0.31712472426384497,-1.5063776969345668,-14.590266227884346
1683985132845207600,0.32260791015625,-4.048606395668338,-3.12774205205666,-12.345260620248457
1683985132855248000,0.3326484375,-5.1198062895909215,-2.4383223056921586,-8.399778365932505
1683985132865288600,0.34268896484375,-2.11087465272377,-0.8632748127186994,-7.093011855918063
1683985132875329200,0.3527294921875,0.2933068872947728,-2.3119463920163783,-6.179105758830452
1683985132885370000,0.3627705078125,2.144340753397283,-2.740010261567766,-5.629891872368357
1683985132895410600,0.37281103515625,1.0725716351042345,-0.6012210845581494,-4.296286106146544
1683985132905451200,0.3828515625,1.6521337033475276,-1.250641822733846,0.03186798088299159
1683985132915491800,0.39289208984375,3.833642721137081,-1.4285187720798316,0.6579084397499684
1683985132925532600,0.40293310546875,5.877085208894914,-0.7975735663863378,0.2955188750937913
1683985132935573200,0.4129736328125,3.528478145637211,-3.3536584377029133,0.8238334655846641
1683985132945613700,0.42301416015625,1.175998806787888,-4.1939401625996915,-0.08801937091235947
1683985132955654300,0.4330546875,1.1140887735958978,-3.095442056570683,0.8666076660574534
1683985132965695200,0.443095458984375,2.50075650229933,-2.633140325652325,1.3831710816919667
1683985132975735600,0.45313623046875,4.984498023882069,-2.359082221941196,2.4552555083157324
1683985132985776300,0.4631767578125,6.3737411498087635,-3.5902204513442584,1.8496789931221005
1683985132995816900,0.47321728515625,3.2703492641446323,-4.419230461105065,-0.8657531739591592
1683985133005857600,0.483258056640625,1.2212004661385198,-6.032544136082079,-1.0557126997873787
1683985133015898300,0.493298583984375,1.3806470632521775,-6.945467948861784,-1.385389327954154
1683985133025938900,0.50333935546875,1.6913512945771674,-4.974133014695726,-2.1465635300128834
1683985133035979600,0.513380126953125,0.5390619636390775,-2.051850795788491,-1.1999921798853304
1683985133046020300,0.523420654296875,-0.1274935753183902,0.497976303129724,-0.13844108576045489
1683985133056060800,0.533461181640625,0.025343637981494783,2.323279380917136,-0.10567188265440038
1683985133066101400,0.543501708984375,0.7485136391132917,2.8781867028763486,0.8833951950704169
1683985133076142300,0.553542724609375,0.21852973099613157,2.6416723728267466,1.323717117391582
1683985133086182800,0.563583251953125,-0.24963699280825535,1.2282261848876845,2.0752916336700293
1683985133096223400,0.573623779296875,-0.5462694763870295,-0.4158568383400306,2.55989265430916
1683985133106264200,0.58366455078125,-0.2536245883445087,-0.8109927177536715,1.1383438109745874
1683985133116304800,0.593705322265625,-0.173598646999679,-0.628618001940495,-0.488675117626597
1683985133126345400,0.603745849609375,-0.24329461161195606,-0.2947940826387685,-0.9313583374338129
1683985133136386000,0.613786376953125,-0.08014406248337763,0.5729203223886861,-0.5023660659586457
1683985133146426800,0.6238271484375,0.14422360073264026,1.0486662387310035,1.10082912437559
1683985133156467400,0.63386767578125,2.7094533443725046,0.6684179306302791,1.621917724557511
1683985133166508000,0.643908447265625,1.2820150851184642,0.6010131835849049,1.3813838958915474
1683985133176548600,0.653948974609375,0.477853834537143,-1.0559635164153638,1.910887718298942
1683985133186589400,0.66398974609375,1.9390162231134336,-1.1814508436494973,1.98184490206121
1683985133196629900,0.6740302734375,2.412326574400081,-0.2776284217175043,0.11036777504600576
1683985133206670600,0.68407080078125,1.1579043864446534,-0.10696458811732813,-1.1125173569252658
1683985133216711100,0.694111572265625,1.0896773336927874,-0.13350915910346906,-1.415554046589872
1683985133226751900,0.70415234375,1.0157237054115338,-0.16759681712223823,-1.7895164489196913
1683985133236792600,0.71419287109375,0.8340245486106047,-0.2309694291590215,-2.0336008070383462
1683985133246833100,0.7242333984375,0.6726499200760715,-0.30746364604281773,-2.150016307965846
1683985133256873900,0.7342744140625,0.5307670236568937,-0.2588877677459754,-2.169871330285755
1683985133266914600,0.74431494140625,0.29491022241419995,-0.15282773977969044,-2.1593866346888504
1683985133276955100,0.75435546875,-0.07559345666953736,-0.011300563759509457,-2.274691581715413
1683985133286995600,0.76439599609375,-0.7262128592179062,0.35100793843366895,-2.4512968062812597
1683985133297036500,0.774436767578125,-1.764490485101868,0.8844931125591587,-2.353129386889253
1683985133307077000,0.7844775390625,-2.5646407605072463,1.3725712298636874,-1.9590549467946672
1683985133317117600,0.79451806640625,-2.875143528065302,1.6744997502229144,-1.5506625175769104
1683985133327158400,0.804558837890625,-3.228612899830261,1.6939306259015074,-0.9629945754054682
1683985133337199000,0.814599365234375,-2.536444425517745,1.2277228830868054,-0.41461849214871743
1683985133347239600,0.824639892578125,0.27665543562563333,0.4345097540832685,0.3578500747357525
1683985133357280200,0.8346806640625,2.9767613410910476,-0.2500672340652773,1.174034118586396
1683985133367321000,0.844721435546875,5.0625071525723415,-0.8109393119206851,1.588523864632019
1683985133377361600,0.854761962890625,5.817571163188719,-1.0672531127002804,1.9315290451357345
1683985133387402200,0.864802490234375,5.702825069580742,-0.9640517234435199,2.1031894684261943
1683985133397443000,0.874843505859375,5.717036247154955,-0.7500352860070212,2.5196447372575244
1683985133407483600,0.884884033203125,6.007180690785536,-0.50342416759857,3.3622913360247586
1683985133417524100,0.894924560546875,6.321137428420763,-0.10635566700736374,3.995631218070431
1683985133427564600,0.904965087890625,6.324725151006171,0.3600354196050046,4.238121032642804
1683985133437605600,0.915005859375,5.814427375844148,0.6885261536833438,4.090544700686786
1683985133447646100,0.925046630859375,5.030184269022012,0.8105654715413362,3.6821174622185056
1683985133457686600,0.935087158203125,4.1899056433694595,0.7063701151685261,2.980776786838619
1683985133467727300,0.945127685546875,3.3280742166951875,0.47738456722296857,1.9798974990248286
1683985133477768100,0.95516845703125,2.4786379337386575,0.2206423282647885,1.0321502685897062
1683985133487808600,0.965208984375,2.046874523130526,-0.2680518627868071,0.5618534088658271
1683985133497849300,0.975249755859375,1.56873738768257,-0.3609774111906616,-0.09836196900743635
1683985133507889800,0.985290283203125,1.1068584919281583,-0.7578682899722019,-0.91337871557692
1683985133517930600,0.9953310546875,0.8361316920171273,-1.6077909469255018,-1.8317470551035273
1683985133527971200,1.00537158203125,0.4880856276694847,-2.65891313557491,-2.9936580657356435
1683985133538011800,1.015412109375,-0.09725999832988931,-3.580234766029508,-4.286757469237371
1683985133548052600,1.025453125,-1.030244112041777,-4.186059951763012,-5.0437717438361105
1683985133558093200,1.03549365234375,-1.4004423617300745,-4.503177642785682,-4.998161792870204
1683985133568133800,1.0455341796875,-1.3058140278560433,-4.8716049193807365,-4.7296004295235505
1683985133578174400,1.05557470703125,-1.119316339584742,-5.358647346627388,-4.359569549583904
1683985133588215200,1.06561572265625,-0.9937832355312463,-5.900395870293297,-4.033963680261097
1683985133598255800,1.07565625,-0.8167433738716399,-6.512961864401231,-3.4370002745480597
1683985133608296400,1.08569677734375,-0.37689852712556193,-6.413814544774205,-3.006978511838368
1683985133618337200,1.095737548828125,0.3544015885310808,-5.5512075424150025,-2.5616011619801458
1683985133628377800,1.105778076171875,1.0320229530188838,-4.3867321013884215,-1.8488912582371253
1683985133638418400,1.11581884765625,1.2868838310254143,-3.759371280597733,-0.5684652328669322
1683985133648458900,1.125859375,1.3559587002236264,-3.3053424358207013,1.0630893706982318
1683985133658499800,1.135900146484375,0.9322135449089612,-2.61973953249841,2.232235908571468
1683985133668540300,1.145940673828125,0.3387300967608655,-2.0923774243369713,2.8656444548467292
1683985133678580900,1.155981201171875,-0.0019006728463800012,-1.7998652459086433,3.124252319335565
1683985133688621700,1.166022216796875,-0.042849779128739426,-1.7065002916310004,3.061106681875217
1683985133698662300,1.176062744140625,0.08657479273628599,-1.582267284329595,2.904529571518497
1683985133708702900,1.186103271484375,0.13503479961363293,-1.4808936119052136,2.761397361621378
1683985133718743600,1.196143798828125,0.07639646527159048,-1.4545917510745638,2.441391944894032
1683985133728784300,1.206184814453125,0.09805846200821872,-1.547536611580363,1.9203710555806122
1683985133738824900,1.216225341796875,0.09851217272582359,-1.6575663090939938,1.3543872833858686
1683985133748865500,1.226265869140625,0.028990745474471925,-1.8216083049599032,0.4241008760176309
1683985133758906300,1.236306640625,0.2276020051182554,-2.0582611560934505,-1.1426591872837157
1683985133768946900,1.24634716796875,0.7931525707231961,-2.140753745904809,-3.0464220048064043
1683985133778987400,1.256387939453125,1.767783880093997,-2.0397412775413604,-4.651662349858923
1683985133789028000,1.266428466796875,2.7007007598736497,-1.7046554087209884,-5.563009262118233
1683985133799068800,1.27646923828125,2.8958992958844614,-1.2002332210829931,-5.746746063371243
1683985133809109400,1.286509765625,2.087443113508015,-0.37385773652594156,-5.6298713682391615
1683985133819150000,1.29655029296875,1.3332512377478476,0.5760376453077429,-5.258766174388759
1683985133829190600,1.306591064453125,0.7936866283437979,1.1874479054742364,-4.910068035199117
1683985133839231400,1.3166318359375,0.5066256522731717,1.4794238806250128,-4.774744987406491
1683985133849272000,1.32667236328125,0.4875230788736784,1.5732160805845155,-4.856078147749119
1683985133859312600,1.336712890625,0.5508556365966177,1.4927065372987922,-5.115430354968474
1683985133869353400,1.34675390625,0.7339365483408756,1.2810525893490015,-5.069849014103124
1683985133879394000,1.35679443359375,0.9711174963339789,1.1144132613819622,-4.196322917777701
1683985133889434600,1.3668349609375,1.2286393642936466,0.9951989650840233,-2.9759054183283298
1683985133899475100,1.37687548828125,1.3447289467738697,0.8748478889012677,-2.2464208602987132
1683985133909516000,1.386916259765625,1.5366101264614982,0.6743152140783465,-1.3989863396280675
1683985133919556600,1.39695703125,1.2215459346919397,0.28113746642252924,-0.6193451881150472
1683985133929597100,1.40699755859375,1.005935668980294,-0.025335311939129128,0.2406396864268557
1683985133939637900,1.417038330078125,1.0372443199688715,-0.22338962570749074,1.445214748443223
1683985133949678600,1.427078857421875,0.5099945068240542,-0.22756719584872498,2.7289595604669397
1683985133959719100,1.437119384765625,-0.2546753882781452,0.006647109982796246,4.0444488526665
1683985133969759600,1.44716015625,-1.2295885084451355,0.34247827524949576,5.0845904350520845
1683985133979800600,1.457200927734375,-2.124338626719262,0.6155471803490737,5.204982757498551
1683985133989841100,1.467241455078125,-2.7958774566177285,0.7342824935625425,4.7065997123293055
1683985133999881600,1.477281982421875,-3.327496051819996,0.8639750482262968,4.0185489654352295
1683985134009922600,1.487322998046875,-3.854649066950278,1.0845642089291097,3.5525240899055155
1683985134019963100,1.497363525390625,-4.186519145834052,1.1452722550607508,3.614832401270526
1683985134030003600,1.507404052734375,-3.8159475328075083,1.6661915779680416,3.540791511436401
1683985134040044200,1.517444580078125,-3.1594786643041486,1.9476511479257628,3.4881019593872016
1683985134050085000,1.5274853515625,-2.688690662392276,1.5355315207809455,3.6896967887612915
1683985134060125600,1.537526123046875,-2.556399345460867,0.6289100647521586,4.307158470251517
1683985134070166200,1.547566650390625,-2.7250590323719086,-0.4653291702592878,5.209430217754344
1683985134080206800,1.557607177734375,-3.0891885758554585,-1.4182009696321207,6.327611923169785
1683985134090247600,1.56764794921875,-3.316300392015358,-1.7538623810328762,7.004699706941646
1683985134100288200,1.5776884765625,-3.026525497536271,-1.6299905777025834,6.459806442227183
1683985134110328800,1.587729248046875,-2.6771826743652074,-1.5970764160271824,5.6484842302190446
1683985134120369600,1.59777001953125,-2.53092432035183,-1.875940322719424,4.751006126459707
1683985134130410200,1.607810546875,-2.619429111509078,-2.1993594170942417,3.5387573241292345
1683985134140450700,1.61785107421875,-2.5884103775096214,-2.3814225198059265,2.115775108486156
1683985134150491300,1.6278916015625,-2.1817154883340195,-2.5364551543836793,0.48527717592857433
1683985134160532100,1.6379326171875,-1.3578140735078421,-2.8008861541012435,-1.1746878623474941
1683985134170572600,1.64797314453125,0.04588103298740533,-3.5560307502536097,-2.152931213442535
1683985134180613300,1.658013671875,2.2882037164311986,-3.6941881180253335,-3.752909183413797
1683985134190654100,1.668054443359375,3.864908218368965,-3.2541031836919645,-5.900205612317145
1683985134200694600,1.67809521484375,4.476855278049487,-2.7202162742889824,-7.929281234776568
1683985134210735300,1.6881357421875,4.660771369907413,-2.1305313110906186,-9.430641174445059
1683985134220776100,1.698176513671875,4.4892234803059825,-1.5109567642018922,-10.565129280057855
1683985134230816600,1.708217041015625,4.126990318207408,-1.341284751918391,-10.999091148386295
1683985134240857300,1.718257568359375,3.6931042671298933,-1.4526395798321474,-10.950435638353996
1683985134250897800,1.72829833984375,3.2948441506842143,-1.8413858414142694,-10.587238311863866
1683985134260938600,1.738339111328125,3.1027259825024553,-2.2658047676200512,-10.038150787345145
1683985134270979200,1.748379638671875,3.116201400856232,-2.21461868298981,-9.373899459811852
1683985134281019800,1.758420166015625,3.259713888239775,-1.571925640259625,-8.645734786991715
1683985134291060600,1.7684609375,3.3633401393977964,-0.589099407278934,-7.724097728914282
1683985134301101200,1.778501708984375,3.2280049324964066,0.22177696228759705,-6.676552295632848
1683985134311141800,1.788542236328125,2.8376913071451475,0.6524629593032485,-5.455097675314744
1683985134321182400,1.798582763671875,2.3264582156806433,0.3790602682424964,-4.029575824762654
1683985134331223200,1.80862353515625,1.832094669377182,-0.5203623772105044,-2.3343117237462407
1683985134341263800,1.818664306640625,1.2488825321720682,-1.6654310226661366,-0.4333496092345063
1683985134351304400,1.828704833984375,0.5919406414469324,-2.813996791892333,1.567089080833752
1683985134361344900,1.838745361328125,-0.09134125723964306,-3.6713771820065686,3.971434593186771
1683985134371385800,1.8487861328125,-0.6206309794884155,-3.817070007413677,6.23594522475264
1683985134381426400,1.85882666015625,-0.9002788066975808,-3.4485073091031557,7.318025588963123
1683985134391466900,1.868867431640625,-0.9191842079479293,-2.8201541900681155,7.690291881443205
1683985134401507800,1.878908203125,-0.818952321970935,-2.031896591244356,7.2795386313857815
1683985134411548300,1.88894873046875,-0.917095899430485,-1.677657127487841,6.506944656311209
1683985134421588900,1.8989892578125,-0.9762256145783521,-1.4020032881908413,5.4175996781992435
1683985134431629700,1.909030029296875,-0.9567935466099997,-1.1088809968238682,3.9553346632333506
1683985134441670300,1.91907080078125,-0.9089741706526949,-0.7044162751020583,2.5978944299902
1683985134451710900,1.929111328125,-0.8641498089993567,-0.2547454834802262,1.5043542385153708
1683985134461751500,1.93915185546875,-0.8617532253853337,0.04324150094683555,0.6604304312712889
1683985134471792300,1.949192626953125,-0.9659912585009843,0.141472816434161,0.14067578319977497
1683985134481832900,1.9592333984375,-1.1637361049237889,0.18749237071389632,-0.01788640028962093
1683985134491873500,1.96927392578125,-1.25925993922718,0.38182926174912185,0.028791427626636865
1683985134501914300,1.979314697265625,-1.1454427241827116,0.6643638612174134,0.1264166833251953
1683985134511954900,1.989355224609375,-0.9516501427618007,0.8695049285285774,0.2594819068030703
1683985134521995400,1.999395751953125,-0.7616052627647322,1.019386768217819,0.41540813446394964
1683985134532036000,2.0094365234375,-0.5996227264658588,1.1008596420642462,0.576955795163866
1683985134542076800,2.019477294921875,-0.4876396656847793,1.1285791396627005,0.725457429781557
1683985134552117400,2.029517822265625,-0.3645069600534472,1.1318192482504925,0.8957221507114884
1683985134562158000,2.039558349609375,-0.263000011470867,1.0849204063573386,1.0811636447150623
1683985134572198800,2.04959912109375,-0.22316813481754064,0.9773969649823699,1.2559511662465208
1683985134582239400,2.059639892578125,-0.23540234561739207,0.7938442231103365,1.4559643268245175
1683985134592280000,2.069680419921875,-0.2526259423051693,0.6876163483610286,1.617395877781103
1683985134602320800,2.07972119140625,-0.24777364736391821,0.7305583953283584,1.6648435591669435
1683985134612361400,2.08976171875,-0.23597836494792385,0.8625240327180286,1.6546487809065686
1683985134622402000,2.09980224609375,-0.29280638689068034,1.0179328917621608,1.650135755478781
1683985134632442600,2.109843017578125,-0.39234089838939284,1.2152090071864365,1.6161801814699628
1683985134642483400,2.1198837890625,-0.5091063975936986,1.3836817742609606,1.4619855880806063
1683985134652524000,2.12992431640625,-0.597155570950477,1.559140682227084,1.1920826435104204
1683985134662564600,2.13996484375,-0.5944900512980299,1.8441138268153292,0.974184274806686
1683985134672605400,2.150005859375,-0.5248434543534113,2.1294651031192213,1.0218768119588726
1683985134682645900,2.16004638671875,-0.5257227420474837,2.1680307387495312,1.1529003381833505
1683985134692686600,2.1700869140625,-0.562164783597031,2.0410332681503385,1.2949072121765026
1683985134702727100,2.18012744140625,-0.6146433353967784,1.8328080177623312,1.447724342472402
1683985134712767900,2.190168212890625,-0.6103320120850467,1.5177602766857137,1.5873486995202226
1683985134722808600,2.200208984375,-0.5239138604396989,1.1786632536352517,1.786418557240459
1683985134732849100,2.21024951171875,-0.347821712496676,0.943964958006831,2.0087516307645044
1683985134742889900,2.220290283203125,-0.09911632529579616,0.9292612075847364,2.1033535003738417
1683985134752930600,2.230330810546875,0.3259754181177781,0.8311710358751022,2.219729185109788
1683985134762971100,2.240371337890625,0.7461277246208413,0.6700487135852228,2.371433734875625
1683985134773011900,2.250412353515625,0.9580253363023681,0.6461477279726877,2.4570920467631225
1683985134783052500,2.260452880859375,0.9334865212435479,0.7597150803216267,2.46925258628525
1683985134793093000,2.270493408203125,0.6782137751337317,0.9462509155621053,2.39857101436629
1683985134803133600,2.280533935546875,0.2567326425975856,1.1567611693233546,2.2752027510899264
1683985134813174400,2.290574951171875,-0.3642756938808204,1.2905750273986318,2.21214771269526
1683985134823215000,2.300615478515625,-0.9610252380951894,1.2945833207159778,2.254415273831959
1683985134833255600,2.310656005859375,-1.4861576557224636,1.1230354309326538,2.2819569109790154
1683985134843296400,2.32069677734375,-2.025751352272783,0.8731431961177991,2.303410768376057
1683985134853337000,2.3307373046875,-2.6775541305651474,0.34167385103500447,2.405612230406694
1683985134863377600,2.340778076171875,-3.19991827014286,-0.6750345230486551,2.6929717063258987
1683985134873418400,2.35081884765625,-3.459331989198266,-2.05673694625896,2.89337539672637
1683985134883459000,2.360859375,-3.645853996164544,-3.3580465316245784,2.8470315932937518
1683985134893499600,2.37089990234375,-3.814879417527926,-4.5035963057390385,2.9323670864615803
1683985134903540400,2.38094091796875,-4.022957325066434,-5.6222324371694326,2.878574848078244
1683985134913581000,2.3909814453125,-4.219892501884918,-6.208331108086639,1.812034010766555
1683985134923621600,2.40102197265625,-4.18468475342544,-6.864974975623639,-1.933192253016081
1683985134933662100,2.4110625,-3.2602503299241863,-6.80357456204673,-3.8584728241430826
1683985134943703000,2.421103271484375,-1.9868627786470061,-6.088185310407925,-3.727093219793652
1683985134953743600,2.43114404296875,-0.6024292708532978,-5.022377014257514,-2.5238518715583
1683985134963784100,2.4411845703125,0.8938569426541726,-3.9368133545959587,-1.1625237466144387
1683985134973824600,2.45122509765625,2.4239912033023883,-3.05322456367877,-0.1443428991583869
1683985134983865600,2.461265869140625,3.8710255622188243,-2.4839735031845076,0.38757586472873445
1683985134993906100,2.471306396484375,5.111312866211441,-2.1809473037653317,0.38072061528945134
1683985135003946600,2.48134716796875,6.040059566511731,-1.9772195817188523,-0.0006246565551056595
1683985135013987600,2.491387939453125,6.607693672165681,-1.7457532882920423,-0.6016876697211714
1683985135024028100,2.501428466796875,6.7914733888243815,-1.4408292771871327,-1.2994458674340843
1683985135034068600,2.511468994140625,6.650898456541541,-1.046516418419136,-2.032502651408486
1683985135044109600,2.521510009765625,6.223011016817458,-0.5730714796793789,-2.6994225977118895
1683985135054150100,2.531550537109375,5.529402255938294,-0.07510375972479186,-3.0938076971509383
1683985135064190600,2.541591064453125,4.768925666806084,0.4836044310509617,-3.1989107131957213
1683985135074231500,2.5516318359375,4.188912391631774,1.0355129240446541,-3.0788938998152995
1683985135084272000,2.56167236328125,3.8021938799953627,1.532918930042348,-2.8121600151290833
1683985135094312600,2.571713134765625,3.5680661200484747,1.9508957862763496,-2.398962736289725
1683985135104353200,2.581753662109375,3.4545323848564147,2.247622966802729,-1.943360328756651
1683985135114394000,2.59179443359375,3.4250903129914314,2.403782844514755,-1.5464813709650524
1683985135124434600,2.6018349609375,3.4175164699314724,2.4575991629018463,-1.235403418550349
1683985135134475200,2.61187548828125,3.4613409041432055,2.483749389660887,-1.064207911446353
1683985135144516000,2.62191650390625,3.5464205741390584,2.4926176071882997,-1.0603243111608631
1683985135154556600,2.63195703125,3.6536598206132798,2.4705743789632666,-1.1692280769212302
1683985135164597200,2.64199755859375,3.792912483316679,2.3505272865752818,-1.420654177582606
1683985135174638000,2.652038330078125,3.903797626542057,2.1228046417241666,-1.8021599054271589
1683985135184678600,2.662078857421875,3.8898358345568167,1.8282947540292913,-2.2473778725826605
1683985135194719200,2.67211962890625,3.6956439018167844,1.5474138259294952,-2.6902770996241987
1683985135204760000,2.682160400390625,3.301664352542074,1.3328065871424786,-3.0726406574252545
1683985135214800600,2.692200927734375,2.726295232696588,1.2367353439110402,-3.4332175252987005
1683985135224841100,2.702241455078125,2.005692958748772,1.216604232750631,-3.7992343901237025
1683985135234882000,2.712282470703125,1.3060142994969126,1.2306747435261929,-4.148170948061423
1683985135244922600,2.722322998046875,0.7509212493262624,1.2340631483414561,-4.373887062088168
1683985135254963100,2.732363525390625,0.2990827559271145,1.1907634734314367,-4.455866813795798
1683985135265003600,2.742404052734375,-0.14917039876974095,1.0862312317191796,-4.434734344373025
1683985135275044600,2.75244482421875,-0.7382073401627139,0.8588972090383198,-4.221312045979734
1683985135285085100,2.762485595703125,-1.4992411135185408,0.5028762818080247,-3.7423472403965494
1683985135295125600,2.772526123046875,-2.292517423715092,0.07980823512579675,-3.045547485479582
1683985135305166600,2.78256689453125,-2.8686494827168767,-0.41493320467935313,-2.185352086929346
1683985135315207100,2.792607421875,-3.0920770168032217,-0.8826560973236073,-1.2780396937929122
1683985135325247600,2.80264794921875,-2.9096930026522685,-1.2989530563050284,-0.40516719207691304
1683985135335288200,2.812688720703125,-2.4391055106896213,-1.6320457458429687,0.3779292107267592
1683985135345329100,2.8227294921875,-1.8529391289411499,-1.8320217131583043,0.9399964810683588
1683985135355369600,2.83277001953125,-1.2222341297797983,-1.786004066422857,1.1531850098456946
1683985135365410200,2.842810546875,-0.5882487296861677,-1.4812431335093978,1.019678473589298
1683985135375451100,2.8528515625,-0.05290818204579854,-1.0057601928989834,0.7010886669053856
1683985135385491600,2.86289208984375,0.37434136869902307,-0.4828577041001048,0.3609400987545898
1683985135395532200,2.8729326171875,0.7116327880392151,-0.04097270970750806,0.09805715079499217
1683985135405573000,2.882973388671875,0.8881593347318699,0.16345882416543803,-0.03254246721710467
1683985135415613600,2.893013916015625,0.8101889489200151,0.06673145283488886,-0.016102194841329125
1683985135425654200,2.9030546875,0.4562466145300799,-0.33653354652482537,0.08742880837289964
1683985135435695000,2.913095458984375,-0.11031293861898496,-0.9989261627258461,0.18883609777349672
1683985135445735600,2.923135986328125,-1.0898178816988695,-1.9738454818588695,0.2775540352513717
1683985135455776200,2.933176513671875,-1.9177564383393833,-3.153226852370641,0.38258135316872033
1683985135465817000,2.943217529296875,-1.4519866705160345,-4.065278053250615,0.606274843255251
1683985135475857600,2.953258056640625,-0.26126229770308923,-4.337148666219719,0.8087035415921834
1683985135485898200,2.963298583984375,0.8607251644887932,-4.016473770235717,0.9285318851339098
1683985135495938700,2.973339111328125,1.6176966428881125,-3.348243713492849,0.9465928077783087
1683985135505979600,2.9833798828125,2.06597471227064,-2.4974985122481295,0.9276310205389129
1683985135516020100,2.993420654296875,2.315746307439649,-1.5725173949010622,0.8825790881967599
1683985135526060600,3.003461181640625,2.4210155009058774,-0.6259088515102281,0.7862536309911742
1683985135536101600,3.013501953125,2.4326844215302,0.2996778488512967,0.6158033012469958
1683985135546142100,3.02354248046875,2.386524200485804,1.1812076568813068,0.34597635264249266
1683985135556182600,3.0335830078125,2.3278782367726767,1.9886517523509493,0.007071077745633478
1683985135566223600,3.0436240234375,2.2547826766051604,2.6658453941419697,-0.37770864368736856
1683985135576264100,3.05366455078125,2.1620140075208014,3.087259292615669,-0.7490739821878353
1683985135586304600,3.063705078125,2.055679321221044,3.1144428253417407,-0.9651631713422718
1683985135596345300,3.07374560546875,1.9826041459859467,2.7707519531281606,-0.9703152776456545
1683985135606386100,3.083786376953125,1.9799871445965114,2.1683750151976793,-0.8604779243618541
1683985135616426600,3.0938271484375,2.0656776426606998,1.4343585967600536,-0.7140614985721121
1683985135626467200,3.10386767578125,2.197622060691073,0.6744985579297427,-0.6284222006343947
1683985135636508100,3.113908447265625,2.321984529453182,-0.007866859502190715,-0.6398452521028145
1683985135646548600,3.123948974609375,2.434351205760292,-0.49267292038901794,-0.7806577682910607
1683985135656589200,3.13398974609375,2.533204555573965,-0.7246999740327681,-0.9593299627531242
1683985135666630100,3.144030517578125,2.5773565768883397,-0.7666683196312291,-1.065211057816365
1683985135676670600,3.154071044921875,2.5489010810068544,-0.6888980864856308,-1.0890021323868804
1683985135686711200,3.164111572265625,2.4245657920159287,-0.5304622650997802,-1.0701733827445525
1683985135696752000,3.17415234375,2.056617021550704,-0.3182516097762663,-1.0188591480390272
1683985135706792600,3.184193115234375,1.2453175783169417,-0.045378684931375514,-0.9245060087707948
1683985135716833200,3.194233642578125,0.48609784240225934,0.20464515678392234,-0.7703223825078791
1683985135726874000,3.2042744140625,0.09213018416188702,0.36536502840154994,-0.5925318003009314
1683985135736914600,3.21431494140625,-0.0041652620335712355,0.4467267990901285,-0.4033350347765517
1683985135746955200,3.22435546875,0.08999276905809851,0.4871435165274511,-0.21353584516761412
1683985135756996000,3.234396484375,0.26559963806939557,0.49863815320387905,-0.01765450832852593
1683985135767036600,3.24443701171875,0.44228753451832903,0.49793338760920713,0.18530176584929134
1683985135777077200,3.2544775390625,0.564769864088082,0.5111551285137946,0.4089705645734341
1683985135787118000,3.264518310546875,0.5794584750373444,0.5404567718108173,0.6397367715684112
1683985135797158600,3.27455908203125,0.4885157645314239,0.5642356872701247,0.8644738197490679
1683985135807199200,3.284599609375,0.35368713748092173,0.5730953215612675,1.0821743010439162
1683985135817240000,3.294640380859375,0.25944578643968336,0.5578565598081983,1.284580230611012
1683985135827280600,3.304680908203125,0.2665728329038064,0.5308246611883316,1.4526414871701172
1683985135837321100,3.314721435546875,0.3782509862852274,0.4826049805684709,1.5982187986207363
1683985135847362000,3.324762451171875,0.5604410768824523,0.4131727218235473,1.7140357493042808
1683985135857402600,3.334802978515625,0.7663713695253475,0.3295640946212732,1.8003714084608284
1683985135867443100,3.344843505859375,0.9412543774382071,0.2626609802246478,1.8460489511972513
1683985135877483600,3.354884033203125,1.0781631468465993,0.2265615463407254,1.8297498225470155
1683985135887524600,3.364925048828125,1.176819443610672,0.21864604954673067,1.7801597117596835
1683985135897565100,3.374965576171875,1.2360365389699735,0.21971130359220012,1.7256066799292293
1683985135907605600,3.385006103515625,1.2467449903802985,0.2250823975669616,1.6668521167113817
1683985135917646600,3.395046875,1.2103115319980078,0.23021411880653406,1.6167981626332837
1683985135927687100,3.40508740234375,1.1190330981870957,0.20678138727335382,1.5867419242572047
1683985135937727600,3.415128173828125,0.9865546226314645,0.12659645061756922,1.5736837386889553
1683985135947768600,3.4251689453125,0.8188033700084194,-0.014643669107525433,1.5784440041608712
1683985135957809100,3.43520947265625,0.608774721566273,-0.16885089864860028,1.5763779878512338
1683985135967849600,3.44525,0.3580557109131156,-0.31919479357076413,1.5822283029879334
1683985135977890600,3.455290771484375,0.08967179052829757,-0.43458366393661074,1.5997653008264168
1683985135987931100,3.46533154296875,-0.14586052306494537,-0.5173549651912996,1.664257287948602
1683985135997971600,3.4753720703125,-0.29297187935371793,-0.627150535611282,1.8020606040940002
1683985136008012500,3.485412841796875,-0.33382391927651045,-0.7640218735129556,2.009850740471037
1683985136018053000,3.495453369140625,-0.2847761212587357,-0.930830001907178,2.2614128590964393
1683985136028093600,3.505493896484375,-0.1807219385489477,-1.0925197602511816,2.5318408012081783
1683985136038134400,3.515534912109375,-0.1032101435879774,-1.2761507034130026,2.841111421584209
1683985136048175000,3.525575439453125,-0.06713455908758252,-1.492231369045711,3.1877181530054397
1683985136058215600,3.535615966796875,-0.021376997227454116,-1.723340034507672,3.5102901459358162
1683985136068256400,3.54565673828125,0.05059558144386542,-1.8811216354092093,3.7504789829245087
1683985136078297000,3.555697509765625,0.16793370241731057,-1.7938117981074788,3.7683274745268798
1683985136088337600,3.565738037109375,0.22990405548269252,-1.4085750580720617,3.530837297513869
1683985136098378400,3.57577880859375,0.2870616914546056,-0.858020782281465,3.186227321583167
1683985136108419000,3.5858193359375,0.5380899907440417,-0.5412330626434717,2.847454071094223
1683985136118459600,3.59585986328125,1.0619192123244732,-0.6363830566185966,2.452581882508426
1683985136128500100,3.605900634765625,1.7562584877512384,-0.8869047165653915,1.8628699779303004
1683985136138541000,3.61594140625,2.4798126220695655,-1.189714431787211,1.1144715548086315
1683985136148581600,3.62598193359375,3.159348011142717,-1.5372009278058516,0.35156619556310365
1683985136158622100,3.6360224609375,3.756448030372374,-1.9279184341563325,-0.3149135112436252
1683985136168663000,3.6460634765625,4.243572235185287,-2.278080940212837,-0.8993531465396767
1683985136178703600,3.65610400390625,4.618565082495205,-2.48598003402184,-1.390100479027719
1683985136188744100,3.66614453125,4.905232429403609,-2.57831859582763,-1.7610042095908311
1683985136198784900,3.676185302734375,5.146310806302667,-2.5734672546861037,-2.0056865215607558
1683985136208825600,3.686225830078125,5.364753246303334,-2.5000362396046354,-2.1332652568760295
1683985136218866100,3.6962666015625,5.544110298252415,-2.3295259476278227,-2.1385118960660767
1683985136228906900,3.706307373046875,5.699101448148716,-2.052439689579427,-2.0050392149493934
1683985136238947600,3.716347900390625,5.798155784552186,-1.749466896091138,-1.7920448780312181
1683985136248988100,3.726388427734375,5.851548671648179,-1.4377746581020234,-1.5199367999791444
1683985136259028900,3.73642919921875,5.866671562126457,-1.1413316727215215,-1.2110657691927464
1683985136269069600,3.746469970703125,5.800630092714008,-0.8395347595168751,-0.9049873353542918
1683985136279110100,3.756510498046875,5.2921686171635205,-0.547713279797447,-0.4693171976283627
1683985136289150900,3.76655126953125,4.756362915174012,-0.23887729645572747,0.006532192262898137
1683985136299191500,3.776591796875,4.587491512379647,0.09143638615194656,0.2961902618628406
1683985136309232000,3.786632568359375,4.648950099836078,0.41554832463339963,0.3183114528261279
1683985136319272900,3.79667333984375,4.687823772482948,0.667299270729279,0.07293677331356768
1683985136329313500,3.8067138671875,4.544909000335873,0.7507991791425245,-0.41760087003050433
1683985136339354000,3.81675439453125,4.271017551459636,0.6947851179592447,-1.0151867867124489
1683985136349394900,3.826795166015625,3.909802436707319,0.5826072693111191,-1.6580986976217673
1683985136359435400,3.8368359375,3.55281543731764,0.4900245666505812,-2.2981076241212266
1683985136369476000,3.84687646484375,3.2373573780271654,0.4289388657776137,-2.9217255114045657
1683985136379516800,3.856917236328125,2.9530515671816797,0.4017477036435337,-3.46896910675667
1683985136389557400,3.866957763671875,2.6774940491202903,0.39651489269187923,-3.86724185935095
1683985136399598000,3.876998291015625,2.4034485816086915,0.371247291654453,-4.137915611301957
1683985136409638800,3.887039306640625,2.087043762349682,0.2883129121029303,-4.316049575696248
1683985136419679400,3.897079833984375,1.6344649791504742,0.1631917952571987,-4.443216323836572
1683985136429720000,3.907120361328125,0.8571068047896233,-0.009243965243346896,-4.506295204173297
1683985136439760800,3.9171611328125,-0.2296905518986175,-0.21555709829764086,-4.330512046809999
1683985136449801400,3.927201904296875,-1.0540391207458393,-0.39723205566538766,-3.8256323337176035
1683985136459842000,3.937242431640625,-1.4749888181214192,-0.4688205718771141,-3.1893768310224497
1683985136469882800,3.947283203125,-1.4623674154630524,-0.45410442350898994,-2.6150405406554347
1683985136479923400,3.95732373046875,-1.203061580726603,-0.39693546295797144,-2.0783157349170134
1683985136489964000,3.9673642578125,-0.8182631731341105,-0.33718204487850645,-1.5239181518289173
1683985136500004600,3.977405029296875,-0.39738214007247763,-0.2974357606714165,-0.9716845154671001
1683985136510045400,3.98744580078125,0.04992115504992711,-0.27375316617797985,-0.4947353600501441
1683985136520085900,3.997486328125,0.58227479456024,-0.2098226547635139,-0.19940960415753833
1683985136530126600,4.00752685546875,1.091793060261712,-0.04621601111795926,-0.08674967294605396
1683985136540167300,4.017567626953125,1.4595791101615143,0.18268966667667388,-0.013220190985561575
1683985136550207900,4.0276083984375,1.6641629933305018,0.39410495752212055,0.11936032781392134
1683985136560248600,4.03764892578125,1.7467858792554773,0.6056947708181707,0.34454417226900613
1683985136570289300,4.047689697265625,1.7090702058361384,0.7970008850570384,0.646456718417252
1683985136580329900,4.057730224609375,1.6022410391222806,0.7614126205648157,1.0426154136608672
1683985136590370600,4.06777099609375,1.5772790909378687,0.33689594250050037,1.4795476196322823
1683985136600411300,4.077811767578125,1.6794893741519399,-0.4505310057477775,1.9477918148593343
1683985136610451900,4.087852294921875,1.8413664103417067,-1.536691665675827,2.481998920474799
1683985136620492500,4.097892822265625,1.909645914894133,-2.7888050078830626,2.9940087795392554
1683985136630533300,4.10793359375,1.595827698673866,-3.8907289505259635,3.176207304046908
1683985136640573900,4.117974365234375,1.365795135374531,-4.287172317316672,2.999159097633489
1683985136650614400,4.128014892578125,1.6033504008656838,-4.098057746919167,2.9693698883060016
1683985136660655300,4.1380556640625,2.1111128329865037,-3.654649734531055,3.1223530767762657
1683985136670695900,4.14809619140625,2.667043924373348,-3.074394225909907,3.2882585526496317
1683985136680736400,4.15813671875,3.128402233126238,-2.4026041031667353,3.3360524177917426
1683985136690777300,4.168177734375,3.467543601896389,-1.7327833174299212,3.269457816987898
1683985136700817800,4.17821826171875,3.6979651450488964,-1.2375955581598015,3.133337974532298
1683985136710858600,4.188259033203125,3.8373708723466584,-1.037061691259507,3.025923490406074
1683985136720899200,4.198299560546875,3.8597600460370893,-1.0459203720631516,3.002777099667302
1683985136730939800,4.20834033203125,3.8020763397197954,-1.143002510079779,3.07087111468924
1683985136740980600,4.218381103515625,3.7747800349507954,-1.115780830395458,3.1025638581247392
1683985136751021200,4.228421630859375,3.7486226560062117,-0.8382101059520701,3.0994634628935285
1683985136761061800,4.238462158203125,3.628396749526052,-0.31634235390017695,3.025203704675001
1683985136771102600,4.2485029296875,3.394404649772762,0.3657150267731413,2.7132401465924705
1683985136781143200,4.258543701171875,3.0844862461962865,1.0176630021320732,2.1321642399864356
1683985136791183800,4.268584228515625,2.7317340373772336,1.4686613081278872,1.4625701903152297
1683985136801224600,4.278625,2.5104436874005924,1.7358036041908642,0.9324454068016071
1683985136811265200,4.28866552734375,2.4601914882116414,1.845545768759916,0.39580178249733156
1683985136821305800,4.2987060546875,2.491479873642101,1.824540138223916,-0.14818853132875529
1683985136831346400,4.308746826171875,2.5731630325658896,1.7568378448676345,-0.7500357626749768
1683985136841387200,4.31878759765625,2.66739368434401,1.6768150330788505,-1.4559230803462047
1683985136851427800,4.328828125,2.7220368384991542,1.58343791968145,-2.205093145214212
1683985136861468300,4.33886865234375,2.74509406098795,1.4565391541220452,-2.937728881778822
1683985136871509200,4.34890966796875,2.751568317310618,1.2649955750045352,-3.4725289346198407
1683985136881549700,4.3589501953125,2.743565797797589,1.0116739273150919,-3.622918844245998
1683985136891590300,4.36899072265625,2.705350399167984,0.6417064666511206,-3.382506609011682
1683985136901631200,4.379031494140625,2.697848558267885,0.16141891486426413,-3.0097024441415563
1683985136911671600,4.389072021484375,2.716323137283259,-0.3664445877149316,-2.6539871692657524
1683985136921712300,4.39911279296875,2.6210165023991636,-0.849495887699866,-2.350191593183023
1683985136931753100,4.409153564453125,2.2808532714619405,-1.1969900131069788,-2.074664354180867
1683985136941793600,4.419194091796875,1.6429269313096382,-1.357692718653202,-1.7308976650595957
1683985136951834600,4.42923486328125,0.8311482668494902,-1.2930870055163906,-1.4416911602632065
1683985136961875100,4.439275634765625,0.10320202991484642,-1.1396274566513989,-1.1965711117322375
1683985136971915600,4.449316162109375,-0.20247325311759454,-0.9860115052838689,-1.054820537468883
1683985136981956600,4.45935693359375,-0.265493750482623,-0.8226623536306,-1.0082048178447636
1683985136991997100,4.4693974609375,-0.2864949704241809,-0.6404657364187293,-0.9981864691162531
1683985137002037600,4.47943798828125,-0.2823569178706821,-0.3796291351150008,-1.0458519459011055
1683985137012078600,4.48947900390625,-0.22632092256618028,0.020379066463023645,-1.1445480585193197
1683985137022119100,4.49951953125,-0.08249980220487951,0.5241565703411878,-1.235562324453385
1683985137032159600,4.50956005859375,0.1856570839510669,1.097750663804332,-1.2910170555478526
1683985137042200600,4.519600830078125,0.5107032059947023,1.7088308333864612,-1.2655365467273614
1683985137052241100,4.529641357421875,0.8332834243757404,2.3460655213137738,-1.1492698193135458
1683985137062281600,4.53968212890625,1.0951404570913124,2.952465057384028,-0.8950769305493105
1683985137072322600,4.549722900390625,1.2851912974725972,3.4187641142402114,-0.43475723257185706
1683985137082363100,4.559763427734375,1.36326217657045,3.6803274153736,0.1825749874314548
1683985137092403600,4.569803955078125,1.365558028233182,3.7195143700918636,0.8564455508053033
1683985137102444500,4.579844970703125,1.294902801545409,3.571544647088826,1.5141398908217747
1683985137112485000,4.589885498046875,1.1347321271295736,3.314057826893662,2.132507801183788
1683985137122525600,4.599926025390625,0.9176754950524955,3.013818740934868,2.6966376304721313
1683985137132566400,4.609966796875,0.6303986309227725,2.6036281585991707,3.2797150611206973
1683985137142607000,4.62000732421875,0.24228787439342006,2.0818285942062924,3.849257469092603
1683985137152647600,4.630048095703125,-0.17160350088504456,1.5115280151054888,4.303369522158267
1683985137162688400,4.6400888671875,-0.4102602602191497,1.0265035628208996,4.522911548600063
1683985137172729000,4.65012939453125,-0.4113027157250403,0.7141313552743063,4.528753280678856
1683985137182769600,4.660169921875,-0.26325523861874844,0.5352926255170375,4.390270709882979
1683985137192810400,4.6702109375,-0.06379485121747876,0.4155511856584905,4.229291439143258
1683985137202851000,4.68025146484375,0.12423324583543592,0.31187343599975714,4.091211319013419
1683985137212891600,4.6902919921875,0.28125625854068825,0.1933851242650393,3.9749751090476164
1683985137222932400,4.700332763671875,0.40520286564261176,0.0770044327279005,3.908657550787703
1683985137232973000,4.710373291015625,0.47564685343935204,-0.01567459108545144,3.88595199584658
1683985137243013600,4.7204140625,0.461896807078708,-0.036801338154494385,3.8997421263478125
1683985137253054400,4.730454833984375,0.26863637570618026,-0.05568504322483787,4.011332511986632
1683985137263095000,4.740495361328125,-0.18307344621247484,-0.08220958713892519,4.145251750946298
1683985137273135600,4.750535888671875,-0.6633441448865212,-0.2946891784621904,4.2422814367991535
1683985137283176400,4.76057666015625,-1.0202007293309192,-0.4489574431963847,4.066014289912256
1683985137293216900,4.770617431640625,-1.270979046805077,-0.5736122130677352,3.7010893822423623
1683985137303257800,4.780658203125,-1.547922372887348,-0.6853561402574156,3.2031769752409245
1683985137313298400,4.79069873046875,-1.7423442600662549,-0.791185379068792,2.6260514260074967
1683985137323338900,4.8007392578125,-1.578223228559235,-0.9649209975545742,2.052587270823256
1683985137333379800,4.8107802734375,-1.2374477387205687,-1.1841049193456967,1.5309885740471847
1683985137343420300,4.82082080078125,-0.9374439718100646,-1.5165367126228122,1.04920971403064
1683985137353460900,4.830861328125,-0.6279376744270446,-1.9569768905773115,0.5667045114966599
1683985137363501700,4.840902099609375,-0.3030185699500063,-2.2265052795169717,0.04069995887022488
1683985137373542300,4.850942626953125,-0.00033819675064238947,-2.327663421626635,-0.4936183691078423
1683985137383582900,4.8609833984375,0.25939071174939465,-2.4020938873953135,-0.9791041016829473
1683985137393623700,4.871024169921875,0.48732078078913704,-2.5713844300186377,-1.3806297778664862
1683985137403664300,4.881064697265625,0.7103816271029509,-2.895191192617045,-1.6173974275478342
1683985137413704900,4.891105224609375,0.8848917484197887,-3.294952392631572,-1.7240273953031215
1683985137423745600,4.90114599609375,1.001533031513383,-3.5441036225346383,-1.73872399318563
1683985137433786300,4.911186767578125,1.0451500414650539,-3.6245594022997287,-1.6304748058390688
1683985137443826900,4.921227294921875,1.1746745110456736,-3.4657011031556992,-1.4944303034215447
1683985137453867600,4.93126806640625,1.4323120115804615,-3.125641822932211,-1.3791090250771159
1683985137463908300,4.94130859375,1.649581789955293,-2.6854505538826627,-1.195142865273577
1683985137473948800,4.951349365234375,1.6712387801253403,-2.154856681739175,-0.8999710083162767
1683985137483989600,4.96139013671875,1.4774534703526365,-1.6125974655848658,-0.6471645831743024
1683985137494030300,4.9714306640625,1.228263854967678,-1.115783691407821,-0.5016989708080879
1683985137504070800,4.98147119140625,1.0459330083304095,-0.6997356414028872,-0.5082767010172516
1683985137514111600,4.991511962890625,0.9871593116533887,-0.3681402206189369,-0.5929224492168876
1683985137524152200,5.001552734375,0.9738138316658268,-0.1425752639840543,-0.728623628705881
1683985137534192800,5.01159326171875,0.9495187997542055,0.01320743553711731,-1.0050079821337303
1683985137544233600,5.021634033203125,0.8843401670008799,0.17070960992298978,-1.3642716407805442
1683985137554274200,5.031674560546875,0.7951941490190851,0.32760906221710734,-1.7233042715792515
1683985137564315100,5.041715576171875,0.829529166203661,0.5401754379728951,-2.0845613478728953
1683985137574355600,5.051756103515625,0.9288750886639144,0.8351602555541933,-2.4851253032057006
1683985137584396200,5.061796630859375,1.0508129596353812,1.202309608388767,-2.868410587272238
1683985137594437000,5.07183740234375,1.1606919766048154,1.613489150985931,-3.2386541366571544
1683985137604477600,5.0818779296875,1.214931845534636,2.0306386948786703,-3.586088180570608
1683985137614518200,5.091918701171875,1.227899551483908,2.4028191566783064,-3.8799412250546124
1683985137624559000,5.10195947265625,1.221100330406035,2.6665439605644683,-4.076155185708211
1683985137634599600,5.112,1.2084563970427558,2.8171310425334504,-4.178988933487654
1683985137644640200,5.12204052734375,1.1605637073341566,2.896010875717,-4.162487983877047
1683985137654681000,5.132081298828125,1.059806108387791,2.9052782060558755,-4.0376095772439315
1683985137664721600,5.1421220703125,0.8986074923264925,2.848514079984926,-3.8046624660755883
1683985137674762200,5.15216259765625,0.6219509840352301,2.7185621260890374,-3.487642526629121
1683985137684803000,5.162203369140625,0.1762082576641519,2.4422540665162735,-3.0964627265457882
1683985137694843600,5.172243896484375,-0.4071329831284873,1.9328503610593226,-2.553736686713243
1683985137704884400,5.182284912109375,-0.9792406559562243,1.172557830802346,-1.7870656251803134
1683985137714925000,5.192325439453125,-1.4705977440267581,0.24757289881099634,-0.7957336901688908
1683985137724965600,5.202365966796875,-1.741798639432793,-0.6996679305807313,0.2991824148789932
1683985137735006400,5.21240673828125,-1.650970935971495,-1.4615774155031984,1.2892446519529468
1683985137745047000,5.222447265625,-1.3591606615831984,-1.8865699768121753,2.1426992416212203
1683985137755087600,5.232488037109375,-1.1012836695577644,-1.998160362257685,2.9010026455781874
1683985137765128400,5.24252880859375,-0.9219928979702654,-1.8198528290387501,3.5209946632978344
1683985137775168900,5.2525693359375,-0.7326779365995616,-1.4002485274462282,3.848837375671488
1683985137785209600,5.26260986328125,-0.3930981159443045,-0.9381179808269025,3.739421367764698
1683985137795250400,5.272650634765625,0.08638203140029868,-0.6548223496321044,3.31584382060754
1683985137805290900,5.28269140625,0.5821601748596534,-0.6729269027904704,2.795325040886789
1683985137815331600,5.29273193359375,0.9716436267781254,-0.919326782139825,2.235614061403487
1683985137825372300,5.302772705078125,1.0212678909423745,-1.3785762785412519,1.5982887744295646
1683985137835412900,5.312813232421875,0.22595274460643636,-2.1064996719965383,0.8239405154109405
1683985137845453600,5.32285400390625,-1.6594949960449012,-3.177334785451403,0.013735056048482297
1683985137855494300,5.332894775390625,-2.478550434025681,-3.9867210388869805,-0.361489296026882
1683985137865534900,5.342935302734375,-2.0226430891988327,-4.008584022616469,-0.3778668641023342
1683985137875575500,5.352975830078125,-0.9921746255741237,-3.3659162520612513,-0.28367233285890814
1683985137885616300,5.3630166015625,-0.06284099807927171,-2.4965162277936543,-0.38613379007030657
1683985137895656900,5.373057373046875,0.5386811494978582,-1.5010890960323438,-0.6564145087899157
1683985137905697600,5.38309814453125,0.8270224930044893,-0.4798774718499804,-0.9626353979066243
1683985137915738300,5.393138671875,0.8986124992505983,0.45107650753581596,-1.2017033100083379
1683985137925778900,5.40317919921875,0.8532176613611651,1.2762298583729923,-1.368551135082763
1683985137935819600,5.41322021484375,0.7624345421273855,1.9662914274936727,-1.490072369380336
1683985137945860300,5.4232607421875,0.6710578800901125,2.3682222366462033,-1.5582994222621822
1683985137955900800,5.43330126953125,0.606944561101829,2.4213705063262836,-1.60454297057547
1683985137965941600,5.443342041015625,0.5974253416989759,2.201895713890269,-1.6168394088726923
1683985137975982300,5.453382568359375,0.6479005217096461,1.7852525710457372,-1.569112062423735
1683985137986022800,5.46342333984375,0.7376763820450345,1.2222461700512524,-1.4737508297086295
1683985137996063600,5.473464111328125,0.8562382459567385,0.5918760301067777,-1.351839065494362
1683985138006104200,5.483504638671875,0.9759982824892178,-0.027400016680464146,-1.2186505793596696
1683985138016145100,5.49354541015625,1.0783843993905975,-0.5124015808171382,-1.0745675563239063
1683985138026185600,5.5035859375,1.1580370664238142,-0.6991786955381962,-0.9525209069082927
1683985138036226200,5.513626708984375,1.2190470696218414,-0.6046161649865399,-0.8908337356005688
1683985138046267100,5.52366748046875,1.2424372434413065,-0.3411188125973087,-0.8707385659070426
1683985138056307600,5.5337080078125,1.219043373950699,-0.007170677200959619,-0.8522148132938149
1683985138066348200,5.54374853515625,1.1702373028380935,0.2793064118961981,-0.7880151271036928
1683985138076389000,5.55378955078125,1.0889344216004364,0.45814514161280323,-0.677919805143564
1683985138086429600,5.563830078125,0.9783231019985485,0.5511388777681104,-0.5717495084842437
1683985138096470200,5.57387060546875,0.8196939825997921,0.582768440258119,-0.47833287724516244
1683985138106511000,5.583911376953125,0.6304302214563761,0.5416193007859909,-0.3925933836447878
1683985138116551600,5.593951904296875,0.4277731777203398,0.45932579037425836,-0.30971348300014884
1683985138126592400,5.603992919921875,0.2284561394855492,0.34360790251562173,-0.22010624394178352
1683985138136633000,5.614033447265625,0.03867763280334872,0.23554992688743223,-0.11222440009142644
1683985138146673600,5.624073974609375,-0.1106767059446129,0.16639995560156812,0.015049099764280042
1683985138156714400,5.63411474609375,-0.20173448327004528,0.11929702763156302,0.1565196515934013
1683985138166755000,5.6441552734375,-0.25588193530937636,0.08926200863480357,0.3332673906586409
1683985138176795600,5.654196044921875,-0.27525687233412643,0.08563423171577426,0.5258563160924159
1683985138186836400,5.66423681640625,-0.2797414658820066,0.11295700073705696,0.7549832462245389
1683985138196877000,5.67427734375,-0.28938934214789963,0.1735782624176612,0.9866648317552102
1683985138206917600,5.68431787109375,-0.2987908720941093,0.2438049316191276,1.2022916078313761
1683985138216958400,5.69435888671875,-0.3210809827796577,0.3310270311224411,1.4296022653624056
1683985138226999000,5.7043994140625,-0.3437991736969359,0.45207214349555447,1.6545157432350153
1683985138237039600,5.71443994140625,-0.36683887238201995,0.5711851121387876,1.834187746052876
1683985138247080400,5.724480712890625,-0.41085040565171926,0.6244077681559562,1.934466362166291
1683985138257120900,5.734521240234375,-0.46539598710809205,0.6460123061793285,2.010321378816372
1683985138267161800,5.744562255859375,-0.33001539126387236,0.6218614578568149,2.1079387664906792
1683985138277202400,5.754602783203125,0.00025796877919868444,0.5414133071398177,2.283166646927396
1683985138287242900,5.764643310546875,0.11375445129159857,0.4348516463675638,2.459341526023863
1683985138297283800,5.77468408203125,0.12659102686901735,0.35488414762162596,2.483543395976485
1683985138307324300,5.784724853515625,0.1476789713159497,0.313154220610803,2.42856836313728
1683985138317364900,5.794765380859375,0.08731383084623406,0.15461540208327784,2.3502817155033826
1683985138327405700,5.80480615234375,0.01491934068431681,-0.06319808954666098,2.254796266462558
1683985138337446300,5.8148466796875,-0.028890728764726554,-0.30439567566933984,2.1926908494564934
1683985138347487200,5.824887451171875,-0.08527952420872222,-0.5635890961827358,2.120979070566805
1683985138357527700,5.83492822265625,-0.09145790329399137,-0.7996845244491383,1.9998605251117694
1683985138367568300,5.84496875,-0.05612921719539541,-0.9796762467168575,1.8298711775983487
1683985138377609100,5.855009521484375,-0.01849138748605605,-1.106560707206112,1.7984652518730606
1683985138387649600,5.865050048828125,-0.02650809285890782,-1.2119569777966814,2.0066258906997687
1683985138397690300,5.875090576171875,-0.16385078439681117,-1.3036279678201776,2.480981350036028
1683985138407731100,5.885131591796875,-0.7544533014048621,-1.24982547758383,3.1399383543863766
1683985138417771600,5.895172119140625,-1.4485394953277542,-1.0507516859852402,3.902877807763647
1683985138427812600,5.905212890625,-2.183357715509998,-0.8488540650541718,4.718317031795546
1683985138437853100,5.91525341796875,-2.555652856889945,-0.7178459167557384,5.320214748314696
1683985138447893600,5.925294189453125,-2.54815411571681,-0.5637979508395264,5.403996944416214
1683985138457934600,5.9353349609375,-2.223927974778459,-0.37268829351574534,4.862854480840809
1683985138467975100,5.94537548828125,-1.5651433466460962,-0.3484716413738021,4.015069007888811
1683985138478015600,5.955416015625,-0.8151574134750259,-0.4382019043241229,3.1082808971089735
1683985138488056600,5.965456787109375,-0.1276030541458331,-0.5785627365168494,2.21555876728021
1683985138498097100,5.97549755859375,0.49597847463707523,-0.7814331055361681,1.3259087801433402
1683985138508137900,5.985538330078125,1.11882638929396,-1.092186927727263,0.45848822585815874
1683985138518178600,5.995578857421875,1.66121888165908,-1.4800910950218902,-0.22062110901869528
1683985138528219100,6.005619384765625,2.1220333574503925,-1.9814348220341682,-0.7200841903862236
1683985138538259600,6.015659912109375,2.5053045751153395,-2.6274518966722735,-1.1295760869930584
1683985138548300500,6.025700927734375,2.7859899997449746,-3.340534210190349,-1.546449899492542
1683985138558341000,6.035741455078125,3.00785708431631,-3.9325685500561525,-2.0361824035944878
1683985138568381900,6.0457822265625,3.140459775872068,-4.352993011304328,-2.572100877636722
1683985138578422400,6.05582275390625,3.214590072707856,-4.57017803198737,-3.0815010071032636
1683985138588463000,6.065863525390625,3.1799597740352152,-4.533187866223951,-3.426962852509217
1683985138598503900,6.075904296875,2.967076778509605,-4.253658294737682,-3.6315109729423782
1683985138608544400,6.08594482421875,2.099920511366628,-3.6691207885203556,-3.5990600585890666
1683985138618585000,6.0959853515625,-0.058310270330986125,-2.664916992053209,-3.1134741306079943
1683985138628625800,6.106026123046875,-1.6038289070545009,-1.4514627455462414,-2.7541072367292205
1683985138638666400,6.11606689453125,-2.0418221949988515,-0.275765419029138,-2.7558929919701587
1683985138648707200,6.126107666015625,-1.7155500650317002,0.6916799544752403,-3.0033302306293743
1683985138658747800,6.136148193359375,-1.1144396066206836,1.3337898255422822,-3.2854108810724774
1683985138668788400,6.146188720703125,-0.5634896757119071,1.69267797466149,-3.4677603245121422
1683985138678829200,6.156229736328125,-0.13672447200251348,1.881327629047164,-3.5256307124654116
1683985138688869800,6.166270263671875,0.17421686647567147,1.9162712095788976,-3.484263658705777
1683985138698910400,6.176310791015625,0.41545355319379634,1.779197692981425,-3.3995852471212613
1683985138708951200,6.1863515625,0.6320321558739145,1.5325522421186424,-3.345963001380824
1683985138718991800,6.19639208984375,0.8318625687753126,1.2561721802120798,-3.3069829940443687
1683985138729032600,6.20643310546875,0.9972603917390725,0.9693832397698855,-3.2326598168387486
1683985138739073200,6.2164736328125,1.1506097316670123,0.6924734115732555,-3.031796932180485
1683985138749113800,6.22651416015625,1.244927883120167,0.4783487320520662,-2.7039937972688524
1683985138759154600,6.236554931640625,1.2452735900109047,0.3688144683581775,-2.3331930638219163
1683985138769195200,6.246595703125,1.1165490151960369,0.35145473475895855,-1.9480191469339394
1683985138779235800,6.25663623046875,0.8482572436289862,0.4026184082022185,-1.5713164805295028
1683985138789276600,6.266677001953125,0.4705988169042541,0.48987007137912797,-1.2136480808336632
1683985138799317200,6.276717529296875,0.132503867223971,0.6154556274542603,-0.9051110743580993
1683985138809358000,6.28675830078125,-0.07953596118292369,0.7966537475179887,-0.6484134198763959
1683985138819398600,6.296799072265625,-0.17555081834603764,1.0113306045337276,-0.46137738229242686
1683985138829439200,6.306839599609375,-0.18588924412931582,1.236601829406274,-0.353026866815412
1683985138839480000,6.31688037109375,-0.13899600504771464,1.4534873962763786,-0.3391506671668358
1683985138849520600,6.3269208984375,-0.007264494738041824,1.6307668685112007,-0.35486149801861827
1683985138859561100,6.33696142578125,0.1999080179863878,1.780556678835139,-0.4024786948400556
1683985138869602000,6.34700244140625,0.4385401009715029,1.8884000777555163,-0.4991962909277718
1683985138879642600,6.35704296875,0.6508226393848547,1.9141726493945894,-0.5988535880576901
1683985138889683100,6.36708349609375,0.7156094908411911,1.8704628944999029,-0.7242412567916738
1683985138899724000,6.377124267578125,0.6987914444185253,1.8294849395802257,-0.8189463615065883
1683985138909764600,6.3871650390625,0.6867988704899461,1.8013286590326392,-0.865231752331763
1683985138919805400,6.397205810546875,0.6454640032821366,1.7598781586541454,-0.8539111614277571
1683985138929845900,6.407246337890625,0.5928984879844397,1.7318410873233505,-0.7861580848409502
1683985138939886600,6.417286865234375,0.5323858858211783,1.7054128647211002,-0.6413209438005222
1683985138949927300,6.42732763671875,0.4456150532609299,1.6512732506474752,-0.4048838615369953
1683985138959967900,6.437368408203125,0.3294916154705583,1.5709972382307844,-0.10085606586477598
1683985138970008800,6.4474091796875,0.13397860532421663,1.4680862425712513,0.2718317508053558
1683985138980049300,6.45744970703125,-0.21510553354280418,1.3235197066277595,0.7243063449395707
1683985138990089900,6.467490234375,-0.706549644470111,1.0967159272800207,1.2238047123600506
1683985139000130700,6.47753125,-1.156018733981067,0.7632226944242119,1.714628219429782
1683985139010171300,6.48757177734375,-1.5446597336429468,0.31583309177229435,2.177016735188341
1683985139020211900,6.4976123046875,-1.9767026901235578,-0.2348918916503611,2.6683709621927485
1683985139030252600,6.507653076171875,-2.3904542923612806,-0.7734880446108996,3.188598632870244
1683985139040293300,6.517693603515625,-2.5075049399552274,-1.1415128707898472,3.5792207717258324
1683985139050334100,6.527734619140625,-2.2901978493006787,-1.3550472260609445,3.7114496231773595
1683985139060374600,6.537775146484375,-1.9107025860234024,-1.3932189940062891,3.589259624475889
1683985139070415300,6.547815673828125,-1.5910484792129196,-1.1336574552496135,3.3306484220798835
1683985139080456100,6.5578564453125,-1.4225828647723422,-0.5467453003134615,2.9814269542105096
1683985139090496600,6.56789697265625,-1.2748280764063098,0.11715793597042885,2.5398972033913716
1683985139100537300,6.577937744140625,-1.007728457411567,0.4153823851790148,2.0707142353312276
1683985139110578100,6.587978515625,-0.6312134860274421,0.1945104599571131,1.6087820529610726
1683985139120618600,6.59801904296875,-0.2113844752038851,-0.3973751068499252,1.1803257465505492
1683985139130659600,6.608059814453125,0.16226524113167984,-1.1074008941692126,0.8192880155048914
1683985139140700100,6.6181005859375,0.3242852092573992,-1.8484706878052868,0.5434024333471004
1683985139150740600,6.62814111328125,-0.18428850175402908,-2.73091030118547,0.30565714836373115
1683985139160781600,6.638181884765625,-2.074232578306162,-3.8628873824547454,0.32625079155390035
1683985139170822100,6.648222412109375,-2.3641948699582573,-4.309620857230345,0.6464579106047605
1683985139180862900,6.65826318359375,-1.4181298016840664,-3.876907348598593,0.8590879440229471
1683985139190903500,6.668303955078125,-0.2612087130205151,-3.111053466811164,0.8207414148987249
1683985139200944000,6.678344482421875,0.5576553942480758,-2.2967395781610525,0.6678842305599264
1683985139210984900,6.68838525390625,0.9618191717698488,-1.457532882864172,0.4347939490245726
1683985139221025500,6.69842578125,1.0597921610938257,-0.6511678696557782,0.12334883214186586
1683985139231066300,6.708466796875,0.9827647208502014,0.08989524841016361,-0.25918531415223806
1683985139241106900,6.71850732421875,0.8472008109464975,0.7287569046891301,-0.6653608679721561
1683985139251147400,6.7285478515625,0.7361431121199403,1.2665977478759582,-1.0729250907726053
1683985139261188000,6.73858837890625,0.691448629091163,1.6870603560083575,-1.4338320493280026
1683985139271228800,6.748629150390625,0.7416478992036808,1.96102428425708,-1.6849757434509323
1683985139281269400,6.758669921875,0.8647086620567174,2.0279645920860845,-1.8011119364927717
1683985139291310300,6.768710693359375,1.045418739308405,1.8636493682430895,-1.8130850792781137
1683985139301350800,6.778751220703125,1.2530467510701009,1.5043058395298456,-1.801049232500935
1683985139311391400,6.788791748046875,1.4521071910776158,1.032011985877815,-1.7940400837742623
1683985139321432200,6.79883251953125,1.6305105686000076,0.5790596008608724,-1.8273019789063978
1683985139331472800,6.808873291015625,1.7801328898378848,0.3038644789587721,-1.9244145153647092
1683985139341513600,6.8189140625,1.865311145771267,0.2091321945255628,-2.053817987434224
1683985139351554200,6.82895458984375,1.8736617565238327,0.20140266403164173,-2.1601510046969996
1683985139361594800,6.8389951171875,1.7874016760878317,0.22278785714758495,-2.223090171875271
1683985139371635600,6.8490361328125,1.6485489605753234,0.23010063186567145,-2.2255957125282917
1683985139381676200,6.85907666015625,1.525028228711213,0.244821548574795,-2.1367564200455527
1683985139391717000,6.869117431640625,1.4113259316622875,0.27653980263075134,-2.0037970542840093
1683985139401757600,6.879157958984375,1.3230842351260987,0.3349170685657538,-1.8487418889939407
1683985139411798200,6.889198486328125,1.2592076062213098,0.4151077269954258,-1.6800662279702925
1683985139421839000,6.899239501953125,1.184609174680438,0.48100852963392904,-1.491315603271139
1683985139431879600,6.909280029296875,1.0892012117560688,0.5322723387982546,-1.2591731548248835
1683985139441920200,6.919320556640625,0.973699331178605,0.5638303756768837,-0.9989842177214744
1683985139451961000,6.929361328125,0.8468605876446729,0.5778903962321086,-0.7112717032459428
1683985139462001600,6.939402099609375,0.716560304226708,0.5600776672641798,-0.4211783706983902
1683985139472042400,6.94944287109375,0.5906820297892524,0.517564773488222,-0.12217968700013825
1683985139482083000,6.9594833984375,0.4773641825814999,0.45513916011758415,0.18334540732367638
1683985139492123600,6.96952392578125,0.3642923831468042,0.40866851808078186,0.47267052547490007
1683985139502164400,6.979564697265625,0.26033866414498147,0.40205860140044447,0.7543051243093176
1683985139512205000,6.98960546875,0.16661095611577043,0.4258623122167279,1.018419265739472
1683985139522245800,6.999646240234375,0.08447295430677498,0.4659442900992447,1.2695446013469136
1683985139532286400,7.009686767578125,0.021252155352355237,0.4938259124607448,1.5068213939057398
1683985139542327000,7.019727294921875,-0.026569962524209505,0.5048675537249212,1.7452137471352667
1683985139552367800,7.029768310546875,-0.062287688206047236,0.48469734199004244,1.98394286620837
1683985139562408400,7.039808837890625,-0.09636199485243885,0.42354106921962487,2.2376987934656594
1683985139572449200,7.049849609375,-0.13197416058594785,0.3187265397240749,2.496207475501489
1683985139582489800,7.05989013671875,-0.19565343846646457,0.23936462401759848,2.699239015535185
1683985139592530400,7.0699306640625,-0.31641173351658913,0.1976242065397797,2.7640814780762333
1683985139602571200,7.0799716796875,-0.47339567526561377,0.14172649374175728,2.7293081284000347
1683985139612611800,7.09001220703125,-0.6325520276629923,0.03220653535374798,2.6484065055527037
1683985139622652600,7.100052978515625,-0.751863360513699,-0.13236904163381683,2.573710918514128
1683985139632693200,7.110093505859375,-0.8154894112838491,-0.3253393172399645,2.503086089986023
1683985139642733700,7.120134033203125,-0.817011416020984,-0.5040559770116201,2.452691078364424
1683985139652774600,7.130175048828125,-0.7524143456032678,-0.6525650024189276,2.4381089209180193
1683985139662815200,7.140215576171875,-0.6469187737824595,-0.7690572738836152,2.4785163402708092
1683985139672855700,7.150256103515625,-0.5092564821689091,-0.8824596405680312,2.592878580219547
1683985139682896600,7.160296875,-0.3489125073164886,-1.0454130172823182,2.780774593401883
1683985139692937100,7.170337646484375,-0.16604539752550415,-1.3057384490893373,3.0175380705272365
1683985139702978000,7.18037841796875,0.029535174342840944,-1.6658420563583882,3.2602035998350587
1683985139713018600,7.1904189453125,0.201862216149554,-2.065894126910585,3.482399702159804
1683985139723059100,7.20045947265625,0.3207583129660399,-2.3623819351476008,3.6319859028252015
1683985139733100000,7.210500244140625,0.3783286511883356,-2.48853111263263,3.6933288573233
1683985139743140600,7.220541015625,0.412986219063268,-2.5309553146521035,3.7138056754639677
1683985139753181400,7.230581787109375,0.432081848274368,-2.445195197917335,3.6621015072074496
1683985139763221900,7.240622314453125,0.4163742959963921,-2.237130165078985,3.493852853719529
1683985139773262600,7.250662841796875,0.33860665558895203,-1.9196681976602017,3.16846609106426
1683985139783303300,7.260703857421875,0.20782595872302806,-1.5102729797788528,2.700555801499598
1683985139793343900,7.270744384765625,-0.012380443454391014,-1.0453071593469947,2.123434305154218
1683985139803384800,7.28078515625,-1.6978495122434527,-0.5412073135562175,1.2971644402995077
1683985139813425300,7.29082568359375,-3.283128738447863,-0.312698364420647,0.3678352236454766
1683985139823465900,7.3008662109375,-3.6294431686972737,-0.3756570815520482,-0.5123471617658338
1683985139833506700,7.3109072265625,-3.116786480018889,-0.6290245056152908,-1.2576625347291683
1683985139843547300,7.32094775390625,-2.2140688895035314,-0.9360837936375862,-1.9715285300559289
1683985139853588100,7.330988525390625,-1.3301122189178818,-1.1749830246323547,-2.626161098460189
1683985139863628600,7.341029052734375,-0.6118171809959788,-1.3315505982175653,-3.1612238883027164
1683985139873669300,7.351069580078125,-0.13724297295688867,-1.427012443543738,-3.5804352761014293
1683985139883710100,7.361110595703125,0.13163781165919977,-1.5315923690147244,-3.8744883537379637
1683985139893750600,7.371151123046875,0.2982631326075351,-1.6011362076408573,-3.983678341013572
1683985139903791600,7.38119189453125,0.42173558481515344,-1.4538068773182289,-3.9281976221859964
1683985139913832100,7.391232421875,0.5147867202843569,-1.0661792755986805,-3.7266178131195224
1683985139923872600,7.401273193359375,0.5529497265769647,-0.6101083756878158,-3.3533980846898706
1683985139933913600,7.41131396484375,0.49200153346962083,-0.26004695900043884,-2.7763938903706356
1683985139943954100,7.4213544921875,0.40712451943000916,-0.09018135066947605,-2.0839185713798027
1683985139953994900,7.431395263671875,0.32899862523687035,-0.035176277168651876,-1.378690958066209
1683985139964035600,7.441435791015625,0.2502273915498005,0.0016365050572925085,-0.7405066490010473
1683985139974076100,7.4514765625,0.18835699568998593,0.10075569155946808,-0.2650029659427035
1683985139984116900,7.461517333984375,0.18330311779485148,0.220835685747363,0.01727557166367519
1683985139994157600,7.471557861328125,0.25367760659967775,0.36236286170458565,0.052974224094504196
1683985140004198300,7.4815986328125,0.40946692234398613,0.5248260497107607,-0.14767360690117767
1683985140014238900,7.491639404296875,0.6602346897081605,0.723397255130356,-0.5581285953767404
1683985140024279600,7.501679931640625,0.9396604300751598,0.9253139495259731,-1.0759832859347165
1683985140034320300,7.511720703125,1.2348792552221541,1.1236362457559244,-1.654113769423768
1683985140044360900,7.52176123046875,1.469221353442317,1.336508274014736,-2.247165918358098
1683985140054401500,7.5318017578125,1.5373902321212325,1.566968440995242,-2.7484641075483514
1683985140064442300,7.5418427734375,1.4800487757350467,1.7978873252573557,-3.139795303318702
1683985140074482900,7.55188330078125,1.3763161896968799,2.020957946838325,-3.479839563399024
1683985140084523600,7.561924072265625,1.257999658478733,2.2173342705616124,-3.7700581550031385
1683985140094564300,7.571964599609375,1.1333665848064716,2.3592791557727297,-3.977573394798729
1683985140104604800,7.582005126953125,1.0087385177000459,2.3817672729554045,-4.092808723506324
1683985140114645600,7.592046142578125,0.875616788899218,2.317564964344733,-4.093802928861576
1683985140124686300,7.602086669921875,0.7763362526007135,2.228576660207877,-3.9637362958285287
1683985140134727100,7.61212744140625,0.6613415480058479,2.086531162154084,-3.7187876703095277
1683985140144767600,7.62216796875,0.4681624771330379,1.9496455192178725,-3.4291944503141263
1683985140154808200,7.632208740234375,0.2767401933492212,1.7625312806221463,-3.083216428637122
1683985140164849100,7.64224951171875,0.08364486686256209,1.4882731438143455,-2.63209795953795
1683985140174889600,7.6522900390625,-0.2226326465093465,1.1914253235581695,-2.186011791178434
1683985140184930600,7.662330810546875,-0.6671816109736163,0.8875951766471385,-1.6847391128929987
1683985140194971100,7.672371337890625,-1.1672406196582823,0.6634283065878278,-1.1079391241481809
1683985140205011600,7.682412109375,-1.6562650204134377,0.3906698227866617,-0.4720617533497131
1683985140215052500,7.692452880859375,-2.057055473353968,0.07801723473366859,0.2320916651814372
1683985140225093000,7.702493408203125,-2.3366236687261575,-0.2528924942080457,0.9101603029598865
1683985140235133900,7.7125341796875,-2.4971783159938306,-0.5200786590729832,1.5612528322673447
1683985140245174400,7.722574951171875,-2.4644856452372697,-0.6507625579931621,2.175637721961276
1683985140255215300,7.73261572265625,-2.2098042965552334,-0.6528453827458668,2.6741893290550993
1683985140265255900,7.74265625,-1.8726325034238585,-0.5733566284783681,3.012746572402827
1683985140275296400,7.75269677734375,-1.7055976391474763,-0.4776029587299752,3.212907314270737
1683985140285337300,7.762737548828125,-1.6810842752826733,-0.4418573378337752,3.1841998099907376
1683985140295377800,7.7727783203125,-1.6231026650773734,-0.6146831511789924,2.941762924157137
1683985140305418600,7.782819091796875,-1.6039080620977055,-0.9851903916274212,2.6017253398297404
1683985140315459200,7.792859619140625,-1.5128059386417534,-1.4317922593444903,2.2391502857247993
1683985140325499800,7.802900146484375,-1.201825857170023,-1.8674020766583646,1.8764057159752334
1683985140335540600,7.812941162109375,-0.7855433820794135,-2.295340538036931,1.5006506442612253
1683985140345581200,7.822981689453125,-0.694944500926985,-2.8432798386511045,1.0997955799769732
1683985140355622100,7.8330224609375,-1.4259994029444978,-3.6706409453202418,0.7869502307268575
1683985140365662600,7.84306298828125,-1.4224631785576016,-4.346327781755512,0.585418105010306
1683985140375703200,7.853103515625,-0.7823910713889497,-4.679056167614848,0.3791109324580229
1683985140385744000,7.86314453125,-0.014157771893984929,-4.553769111654294,0.1509214638164142
1683985140395784600,7.87318505859375,0.5815505384489277,-3.945529937558769,-0.1735820770008812
1683985140405825500,7.883225830078125,0.8996720909422633,-3.041657447812311,-0.5639350415437426
1683985140415866000,7.893266357421875,0.9786556958164245,-1.971712112412909,-0.9551373719825242
1683985140425906600,7.90330712890625,0.9225457310722442,-0.8797359466259903,-1.295558929467058
1683985140435947400,7.913347900390625,0.790927588970305,0.16679477678354143,-1.5736409426913438
1683985140445988000,7.923388427734375,0.6613674164087481,1.1055755615387794,-1.8104245663294012
1683985140456028800,7.93342919921875,0.5551352500795806,1.9032769203537834,-2.0355558395110345
1683985140466069400,7.9434697265625,0.4939837454875441,2.5025501250516293,-2.251292228771719
1683985140476110000,7.953510498046875,0.5037130118185955,2.8127646445087855,-2.4719653130134485
1683985140486150800,7.96355126953125,0.5919508933603578,2.7486138342846513,-2.7004418373269417
1683985140496191400,7.973591796875,0.7636790870959995,2.349576473167684,-2.913239002267824
1683985140506232200,7.983632568359375,0.9884005785711911,1.7170610427914896,-3.1160571575522815
1683985140516272800,7.993673095703125,1.2235594987833043,0.9711589813470577,-3.3109717368094103
1683985140526313400,8.0037138671875,1.4556348324043054,0.22705078130671996,-3.497449397953791
1683985140536354200,8.013754638671875,1.6740390063885888,-0.393014908016555,-3.677050113728097
1683985140546394800,8.023795166015624,1.8667480945685089,-0.81755828844324,-3.8321456908163056
1683985140556435600,8.0338359375,1.9824806451345638,-0.9927883148172904,-3.906837940170942
1683985140566476200,8.043876708984374,1.990601181917675,-0.9679994582879541,-3.8817453383632237
1683985140576516800,8.053917236328125,1.918000817366669,-0.8364048004549968,-3.8182332515460145
1683985140586557600,8.0639580078125,1.798702478469401,-0.6854791642649495,-3.715610027314646
1683985140596598200,8.07399853515625,1.6601896286997262,-0.5099668503759911,-3.5458602905393937
1683985140606639000,8.084039306640625,1.5244451762529054,-0.32669448851359584,-3.3034224511147428
1683985140616679600,8.094080078125,1.4322108030246858,-0.16239452358851467,-2.9799025058510935
1683985140626720400,8.104120849609375,1.4133758545305293,-0.00796699531285755,-2.6041274069843285
1683985140636761000,8.114161376953126,1.4464100598758232,0.1410369872966172,-2.1918706894451705
1683985140646801600,8.124201904296875,1.5054723023749945,0.2510538100749498,-1.759368181118333
1683985140656842400,8.134242919921874,1.56047880641537,0.2910242081050028,-1.324966192321381
1683985140666883000,8.144283447265625,1.594695687132031,0.22289943695893064,-0.8942105174369688
1683985140676923800,8.15432421875,1.5946680307031345,0.0972232819455871,-0.5065752268676172
1683985140686964400,8.16436474609375,1.581225156742632,-0.002166748164629714,-0.13654321434740452
1683985140697005000,8.1744052734375,1.5578032732480604,-0.02047443398621745,0.240180194302716
1683985140707045800,8.1844462890625,1.5065536499192165,0.027615547031447637,0.640570402010293
1683985140717086400,8.19448681640625,1.411690950337101,0.04631328573394271,1.0424232482537268
1683985140727127200,8.204527587890626,1.2683124541598456,-0.012024879400630998,1.4106547832858285
1683985140737167800,8.214568115234375,1.0993669034434748,-0.12082767487485298,1.7464923857896637
1683985140747208600,8.224609130859376,0.936698853894214,-0.21806049343296827,2.0905683040814087
1683985140757249200,8.234649658203125,0.7812259792863666,-0.24185657504322242,2.4094905853366284
1683985140767289800,8.244690185546874,0.6221699713959485,-0.17080593113132858,2.642556428902974
1683985140777330600,8.25473095703125,0.45461058623861417,-0.04076385496388245,2.770679235374278
1683985140787371200,8.264771484375,0.2679764627174033,0.06470966334529997,2.765073299309736
1683985140797412000,8.2748125,0.06267285345594173,0.10293483733803276,2.622218370367607
1683985140807452600,8.28485302734375,-0.14109274746489403,0.10547828679147182,2.3371126651412837
1683985140817493200,8.2948935546875,-0.3153508305606592,0.10155582412961313,1.9416615963236208
1683985140827534000,8.304934326171875,-0.449454903737136,0.07013511649918812,1.4814457892835433
1683985140837574600,8.31497509765625,-0.5154809951110209,-0.016992568891033608,1.0095450878566432
1683985140847615400,8.325015869140625,-0.5037720799435349,-0.15246772767248745,0.5858819484025444
1683985140857656000,8.335056396484376,-0.39753484725114985,-0.31760501876147995,0.2595221103281409
1683985140867696600,8.345096923828125,-0.19367627803408832,-0.4773788452099591,0.03475046159823098
1683985140877737400,8.3551376953125,0.08386451009152189,-0.6086349486356887,-0.10890355718653764
1683985140887778000,8.365178466796875,0.40803879492203354,-0.704714775036891,-0.18716391915896904
1683985140897818800,8.37521923828125,0.7421904803976044,-0.7539796828024198,-0.20916391900653636
1683985140907859400,8.385259765625,1.0907498598478769,-0.8115463257706019,-0.19924321773952428
1683985140917900000,8.39530029296875,1.4385221004864923,-0.9321594238322666,-0.16365249446571237
1683985140927940800,8.405341064453125,1.7597254514889344,-1.0793943405046562,-0.14075002074228246
1683985140937981400,8.4153818359375,2.0063967704478136,-1.1714277267039637,-0.20468348255405286
1683985140948022200,8.425422607421876,2.112405777154488,-1.1458587646997538,-0.3884882927201601
1683985140958062800,8.435463134765625,2.0750312805679045,-1.0482692717937825,-0.6306761504253711
1683985140968103600,8.44550390625,1.9483666418948815,-0.9769611359331977,-0.8574652670931047
1683985140978144200,8.455544677734375,1.7809705734300398,-0.9106025694733684,-1.0813953875048934
1683985140988184800,8.465585205078124,1.6096920967331407,-0.7943439484773505,-1.2818306684029697
1683985140998225600,8.4756259765625,1.4566226005991683,-0.5756969452417935,-1.4614588021944759
1683985141008266200,8.48566650390625,1.2995821238368543,-0.33134841919956876,-1.6438690422497024
1683985141018307000,8.495707275390625,1.1204855442677357,-0.11414814009636107,-1.8274679183183038
1683985141028347600,8.505748046875,0.9264054894534881,0.08045005799550599,-2.006908416723686
1683985141038388400,8.515788818359376,0.7376717926561714,0.22848319998773467,-2.1743767262610465
1683985141048429000,8.525829345703125,0.5496659277449097,0.3205003738919093,-2.312078237612638
1683985141058469600,8.535869873046876,0.34348022950868834,0.3733415603439543,-2.4010655881165754
1683985141068510400,8.545910888671875,0.15269023193448641,0.4133377075444619,-2.446523427973508
1683985141078551000,8.555951416015626,0.0013016759492423702,0.45013237011929297,-2.4616346358923042
1683985141088591800,8.5659921875,-0.10304588071592555,0.5078563689941812,-2.459724187776669
1683985141098632400,8.57603271484375,-0.1442868113461457,0.5197353362849944,-2.42935705187471
1683985141108673200,8.586073486328125,-0.09267395733333124,0.498048782442627,-2.402066469111997
1683985141118713800,8.5961142578125,0.06263422967292982,0.4625186920206525,-2.369520664181948
1683985141128754400,8.60615478515625,0.2992922363878337,0.3707237244980512,-2.288464069307591
1683985141138795200,8.616195556640625,0.5697633027653994,0.2159433365941634,-2.148940563201225
1683985141148835800,8.626236083984375,0.7990519402759656,0.12770748145693384,-1.9383091928041543
1683985141158876600,8.636277099609375,0.9204968214488511,0.06756019597336917,-1.6533215045893352
1683985141168917200,8.646317626953126,0.8840815424297501,0.056205749520909655,-1.26721346380665
1683985141178958000,8.6563583984375,0.6803162098281299,-0.01270771037291551,-0.7878979445895959
1683985141188998600,8.66639892578125,0.38207703838103096,-0.037197113141475946,-0.3069018423701925
1683985141199039200,8.676439453125,0.08964711432196644,-0.034518241813526654,0.08539533617095679
1683985141209080000,8.68648046875,-1.1652810573680181,0.6138076782513797,1.344581842598054
1683985141219120600,8.69652099609375,-0.7710407972653462,0.6833782194378782,1.0435080528307947
1683985141229161400,8.706561767578124,-0.24010598654824775,0.8251848221553402,0.4075162113572646
1683985141239202000,8.716602294921875,0.3439824581077136,1.5195951462122415,-0.3652423618799121
1683985141249242800,8.726643310546875,0.7300483584016821,1.987071514209302,-0.743399381632938
1683985141259283400,8.736683837890626,1.0297111272642767,1.872539520206214,-0.7783122061567753
1683985141269324000,8.746724365234375,1.4749978781276156,1.474448204009354,-0.7774938343838576
1683985141279364800,8.75676513671875,2.0118291378110906,1.060098648145563,-0.7654459478257603
1683985141289405400,8.7668056640625,2.207802295597035,0.7715358734470936,-0.5711228847545922
1683985141299445900,8.776846435546876,1.91064512730182,0.31459808353775665,-0.2837151886160598
1683985141309486800,8.78688720703125,1.2134652137789215,-0.1157140730581155,0.07609975343075477
1683985141319527300,8.796927734375,0.6484820842525819,-0.3085536955874091,0.4747247695227098
1683985141329568200,8.806968505859375,0.3583710194849021,-0.3753948210814324,0.9036898611921675
1683985141339608800,8.817009033203124,0.30593836295073223,-0.26182651515475724,1.2414191959990797
1683985141349649600,8.827050048828125,0.2915061711412319,-0.21888351443676926,1.528706312154447
1683985141359690200,8.837090576171875,0.27952778325831085,-0.25088691711466754,1.7772636413192753
1683985141369730700,8.847131103515625,0.08735930928131434,-0.2214069365248788,1.7520436047153305
1683985141379771600,8.857171875,-0.22815680504121738,-0.26938629144732107,1.5398393869186
1683985141389812100,8.867212646484376,-0.676657080626964,-0.2541208267866413,1.1511502266215088
1683985141399853000,8.87725341796875,-1.0142571926553228,-0.1424102783670999,0.5511689782697679
1683985141409893600,8.8872939453125,-1.1720016002241103,0.06305122361265407,-0.04061663144190128
1683985141419934400,8.897334716796875,-0.98151803011858,0.25937652594449484,-0.38434165703468637
1683985141429975000,8.907375244140624,-0.4825041293400973,0.5044012069756951,-0.5223836900194682
1683985141440015800,8.917416259765625,0.05327177064923673,0.736567497305323,-0.47396785023660193
1683985141450056400,8.927456787109374,0.5427999496365524,0.9849023818593367,-0.27368235594484297
1683985141460096900,8.937497314453125,1.004842877270578,1.1371994018493266,0.01373676954625071
1683985141470137800,8.9475380859375,1.4850120544637637,1.1464395522377566,0.4292222260905874
1683985141480178400,8.957578857421876,2.088174820085422,1.0691041945776627,0.799246072782268
1683985141490219200,8.96761962890625,2.4324226379199367,0.8755083084510844,1.1168692113052594
1683985141500259800,8.97766015625,2.4734358787299806,0.7098321915321738,1.3390476703156595
1683985141510300600,8.987700927734375,2.169050216758391,0.5314569473119448,1.425177931791541
1683985141520341200,8.997741455078126,1.885945200791645,0.4883861541256412,1.2263088225767067
1683985141530381700,9.0077822265625,1.7179543971132574,0.4916696549014997,1.1498054265592137
1683985141540422600,9.017822998046874,1.5071339608512404,0.5357122420573606,1.1571193931852584
1683985141550463200,9.027863525390623,1.1780347823899437,0.6051893233622698,1.0614031552631984
1683985141560504000,9.037904296875,0.8525687455479256,0.668377876348618,0.8766387700521631
1683985141570544600,9.047945068359375,0.7362900973872122,0.7609691620672607,0.7001554965888062
1683985141580585400,9.05798583984375,0.6798604726854585,0.7659254074165177,0.5594591497847751
1683985141590626000,9.0680263671875,0.6998572348629047,0.6857271192597435,0.8590213656262464
1683985141600666600,9.07806689453125,0.6854774951988452,0.4436903001108777,1.8767873048062842
1683985141610707400,9.088107666015626,0.5369427203551621,0.3524007797386196,2.7574856279599134
1683985141620748000,9.0981484375,0.3826597930295165,0.3753194808002444,3.322870492906444
1683985141630788800,9.108189208984374,0.20091700549381195,0.4405136108367817,3.6762993334308756
1683985141640829400,9.118229736328123,0.010801911378698372,0.41682338702065014,3.9259524344987047
1683985141650870200,9.1282705078125,-0.25559365750415214,0.3597106933988105,4.143557071816907
1683985141660910800,9.138311279296875,-0.5434929132435824,0.08541679385256225,4.411748409320183
1683985141670951300,9.148351806640624,-0.998044252484294,-0.47999382009514396,4.6122851371010505
1683985141680992200,9.158392578125,-1.5235688686228424,-1.3198528289819191,4.530865669308506
1683985141691032800,9.16843310546875,-1.926190376290129,-2.1571445465148256,4.159457206726452
1683985141701073600,9.178473876953126,-2.2182514668335815,-2.918077468918016,3.552561044694364
1683985141711114200,9.1885146484375,-2.717849492851333,-3.5001296997188436,3.039326667761373
1683985141721154700,9.19855517578125,-3.3447518348533247,-3.7531042099102367,2.501129865689338
1683985141731195600,9.208595947265623,-3.288271427081086,-3.0564661025429656,1.3091216086988622
1683985141741236100,9.218636474609376,-2.6923840046526504,-1.4838361740402644,-0.2104157655646188
1683985141751277000,9.228677490234375,-1.7448306085534335,-0.4604310988231804,-1.181390046925402
1683985141761317600,9.238718017578124,-0.9674087762849312,0.31641292563321777,-1.8810708522384627
1683985141771358400,9.2487587890625,-0.48934164634934746,0.9288978575733043,-2.3113102911327728
1683985141781399000,9.25879931640625,-0.34567651158223117,1.3632669448550425,-2.4663448333029825
1683985141791439800,9.268840087890624,-0.33139616253448956,1.5171689987575212,-2.505513668039988
1683985141801480400,9.278880859375,-0.27972576015547124,1.4052753449978437,-2.336350917717221
1683985141811520900,9.28892138671875,-0.03543579581322951,1.0923604966350733,-2.0975358485126336
1683985141821561800,9.298962158203125,0.44433867923670806,0.6837739945396716,-1.7370278833884076
1683985141831602400,9.309002685546876,1.013140440138201,0.15573310850782773,-1.4981281757920957
1683985141841643200,9.319043701171877,1.4518729448563281,-0.5059471128620806,-1.4000277518352957
1683985141851683800,9.329084228515624,1.8346202374363603,-1.1433839796002643,-1.4238538741907822
1683985141861724600,9.339125,2.1640512944002492,-1.6705789566279898,-1.54995250698592
1683985141871765200,9.34916552734375,2.4772248267271264,-2.0158252715847236,-1.7620444296964903
1683985141881805700,9.3592060546875,2.763812303584454,-2.04049873354645,-2.093170165828921
1683985141891846600,9.3692470703125,3.0663332939319403,-1.634778022667874,-2.454100131903645
1683985141901887200,9.37928759765625,3.278517723230682,-0.9018735885643783,-2.72209286677936
1683985141911928000,9.389328369140625,3.41657257078962,-0.37774181357471426,-2.5992577075692043
1683985141921968600,9.399368896484376,3.3557705879398325,-0.13400554655745398,-2.5438113211396325
1683985141932009400,9.409409912109377,3.2610156537171724,0.0016441345559156807,-2.489768505012951
1683985141942050000,9.419450439453126,3.143074035526644,-0.03273582471966292,-2.4837393759299404
1683985141952090800,9.4294912109375,2.968423366539418,-0.03598403937196114,-2.4769277573154227
1683985141962131400,9.43953173828125,2.802517652411196,0.05660057078987682,-2.5587193966256634
1683985141972172000,9.449572265625,2.634279489336097,0.09940338146528255,-2.7038199901707096
1683985141982212800,9.45961328125,2.5601427553765537,0.3194961547158438,-2.640499353478183
1683985141992253400,9.46965380859375,2.4971232414284406,0.5160226821724594,-2.7129578590768575
1683985142002294200,9.479694580078124,2.419662952280573,0.7657098769619374,-2.741094589296283
1683985142012334800,9.489735107421875,2.3073294162376734,1.0161151884641582,-2.755297899146962
1683985142022375600,9.49977587890625,2.190679311699251,1.2387313841710885,-2.7761824130529273
1683985142032416200,9.509816650390626,2.1269896029339637,1.2352924345468563,-2.677967548384443
1683985142042457000,9.519857421875,2.157158374708553,0.9942770005824972,-2.585559129606222
1683985142052497600,9.52989794921875,2.161068916278753,0.6715536117301814,-2.562600612830088
1683985142062538200,9.5399384765625,2.2262506485454794,0.37966728202388766,-2.5381875038642248
1683985142072579000,9.5499794921875,2.29227733624547,0.23793315875544435,-2.396397590589674
1683985142082619600,9.56002001953125,2.419014930765361,0.23156738281270425,-2.090206146171753
1683985142092660400,9.570060791015624,2.7414574624738957,0.16386318219284166,-1.2511789797491806
1683985142102701000,9.580101318359375,3.082929611111915,0.10328483591363823,0.1340363621676307
1683985142112741800,9.59014208984375,1.798983812386829,-0.051747322137370655,2.6122477053694886
1683985142122782400,9.600182861328124,0.6533670425482048,-0.11625289916228158,5.087323188714199
1683985142132823200,9.6102236328125,1.1322213412234639,-0.031032562240826102,5.745370864719037
1683985142142863800,9.62026416015625,2.0077059267416306,-0.037639617859087926,6.409810543166314
1683985142152904400,9.6303046875,2.603289604168126,0.32296180723483786,6.22312784200596
1683985142162945200,9.640345703125,3.3532152174540815,0.5175294875832079,6.3629593848687795
1683985142172985800,9.65038623046875,2.627477169069655,0.3074588774861491,6.4254765510508784
1683985142183026600,9.660427001953124,1.7338098288378527,0.24246311190716544,6.659412384147802
1683985142193067200,9.670467529296875,0.7443358897736325,0.13374423970226604,6.448384284992775
1683985142203108000,9.68050830078125,0.3420879840515415,0.0002632141073668673,5.426283836364349
1683985142213148600,9.690549072265624,0.45482766617698905,-0.33254623414460155,3.2923443317667718
1683985142223189200,9.700589599609376,0.47043952354004415,-0.9210224150786194,1.5442340372908463
1683985142233230000,9.71063037109375,-0.19420465834010134,-1.374979972850074,0.666398167588005
1683985142243270600,9.7206708984375,-0.8706518411909272,-1.382295608430403,-0.08913493146709917
1683985142253311400,9.7307119140625,-0.8798650503191251,-1.0963716505868422,-0.7965210676490377
1683985142263352000,9.74075244140625,-0.45230072722190734,-0.728997230386299,-1.290710925978728
1683985142273392800,9.750793212890626,-0.03707394000388961,-0.5380620956369748,-1.6082348823313626
1683985142283433400,9.760833740234377,0.5623103380121209,-0.5559597016166244,-1.733450174205213
1683985142293474200,9.77087451171875,1.1396026609802505,-0.576116561865168,-1.710493922187874
1683985142303514800,9.780915283203123,1.780945539388099,-0.27042007437313514,-1.3666446208663523
1683985142313555400,9.790955810546874,2.3568775654573515,0.22498035418923734,-0.7484282255013313
1683985142323596200,9.80099658203125,2.4789338111874244,0.8427209853995661,0.1545112134086294
1683985142333636800,9.811037109375,1.6595338583438948,1.2278461455324905,1.4649693967629231
1683985142343677600,9.821078125,-0.18486028901995608,1.2411794663376794,2.626331806359721
1683985142353718200,9.83111865234375,-1.3662517069875193,0.9959535599224596,3.486366748744096
1683985142363759000,9.841159423828126,-1.179673194782386,0.6583070753420044,3.7338495255772433
1683985142373799600,9.851199951171877,-0.6248126029301556,0.25521469112110207,3.4518184661734255
1683985142383840400,9.86124072265625,-0.369534015540324,-0.1942443849075284,2.7995595931935227
1683985142393881000,9.871281494140623,-0.14947253458457807,-0.47095394129194845,2.2023971080730202
1683985142403921800,9.881322265625,0.14445209489289568,-0.4300193786146156,1.8381593228395563
1683985142413962400,9.89136279296875,0.38990098245119315,-0.1585607529484856,1.6393148897443917
1683985142424003000,9.9014033203125,0.5787745117132247,0.2662715911058861,1.3548872469721485
1683985142434043800,9.9114443359375,0.7158231139696882,0.6079301835131101,1.1701231002697272
1683985142444084400,9.92148486328125,0.3821349143306251,0.821680069050058,0.9383001325727763
1683985142454125200,9.931525634765626,-0.33301565042773296,0.8772153853489998,0.6608088015857039
1683985142464165800,9.941566162109376,-0.706733584426611,0.7107038498043657,0.47650456416871967
1683985142474206600,9.95160693359375,-0.7699071763605844,0.39709472653747085,0.3427596091895183
1683985142484247200,9.961647705078123,-0.7704179287246987,0.10215568532729041,0.2377572059474265
1683985142494288000,9.9716884765625,-0.7965079544985394,-0.24301147459756817,0.2512714863909439
1683985142504328600,9.98172900390625,-0.6731830238796783,-0.48575210588200485,0.3862192630306337
1683985142514369200,9.99176953125,-0.48135161392373244,-0.5530939102910675,0.6363489627597527
1683985142524410000,10.001810546875,-0.07917588963585279,-0.41043186176524665,0.7811918259662
1683985142534450600,10.01185107421875,0.19987809657616953,-0.23756980898432123,0.6492373943012025
1683985142544491400,10.021891845703124,0.2665337920235514,-0.041630745005193516,0.4998598098126761
1683985142554532000,10.031932373046876,0.21409571179339545,0.07709312436339681,0.3806905746075238
1683985142564572800,10.04197314453125,-0.007006883758100322,0.12603664394805134,0.2197732926925905
1683985142574613400,10.052013916015625,0.05137300491475043,0.08148670207553389,0.20331406584759903
1683985142584654300,10.0620546875,0.10743528614281513,0.027297019893828923,0.23602771753231513
1683985142594694800,10.07209521484375,0.3237518669083062,-0.012148857218623079,0.22702598569393326
1683985142604735600,10.082135986328124,0.6966372131599003,0.011299133129308872,0.12848711009501934
1683985142614776200,10.0921767578125,0.6361908912591707,-0.014353752279217155,-0.019396066611420366
1683985142624816800,10.10221728515625,0.38330984105917676,-0.07691288003752329,-0.15418744087706762
1683985142634857600,10.112258056640623,0.19870096453099104,-0.07174873353050912,-0.12324690822919553
1683985142644898200,10.122298583984374,0.021847456677288768,-0.05699729934067808,-0.02771139151059954
1683985142654939100,10.13233935546875,-0.26205858589770037,-0.08561706541632234,0.1494643689104153
1683985142664979600,10.142380126953125,-0.3783990441712842,-0.18169975277184422,0.4113318920899586
1683985142675020500,10.1524208984375,-0.29619249706855644,-0.2543401717943523,0.5666444301175225
1683985142685061000,10.16246142578125,-0.012688249285108746,-0.27466487892475433,0.5955824851543181
1683985142695101600,10.172501953125,0.1473761797219359,-0.2829914091673004,0.5576734543103352
1683985142705142400,10.18254296875,0.19964820139695375,-0.14264106755687525,0.3050558567320973
1683985142715183000,10.19258349609375,0.35295468557036724,-0.0066318512003221775,0.12572503077903505
1683985142725223900,10.202624267578123,0.4285775126639857,0.060296058676065425,-0.06742453569351206
1683985142735264400,10.212664794921874,0.3286557197764978,0.06290721886371355,-0.2297325135994699
1683985142745305300,10.22270556640625,0.24103650455757894,0.03934383386934804,-0.24289655689985937
1683985142755345800,10.232746337890624,0.24753466247474995,0.0014114379007082694,-0.1869444847330028
1683985142765386600,10.242787109375,0.07336299131318993,-0.067562103361078,-0.2363817692220461
1683985142775427200,10.25282763671875,0.010871827694068753,-0.14365291584031048,-0.11410284054302122
1683985142785468100,10.262868408203126,-0.008806377599854663,-0.20558452619133108,-0.012540817100910973
1683985142795508600,10.272908935546877,0.10827408739070092,-0.22240924848458948,0.0991055966331613
1683985142805549600,10.282949951171876,0.13068662592461588,-0.14875125877127007,0.08269691465826073
1683985142815590100,10.292990478515623,0.31322115662642874,0.09876346585662862,0.10349273679904927
1683985142825630600,10.303031005859374,0.37003269806166955,0.31688404087181066,0.15972042084771007
1683985142835671600,10.31307177734375,0.2580825386778441,0.3981580735273166,0.14600944522786793
1683985142845712000,10.323112548828124,0.10764840996870827,0.38829898832655096,0.0982849599000414
1683985142855752900,10.3331533203125,0.11353769163860761,0.2875204086569703,0.06668448448792764
1683985142865793500,10.34319384765625,0.021021150094810398,0.20374584201381174,0.03526306140066149
1683985142875834300,10.353234619140624,0.007437661235455722,0.08458614345013393,-0.038240909565347724
1683985142885874900,10.363275146484376,0.11514206223395794,-0.028638839832770553,-0.09182262425695796
1683985142895915600,10.373316162109376,0.2063947170208954,-0.16310024254385305,-0.11228013029537638
1683985142905956300,10.383356689453125,0.20353354512766172,-0.3020696639551714,-0.06760740286537552
1683985142915997100,10.3933974609375,0.1351882963395147,-0.3749942779093278,0.0028700828673654116
1683985142926037600,10.40343798828125,0.10922927398837849,-0.3760519028338704,0.1264491081520245
1683985142936078600,10.41347900390625,0.08930370199414066,-0.2500238417945389,0.19601249710225352
1683985142946119100,10.42351953125,-0.045145805959712064,-0.09552764897335346,0.16784596444734537
1683985142956159600,10.43356005859375,-0.06098993864211394,0.030426979114074323,0.1564650535045034
1683985142966200600,10.443600830078124,0.1853849289906093,0.151993751517944,0.13151693342209803
1683985142976241100,10.453641357421876,0.24130535118181962,0.16815280918845063,0.09369111068246061
1683985142986281900,10.463682373046876,0.278869211695903,0.18184661876574149,0.11364531519698819
1683985142996322600,10.473722900390625,0.27220469721792856,0.15071487409785078,0.10554385174976207
1683985143006363300,10.483763671875,0.23362721510033577,0.14362716677994608,0.1822769640642369
1683985143016403900,10.49380419921875,0.11253553636679807,0.12712573997691268,0.24321126939207158
1683985143026444600,10.50384521484375,0.12388029697161816,0.14146041861340455,0.21358728414456507
1683985143036485300,10.5138857421875,0.23730990285887904,0.16503810880884068,0.184795618215538
1683985143046526100,10.523926513671874,0.15787845850335536,0.1719226837913768,0.17366456967019903
1683985143056566600,10.533967041015623,0.14434748876564463,0.15054035195999585,0.16070866590005695
1683985143066607600,10.544008056640624,0.021602153767516768,0.058906555235035546,0.10801196111792336
1683985143076648100,10.554048583984375,-0.051797822169023046,-0.09020423886574826,0.03452587130548804
1683985143086688900,10.56408935546875,-0.04578644054459784,-0.18521785726040488,-0.04066133491141111
1683985143096729600,10.5741298828125,-0.058546245085841886,-0.21749591816088354,-0.180644988941307
1683985143106770100,10.58417041015625,-0.00808396934216292,-0.13871002205953017,-0.18687272069898433
1683985143116810900,10.59421142578125,-0.1055352984661585,-0.023861885104073218,-0.12347030635525395
1683985143126851600,10.604251953125,-0.18554431210170183,0.03685283678506035,-0.041501045149854636
1683985143136892300,10.614292724609374,-0.20569439235089346,0.04659748067630037,-0.0027818680065441297
1683985143146932900,10.624333251953123,-0.18347057700289737,0.09337043755312682,0.02415752407533466
1683985143156973700,10.6343740234375,-0.1412188410558089,0.19304370875371366,0.0889728069015466
1683985143167014300,10.644414794921875,0.023457080115986424,0.3094854354449477,0.14880609502589673
1683985143177055200,10.65445556640625,0.06617534143419246,0.3507957458999427,0.17856001861541676
1683985143187095700,10.66449609375,0.0891790092174428,0.3301124571956596,0.17928051944435028
1683985143197136300,10.67453662109375,0.034896895176345116,0.2580299378770255,0.10261774057477134
1683985143207177100,10.68457763671875,-0.0317600668492824,0.09325790401348437,0.07780408849233159
1683985143217217600,10.6946181640625,-0.07161793113634377,-0.08255958560860872,0.061674356341659645
1683985143227258600,10.704658935546876,-0.13262116907291202,-0.27178382871606105,0.10514211642495355
1683985143237299100,10.714699462890623,-0.19498670101776863,-0.38953399654339477,0.15751075745653226
1683985143247340000,10.724740234375,-0.04611575617985443,-0.3331575394470046,0.12074136739360337
1683985143257380600,10.734781005859375,-0.12254673228259165,-0.19012451162807656,0.0605189799955146
1683985143267421400,10.74482177734375,-0.1455547512101655,-0.13151550292055392,0.11326622952529435
1683985143277461900,10.7548623046875,-0.26410701881801124,-0.03358745585726444,0.08144044881073242
1683985143287502800,10.764903076171874,-0.48534667489163297,-0.04534149174729077,0.08179807661138853
1683985143297543300,10.77494384765625,-0.39526167512408444,-0.06384372718878965,0.09225344664743297
1683985143307584200,10.784984619140625,-0.3432138861325011,0.0005569457972075492,-0.014251947326364943
1683985143317624800,10.795025146484376,-0.34379348142719485,0.0569152832423185,-0.043229818300708
1683985143327665600,10.80506591796875,-0.2419952153262893,0.055691719105523646,0.07834792121896557
1683985143337706200,10.8151064453125,-0.42384323489289905,-0.018428802563843966,0.0566360950563603
1683985143347747000,10.8251474609375,-0.7540901900346493,-0.07692527767820347,0.10676407809839553
1683985143357787600,10.83518798828125,-0.8024935722600773,-0.09901905057737001,0.30263018613943177
1683985143367828100,10.845228515625,-0.7810838222697686,-0.07352066038454771,0.5077152254146398
1683985143377869000,10.855269287109374,-0.7435870170932808,-0.07403469086401852,0.5951654910320279
1683985143387909600,10.86531005859375,-0.7102003099037203,-0.05073356640304748,0.7572555542783936
1683985143397950400,10.875350830078125,-0.7565669415873668,-0.03937435153590409,0.8253223895890337
1683985143407991000,10.885391357421875,-0.9933568237347865,0.06373596197343306,0.817291974990851
1683985143418031800,10.89543212890625,-1.252716779769521,0.1978855132946167,0.7950143814135927
1683985143428072400,10.90547265625,-1.203092098369692,0.3810052870563877,0.8284692764286515
1683985143438113200,10.915513671875,-1.2348928451066563,0.5398187637050663,0.9200634956193287
1683985143448153800,10.92555419921875,-1.1887984275502488,0.6330595017352897,1.0381791591898475
1683985143458194600,10.935594970703123,-0.9810503720046266,0.7636957168010395,1.2160809041436271
1683985143468235200,10.945635498046874,-0.7180126308610204,0.8460645675445823,1.2630469798502963
1683985143478276000,10.955676513671875,-0.7391606569440261,0.9595546723659901,1.156339168457823
1683985143488316600,10.965717041015624,-0.8596284986254272,0.9538822172559498,1.0595834255020413
1683985143498357400,10.9757578125,-0.9261717797699203,0.86770725244793,0.7781031132101799
1683985143508398000,10.98579833984375,-1.0102539063589326,0.6415328978596815,0.5113053321598039
1683985143518438800,10.995839111328126,-0.8698794244579111,0.47137641904838834,0.4068837165299848
1683985143528479400,11.0058798828125,-0.8334863782886778,0.3429698944487649,0.2643241882546539
1683985143538520200,11.015920654296876,-0.7490905523541748,0.1942176819827142,0.29155015953790897
1683985143548560800,11.025961181640625,-0.7459382413984845,0.05134391786894423,0.4782524110118092
1683985143558601400,11.036001708984376,-0.8936467171193929,-0.21706104265867557,0.5377967357618407
1683985143568642200,11.046042724609377,-0.9386110901555116,-0.45816040050490797,0.6372411252559445
1683985143578682800,11.056083251953124,-0.861399412121187,-0.5337781907906086,0.7423040866463256
1683985143588723600,11.0661240234375,-0.7886184453776222,-0.5348520278397532,0.6675395965414443
1683985143598764200,11.07616455078125,-0.5891464949402783,-0.3964815140609984,0.5354831217223268
1683985143608805000,11.086205322265624,-0.1568244099298311,-0.1718215942969848,0.6324052809711819
1683985143618845600,11.09624609375,0.1906709073868143,0.06241512305169899,0.6992120743484083
1683985143628886400,11.106286865234376,0.5693851113652674,0.38054180146882705,0.7004215717086254
1683985143638927000,11.116327392578125,0.7713642715538902,0.5841550827599764,0.6548168660087761
1683985143648967900,11.1263681640625,0.9291714430240804,0.7428827285391956,0.5321228503230213
1683985143659008400,11.136408935546877,1.100840806864182,0.7876272201735555,0.509793281626794
1683985143669049300,11.14644970703125,1.128262758338204,0.6897439955969877,0.512610196933091
1683985143679089800,11.156490234375,1.0579558611242108,0.40637302413627047,0.4755861759857302
1683985143689130600,11.166531005859374,1.0404217243237113,0.009565353380009528,0.49744987484070197
1683985143699171200,11.176571533203123,1.1272878645386657,-0.4574365616320897,0.5501677990617386
1683985143709211800,11.1866123046875,1.360790967814963,-0.7200622558976384,0.7093441486638968
1683985143719252600,11.196653076171875,1.6546454429339932,-0.7982988356533888,0.8756208420126753
1683985143729293200,11.206693603515625,1.9854292869704742,-0.6978321075054327,1.0212888717572624
1683985143739334100,11.216734375,2.258742332581428,-0.47673225404653985,1.0778405665968394
1683985143749374600,11.226775146484377,2.4498648643059915,-0.39826583851616226,1.1608169078450965
1683985143759415500,11.23681591796875,2.508667945768807,-0.4002866743552219,1.2182896135510553
1683985143769456000,11.2468564453125,2.4722929000386134,-0.2651700972578312,1.1113414762923197
1683985143779496900,11.256897216796874,2.397230148281884,-0.11487007140644734,0.9741017818449693
1683985143789537500,11.266937744140623,2.360076904208625,0.0004701612910781482,0.8352254628545577
1683985143799578300,11.276978759765624,2.4058423042404486,0.07869529723791988,0.6400490999382105
1683985143809618900,11.287019287109375,2.414218902600144,0.1298398972075294,0.49755048749043074
1683985143819659600,11.29706005859375,2.3600149153551815,0.011120796115058389,0.33247029775564374
1683985143829700300,11.3071005859375,2.2124822139362945,-0.10943889627828472,0.17902278909495972
1683985143839741100,11.3171416015625,1.9276571273711618,-0.3103656768399302,0.028151512190706364
1683985143849781600,11.32718212890625,1.764492988620463,-0.46023082742916865,-0.024992704283719303
1683985143859822600,11.337222900390625,1.7681167127610393,-0.5117273331454435,0.009435653692337292
1683985143869863100,11.347263427734376,1.8477308750345947,-0.41060733795746646,0.10185682761609088
1683985143879903900,11.35730419921875,1.8280825615919978,-0.14317321784567572,0.1537828445512239
1683985143889944600,11.367344970703124,1.549537301189601,0.14211940764736636,0.02213752268571493
1683985143899985300,11.3773857421875,1.330756068301723,0.33297538760980033,0.003695249563743124
1683985143910025900,11.38742626953125,1.2416357993508222,0.3508586884687658,0.07516896737162698
1683985143920066700,11.397467041015624,1.335091590932576,0.20352172839727956,0.21424651142781448
1683985143930107300,11.4075078125,1.4484891891925393,0.030138015891644797,0.4420686959374439
1683985143940148100,11.417548583984376,1.5838117599623431,-0.16913318619406487,0.6659990549810753
1683985143950188600,11.427589111328125,1.61320972452465,-0.2701511383239706,0.8271253107815941
1683985143960229300,11.437629638671876,1.5643421411708556,-0.3330488204741524,0.9206857681685003
1683985143970270100,11.44767041015625,1.586975932198394,-0.3699426651291331,0.9690352677682971
1683985143980310600,11.457711181640626,1.8132604362168019,-0.41443729404139734,1.0535750390225667
1683985143990351600,11.467751953125,2.0455260278055993,-0.45217609409940634,1.0345985890854161
1683985144000392100,11.47779248046875,2.154550075473298,-0.4328718185734126,0.9850889445632216
1683985144010432900,11.487833251953123,2.2094542980606207,-0.4162893295615115,0.9603601694394492
1683985144020473600,11.4978740234375,2.200360536539803,-0.3093109130988876,0.8664683102982033
1683985144030514400,11.507914794921875,2.184207677842134,-0.19813346859157024,0.736271023844728
1683985144040554900,11.517955322265625,2.2609505651623905,-0.16629219046885088,0.5745826363656259
1683985144050595800,11.52799609375,2.315626859519177,-0.14908313764789413,0.412544786955784
1683985144060636300,11.53803662109375,2.379450321207291,-0.08434677112182075,0.2792557479324592
1683985144070677200,11.54807763671875,2.3998637198862207,0.08512973781315457,0.10792034867498515
1683985144080717700,11.5581181640625,2.3464143275847373,0.18225765228176502,-0.08970606326838736
1683985144090758600,11.568158935546874,2.2274720670557797,0.235626220602779,-0.18787163488855585
1683985144100799200,11.578199462890623,2.056732892897519,0.27597141270183767,-0.26250839232669393
1683985144110840000,11.588240478515624,1.776553154030501,0.28369712829873367,-0.25607565029729934
1683985144120880600,11.598281005859375,1.5059427024357015,0.2942466734745936,-0.2753146291897768
1683985144130921400,11.60832177734375,1.442251920697513,0.25989055639657954,-0.27309083946411633
1683985144140962000,11.6183623046875,1.8739354610527963,0.06943988804230626,-0.07897442565004825
1683985144151002800,11.6284033203125,2.515637159282993,-0.04570293422319867,0.18175464857913826
1683985144161043400,11.63844384765625,2.749507904031304,-0.1149940491966784,0.4957531093272821
1683985144171084000,11.648484375,2.410180091726282,-0.24527454384811614,0.873736381554381
1683985144181124800,11.658525146484376,1.7905192375831271,-0.3317251204946907,1.2731792928472352
1683985144191165400,11.668565673828123,1.1753509044617703,-0.32775497439503576,1.678856611266565
1683985144201206200,11.678606689453124,0.6351720093076608,-0.40931224827912394,1.7957482337481483
1683985144211246800,11.688647216796875,0.32404172415173904,-0.43671607978210225,1.694969654256745
1683985144221287600,11.69868798828125,0.22140383724733415,-0.2868556975921676,1.3787791730453778
1683985144231328200,11.708728515625,0.24898743615792865,-0.04610157007049184,0.8262438774865414
1683985144241369000,11.718769287109374,0.19479119766805314,0.04235076897639691,0.4913894236022819
1683985144251409600,11.72881005859375,0.3868212699257126,0.20895481100895844,0.4055233896004867
1683985144261450400,11.738850830078125,0.7541701792753652,0.35880661011700254,0.34153506145307655
1683985144271491000,11.748891357421876,0.894533514874489,0.43011856084645583,0.338924765749069
1683985144281531800,11.75893212890625,1.2260725498283782,0.4208707809207835,0.5041128994149822
1683985144291572400,11.768972900390626,1.5094280243101716,0.3653106690701346,0.7204037904897252
1683985144301613200,11.779013671875,1.7175281049589468,0.2260866164991293,0.9957871437276071
1683985144311653800,11.78905419921875,1.9462236167126343,0.08746623981578237,1.3376653194368873
1683985144321694600,11.799094970703123,2.1749768255477933,-0.09326267241332045,1.604181885774312
1683985144331735200,11.809135498046874,2.290138959868359,-0.20829677579455685,1.795702934229022
1683985144341776000,11.819176513671875,2.4271404743187346,-0.33180046087627985,1.9410473106951565
1683985144351816600,11.829217041015625,2.625582218038773,-0.3969707488020202,1.968373537181245
1683985144361857500,11.8392578125,2.787341833098728,-0.2849330902680186,1.9158854485997923
1683985144371898000,11.84929833984375,2.980672836193138,-0.14253234863516864,1.7119281293321522
1683985144381938900,11.85933935546875,3.121461391482082,0.12003517151640665,1.6212135553887606
1683985144391979400,11.8693798828125,2.9760005472987507,0.49675559997867946,1.4822850227467177
1683985144402020300,11.879420654296876,2.482875108808005,0.9790477752817952,1.2513418199521753
1683985144412060800,11.889461181640623,1.8503253459502516,1.2789411543095868,1.2092912198607908
1683985144422101600,11.899502197265624,1.070171356159751,1.3195247649050397,1.2665981054310513
1683985144432142300,11.909542724609375,-0.026069879434808728,1.1603412627754353,1.378570556669792
1683985144442183100,11.91958349609375,-1.8884205818113602,0.6124763489241649,1.722729921419579
1683985144452223600,11.9296240234375,-4.197423935031912,-0.4591588974690686,2.0392465589879425
1683985144462264600,11.939664794921876,-4.377950668398945,-1.1747703552416988,1.3801239729494112
1683985144472305100,11.94970556640625,-3.584444522749736,-1.6077394486128675,0.26874896876906934
1683985144482345900,11.959746337890625,-2.93535280223905,-1.8017425537633263,-0.7369327545524759
1683985144492386600,11.969786865234376,-1.9517210720276763,-1.7047052383513803,-1.6370806692213649
1683985144502427300,11.97982763671875,-1.0057711601491945,-1.557976722753205,-2.488157510698572
1683985144512467900,11.989868408203124,-0.16918826103506332,-1.4232425689649342,-3.1519882678521842
1683985144522508600,11.9999091796875,0.8572980166358543,-1.1877918243977121,-3.7644901276432443
1683985144532549300,12.00994970703125,1.6920673848449097,-0.8949069975932972,-4.105304241249221
1683985144542590100,12.019990478515624,2.017751216945789,-0.5956945417838307,-4.210103511855234
1683985144552630600,12.030031005859374,1.886258721405435,-0.2626628876362394,-4.034094810476912
1683985144562671600,12.040072021484375,1.1208328008972759,0.031653404285587244,-4.141537666325527
1683985144572712100,12.050112548828125,-0.5723623037985629,0.43532943727476564,-4.718109130889746
1683985144582752900,12.0601533203125,-1.4437905550203514,0.8925752639325556,-5.1117968559330755
1683985144592793600,12.07019384765625,-1.1645704506387409,1.4390726088421701,-5.264240264919699
1683985144602834400,12.08023486328125,-0.8072627783784636,2.0820631982270013,-5.164373397911179
1683985144612874900,12.090275390625,-0.5027037859367839,2.531226158163989,-4.859527111031886
1683985144622915800,12.100316162109374,-0.19442760932000316,2.6502695083418684,-3.6605427266202972
1683985144632956300,12.110356689453123,0.05762946599204893,2.468305587773984,-2.0438215732195144
1683985144642997200,12.1203974609375,0.22135782233666768,2.0287547112960995,-0.5910440681739112
1683985144653037700,12.130438232421875,0.37306714046130496,1.5185098647895652,0.4631514847287607
1683985144663078600,12.14047900390625,0.5735270380779838,1.0072116850905988,1.1420311927432902
1683985144673119200,12.15051953125,0.7828949689032417,0.5810852051520202,1.4362438916892417
1683985144683160000,12.160560302734376,0.7743354440253116,0.2638063430738974,1.5157921315752179
1683985144693200600,12.17060107421875,0.6060571072520645,0.1911630629544851,1.4048403501311868
1683985144703241400,12.180641845703123,0.6165782214430641,0.27909660339187475,1.285374403023816
1683985144713282000,12.190682373046876,0.7787995935879216,0.3863859176078956,1.2795023918101556
1683985144723322800,12.20072314453125,0.9369459152454418,0.49595355982025063,1.1858345271358879
1683985144733363400,12.210763671875,1.1164004802312317,0.6386146547000546,1.1060874462274783
1683985144743404000,12.220804443359375,1.3129575254073576,0.8623056412737641,1.1235432623837922
1683985144753444800,12.23084521484375,1.4917634726490105,1.0216979979819536,1.0985497236090511
1683985144763485400,12.2408857421875,1.6861779690524488,1.0650672913332273,0.8949358461534703
1683985144773526200,12.250926513671876,1.6159691810329941,0.5990381240567055,0.414079308535058
1683985144783566800,12.26096728515625,1.2313437462998862,-0.6522474289703873,-0.42009353633464175
1683985144793607600,12.271008056640625,0.7966485025222494,-2.4197225570226677,-1.6192951201542003
1683985144803648200,12.281048583984376,0.7098820209454028,-4.141654968244756,-2.6544427872022083
1683985144813689000,12.29108935546875,0.9936584829664225,-5.088652610776644,-3.2432558537151244
1683985144823729600,12.3011298828125,1.2404557465301969,-5.172826766873382,-3.4265437126225264
1683985144833770400,12.3111708984375,1.0537004470999376,-3.9497423171368213,-2.8097302913771047
1683985144843811000,12.32121142578125,0.23990714568659743,-1.8637924193393958,-2.0583171844241277
1683985144853851800,12.331252197265623,-1.6596132516185003,0.03453063970730742,-2.2089560030890847
1683985144863892400,12.341292724609374,-3.823351621659324,0.8519821166144042,-2.7879765034153334
1683985144873933200,12.351333740234375,-3.8913581370697887,0.9613437652902994,-3.1790838242901005
1683985144883973800,12.361374267578125,-2.2359218596753094,1.014455795344406,-3.2962052821859467
1683985144894014600,12.3714150390625,-0.5562780499199298,1.2148742675636388,-3.2723050117344092
1683985144904055200,12.38145556640625,0.5524905322941963,1.543264389014905,-2.9241604804289727
1683985144914096000,12.391496337890626,1.3128972053991954,1.7174987793009946,-2.113190174032063
1683985144924136600,12.401537109375,1.9415618179723875,1.6164016722530077,-0.9192745088191379
1683985144934177500,12.411577880859374,2.5287530422294933,1.300987243590832,0.41333365430477703
1683985144944218000,12.421618408203123,3.1299753188469226,0.8156547548187207,1.674221396587709
1683985144954258900,12.4316591796875,3.46981716147484,0.2618350981868867,2.640819311122424
1683985144964299400,12.441699951171875,3.3306398390504746,-0.4151782990714571,3.1988725660670863
1683985144974340300,12.45174072265625,2.8030231000197303,-1.203868866060071,3.2706611156710075
1683985144984380800,12.46178125,1.9218144416581082,-1.8877878189413475,2.970646619707723
1683985144994421600,12.471822021484376,0.9005500080038712,-2.119297981254813,2.568534851059317
1683985145004462300,12.481862548828126,0.09274205559479429,-1.7895851136567686,2.1596441268201785
1683985145014503100,12.491903564453125,-0.3771429657026835,-1.188795089767903,1.4801552295196543
1683985145024543600,12.501944091796876,-0.49667680268252995,-0.43939399707085736,0.6164460778334856
1683985145034584600,12.51198486328125,-0.29015552991998983,0.34119892110429095,-0.2002651690774847
1683985145044625100,12.522025390625,0.020764708425630104,0.9760770797016889,-0.9650188684598867
1683985145054665900,12.53206640625,0.2855562269448968,1.4367942810422702,-1.6589062213620498
1683985145064706600,12.54210693359375,0.6042253971423557,1.6210346223207177,-2.0682573317222115
1683985145074747300,12.552147705078124,1.022710323334541,1.489079475469181,-2.1331305503580404
1683985145084787900,12.562188232421876,1.5533614158201499,1.068460464361568,-1.8791654109866942
1683985145094828600,12.57222900390625,1.8769066334647424,0.5919084550450969,-1.5740494728350767
1683985145104869600,12.58227001953125,1.8921147585172007,0.21018219002547436,-1.2740111352221795
1683985145114910100,12.592310546875,1.5893234014522697,-0.06021881102413277,-0.8208901287183089
1683985145124951000,12.602351318359377,1.1715885400900956,-0.3032941817526843,-0.3336685300555565
1683985145134991600,12.612391845703126,0.8914240598241374,-0.5216646195574242,0.198767661980782
1683985145145032400,12.622432861328123,0.9084302783830815,-0.6773395536631677,0.6503814457610299
1683985145155072900,12.632473388671874,0.8527235985001078,-0.7395067215040945,0.9334958195889651
1683985145165113800,12.64251416015625,0.5658975243145471,-0.6010885239838949,0.9447383285453765
