time,seconds_elapsed,z,y,x
1684002704118765000,0.032165283203125,-4.27016827892585e-11,-1.7693835771223328e-10,-5.820211677824798e-11
1684002704128806800,0.042207275390625,0.32155418409767217,-0.2456948757124219,1.2648208141459134
1684002704138848900,0.052249267578125,0.49354171761016563,-0.5032881498995557,1.8708903789085962
1684002704148891100,0.06229150390625,0.7540178300653478,-0.7502308488762385,2.0296344758230407
1684002704158932900,0.072333251953125,1.0871958732251557,-0.562419772138228,1.9658920766321797
1684002704168975000,0.08237548828125,0.6066474914008417,-0.5272243619985376,1.980087041995183
1684002704179017100,0.09241748046875,1.0145564079216822,0.13189887999973413,1.2921667100327616
1684002704189059000,0.10245947265625,3.808732032671932,0.7642145157406899,-0.1654095649043867
1684002704199101100,0.11250146484375,5.373646259320146,-1.1304237842837281,0.2461028098470974
1684002704209143200,0.122543701171875,5.616933822535323,-2.020048856669423,0.5827217101690172
1684002704219185100,0.13258544921875,5.03733825678925,-0.8834425209909899,-0.42283773410480724
1684002704229227200,0.142627685546875,3.900953292747204,0.5244374872776423,-0.20395588864147418
1684002704239269300,0.152669677734375,3.1888608932430387,1.06848454462503,0.6677551268750295
1684002704249311200,0.162711669921875,2.4085884093753025,1.2680413723178805,0.7152299882235249
1684002704259353300,0.172753662109375,2.1984653474023945,1.5918867588481764,0.613513469592377
1684002704269395400,0.182795654296875,2.3264684677665506,1.3916100263919982,0.61769676223693
1684002704279437200,0.192837646484375,2.3921566010468664,0.982071399713696,0.43557691571730556
1684002704289479300,0.202879638671875,2.518039703400878,0.7254834771632581,0.2927517890004689
1684002704299521500,0.212921875,3.1528606414462996,0.5407744051727001,-0.44422292700729027
1684002704309563300,0.222963623046875,3.8340291977170637,0.22928738583382963,-0.8369293211736751
1684002704319605400,0.233005859375,4.211295127764255,0.040277957887217,-0.38046216974284397
1684002704329647600,0.2430478515625,3.861778259394335,0.4506860971147864,0.35926485052033463
1684002704339689400,0.25308984375,3.094375610396121,1.1089701652341633,0.6027145386009618
1684002704349731600,0.2631318359375,2.203967094384265,1.5637606383216547,0.8680849073937038
1684002704359773600,0.273174072265625,1.7084445954272947,1.623867034931053,0.8133602142692007
1684002704369815600,0.2832158203125,1.4534807203751503,1.1433677673525264,0.26822566988609714
1684002704379857600,0.293258056640625,1.3219461442913292,1.378780841942399,0.42997789397692215
1684002704389899600,0.303300048828125,1.8430376052226327,0.1789395808584183,2.4304199219180203
1684002704399941600,0.313342041015625,1.2587337494372066,0.25917696948595575,-0.7734527587933363
1684002704409983600,0.323384033203125,0.42080879209706185,1.803733587328447,-1.5337152481197838
1684002704420025800,0.33342626953125,0.041379928629676765,1.6617244481543905,-1.198807239650688
1684002704430067600,0.343468017578125,-0.45797157279036754,0.38218915456746727,-1.165072918074362
1684002704440109700,0.35351025390625,-0.6500873564705569,-0.3757079840691467,-1.671569347310475
1684002704450151900,0.36355224609375,0.07765674578833542,-0.2874840499053192,-1.9429421424311175
1684002704460193600,0.373593994140625,1.0088891982761115,-0.22138309478016088,-1.9087872504114367
1684002704470235800,0.38363623046875,1.3628950118499181,-0.36982333654064814,-1.774213790938436
1684002704480277900,0.39367822265625,1.227843284580246,-0.31281590457831143,-1.5095057488618704
1684002704490320000,0.403720458984375,1.0990924835732443,-0.08850669853001347,-1.3483381272860493
1684002704500361900,0.41376220703125,0.9560151100925016,0.27998423586568194,-0.7650599478570255
1684002704510404000,0.423804443359375,-0.04483461389064928,0.5404460429875482,-0.025876998883595157
1684002704520446100,0.433846435546875,-1.4685473440569725,0.6392097473393229,0.32009077088728755
1684002704530488000,0.443888427734375,-2.384063720715264,0.9004076717993006,0.9591474532157642
1684002704540530100,0.453930419921875,-4.964569091851184,-0.27342832081475865,3.6254606245769327
1684002704550572200,0.46397265625,-3.0917432308557395,1.0545117855249364,1.43120193484175
1684002704560614100,0.474014404296875,-2.5743250846178447,1.3339898587718413,1.3122739792141924
1684002704570656200,0.484056640625,-2.128143310402819,0.29532766355687634,1.4898719787128802
1684002704580698300,0.4940986328125,-1.1416864394666564,-0.05172324191475216,1.0425701141372081
1684002704590740100,0.504140625,-0.1406927108726262,0.2998805046004157,1.253422737108313
1684002704600782300,0.5141826171875,-0.15179634110358403,0.7029275893779885,1.7370729445464015
1684002704610824400,0.524224853515625,-0.5429215430350112,1.0092229843739482,2.113329887292598
1684002704620866200,0.5342666015625,-0.6216454507170938,1.082652807298013,2.6373815536236513
1684002704630908300,0.544308837890625,-0.8342123030549058,1.499861478842689,2.8741221428491364
1684002704640950400,0.554350830078125,-1.7584729194664905,1.4908165932192636,2.216861248067266
1684002704650992300,0.564392822265625,-2.1605696677138413,1.6861310006625663,1.90208625796599
1684002704661034400,0.574434814453125,-2.4227623938593896,1.6943674087272356,1.5745153427106957
1684002704671076600,0.584476806640625,-1.2968969345696053,1.528393029978026,0.2563190460012077
1684002704681118600,0.59451904296875,-1.6128582955498705,0.9295496939601844,0.04126167291395126
1684002704691160600,0.604560791015625,-1.662515640149953,0.23277759535856365,-0.41948413842621696
1684002704701202600,0.61460302734375,-0.5781893730286503,-0.40338993089098685,-0.3506898880240061
1684002704711244600,0.62464501953125,-0.4378528594179293,0.08483886726428576,0.2603859900542318
1684002704721286600,0.63468701171875,-2.4482529163716404,-0.6784653662697836,0.9919624329179328
1684002704731328600,0.64472900390625,-0.6139764783999561,0.2982001303500927,-1.2798385619339379
1684002704741370600,0.65477099609375,-1.1371459959779053,0.08689808843921917,-0.7808761597252878
1684002704751412600,0.66481298828125,-0.95444965357626,-0.4454319476445501,-0.3112530709272454
1684002704761454800,0.674855224609375,-1.66508388519947,-0.626760005988573,-0.2962360382116356
1684002704771496600,0.68489697265625,-2.255626201628683,-0.39236593233806705,-0.7906379699407879
1684002704781538700,0.694939208984375,-2.7016377449660354,-0.1733021736224449,-1.0558815001662505
1684002704791580800,0.704981201171875,-3.688214063512196,-0.5340983865882979,0.3812055588309316
1684002704801623000,0.7150234375,-2.089838027829913,0.055920839362162966,-1.5259451865610094
1684002704811664800,0.725065185546875,-1.6261205673516945,-0.11613225941160622,-1.0881781577910252
1684002704821706900,0.735107421875,-1.2077836989056228,-0.2998592853949671,-0.4803924561627108
1684002704831749000,0.7451494140625,-1.0778393744514156,-0.6401035785573894,-0.4747667312181394
1684002704841790900,0.75519140625,-1.0947914123491886,-0.9458057881143902,-0.6978592872578993
1684002704851833000,0.7652333984375,-1.250363826740036,-1.1945712566440347,-0.7279620170521226
1684002704861875100,0.775275634765625,-1.0962624549486346,-1.1864647865724829,-0.7397179603168247
1684002704871917000,0.7853173828125,-0.6783895492504675,-1.2921242714491965,-0.5079064369041648
1684002704881959100,0.795359375,-0.3904027938140201,-1.4087820053229059,-0.5026025772216326
1684002704892001200,0.805401611328125,-0.07828998560749813,-1.4254050254796156,-0.7181653978032526
1684002704902043100,0.815443359375,0.33710622790544015,-1.268696308103177,-0.47266244896985776
1684002704912085200,0.825485595703125,0.7009844780565029,-1.0176706313798818,-0.013357639313793985
1684002704922127300,0.835527587890625,0.8322081565086371,-0.6670098306422934,0.29507350924772574
1684002704932169100,0.845569580078125,0.652802467480202,-0.4806432722614327,0.22596883781135582
1684002704942211200,0.855611572265625,0.32839107519326693,-0.34131240850572914,-0.012810230339715062
1684002704952253400,0.86565380859375,0.04651165007728539,-0.27953815464917503,-0.31284332273011245
1684002704962295500,0.87569580078125,-0.12078380572674031,-0.0527472495805241,-0.5746111868367307
1684002704972337300,0.88573779296875,-0.2697658538393183,-0.11920309068225288,-0.7190032004967349
1684002704982379400,0.89577978515625,-0.2283072472209116,0.040248870981598774,-0.2397971153160221
1684002704992421600,0.905822021484375,-0.817380905155399,-0.21225833908556282,-0.7314891814273787
1684002705002463400,0.91586376953125,-1.3968682288730723,-0.21102952949516302,-0.7403650282662593
1684002705012505600,0.925906005859375,-1.488534450571834,0.29064893732468555,-0.6395902633422573
1684002705022547600,0.935947998046875,-1.5288772584147745,0.3400449752853505,-0.7646746635627112
1684002705032589600,0.945989990234375,-1.1345281600791575,0.16069841386660283,-0.34433889400727363
1684002705042631600,0.956031982421875,-1.8931775093437722,-0.7517704963416081,0.5683112144823208
1684002705052673600,0.96607421875,1.4034571647002896,1.308493137480997,-0.6829094888518449
1684002705062715800,0.9761162109375,-0.02377843844545504,0.6886954308172551,0.6456394195863013
1684002705072757600,0.986157958984375,-1.4329466818875927,-0.4952545165314533,1.4534697532244876
1684002705082799800,0.9962001953125,-0.3267521856622571,1.2311792374185677,0.4329409598955603
1684002705092841900,1.0062421875,-0.8171119689022223,1.306221723538337,0.1949763299410025
1684002705102883800,1.0162841796875,-2.5973715782025426,-0.16937112811092553,0.6062674521623309
1684002705112925900,1.026326171875,-2.507069587623508,0.7974982261951326,0.22748470312362126
1684002705122968000,1.036368408203125,-1.6781015396095174,1.1991834642000665,-0.8183369637276209
1684002705133009800,1.04641015625,-2.0047974588477846,0.42841100694615475,-0.1315574645671686
1684002705143052000,1.056452392578125,-2.8029108046535294,-0.17539978021095662,0.5177388189859304
1684002705153094100,1.066494384765625,-1.5486316679945145,0.85657143580066,-0.25393772113075375
1684002705163135900,1.076536376953125,-1.2211923600611836,0.5865759848116235,0.10792970657363651
1684002705173178000,1.086578369140625,-1.604403018779819,0.019037246739845293,0.5493388174823357
1684002705183220100,1.09662060546875,-1.4713416098519887,-0.025864601099984133,0.2699575423435541
1684002705193262000,1.106662353515625,-1.1721663474074144,0.03470134731680691,0.07065439226392445
1684002705203304100,1.11670458984375,-1.1785159111445411,-0.27875232682269024,-0.18354415890656692
1684002705213346200,1.12674658203125,-1.3913450240805931,-0.5292234419612163,-0.33655595779658803
1684002705223388100,1.13678857421875,-1.2190990447220125,-0.5110106467573016,-0.6287817955263931
1684002705233430200,1.14683056640625,-0.8758826254804907,-0.6587224006459538,-0.732273578629874
1684002705243472300,1.156872802734375,-2.1307592393043167,-0.5650515556139913,-1.0662631989601972
1684002705253514400,1.166914794921875,-0.6381258964460267,-0.7235741614612198,-1.0672430992177364
1684002705263556300,1.176956787109375,0.44709396361455417,-1.0434241295850506,-0.8144731522948265
1684002705273598400,1.186998779296875,0.6538324355991438,-0.979565143739699,-0.7270169259021326
1684002705283640600,1.197041015625,0.2196130752688827,-0.6572833061570361,-0.750811576897507
1684002705293682400,1.207082763671875,-0.48641872400340047,-0.31475687030706073,-0.6582698821902746
1684002705303724500,1.217124755859375,-0.9243855475879841,-0.034930229288610545,-0.5780663490920734
1684002705313766600,1.2271669921875,-1.1682219505149087,0.10541391374910468,-0.2668170928537272
1684002705323808400,1.237208740234375,-1.2687044144768729,0.2130904197048495,-0.2247257233444503
1684002705333850600,1.2472509765625,-1.0718712808507374,0.1550374031660582,-0.36028480524403034
1684002705343892600,1.25729296875,-0.8363933562567594,0.023891448881235622,-0.6611509322254091
1684002705353934600,1.2673349609375,-0.8245034217621143,-0.029410839090572672,-0.8490710260047922
1684002705363976600,1.277376953125,-0.9267559052232514,0.01775980014164449,-0.7935514450386328
1684002705374018700,1.287419189453125,-0.8184208870766995,0.14092302311185775,-0.6705694199354264
1684002705384060600,1.2974609375,-0.564686775297217,0.2446432113691755,-0.5233540533238116
1684002705394102600,1.307503173828125,-0.3895716666495986,0.25519466393761003,-0.3641510009612519
1684002705404144800,1.317545166015625,-0.2330927848605894,0.276432514237772,-0.25123596192801834
1684002705414186900,1.32758740234375,-0.09064579000761387,0.21777296062846102,-0.3813486098946644
1684002705424228800,1.337629150390625,-0.1313500403593648,0.10826444626846474,-0.5002903936694659
1684002705434270900,1.34767138671875,-0.37489509589753656,0.11678838733190448,-0.5807986259401001
1684002705444313000,1.35771337890625,-0.568475246387372,0.13715600968547104,-0.4792079925223989
1684002705454354900,1.36775537109375,-0.5589809417478736,0.1161074637794505,-0.45118713367414914
1684002705464397000,1.37779736328125,-0.4499201775397851,-0.002193450836048965,-0.5618720053634915
1684002705474439100,1.387839599609375,-0.2749447823038704,-0.13209533689084849,-0.6970114708159812
1684002705484480900,1.39788134765625,-0.12789678566603507,-0.11377477646954585,-0.7669124603412771
1684002705494523100,1.40792333984375,-0.05426216121521686,-0.2082409858673281,-0.8480887412355737
1684002705504565200,1.417965576171875,0.29100227371750337,-0.30373001110442654,-0.9098043442788633
1684002705514607300,1.428007568359375,0.580760002161701,-0.34998893727575214,-0.7707376478925336
1684002705524649100,1.438049560546875,1.4410181045401342,-0.9532761573044811,-0.5221004486915646
1684002705534691200,1.448091552734375,1.1151103974370957,-0.01850843422569246,-1.388594627379391
1684002705544733400,1.4581337890625,0.4350967407858861,-0.2930130959331406,-1.0231876373138584
1684002705554775200,1.468175537109375,0.3271126746570863,-0.6200308800786769,-0.6693296432525264
1684002705564817300,1.4782177734375,0.5444869996274314,-0.542477130841013,-0.5491595268442978
1684002705574859400,1.488259765625,0.6776790618731043,-0.4782891274547258,-0.8613529205188912
1684002705584901300,1.4983017578125,0.7864637374837025,-0.4945812225971124,-0.9305315018020462
1684002705594943400,1.50834375,0.8056449890372073,-0.48056221017385237,-0.9083900452518084
1684002705604985600,1.518385986328125,0.8387989997968289,-0.2154374122669213,-0.6062250137322535
1684002705615027400,1.528427734375,0.8944993019053799,-0.021739482900932586,-0.17952394490190368
1684002705625069600,1.538469970703125,0.8030996322280837,0.1077537535580865,0.05479097370413763
1684002705635111600,1.548511962890625,0.6728720663859447,0.20791053766448084,0.21425104142042312
1684002705645153600,1.55855419921875,0.3517308234397641,0.3609905242070037,0.11167621608678464
1684002705655195600,1.568595947265625,0.6548051834021457,0.5693063734688788,-0.24775648109423096
1684002705665237600,1.57863818359375,0.5124745368351177,1.0760116577566565,-0.2571191788196148
1684002705675279800,1.58868017578125,0.017594337636533654,1.0739002227508136,0.09257698051989806
1684002705685321600,1.59872216796875,-0.5780682563376193,1.2296118735089028,0.5346899032767554
1684002705695363800,1.60876416015625,-1.1248087883017683,1.424219846661286,0.5784916877986783
1684002705705405900,1.61880615234375,-1.2766330241848776,1.5049490929802491,0.4667539596184663
1684002705715447600,1.62884814453125,-1.2741458415819091,1.2336213588462948,0.3065705299238307
1684002705725489800,1.63889013671875,-0.815564632548981,1.0662126539536496,0.15406227109203668
1684002705735532000,1.648932373046875,-4.792989253978608,0.7278389930778402,-1.854928493313875
1684002705745573800,1.65897412109375,-2.4605703354038804,1.1590387820966919,-0.7334856987183734
1684002705755615900,1.669016357421875,0.265140533459047,0.6990556716572252,-0.11834096900568174
1684002705765658000,1.679058349609375,0.9957642554686177,0.08090066905981098,-0.17311048509540172
1684002705775700100,1.6891005859375,0.9215135574492372,0.23125600800125334,-0.28099966047522945
1684002705785742000,1.699142333984375,0.22995090486105954,0.38141918192698254,-0.2319159506567223
1684002705795784100,1.7091845703125,1.766134500444573,-0.15463924407835694,-0.8206028938687472
1684002705805826200,1.7192265625,4.18911266322132,-0.2865962983640739,-0.10592317573392636
1684002705815868100,1.7292685546875,4.39985275265605,-0.8825793266827245,0.03293132801298681
1684002705825910200,1.739310546875,3.2478134633061275,-0.8133630751077796,-0.8380732535204231
1684002705835952300,1.749352783203125,1.686255931871846,-0.1819019318021181,-2.2157144545996568
1684002705845994400,1.759394775390625,1.013457775043357,0.41266918172581635,-2.3672313690192874
1684002705856036300,1.769436767578125,0.9523208141188082,0.2965936659782425,-1.6589994429513018
1684002705866078400,1.779478759765625,1.150736808885224,0.32008552547675856,-1.3128976822359324
1684002705876120600,1.78952099609375,-0.0923802853889629,0.6083436010565796,-0.8913450239879457
1684002705886162400,1.799562744140625,-1.8381303548633963,1.144839286749716,-1.3080358505018301
1684002705896204500,1.80960498046875,-1.2629219294379934,1.2898902893198314,-1.1519937514008354
1684002705906246600,1.81964697265625,-1.6651351450736354,1.0449628829670337,0.38500308989178766
1684002705916288600,1.829689208984375,-1.4616227148693883,0.7257289887733441,0.4733781815015063
1684002705926330600,1.83973095703125,-0.25985348217805443,0.44296979901469136,-0.17615032191169366
1684002705936372600,1.84977294921875,-2.232196807790472,-1.839359760276227,0.13463687893317802
1684002705946414800,1.859815185546875,2.4228043556066217,0.5576238632511598,-0.6701736451992216
1684002705956456600,1.86985693359375,0.6795383692987865,-0.9125661849767617,-0.23177528386180457
1684002705966498700,1.879899169921875,-1.6939284801051069,-0.4626955986422613,-1.114665985194765
1684002705976540800,1.889941162109375,3.2724034787567287,1.4629380702951669,-0.2054262160320573
1684002705986582600,1.899983154296875,-1.3139641283879053,-1.311500549434146,-0.49330997467572535
1684002705996624800,1.910025146484375,1.1200031041504435,0.2447323798396602,-0.2926530837458119
1684002706006666900,1.9200673828125,1.090580105716483,-1.0092687606163049,0.7877292633888798
1684002706016708800,1.930109130859375,0.6686702968513337,-1.3182120322757802,0.4985542297148198
1684002706026750900,1.9401513671875,0.9444153309551392,-1.0478014945591954,0.9796667098762217
1684002706036793000,1.950193359375,0.42506140476137433,-0.8356685639090461,0.526061058187543
1684002706046834900,1.9602353515625,-0.32355412851545773,-0.6417708396787591,-0.3562726975520624
1684002706056877000,1.97027734375,-0.8428083062944932,-0.3270931242291936,-0.9907140731488767
1684002706066919100,1.980319580078125,-0.6538379191819144,0.0818090439245407,-1.080786705059408
1684002706076961200,1.990361572265625,-0.3561524748931089,0.40754556649451745,-0.7334690094474234
1684002706087003100,2.000403564453125,-0.23799023035242314,0.36134099961322924,-0.554414749116432
1684002706097045200,2.010445556640625,0.06759633127959354,0.0639934540644289,-1.0565776825708184
1684002706107087300,2.02048779296875,-0.1416028737226895,-0.1751847266139763,-1.093511104548851
1684002706117129100,2.030529541015625,-0.5659474136213537,-0.3917441367154581,-0.8836603164744942
1684002706127171200,2.040571533203125,-0.8952888249229329,-1.1718287468567083,-0.8488845826340343
1684002706137213400,2.05061376953125,-1.32010543345685,-1.2598695754865346,-0.9166593550459904
1684002706147255200,2.060655517578125,-1.499501705231017,-0.6248331069891111,-1.0944566727270364
1684002706157297300,2.07069775390625,-1.2814674376460444,0.0006027221748717833,-1.6136279107640505
1684002706167339400,2.08073974609375,-1.1705551148216344,0.1804752348868633,-1.4943752289457954
1684002706177381600,2.090781982421875,-1.0769879817703414,0.44090414042848924,-0.8827400208126274
1684002706187423400,2.10082373046875,-0.6193202137644278,0.32684993740320306,-0.5974502563642595
1684002706197465600,2.110865966796875,-0.4026543498165171,0.3253192901915531,-0.12565422067467805
1684002706207507600,2.120907958984375,0.14378762238412526,0.5053691863950395,-0.06695652000679089
1684002706217549600,2.130949951171875,-0.0662589073299134,0.79175662980762,0.014003753712130829
1684002706227591600,2.140991943359375,-0.16941338775975018,0.17966365796755818,0.35403156282442
1684002706237633600,2.1510341796875,-0.8629723787238452,0.312988758165281,0.08874893195065814
1684002706247675800,2.161076171875,-0.8300140500661911,-0.18530416484126344,0.06580924975231091
1684002706257717600,2.1711181640625,-0.5339245200118172,-0.45182418813174097,-0.41397285462460426
1684002706267759800,2.18116015625,0.048456370827887466,-0.9373025893786512,-0.5675277709567537
1684002706277801900,2.191202392578125,-0.054457426217108626,-1.4267015457098278,-0.6369857787066674
1684002706287843800,2.201244140625,-1.2477587461358166,-2.710356473936939,0.7363328934376825
1684002706297885900,2.211286376953125,0.1710683107812314,-2.3270037174145215,-0.514987945560479
1684002706307928000,2.221328369140625,-0.3603333234557459,-2.529325485104785,-0.08009243010799759
1684002706317970100,2.23137060546875,0.13654470442825234,-2.4858562946487095,-0.7205200195145602
1684002706328012000,2.241412353515625,0.4723430871647455,-1.0740928649837662,-1.620229244126495
1684002706338054100,2.251454345703125,-0.0800536273540745,-0.8659646509824452,-1.707262992860051
1684002706348096200,2.26149658203125,1.1046314239833146,0.013984918652602004,-1.4690551759288193
1684002706358138000,2.271538330078125,0.8179606200256613,0.33548116669186395,-0.7479085922150669
1684002706368180100,2.28158056640625,0.09357020249076757,-0.3136696816808732,-0.7210197449057841
1684002706378222300,2.29162255859375,-0.19097715615205954,-1.1203501223492514,-0.6405076981223108
1684002706388264400,2.301664794921875,-0.5327500104996009,-1.2466039657642156,-0.44691753392166605
1684002706398306200,2.31170654296875,-1.0531272887088512,-0.019493579901627776,-0.6311931610235367
1684002706408348300,2.321748779296875,-0.7143792510348065,-0.31462240210678877,-0.36258602146375085
1684002706418390400,2.331790771484375,-0.07999944679881468,-0.6865975858300455,-0.2577753068152532
1684002706428432300,2.341832763671875,0.14187973747450994,-0.6871528627086919,-0.6579437255344694
1684002706438474400,2.351874755859375,0.6206403971073008,-0.910674333622316,-0.3673877717390717
1684002706448516600,2.3619169921875,0.8560879230732698,-1.1677057743646626,-0.5234508514328354
1684002706458558600,2.371958984375,0.5533422828176863,-1.1219379902474436,-1.1772203444566725
1684002706468600600,2.3820009765625,0.5940184592881659,-1.304727792719275,-1.6735916137507383
1684002706478642600,2.39204296875,0.35675811783718386,-2.0201892852175405,-1.7499880789507065
1684002706488684600,2.402085205078125,-0.31604945660550304,-2.753361463480599,-1.7133016587685115
1684002706498726600,2.412126953125,-0.5290777682060279,-1.7768237590903504,-1.312514305175606
1684002706508768600,2.422169189453125,-0.17753469940445613,-0.9843230248045689,-1.0107488630997206
1684002706518810800,2.432211181640625,0.03921568390704451,-0.3477842807815157,-0.6312456129476611
1684002706528852600,2.442253173828125,-0.4479929803835611,-0.27209520338021215,-0.1794824600552706
1684002706538894800,2.452295166015625,-0.7731841801331601,-0.5279085635242022,-0.4160032270816652
1684002706548936900,2.462337158203125,-1.6182118653602813,-0.057808399101997796,-0.06598854072935406
1684002706558979000,2.47237939453125,-0.5797374248164799,-0.28961992257509434,-0.32699489582860336
1684002706569020800,2.482421142578125,-0.32639861095687056,-0.7255556584246782,-0.6174859999161918
1684002706579063000,2.49246337890625,-0.25390076638599146,-0.2994620800303013,-0.5092668534030746
1684002706589105100,2.50250537109375,1.0378066300307565,-0.9990296363546852,0.1960420607765022
1684002706599146900,2.51254736328125,1.9700710772812364,-2.1141366958378702,-0.05684471127113914
1684002706609189000,2.52258935546875,1.6280344724515923,-1.9093379974606275,-0.6412754058095863
1684002706619231200,2.532631591796875,0.7449518443307092,-0.9889819621998318,-0.7267150879548618
1684002706629273300,2.542673583984375,0.23966658118842293,-0.14341306682797397,-1.0597858429978047
1684002706639315100,2.552715576171875,-0.4118947981531369,0.39500832572560535,-1.5025177001272103
1684002706649357200,2.562757568359375,-0.9292337893808793,0.5249106883707552,-1.7966537474865507
1684002706659399300,2.5727998046875,-0.8111283780243426,0.30021488661419576,-1.6754827498295193
1684002706669441200,2.582841552734375,-0.5836145877250355,-0.1402984857830001,-1.5028057097350715
1684002706679483300,2.5928837890625,-0.3203639984855862,-0.3049618006582415,-1.3713693617749894
1684002706689525400,2.60292578125,-0.08237457291109174,-0.6979511976036726,-1.1183557509836872
1684002706699567600,2.612968017578125,-0.13783216489758213,-0.22715759275019626,-1.2060909269988676
1684002706709609400,2.623009765625,0.42014718074334095,-0.39662718782117196,-0.7126464844816556
1684002706719651600,2.633052001953125,1.4165734054406585,-0.6435326338351776,-0.4592294691569725
1684002706729693600,2.643093994140625,0.8366746902800427,-1.3746749163909457,-0.10550212870109946
1684002706739735600,2.653135986328125,0.3876514433109102,-0.8890298605731866,0.21420383443816832
1684002706749777600,2.663177978515625,0.6019773482973028,-0.6918030977919765,0.2102260589797707
1684002706759819600,2.67322021484375,0.9226148127960556,-0.20590341101014958,-0.1058845520153719
1684002706769861600,2.683261962890625,0.6920051575903802,0.012582898164773072,-0.2959508896017915
1684002706779903600,2.693303955078125,0.37654161447827467,-0.23632800572931628,0.18798828121567618
1684002706789945800,2.70334619140625,0.26346874229088557,-0.4850054980074955,0.035634994575801486
1684002706799987900,2.71338818359375,0.3966438768626895,-0.9385054113024089,0.04136085505752648
1684002706810029700,2.72343017578125,0.2097058294593666,-1.050260186338689,-0.8199596403868415
1684002706820071900,2.73347216796875,0.31857824331504814,-0.885385036473008,-0.789944648745451
1684002706830114000,2.743514404296875,0.5297172071144715,0.0021290778664801967,-1.149199008929436
1684002706840155800,2.75355615234375,0.5836493968492406,0.8475588559980518,-0.19090271009385476
1684002706850197900,2.763598388671875,0.34157872201752576,1.4391325712287328,0.6636552809803399
1684002706860240000,2.773640380859375,0.4109306333936689,1.0652303695785212,0.2807922362168669
1684002706870282200,2.7836826171875,0.5797910690649712,0.687091350483773,0.1645975113327531
1684002706880324000,2.793724365234375,0.5872321127805898,0.2464466096150829,0.40455055239931886
1684002706890366100,2.8037666015625,0.17611575120825051,-0.4809951781904359,-1.3226118088430612
1684002706900408200,2.81380859375,0.6867208481110567,0.14256668099544118,-1.6814107894943786
1684002706910450100,2.8238505859375,-0.3204782009225069,0.6059026718946017,-0.8197269440004767
1684002706920492200,2.833892578125,-1.3768887520208286,0.8608262538918683,0.4696140289705833
1684002706930534300,2.843934814453125,-1.621843099612709,1.2740561961168995,1.5158205033739274
1684002706940576400,2.853976806640625,-0.6351659297902517,1.4248685835941384,2.15335655209817
1684002706950618300,2.864018798828125,-1.059592008601515,1.210516095140989,1.3436613082801967
1684002706960660400,2.874060791015625,-2.382448196415255,0.5948896408167953,0.6887540817041364
1684002706970702600,2.88410302734375,-1.7841033935530302,0.24293422697626196,-0.7083921433023169
1684002706980744400,2.894144775390625,-0.9254171847590779,0.4141294957060355,-0.4724216460643858
1684002706990786600,2.904186767578125,-1.1308388708690746,0.4285061361116637,0.13158035286816988
1684002707000828600,2.91422900390625,-0.7011451721807664,-0.25470852846126324,-0.07848644242358449
1684002707010870600,2.92427099609375,-0.5522551536198094,-1.4655826091682842,0.04207038885666536
1684002707020912600,2.93431298828125,0.3928955792242686,-1.7129192352410767,1.4519624709379528
1684002707030954600,2.94435498046875,0.48089432726919695,-1.171311140130738,1.8444976805880537
1684002707040996800,2.954397216796875,-0.05357933050256983,-0.8210029602124181,2.619511604340757
1684002707051038600,2.96443896484375,-0.26920378225422037,-0.1843109130975308,2.7805700301417122
1684002707061080800,2.974481201171875,0.14702701563949944,-0.10018897049767983,1.711709976299069
1684002707071122900,2.984523193359375,0.022284746294140442,-0.4544289111748399,0.7045373916978437
1684002707081165000,2.9945654296875,-0.4731425046232108,-0.9669075010909576,-0.5793886183353159
1684002707091206800,3.004607177734375,-0.47474551204399607,-1.7112946510279752,-1.465610027248929
1684002707101248900,3.0146494140625,-0.4871073960705039,-1.7286186219565187,-1.2772750854648973
1684002707111291100,3.02469140625,-0.21320033074275935,-1.0558798313459974,-1.5745353699042504
1684002707121332900,3.0347333984375,0.2734770774164614,-0.2659621240359478,-2.3872742652131738
1684002707131375000,3.044775390625,0.19859933851798892,0.11742806429112349,-2.5300183296314467
1684002707141417100,3.054817626953125,0.531794548140134,0.42711448671479,-2.206802844998483
1684002707151459200,3.064859619140625,1.2605369090299752,0.3512306211829452,-1.1772928237540627
1684002707161501100,3.074901611328125,2.0896878241873407,0.672502040758006,-1.9229230881266333
1684002707171543200,3.084943603515625,1.8097119332408529,0.3652040958774495,-1.3756904602327118
1684002707181585300,3.09498583984375,1.4703570604916256,0.18295788748382874,-0.8488006591107737
1684002707191627200,3.105027587890625,1.9191280603385548,0.5222990511839543,-1.1126642225621883
1684002707201669300,3.115069580078125,2.5128526687081174,0.5052621365294505,-1.6023206710694704
1684002707211711400,3.12511181640625,1.5703592300606979,-0.08781242378907107,-1.2661466598169844
1684002707221753600,3.13515380859375,0.6029888391314893,-0.3224782942412042,-1.399559497752634
1684002707231795400,3.14519580078125,-0.8164759278142406,-2.306303501225503,-0.4225292205542195
1684002707241837600,3.15523779296875,1.3113501070545637,-0.5810418129661336,-2.066242218097831
1684002707251879600,3.165280029296875,3.301232337874396,1.384492873978938,-1.6693840026557347
1684002707261921600,3.175322021484375,1.9906244278064071,0.24135541906451302,-0.9792537688275711
1684002707271963600,3.185364013671875,-0.343092858770315,-0.4578328134151298,-1.2972841261581651
1684002707282005600,3.195406005859375,-0.5720515846106076,-0.2004818916128427,-1.125134468138282
1684002707292047800,3.2054482421875,0.12217038872856316,0.15812444680875923,-1.3154096603859564
1684002707302089600,3.215489990234375,0.3081520795642169,-0.12217760078824025,-1.2919654846984778
1684002707312131800,3.2255322265625,0.8771318197649828,-0.5767307282969071,-1.362487316075658
1684002707322173900,3.23557421875,0.9708697796289683,-0.8600239754737249,-1.8609085082107903
1684002707332216000,3.245616455078125,1.123173475226593,-1.1186904908342912,-1.2969346046140038
1684002707342257800,3.255658203125,1.2520470620205169,-1.8088626861756536,-0.29295158388191
1684002707352300000,3.265700439453125,1.58101129538733,-1.7674937248618368,-0.09442234026444202
1684002707362342100,3.275742431640625,1.4558941127138942,-0.8807411193764385,-0.3602962492230216
1684002707372383900,3.285784423828125,1.419302940377891,-0.7061886787970021,-0.2727899550946208
1684002707382426000,3.295826416015625,0.9936051367655787,-0.26626014711671137,0.19325065602794675
1684002707392468100,3.30586865234375,0.5039766430849898,-0.33646011352582184,1.2578296662355524
1684002707402510300,3.31591064453125,0.5806906223065411,-0.9649963378608779,3.617028236410341
1684002707412552100,3.325952392578125,1.1633411644261928,-0.3899502754577303,1.9302902220922298
1684002707422594200,3.33599462890625,0.7627325058580439,-0.03992843631306238,1.2985315322928987
1684002707432636300,3.34603662109375,0.9215882420179334,-0.11801958073935863,1.2158203126360094
1684002707442678200,3.35607861328125,1.7263603209964378,-0.06368207936250361,-0.33388566972132827
1684002707452720300,3.36612060546875,1.4695637226080507,0.016577243705103578,-0.4970922470068225
1684002707462762400,3.376162841796875,0.8657786847563484,-0.034658908845204735,-0.32850790028018617
1684002707472804600,3.386204833984375,0.5671856402051122,-0.4606142043544318,-0.45161294945044694
1684002707482846400,3.396246826171875,0.5029726027524928,-0.41277647022109315,-0.8990969658016895
1684002707492888600,3.406288818359375,0.5728186368010075,-0.2919969558743877,-0.8445653914441921
1684002707502930600,3.4163310546875,0.8381851911875365,-0.39172315600938473,-0.7897639274869004
1684002707512972500,3.426372802734375,1.1103292703709502,-0.658519744746397,-1.0588960647332601
1684002707523014600,3.4364150390625,1.407048344595268,-0.7145638465749011,-1.0587162970854425
1684002707533056600,3.44645703125,1.4166676998412757,-0.7903661726351024,-0.5605916978242246
1684002707543098800,3.456499267578125,0.9922729732243871,-0.8790569304509509,-0.7767262457334186
1684002707553140600,3.466541015625,0.7126686574619965,-0.5473046303556085,-1.1582870482532197
1684002707563182800,3.476583251953125,0.25923365342810417,-0.197968006100786,-0.6823267936452043
1684002707573224900,3.486625244140625,0.7134572266318624,-0.6111440658588417,-0.7781796455400509
1684002707583266700,3.496667236328125,0.7436836956667111,-1.5888347625696015,-0.5683827401038327
1684002707593308800,3.506709228515625,1.1067862510434434,-0.9834041595680005,-0.805002212440134
1684002707603351000,3.51675146484375,1.5055139064352787,-0.8489694594546918,-1.3177037239633516
1684002707613393100,3.52679345703125,1.6426205635089361,-0.44378757475759933,-0.4873352051629339
1684002707623434900,3.53683544921875,1.393580436642627,-0.008090019230890177,-0.1948719023993966
1684002707633477000,3.54687744140625,1.136186241923675,1.072917938254242,-1.061031341470498
1684002707643519200,3.55691943359375,0.6682358980706864,1.0472502708721232,-0.5483202934182676
1684002707653561000,3.56696142578125,0.6500170825548937,0.5603914259517401,0.41430807104229084
1684002707663603100,3.57700341796875,0.8942807317550764,-0.3318099976049116,1.8763508795538684
1684002707673645200,3.587045654296875,0.8066735863630002,0.10516738899565757,0.6287455559768153
1684002707683687300,3.597087646484375,0.5354264975286761,0.41479158406282857,-0.3053083419923503
1684002707693729200,3.607129638671875,0.2977406979757222,0.260279178537909,-0.502623558037629
1684002707703771300,3.617171630859375,0.6915852427146111,0.1451978683416746,0.03143978114998445
1684002707713813400,3.6272138671875,1.0038752555257469,0.20028400418262793,0.5406441688350794
1684002707723855300,3.637255615234375,1.0305559636359463,0.0023379325718082045,0.5698342323019638
1684002707733897400,3.6472978515625,0.7864970565398949,0.4503531455733376,0.18769359585286807
1684002707743939600,3.65733984375,0.33732652648869443,0.6914567946613905,0.14621496213488636
1684002707753981600,3.667382080078125,0.035381138368520214,0.48702907558483205,-0.021633625021852076
1684002707764023500,3.677423828125,-0.06969970457763514,0.18372440337393017,0.2306146621515503
1684002707774065600,3.687466064453125,-0.5786774158202518,-0.7531781194917068,0.09068965905601631
1684002707784107600,3.697508056640625,-0.06604981417656439,0.29061698904909383,-0.5802955628858957
1684002707794149600,3.707550048828125,0.1492316127072813,1.0915336607891526,-0.19446277631709008
1684002707804191600,3.717592041015625,0.22493904829814299,1.1568508147696004,0.6866321563496971
1684002707814233800,3.72763427734375,0.17289811370820235,1.524163246178544,0.5445837974245531
1684002707824275900,3.73767626953125,0.3029377459439187,1.231155395556589,0.39885044097896855
1684002707834317700,3.74771826171875,0.3534243106083506,0.6940736769309793,0.3542270659210255
1684002707844359900,3.75776025390625,0.5538024305543943,1.009926795932544,0.6102032660819579
1684002707854402000,3.76780224609375,0.26120114336195693,0.9920978546660038,1.2610888479951494
1684002707864443800,3.77784423828125,-0.03044795987949368,1.0754518509077038,1.6733069419495268
1684002707874485900,3.78788623046875,-0.7555525302284708,0.6942481994582582,1.1320695878386904
1684002707884528000,3.797928466796875,-0.7574042677429845,0.17886877062189252,1.4238595961729976
1684002707894570200,3.807970458984375,-0.19620084754369774,-0.03220701206163778,1.4363207818447723
1684002707904612000,3.818012451171875,-0.01703894139224311,0.26040935513941904,1.2496490478962732
1684002707914654100,3.828054443359375,-0.4556301235057224,0.38404607767410276,1.4460997581338162
1684002707924696200,3.8380966796875,0.28268790247403675,0.2529087067553835,1.0378804206507255
1684002707934738400,3.848138671875,0.3850100040101992,-0.07975149149113572,-0.1617307662035608
1684002707944780200,3.8581806640625,0.26611745370638235,-0.6459484101968076,-0.8265266417494689
1684002707954822300,3.86822265625,-0.1044267416956528,-0.9535727500276004,-0.5413398744188226
1684002707964864400,3.878264892578125,-0.33917009836124673,-0.1877431868834787,-0.9321360587478897
1684002707974906600,3.888306884765625,0.34345722212644897,0.0849018097394693,-0.12446880350425707
1684002707984948400,3.898348876953125,0.5094020366991857,-0.19562387458190186,0.7100696563217701
1684002707994990600,3.908390869140625,0.9169774054324091,-0.5823807716197327,0.8347301484653229
1684002708005032600,3.91843310546875,1.433013677627968,-0.735323429107381,0.6852216721637369
1684002708015074600,3.928474853515625,2.3250420094454043,-0.8079562187877564,0.728401661056113
1684002708025116600,3.93851708984375,2.939063787583507,-0.49193334584425386,-0.034585952736359574
1684002708035158600,3.94855908203125,2.2631027698706725,0.019565582249136036,-0.339506149441103
1684002708045200800,3.958601318359375,2.6111288070636705,0.08610343942502584,0.11454915997697898
1684002708055242600,3.96864306640625,2.811554670221269,0.1663279532070826,-0.2564411164769786
1684002708065284800,3.978685302734375,1.9977905751401093,0.5616250039070414,-0.7549238205268465
1684002708075326900,3.988727294921875,2.6750748157738764,0.6547684669742365,-0.8775448799790954
1684002708085368800,3.99876904296875,1.9107141495034676,1.1005992889533094,-1.2150907515895044
1684002708095410900,4.008811279296875,1.6061840057488574,1.511261940017044,-1.079677581804105
1684002708105453000,4.018853271484375,1.620535850492417,1.5798683167077694,-0.6847095489345582
1684002708115495100,4.0288955078125,1.3867430686645135,1.588951110961152,-1.2796421051541242
1684002708125536900,4.038937255859375,1.0721971989821086,1.3120918275076598,-2.0441207885738764
1684002708135579100,4.0489794921875,0.9712505338837375,0.40240478522014,-2.3422536849645548
1684002708145621200,4.059021484375,0.9219975471305623,-0.15522050863355055,-2.6261515617095945
1684002708155663300,4.069063720703125,1.2291135786453449,0.0878896712532881,-2.045496463719627
1684002708165705100,4.07910546875,0.10345184812293277,-0.8841323852294634,-2.556861400629676
1684002708175747200,4.089147705078125,0.05932235717123435,-0.6900048255813196,-1.7452330590147171
1684002708185789400,4.099189697265625,0.5817601679516247,-0.4411563873758947,-0.9430236815167804
1684002708195831200,4.109231689453125,1.0391467810282045,-0.13574886317051799,-0.6435270309841904
1684002708205873300,4.119273681640625,1.1383957861979883,-0.47195053094489786,-0.9833869935367746
1684002708215915400,4.12931591796875,0.8985237480241349,-1.0167484283120447,-1.3522496224258373
1684002708225957600,4.13935791015625,0.025991201425105994,-1.8204798697328601,-1.6312136649647015
1684002708235999400,4.14939990234375,-1.0907304285727213,-2.9545021056392824,-0.744560241755001
1684002708246041600,4.15944189453125,-1.8156554700226626,-2.9239397048677587,-0.576734065919413
1684002708256083600,4.169484130859375,-1.217106819130678,-2.134074688000907,-1.4215369224534484
1684002708266125600,4.17952587890625,-0.2770291566844801,-1.2423162459413561,-1.316482066978397
1684002708276167600,4.189568115234375,-1.141033291938149,-1.1361417770529543,-0.9751915931123166
1684002708286209600,4.199610107421875,-4.082757949790495,-1.572638034898231,-1.266148567197602
1684002708296251800,4.20965234375,-5.013548851017396,-1.3161201477072895,-1.3330450058062226
1684002708306293600,4.219694091796875,-2.8567938804111406,-1.0765986441952327,-0.5538034439706891
1684002708316335800,4.229736083984375,-1.7956439255889962,-1.3728599549078049,-0.16608715068802585
1684002708326377900,4.2397783203125,-1.4072026013642982,-1.6171722411668144,-0.3608264923080598
1684002708336419800,4.249820068359375,-0.8854215145581844,-1.6453747747966811,-0.5528135298427069
1684002708346461900,4.2598623046875,-0.1632544993755392,-1.4527387619069336,-0.45402336124491177
1684002708356504000,4.269904296875,0.44071042544778644,-1.0443515778994954,-0.12452697761216629
1684002708366546100,4.279946533203125,1.0015902518974376,-0.7551994324028896,-0.11580848681065563
1684002708376588000,4.28998828125,1.8509864807115608,-0.45491218561827235,-0.6124544143859105
1684002708386630100,4.300030517578125,1.2425360680428652,0.9263248443300391,-1.699181556666591
1684002708396672200,4.310072509765625,0.1780039071776032,0.6873326301509448,-1.3056397436962148
1684002708406714300,4.32011474609375,0.15791845325133858,0.2782659530946931,-1.4065017700772986
1684002708416756100,4.330156494140625,0.43948078156978493,-0.28712320318491097,0.04156684895218942
1684002708426798300,4.34019873046875,1.4735008479871612,-0.2847476006550414,1.0545387266126287
1684002708436840400,4.35024072265625,1.3349970578861436,0.06980085375047625,0.0700588225938432
1684002708446882600,4.360282958984375,0.5894334315859238,-0.20416450500093544,-0.36153411868884916
1684002708456924300,4.37032470703125,0.40900015820294333,-0.5934939384781275,-0.5979242323919213
1684002708466966400,4.380366943359375,0.31469917298094924,-0.6880588530577816,-0.9050769805411254
1684002708477008600,4.390408935546875,0.18839383133809282,-0.7878246307814558,-1.0232820509391258
1684002708487050400,4.400450927734375,0.25819492334467,-0.9036312103040423,-0.9831209183165515
1684002708497092600,4.410492919921875,0.10024094581305013,-0.9079546929475927,-1.2902097702569286
1684002708507134600,4.42053515625,-0.2953600883565867,-0.8631882667658478,-1.761692524013022
1684002708517176800,4.4305771484375,0.02105426801708415,-1.146570682524032,-1.8579998016658772
1684002708527218600,4.440618896484375,0.5921189784695042,-1.1315574645878368,-2.256580352765985
1684002708537260600,4.4506611328125,0.8408710956187424,-1.2356762885602588,-2.2591605185706283
1684002708547302800,4.460703125,0.5436873437057829,-1.8207979202281996,-2.0227456091934704
1684002708557344900,4.470745361328125,-0.12052988995326126,-1.697835445426828,-1.5874700545803784
1684002708567386800,4.480787109375,-0.33627367009018255,-0.117413520882742,-0.16378211985880672
1684002708577428900,4.490829345703125,-0.8229672908837532,1.2645251750144704,1.1008238792802445
1684002708587471000,4.500871337890625,-1.2714354991865022,1.5101253986213767,1.7712593080330012
1684002708597512900,4.510913330078125,-1.2644593715906693,0.3796858787315689,1.439506530769025
1684002708607555000,4.520955322265625,-0.2777967452560853,-1.5008811951355474,0.4684271813883336
1684002708617597100,4.53099755859375,0.21830129616709118,-1.761967182179096,0.41019630431266585
1684002708627639200,4.54103955078125,0.4872612953943316,-1.8459997178242085,0.07208442671762957
1684002708637681100,4.55108154296875,0.20595169075777783,-1.2554512023791402,0.07478237165080674
1684002708647723200,4.56112353515625,-0.14918541903224655,-0.21705293666508954,1.066806793240806
1684002708657765300,4.571165771484375,-0.04343295089964916,0.6049485206175907,1.1941385269356912
1684002708667807200,4.58120751953125,-0.13874483106642993,0.6478652954518352,1.2292089461559785
1684002708677849300,4.591249755859375,-0.516750812516976,0.8490724563614589,0.6063957214479223
1684002708687891400,4.601291748046875,-0.4840378760700518,1.105145215879579,0.2153806686550786
1684002708697933600,4.611333984375,-0.7147140503456263,1.5653715133693422,-0.046650886588798346
1684002708707975300,4.621375732421875,-0.08124971398730589,1.8576509952698934,0.26838207245212525
1684002708718017500,4.63141796875,-0.40458512318622747,1.5519790650946188,0.6548585892247077
1684002708728059600,4.6414599609375,-1.1240167619247945,3.20483660700921,0.18570804602675547
1684002708738101400,4.651501708984375,0.0015103818052739847,1.9799807070318394,0.06501483907218014
1684002708748143600,4.6615439453125,0.27521800997179885,1.9796860217867143,0.7613935470588777
1684002708758185600,4.6715859375,1.5753825902219645,-0.15584802613472465,1.0240564346675665
1684002708768227800,4.681628173828125,1.4986736774910416,-2.725750446306559,1.1187419889618855
1684002708778269600,4.691669921875,0.4062700270796403,-2.0781393049963173,0.16770553587912715
1684002708788311700,4.701712158203125,0.27445721623224884,-0.561392784174768,-0.5857305526895288
1684002708798353800,4.711754150390625,0.6325714588000478,-0.9736981391609637,-1.3579673766253095
1684002708808396000,4.72179638671875,0.4728944299985385,-1.7302694321566556,-1.3379154205350394
1684002708818437800,4.731838134765625,0.02551817895032436,-1.7119789122617561,-0.6826081277247302
1684002708828479900,4.74188037109375,-0.22733235370186128,-0.7162299156151161,0.49551105498283887
1684002708838522000,4.75192236328125,-0.10007691393477208,-0.3996529579510173,0.6631660461300617
1684002708848564100,4.761964599609375,0.07787704460814597,-0.6351096629018512,0.12278175360659299
1684002708858606000,4.77200634765625,0.9247858523335573,-0.6625754832203612,-0.38988018030068106
1684002708868648100,4.782048583984375,1.3500897883747658,-0.6076834201689074,-0.743570327895985
1684002708878690200,4.792090576171875,0.30031847949728013,-0.8223733902140243,-0.8365306855501549
1684002708888732300,4.8021328125,-0.6120121478398979,-1.2997808456528415,-1.0230989456301869
1684002708898774200,4.812174560546875,-1.1608760356445578,-1.5435013770819885,-1.737483978224084
1684002708908816300,4.822216796875,-1.0499312877313354,-0.9973101615031591,-1.9199638365477385
1684002708918858400,4.8322587890625,-0.800832748347798,-0.3343951702574868,-0.9455199240326625
1684002708928900300,4.84230078125,0.07112193111726497,0.13957667344844263,0.40455245987469096
1684002708938942400,4.8523427734375,0.7191512584535442,-0.08250832565052844,-0.06698989865278573
1684002708948984600,4.862385009765625,0.6257085800017673,-0.5462229252580396,-0.37821769724042453
1684002708959026600,4.872427001953125,0.5479111671380616,-0.5854213238767306,-0.40310287466968864
1684002708969068500,4.88246875,0.3692717551319433,-0.3491668699978837,-0.48490142826782395
1684002708979110600,4.892510986328125,0.09748530389676671,-0.164315939044961,-0.31607532498976276
1684002708989152600,4.902552978515625,0.2696130276609877,-0.008622169620670745,-0.12848949432279713
1684002708999194600,4.912594970703125,0.6337223053748727,0.25902318956162546,-0.12053108212035052
1684002709009236600,4.922636962890625,0.536698103017585,0.4448244571250746,0.16363334652409173
1684002709019278800,4.93267919921875,0.686610698699314,0.5151712894019326,0.4165048598972781
1684002709029320900,4.94272119140625,1.1447949410102027,0.5261800288635979,0.869729995680136
1684002709039362700,4.95276318359375,0.7960808277188389,0.48407101638659034,0.9188518524444712
1684002709049404800,4.96280517578125,0.2582581043160699,0.5696246623865926,0.17904186249508997
1684002709059447000,4.972847412109375,0.1104729176226006,0.7262856959804729,-0.5761442184182232
1684002709069488800,4.98288916015625,-0.10904765122433288,0.7490543127973762,-1.1250286102575404
1684002709079530900,4.992931396484375,-0.485969781844151,0.6987774373424104,-0.9747381209920347
1684002709089573000,5.002973388671875,-0.5223131179490629,0.7559906244951881,-0.6264247892566354
1684002709099615200,5.013015625,-0.5594904422943587,0.7424675226850317,-0.48669910438613023
1684002709109657000,5.023057373046875,-0.22644233692613924,0.7325898407977313,-0.8816795349567979
1684002709119699100,5.033099609375,0.5901777743955658,0.5483051538385277,-1.0348291397240248
1684002709129741200,5.0431416015625,0.9802203178220971,0.28773021700500906,-0.8512439726412898
1684002709139783300,5.053183837890625,1.2107269764110753,0.08621501923975061,-1.0439748762602845
1684002709149825200,5.0632255859375,1.2445609569049694,-0.15844988826027334,-1.1764917373789985
1684002709159867300,5.073267822265625,1.3785156013245348,-0.3919795750962032,-1.1998205185172641
1684002709169909400,5.083309814453125,1.5161871909369076,-0.5835617782131524,-0.7840719223633511
1684002709179951600,5.09335205078125,1.4436461924939088,-1.531166315192352,-0.1933107374438718
1684002709189993400,5.103393798828125,1.7832846642299187,-0.32966625680330014,0.9262342451317896
1684002709200035600,5.113435791015625,1.626147389468686,-0.27842116349447005,0.7267074585580393
1684002709210077600,5.12347802734375,0.8518180847225894,-0.7634663582338995,0.42889690383172663
1684002709220119700,5.13352001953125,0.7436697482879028,-0.44392085060161757,0.4599485398392022
1684002709230161600,5.14356201171875,0.9144139289332383,-0.019508242723146194,0.6607408525175886
1684002709240203600,5.15360400390625,0.8385961054181739,1.0351674555490533,0.8594007491037172
1684002709250245800,5.163646240234375,0.3692090511670365,-0.1583502293715665,-0.6592626571384348
1684002709260287600,5.17368798828125,0.6247172355838477,-0.7554447651717422,-0.2766933440802651
1684002709270329800,5.183730224609375,1.932679653180424,0.8415200115105392,-0.5052099228064553
1684002709280371900,5.193772216796875,1.9399610758260466,0.22872507565084255,-0.9339017868575501
1684002709290414000,5.203814453125,1.2451678515640818,-1.4156768321840665,-1.320712089425817
1684002709300455900,5.213856201171875,1.5966224669174798,-0.5082759856766033,-1.245939254796454
1684002709310498000,5.2238984375,1.973560333287564,-0.18112182623273285,-0.6847877501970995
1684002709320540100,5.2339404296875,1.196942091077399,-0.3304053544302263,0.3696804046546373
1684002709330581900,5.243982421875,0.48498129840895804,-0.20772898196132433,0.18494510652765656
1684002709340624000,5.2540244140625,0.07228159903337401,0.2785536051156058,-0.5324697495280004
1684002709350666200,5.264066650390625,0.1787824630431748,0.2216503620051943,0.45244884490919296
1684002709360708300,5.274108642578125,0.3846614361363939,0.35609269136420796,0.8887815475309082
1684002709370750100,5.284150634765625,0.11444568630259754,0.31279313550809046,0.2802877426473074
1684002709380792200,5.294192626953125,-0.41505360605884206,-1.0147764682508502,-1.0993595124873075
1684002709390834400,5.30423486328125,-0.0024921894972580075,0.17571747303923002,-1.6699662209538049
1684002709400876500,5.31427685546875,-0.6447551250187307,-0.5197700263487216,-2.2556371688020542
1684002709410918300,5.324318603515625,-0.6244413852902874,-0.7200546263748614,-2.0996427534990953
1684002709420960400,5.33436083984375,0.2474470138892521,-0.23215091227863557,-1.8419623375040564
1684002709431002600,5.34440283203125,0.6242851020452795,-0.6697642804386046,-1.9113888739329863
1684002709441044400,5.35444482421875,1.4114598036628232,-0.18635153762895665,-2.12910318360142
1684002709451086600,5.36448681640625,1.4970982075675234,-0.047580003771997725,-1.122293472422445
1684002709461128600,5.374529052734375,2.0055162906828636,-0.04503238214108281,-0.7964973450988614
1684002709471170700,5.384571044921875,2.0075314044809978,-0.9716660976180913,1.1768484115611815
1684002709481212600,5.394613037109375,2.826870441338872,-0.6835417746144375,2.1452322006401463
1684002709491254600,5.404655029296875,2.9095551967900657,-0.21960258473538205,1.6767129896680133
1684002709501296800,5.414697265625,2.082172632116179,-0.44920825956971816,1.188206672804299
1684002709511338900,5.4247392578125,0.8379498124000174,-0.3995645046176035,1.2967557908117797
1684002709521380800,5.43478125,0.12639200681080542,-0.18964672089698512,0.03538608545746172
1684002709531422900,5.4448232421875,-0.4506593942239478,-0.19660496724101087,-0.019810676614403513
1684002709541465000,5.454865478515625,-0.6550108193143123,-0.2133584022757723,0.26603794086262245
1684002709551507100,5.464907470703125,-0.7019910811699535,-0.25432896607516475,0.19746112841960708
1684002709561549000,5.474949462890625,-0.6692856551365489,-0.9590563774212353,-0.6349840164678598
1684002709571591100,5.484991455078125,0.28872537605781445,-0.49881839758786284,1.2619771956061734
1684002709581633200,5.49503369140625,0.5532232522295456,-0.6146960258488501,0.7379121780558311
1684002709591675300,5.50507568359375,0.5532281994934498,-0.8120453357619519,-0.507757186918869
1684002709601717200,5.51511767578125,0.6590531467839843,-1.086232185432014,-0.8427886963500738
1684002709611759300,5.52515966796875,0.996453642855074,-1.2860817908456792,-1.0661525725381158
1684002709621801400,5.535201904296875,1.2376590967306391,-1.2183718681932705,-1.0021200180178298
1684002709631843200,5.54524365234375,1.0219072103715987,-1.0645484924346909,-0.6222820281136661
1684002709641885400,5.55528564453125,0.6645039320139527,-1.0234026909841067,0.139931678807779
1684002709651927600,5.565327880859375,0.838041365115095,-1.0427608489307099,0.7526350020908553
1684002709661969600,5.575369873046875,1.4328196049632855,-0.7729535101056235,0.7988929748962885
1684002709672011400,5.585411865234375,1.762858986863957,-0.22178697594827423,0.20515918749215928
1684002709682053600,5.595453857421875,1.4592324496482743,-0.509930610664919,0.008807182207839348
1684002709692095600,5.60549609375,2.575811386130474,0.8324770928665023,-0.6100149156023528
1684002709702137600,5.615537841796875,0.996859073652175,0.46744346615422033,0.7743825910916194
1684002709712179600,5.625580078125,-0.30510771276343684,-0.07991695391610712,1.5351867675736641
1684002709722221700,5.6356220703125,-0.45306578290717364,0.046071529448293874,1.5204191208348528
1684002709732263900,5.645664306640625,-0.2947801351616511,0.7348446846048149,2.047870635992147
1684002709742305600,5.6557060546875,-0.16071599716759452,1.7597026824316924,2.446534156776191
1684002709752347800,5.665748291015625,-0.0666564554556217,1.887230157824345,3.5088253021323705
1684002709762389900,5.675790283203125,0.3333866893423213,1.553148508147918,3.9132537840153847
1684002709772432000,5.68583251953125,0.5091863274946749,1.4731907844844963,3.151882171748638
1684002709782473900,5.695874267578125,0.23216913638017977,1.4620270727818303,1.6099910735216965
1684002709792516000,5.70591650390625,-0.16682901989691581,0.6515097618755736,1.1360082624967491
1684002709802558100,5.71595849609375,1.0768979786538377,0.22613286974514363,0.7190418243985006
1684002709812600200,5.726000732421875,1.6844353674989794,0.33491849914749383,-0.5484018324733069
1684002709822642100,5.73604248046875,2.8089904784747,-0.00890302649307775,-0.4514298437479143
1684002709832684200,5.746084716796875,4.9664044381289765,0.8190479278064916,-0.1863613127845627
1684002709842726300,5.756126708984375,-1.370216608049455,1.9052393435200161,-1.696444988127241
1684002709852768200,5.76616845703125,-4.667129516589652,1.3647975922385784,-1.6393461227706425
1684002709862810300,5.776210693359375,-3.1849060057943204,2.0129573343268157,-0.40237951277155015
1684002709872852400,5.786252685546875,-1.049292206802492,2.9305918217329374,0.320919990546327
1684002709882894600,5.796294921875,0.23872220513883088,3.332978487091609,1.1647500991676805
1684002709892936400,5.806336669921875,0.593245685235825,2.6233956813650208,1.3135547638696894
1684002709902978600,5.81637890625,0.5011091234042496,1.0386662483894173,0.3522357939808119
1684002709913020600,5.8264208984375,0.27182567113310746,-0.4730520248816027,0.46590518954683435
1684002709923062600,5.836463134765625,-0.1435018182396055,-3.103178501096228,1.5105342864775229
1684002709933104600,5.8465048828125,-1.0365747212045475,-5.536203384331865,2.1207070350683335
1684002709943146600,5.856547119140625,-0.2762518525017889,-3.9429306983593855,-0.058827400072218025
1684002709953188800,5.866589111328125,-0.03746122131598983,-1.7796478272574061,-2.0053672789362222
1684002709963230600,5.876631103515625,-0.08243232970911303,-0.08885717383545283,-2.4786362648839084
1684002709973272800,5.886673095703125,-0.3441474139562378,0.9825062752797772,-2.2545747755699135
1684002709983314900,5.89671533203125,0.1377763151869231,1.2276487349867282,-0.5077757835414346
1684002709993357000,5.90675732421875,0.5427563191394781,1.1749806405197427,1.050209998982831
1684002710003398800,5.91679931640625,0.7383631468647105,1.1293110846677805,0.6868953706393202
1684002710013440900,5.92684130859375,1.3347886800692452,1.0726246833369697,-0.4142484665185566
1684002710023483100,5.936883544921875,1.6904290913546545,0.5957994460699222,-1.6147131919336228
1684002710033525200,5.946925537109375,4.191236972655518,-0.14313697818085241,-2.8224267958559897
1684002710043567000,5.956967529296875,3.7560310362592806,0.40080070493627645,-1.404969215362562
1684002710053609100,5.967009521484375,3.222409725134548,0.5334248543098223,-0.29764938355713405
1684002710063651200,5.9770517578125,1.7623990773561404,0.4513568879404134,0.04834079736449905
1684002710073693400,5.98709375,0.5295031666759501,0.8692784309600308,0.3490509985814311
1684002710083735200,5.997135498046875,-0.2712236941457962,1.203546047206809,0.8523440359851282
1684002710093777300,6.007177734375,0.24894554910487546,1.6939668656978029,1.2733545304249199
1684002710103819400,6.0172197265625,0.7935377359468252,1.6629233359465598,1.0283708571226893
1684002710113861600,6.027261962890625,1.262162327762158,1.283293247254572,0.2839994431098296
1684002710123903400,6.0373037109375,1.4865267276978578,0.6810936926919553,-0.7009124754706345
1684002710133945600,6.047345947265625,1.32743787757425,0.17653322217474063,-1.6838965414044342
1684002710143987600,6.057387939453125,0.9558329583735014,-0.334994792940478,-2.024631023387539
1684002710154029600,6.067429931640625,0.6223595142993226,-0.7359356879891499,-1.7380971909285285
1684002710164071600,6.077471923828125,1.2172750235324379,-2.3235650063757856,-1.0284938813929556
1684002710174113600,6.08751416015625,1.9109963179793428,-2.772712230593097,0.6174669265755084
1684002710184155800,6.09755615234375,1.4280102253220937,-1.9753246307333683,2.057676792117041
1684002710194197600,6.10759814453125,0.8069373368733569,-0.40690851208656303,1.8563680648998095
1684002710204239800,6.11764013671875,0.6736111640588762,0.7862968445647953,1.1149368286773766
1684002710214281900,6.127682373046875,0.164439141810606,1.272503852939054,0.8383126259456309
1684002710224323800,6.13772412109375,-0.5339261888580694,1.1177625654394558,0.7242336273259609
1684002710234365900,6.147766357421875,-1.2960596084178762,0.6707596778613416,0.8067436219237657
1684002710244408000,6.157808349609375,-2.308428049086721,0.876013755836281,0.37354850754946967
1684002710254450100,6.1678505859375,-1.9699672459482087,1.5066423417045702,0.13631725313705606
1684002710264492000,6.177892333984375,-0.6338852047764496,1.7704916000053936,0.10585641866902518
1684002710274534100,6.1879345703125,0.2880077361165706,1.5764608383659469,-0.08235549917141613
1684002710284576200,6.1979765625,0.9526146650570524,1.4222517014489426,-0.31802415850143395
1684002710294618300,6.208018798828125,0.771982312278694,0.6725330351545434,-0.2840313911951058
1684002710304660100,6.218060546875,0.3251328168683552,-0.417895793765715,-0.4342780112605676
1684002710314702300,6.2281025390625,0.34419319045577146,-1.0976490973963804,-0.6437320708300923
1684002710324744400,6.238144775390625,0.36047172546207024,-0.9261684418040828,-0.930165290825171
1684002710334786600,6.248186767578125,0.12133190031304932,-1.7202863693359334,-0.6044287681025041
1684002710344828300,6.258228759765625,0.27780637151909227,-1.8980813026731052,0.18282508852290025
1684002710354870400,6.268270751953125,0.6038669347250201,-1.3191032409028192,1.1402444839887782
1684002710364912600,6.27831298828125,0.7120820284149565,-0.8726887702191577,1.1237921713493093
1684002710374954600,6.28835498046875,1.2028898000278063,0.05004215229214452,0.9713025093451776
1684002710384996600,6.29839697265625,0.819267034605699,0.9985918998970363,-0.15315675738703577
1684002710395038600,6.30843896484375,0.15865130715449718,0.8195662498072556,-0.6732449531317254
1684002710405080800,6.318481201171875,0.20782221853087346,1.1926922799066295,-1.117479801267388
1684002710415122900,6.328523193359375,0.09929735952509813,1.2529997825446946,-1.240544319067198
1684002710425164600,6.338565185546875,0.2998365462528815,1.4597210883754852,-0.884011745530127
1684002710435206800,6.348607177734375,0.6523233653792381,1.8912200926031797,-0.12747955326223714
1684002710445248900,6.3586494140625,0.5747229458091472,2.0803520680122256,0.25387382502628203
1684002710455290800,6.368691162109375,1.7634923458637703,1.695737838682818,0.9401912688210873
1684002710465332900,6.3787333984375,1.2338901757333516,0.13100051868077506,0.9460716248250253
1684002710475375000,6.388775390625,-0.03720921276788256,-1.5413160323682211,2.084058761491571
1684002710485417100,6.398817626953125,-0.7866916654912639,-1.7575955391406124,2.471548080344117
1684002710495459000,6.408859375,0.8532555699180919,-0.4247560500778224,1.794172287141473
1684002710505501100,6.418901611328125,1.3291685582452297,0.494237423094346,2.0995931626071878
1684002710515543200,6.428943603515625,0.7906284333475078,0.4439835549056422,1.5884265900147108
1684002710525585100,6.4389853515625,0.40657228230424003,0.1256346702372246,0.011681556692594318
1684002710535627200,6.449027587890625,0.19626131652314566,-0.955623626692208,-0.34978675851635
1684002710545669300,6.459069580078125,0.705817222652246,-1.2580728531930534,-1.0817108155627633
1684002710555711400,6.46911181640625,1.2943825723219853,-1.1757488251003079,-1.3633546827792935
1684002710565753300,6.479153564453125,2.2993938923706065,-0.5113787651466938,-1.1560277939298282
1684002710575795400,6.48919580078125,2.4706556796835217,-0.3298544884483246,-0.3290128708510026
1684002710585837600,6.49923779296875,2.436610221861041,0.5686678886646519,-0.12498092650839597
1684002710595879600,6.509280029296875,2.333366155629136,0.7769594193989054,0.4727430343819354
1684002710605921500,6.51932177734375,1.9287106990255933,0.5414357184731955,-0.021365165621310047
1684002710615963600,6.529364013671875,1.073643088241827,-0.23292255387678368,-0.76861095417017
1684002710626005600,6.539406005859375,0.39890080696410907,-0.3915205002323572,-1.0001130104306781
1684002710636047800,6.5494482421875,-0.16978842015402365,-1.2696886062970567,-1.069031715464881
1684002710646089600,6.559489990234375,-0.2913382052785462,-0.5259904862472944,-1.2511038780273318
1684002710656131800,6.5695322265625,0.635022044133583,1.7042341233074205,-2.1304087637287488
1684002710666173900,6.57957421875,0.7309840916851433,2.832718849185616,-2.5705022811443525
1684002710676216000,6.589616455078125,-0.4932100771780313,2.598005056387019,-1.7030377387404456
1684002710686257800,6.599658203125,-1.3839876650775198,-0.2646384239347833,-0.16335487371356572
1684002710696300000,6.609700439453125,-1.453580975548923,-2.158502578765769,0.3284425736240852
1684002710706342100,6.619742431640625,0.2774510085903364,-2.530964851334183,-0.3087663649874845
1684002710716383900,6.629784423828125,2.2062947750718287,0.16907644271889943,0.03483343137420656
1684002710726426000,6.639826416015625,1.8449130058486352,-1.439065933250584,1.2720918655278002
1684002710736468100,6.64986865234375,1.5690149068841486,-0.42834711072261805,1.610365867758188
1684002710746510300,6.65991064453125,-1.1522979735369014,-2.23028278352074,0.6402792931326452
1684002710756552100,6.669952392578125,-0.8937489985815733,-1.0297827719981199,-0.5566854476131943
1684002710766594200,6.67999462890625,-0.8269104957821903,-0.3454685211438937,-1.1553382873393188
1684002710776636300,6.69003662109375,0.5946719646492388,0.2673840523528138,-0.31443500511749717
1684002710786678400,6.700078857421875,0.9425136447453485,1.433130264246812,0.4823307992070045
1684002710796720300,6.71012060546875,1.4249153137869444,0.8912572862185648,0.30860137932620907
1684002710806762400,6.720162841796875,1.4311184881965016,0.10034227367509078,0.11936569205590519
1684002710816804600,6.730204833984375,0.9081230162954423,-0.3370690346189133,-0.20963239679098336
1684002710826846600,6.7402470703125,0.5836924908891891,-0.06665325172421706,-0.5965347290489038
1684002710836888600,6.750288818359375,0.623251974580396,1.3129892349148893,0.21011543285049747
1684002710846930600,6.7603310546875,0.7549292445406237,1.2362370491345074,0.08268976210477913
1684002710856972600,6.770373046875,0.4339619873257412,1.2018132209408217,-0.10798311241477983
1684002710867014800,6.780415283203125,-0.0010546446969620941,1.166977882395081,0.4187631607803662
1684002710877056600,6.79045703125,-2.607013702321544,-0.038341999088596,-1.6893420218852637
1684002710887098800,6.800499267578125,-3.3273801802735976,-0.12551546109198894,-0.6633853911570011
1684002710897140900,6.810541259765625,-1.4371898173764974,0.32269430158659906,0.17690801629273759
1684002710907182800,6.820583251953125,4.864843368543463,2.7008612154819445,3.3309006690208345
1684002710917224900,6.830625244140625,-1.1354871988658626,-2.353574752771365,0.6652612687331741
1684002710927267000,6.84066748046875,0.9409598112970754,-1.7061514855007238,-0.35397815696108953
1684002710937309100,6.85070947265625,0.06047904493820039,-2.9943156242704605,-0.3731999398326819
1684002710947351000,6.86075146484375,-0.730054736198866,-3.1577830314640147,-1.1653122900599395
1684002710957393100,6.87079345703125,-1.0885088444227573,-2.046732425669636,-1.1867818831658852
1684002710967435200,6.880835693359375,-1.0208203792399213,-0.2897915839511545,-0.5874290465759672
1684002710977477300,6.890877685546875,-1.3785104751262391,0.36152935022829447,-0.5083851813240162
1684002710987519200,6.90091943359375,-1.631712198319968,0.5215492247889922,-0.6879363058800094
1684002710997561300,6.910961669921875,-1.510708689726338,0.41919946666583324,-0.8446679115521384
1684002711007603400,6.921003662109375,-1.3923108578932866,0.2516078950403575,-1.0391526223614835
1684002711017645600,6.9310458984375,-0.9748942852362018,0.4974298476812881,-0.8476262091950291
1684002711027687300,6.941087646484375,-0.6816716194223755,0.6956758500749726,-0.23803377149260904
1684002711037729500,6.9511298828125,-0.5472133160058412,0.5050354003059588,0.04271841051099535
1684002711047771600,6.961171875,-0.2262294292552682,0.08107137672385172,0.11850738523137908
1684002711057813600,6.971214111328125,0.00853848441536597,-0.23357057561406128,-0.3442335129791658
1684002711067855600,6.981255859375,0.19073748574835753,-0.26453304300661507,0.11355113982682367
1684002711077897600,6.991298095703125,-0.02859377854156339,-0.3765697479903093,0.5998020171594659
1684002711087939800,7.001340087890625,-0.42974090576475904,-0.5661077499956224,1.249427795462014
1684002711097981900,7.01138232421875,-0.6245832442603565,-0.5383443832485465,1.1884980200802766
1684002711108023600,7.021424072265625,-1.0022289753102893,-0.41148853305971167,0.6646900177440052
1684002711118065800,7.03146630859375,-1.3463714122038395,0.5702033042803228,-0.08210420602043417
1684002711128108000,7.04150830078125,-0.9515411853278579,1.3860421179752889,0.053798198654338325
1684002711138149800,7.05155029296875,-0.4018726349846612,1.6049408913973724,0.2120275496328602
1684002711148191900,7.06159228515625,0.06022143357571088,1.5694575309865955,-0.015833854748499406
1684002711158234000,7.071634521484375,0.17454743379841148,1.6633839608100491,-0.5166053771081586
1684002711168276100,7.081676513671875,-0.17446613315727214,0.7381525039011514,-0.537261962832095
1684002711178318000,7.091718505859375,-0.3318600654229785,-0.2530255317312098,0.09702825540507139
1684002711188360100,7.101760498046875,0.05842685709533893,-0.9968271254574715,0.6198210716110827
1684002711198402200,7.111802734375,-0.5012860296288054,-1.4663290977040857,1.2777214051439802
1684002711208444300,7.1218447265625,-0.7362790107669315,-1.0182542801083345,1.902479648643062
1684002711218486400,7.131886962890625,-0.7909729479725031,-0.530111789686221,1.4472098351739813
1684002711228528300,7.1419287109375,-0.8162457942704254,-0.0003690718939525522,0.7001271247443117
1684002711238570400,7.151970703125,-0.8707194329764024,0.10485267649826188,0.04580974584372819
1684002711248612600,7.162012939453125,-0.6289544105294367,0.18764162075909152,-0.6375613213105461
1684002711258654400,7.1720546875,-1.618935585139026,2.2657873629617655,-1.1271491051297384
1684002711268696600,7.182096923828125,-1.5662417410909446,1.791718483015891,-1.8331060410212747
1684002711278738600,7.192138916015625,-0.6189234255981357,0.9921550750140993,-1.3102793693951755
1684002711288780600,7.20218115234375,-0.5353028774134002,0.10920000086791493,-1.2269392012768252
1684002711298822600,7.212222900390625,-0.3071856500042928,0.13252067556530642,-0.9362258911940184
1684002711308864600,7.22226513671875,0.827019214585697,-0.11212062843725495,-0.43690347680570846
1684002711318906800,7.23230712890625,0.9155442715786811,-0.6430177688716336,0.05661058431198662
1684002711328948900,7.242349365234375,0.3793301581916441,-1.081758499253055,0.3671913148594689
1684002711338990800,7.25239111328125,-0.19422030432167828,-0.36472892773470394,0.45552444474369913
1684002711349032900,7.262433349609375,0.2445461749954443,-1.1811275483413746,0.08802461612439325
1684002711359075000,7.272475341796875,0.8326232433858377,-0.03699493401909889,-1.5664677619892293
1684002711369117100,7.282517578125,0.10351991660740481,0.18871164327245357,-1.6706013679619685
1684002711379159000,7.292559326171875,-0.812574386637034,0.08773279191572456,-1.0859684943973447
1684002711389201100,7.3026015625,-0.9139404297527166,0.3792343139674845,-0.6937556266461977
1684002711399243200,7.3126435546875,-0.7984285354414868,0.9677605627460211,-0.35862827316268475
1684002711409285300,7.322685791015625,-0.508832216428442,1.7777061462929302,-0.3830823897183849
1684002711419327200,7.3327275390625,-0.3450214861211671,1.6543960571654053,-0.3320808410726189
1684002711429369300,7.342769775390625,-0.2648673058281812,1.9160780906160977,-0.3545904160222162
1684002711439411400,7.352811767578125,0.23981380443541656,3.7349061967357855,-0.15689516082399096
1684002711449453600,7.36285400390625,0.19577836986195896,3.452138900776695,-0.39877128588834987
1684002711459495300,7.372895751953125,0.21399474154877732,2.02930498117518,-0.047578811690151476
1684002711469537500,7.382937744140625,-0.015712738020696823,2.1797027587537787,-0.542377948600482
1684002711479579600,7.39297998046875,0.5608941316197406,-0.8028702736258148,0.3521509170025006
1684002711489621600,7.40302197265625,-0.44724845871589824,-1.130048275014969,1.0473856925686327
1684002711499663600,7.41306396484375,-0.44083046902547957,-0.7703156471653941,1.1646037101712188
1684002711509705600,7.42310595703125,0.20845246318433286,-0.5260767936721705,0.6897258758806071
1684002711519747800,7.433148193359375,0.5153740643094142,0.13403320311367506,0.1727628706108482
1684002711529789900,7.443190185546875,0.5787669420172346,0.9606151579540834,-0.21766424172501214
1684002711539831600,7.453232177734375,0.3161613942126485,1.1044726372265659,-0.6456060409284491
1684002711549873800,7.463274169921875,0.23742055891927535,1.0783934594539357,-0.9537854195790548
1684002711559916000,7.47331640625,0.02082133299732724,1.0456552506307377,-1.0180935860020703
1684002711569958100,7.4833583984375,-0.02445125587228239,0.8086524009709143,-1.1934375763187985
1684002711579999900,7.493400390625,0.02224302302849838,1.1716570853210275,-1.156178474480396
1684002711590042000,7.5034423828125,-1.1291470527329157,1.7085456847645633,-1.3195011615600747
1684002711600084100,7.513484619140625,-0.5811896323954793,-0.5839395522456776,-2.225808143593267
1684002711610126000,7.5235263671875,-0.7544546127242026,-0.604457855234063,-1.325093984474494
1684002711620168100,7.533568603515625,-0.5299830437565035,-1.0571622849397955,-1.0098659993741144
1684002711630210200,7.543610595703125,-0.3544619083385144,-1.5239877699805564,0.010067939725820587
1684002711640252300,7.55365283203125,-0.10776853563488502,-2.5430402755800268,1.339903354707805
1684002711650294200,7.563694580078125,0.4283096790457678,-3.1188974380357735,2.5414714814556607
1684002711660336300,7.57373681640625,0.5751094819169308,-2.8506288529598303,3.5249705314794997
1684002711670378400,7.58377880859375,0.3041889668501017,-2.138809204035987,3.436285972527396
1684002711680420600,7.593821044921875,-0.24019575114118197,-1.449464798004497,2.326831817527167
1684002711690462600,7.603863037109375,-1.0109889508448602,-0.5706014633051375,0.9213914870822939
1684002711700504600,7.61390478515625,-1.143349885970678,0.06781387318969316,-0.41235661501062576
1684002711710546600,7.623947021484375,-0.8284642694764386,0.30769443508912053,-1.299494981775028
1684002711720588600,7.633989013671875,-0.5296926497760257,0.6637010575472615,-1.4756934644498083
1684002711730630800,7.64403125,-0.2221124172827964,1.6261286735933993,-0.8488557338848542
1684002711740672600,7.654072998046875,-0.1758985520368564,1.4338140487824549,-0.8029034137405142
1684002711750714800,7.664115234375,-0.050294637739774994,0.301039218887443,-0.7990479469814534
1684002711760756900,7.6741572265625,0.13287091247941837,-0.7328481674787285,-0.47737932206687306
1684002711770798800,7.68419921875,0.28691101077162007,-1.0157642365568778,-0.3316130639640648
1684002711780840900,7.6942412109375,0.39217305195084623,-0.7003650665802457,-0.0016913412831366394
1684002711790883000,7.704283447265625,0.3419265747521622,-0.6428661346019832,0.3869566915865026
1684002711800925100,7.714325439453125,0.25040459632416323,-0.13549995408476354,0.8623423576072968
1684002711810967000,7.724367431640625,0.18580961223366146,0.17318344108208908,0.913570404058001
1684002711821009100,7.734409423828125,0.1697652339937088,0.1999902725026367,0.7229924201320691
1684002711831051200,7.74445166015625,0.03782892228754105,0.9259500503189548,0.3917646407942703
1684002711841093300,7.75449365234375,0.08562517154519914,1.1761956213741858,0.0832748413978678
1684002711851135400,7.764535888671875,0.1932084559983461,1.0653009416113477,-0.10474014270392822
1684002711861177300,7.77457763671875,0.1565735340421489,0.9008240699083396,-0.17647624012217455
1684002711871219400,7.784619873046875,0.0259454249022682,0.9464263917036311,-0.17894411090451837
1684002711881261600,7.794661865234375,-0.028211832061806004,0.26655673993177814,-0.25240373626679247
1684002711891303300,7.804703857421875,-0.004139185075077474,0.017832756082873127,-0.25780248645215204
1684002711901345500,7.814745849609375,0.00293326368541757,-0.07878971115185114,-0.18201446519025563
1684002711911387600,7.8247880859375,-0.05774712564038406,0.4089078904354321,-0.001155376596037185
1684002711921429600,7.834830078125,-0.19922280303024187,1.3941302300805443,0.2604441641116021
1684002711931471600,7.844871826171875,-0.23084425909248768,1.5119376181320607,0.22495698921544244
1684002711941513600,7.8549140625,-0.19439864163866954,1.4906802178209044,-0.004500389195561851
1684002711951555800,7.8649560546875,0.0834407804730101,0.5303592680447361,-0.03795671469163481
1684002711961597900,7.874998291015625,0.17369937879137967,-0.07008266454405106,0.2396612167572285
1684002711971639600,7.8850400390625,0.09969997409607378,-0.3392467499933918,0.2890143394266663
1684002711981681800,7.895082275390625,-0.11888647073107586,-0.2327337264169677,0.3445677757676095
1684002711991724000,7.905124267578125,-0.4379417896398077,-0.08994007105690299,0.29177999499152074
1684002712001766100,7.91516650390625,-0.5281419753835198,-0.7017345427669432,-0.08193206804865158
1684002712011808200,7.92520849609375,-0.5166702270765303,-0.44498729696660544,-0.1863386632590054
1684002712021850000,7.93525048828125,-0.6963949203917713,-0.30518436433235513,-0.29937696443149764
1684002712031892100,7.94529248046875,-0.693670988135285,1.051858902049378,-0.04055786118117704
1684002712041934300,7.955334716796875,-0.7526726722052118,0.9455018043254253,-0.5252902508064098
1684002712051976100,7.96537646484375,-0.8471190929519339,1.817571639984094,-0.44220376014700824
1684002712062018200,7.975418701171875,-1.140859126928063,0.9514508246319208,-0.6661996841019328
1684002712072060300,7.985460693359375,-1.2977819442699237,-0.8171939850517711,-0.21550011631874924
1684002712082102400,7.9955029296875,-1.2581388949913146,-2.6538248063212664,0.3317780494432431
1684002712092144300,8.005544677734376,-0.9933979511384098,-2.612465858483087,0.42191123973911343
1684002712102186400,8.0155869140625,-0.5754470823737635,-0.6475486755196657,0.7808828354296674
1684002712112228600,8.02562890625,-0.2501239776678528,0.021207809397171692,0.9472465513882038
1684002712122270600,8.035671142578124,-0.2643890380250035,0.16480827324242567,0.7233195305751743
1684002712132312800,8.045713134765625,-0.36805677419018457,2.0183200835934136,1.0049104690791582
1684002712142354600,8.055755126953125,-0.4540216921556078,-0.13350677500272673,-0.08914089199519531
1684002712152396600,8.065797119140624,-0.49700140963908607,-0.32765388476112767,-0.5827627182666488
1684002712162438800,8.075839111328126,-0.27458095557814327,0.4503898621486309,-0.7012290954995014
1684002712172480600,8.085881103515625,0.25423216823602446,1.7199535369808665,-0.59598112112134
1684002712182522800,8.095923095703125,0.5988975764017204,0.3240509033660822,-1.2429065704157662
1684002712192564900,8.10596533203125,0.6441953181356558,0.0366373061502327,-1.655346155106839
1684002712202607000,8.11600732421875,0.5021078586839115,-0.44766330709757074,-1.765849351834693
1684002712212649100,8.126049560546875,0.12030196198443872,-0.9268999100542524,-1.8394973277939504
1684002712222691000,8.13609130859375,-0.28606677054376195,-0.8823556899807713,-1.7614028453953408
1684002712232733100,8.146133544921875,-0.5112090111081599,-0.8792104721219911,-1.540828228035154
1684002712242775200,8.156175537109375,-0.5654711722713721,0.9092035291630101,-0.3504700661899232
1684002712252817300,8.1662177734375,-0.5359628200688912,0.13586139679510917,-0.6166410446461703
1684002712262859200,8.176259521484376,-0.5212779044365312,0.5168361663205966,-0.44761872297772604
1684002712272901300,8.1863017578125,-0.7929270266386121,1.3953371048119891,0.07545995717520582
1684002712282943400,8.19634375,-1.0203680991795416,-1.0187721251302273,-0.8339505195354873
1684002712292985600,8.206385986328126,-1.0331852436929982,-0.684424400305562,-0.7505910397847462
1684002712303027400,8.216427734375,-0.9480334519171257,1.3464918137041397,-0.13498568549790324
1684002712313069600,8.226469970703125,-0.8731440306718716,-1.5119361876283255,-1.0462155341434733
1684002712323111600,8.236511962890624,-0.7354414463027635,0.35511589042653385,-0.4391810894378952
1684002712333153600,8.24655419921875,-0.6454006433352991,-1.1994724273949637,-0.689535140992718
1684002712343195600,8.256595947265625,-0.6727696656698766,-0.6534805298452717,-0.7989451883739311
1684002712353237600,8.26663818359375,-0.6224278212738462,2.0181360246251954,0.7782523631427973
1684002712363279800,8.27668017578125,-0.05210042003581012,-1.2347660064896566,0.05619192119005441
1684002712373321900,8.286722412109375,0.40088832381235917,-0.9350814819396448,0.1887497901222829
1684002712383363800,8.29676416015625,0.6551551819356081,-0.5444984437612093,0.8156003951798284
1684002712393405900,8.30680615234375,0.8000676631806647,1.4097595213161485,1.907689094560178
1684002712403448000,8.316848388671875,1.1477233171047636,-0.8506937026995505,0.9849829673244382
1684002712413490100,8.326890380859375,1.1042582988792287,-1.1108789444125757,0.8947606087488474
1684002712423532000,8.336932373046874,0.9901225567564473,-0.6613121032410173,1.099057197486186
1684002712433574100,8.346974365234376,1.0310170651036186,-0.09892272948687475,1.2314147948453804
1684002712443616200,8.3570166015625,1.2134201526212935,0.35072803505293915,1.0314395427736631
1684002712453658300,8.36705859375,1.4658831356947897,0.467312812977636,0.7101209162579436
1684002712463700400,8.377100830078126,1.6215628385536136,0.6447887420919519,0.4550883771020526
1684002712473742300,8.387142578125,1.5120248793088145,3.1419048310683375,1.2793779373413117
1684002712483784400,8.397184814453125,1.5785582065380654,0.07223892206288503,-0.17004179946548925
1684002712493826600,8.407226806640624,1.3154702185206377,0.4388551712658781,-0.14687585826387686
1684002712503868600,8.41726904296875,1.0315648316509665,0.9630203246438112,0.12461471548743373
1684002712513910400,8.427310791015625,1.092350006171591,0.036140441873265386,-0.4192841052317899
1684002712523952600,8.43735302734375,0.6687073112093112,0.13545799254323432,-0.5342025757543646
1684002712533994600,8.44739501953125,0.485263854151651,0.7561902999614611,-0.35683012001468356
1684002712544036600,8.45743701171875,1.099020600389841,1.3798751829701488,-0.10625648483641141
1684002712554078600,8.46747900390625,0.7930865883209549,0.819257736249763,-0.2055027484102566
1684002712564120800,8.477521240234376,0.47352805740800047,0.2920703887934877,-0.4262893199557212
1684002712574162900,8.487563232421875,0.3151037394537567,-0.37019252776707157,-0.4824593065608808
1684002712584205000,8.49760546875,0.43627324698637526,-1.1141309737870717,-0.30574202518462096
1684002712594246800,8.507647216796874,0.20526933653742435,-1.7428236008071596,-0.2941253183808781
1684002712604288900,8.517689453125,0.1713533103458265,-1.949367523269937,-0.22419977196649588
1684002712614331100,8.5277314453125,0.1726519763531043,-2.3835201263695063,-0.6912651062858416
1684002712624373200,8.537773681640624,0.1346756816217396,-2.444318771440443,-0.9797120095895473
1684002712634415000,8.5478154296875,0.13624572763850457,-1.6584424972326868,-0.635574579284559
1684002712644457100,8.557857421875,0.19907936443658988,-0.7712125778533439,-0.5339670182520045
1684002712654499200,8.567899658203125,0.48715952045051275,-0.5565166473715981,-0.7399673462729224
1684002712664541400,8.577941650390626,0.7868509292248215,-0.48625373827791724,-0.847054719894384
1684002712674583600,8.58798388671875,1.1008757352869574,-0.4008741378768748,-0.909507751489423
1684002712684625300,8.598025634765625,1.3089936970709413,-0.3454265593204345,-1.081604242320735
1684002712694667400,8.60806787109375,1.44533753409485,-0.35245513919961163,-1.0771172046390411
1684002712704709600,8.61810986328125,1.4480687380176276,-0.19726753235954916,-0.9989330767687723
1684002712714751600,8.628152099609375,1.3149814604992998,-0.04480648044278698,-0.9371168612534204
1684002712724793600,8.63819384765625,1.1148232221755556,0.10031509403752788,-0.7525603771007627
1684002712734835600,8.648236083984376,0.983536004996176,0.19030857081336555,-0.5865752695246944
1684002712744877700,8.658278076171875,0.8445776104658415,0.19808959968450135,-0.3788299561185405
1684002712754919900,8.6683203125,0.7283245920309562,0.2616634368980947,0.019625663730482527
1684002712764961600,8.678362060546876,0.598859906195737,0.31116008758432295,0.5425405502073976
1684002712775003800,8.688404296875,0.6485919953394583,0.39976978301063765,1.0709509850405161
1684002712785045900,8.6984462890625,0.7349653245217964,0.5891036986646416,1.4464201928530471
1684002712795088000,8.708488525390624,0.8483448624251076,0.6719760894916843,1.6398282049757364
1684002712805129900,8.7185302734375,0.9466258288004266,0.7310934065696583,1.4558768272132192
1684002712815172000,8.728572509765625,0.972015321076271,0.6411886214306884,1.2182745933023735
1684002712825214100,8.738614501953125,1.0115249155764814,0.5922737121429396,1.125031948157859
1684002712835256200,8.74865673828125,1.1133278609505954,0.6488904952790173,1.1593484877666933
1684002712845298100,8.758698486328125,1.223247289519452,0.6044330596578565,1.306862354364914
1684002712855340200,8.76874072265625,1.315575361089632,0.4964332582024252,1.285884857137767
1684002712865382300,8.77878271484375,1.3110245466248804,0.34663772583950336,1.1472139358241908
1684002712875424400,8.788824951171875,1.2159404755607486,0.1899738311875301,0.8866748810797292
1684002712885466600,8.798866943359375,1.0876194238379826,0.3446378707742968,0.9784436225951253
1684002712895508400,8.80890869140625,0.851610422036011,-0.6077423096215286,0.22111320508468066
1684002712905550600,8.818950927734376,0.6954131125250567,-0.15191173555893894,0.25983333590718605
1684002712915592600,8.828992919921875,0.4851032494766964,0.35345554353289604,0.3903341293373249
1684002712925634700,8.83903515625,0.3127072155657338,0.37843322753608044,0.3027009963401812
1684002712935676600,8.849076904296876,0.11701286587382756,0.3570203780408176,0.29234647748151726
1684002712945718600,8.859119140625,-0.050299901628973236,0.31972408287182597,0.3696227073429203
1684002712955760800,8.8691611328125,-0.20586764819092984,0.4457721709849437,0.3052048682455954
1684002712965802900,8.879203369140624,-0.08567993343436581,1.7704558372699963,0.6208500861866163
1684002712975844800,8.8892451171875,-0.28523957728593186,0.9980888366231329,0.3830862044523599
1684002712985886900,8.899287353515625,-0.35153019430600785,0.9524784088790325,0.463740825655293
1684002712995929000,8.909329345703124,-0.25188434115589925,0.6323089599600784,0.5084166528011157
1684002713005971100,8.91937158203125,-0.31086951487054104,0.2805223464386989,0.4216346740934977
1684002713016013000,8.929413330078125,-0.3698821664794796,0.05894279488987783,0.2955303192371941
1684002713026055100,8.93945556640625,-0.44723904142107135,-0.07168006891322426,0.3314466477521876
1684002713036097200,8.94949755859375,-0.5564132332990093,-0.08062267306022347,0.3062009812039004
1684002713046139300,8.959539794921875,-0.5599360466091347,-0.05886745443949342,0.24360847467209992
1684002713056181400,8.969581787109375,-0.5814542174283295,0.028463363766639396,0.03221607203953706
1684002713066223300,8.979623779296874,-0.43166565886501945,0.040838241591094546,-0.0059762002528088816
1684002713076265400,8.989665771484376,-0.17413827777585836,-0.14731025687243832,-0.1677761077948426
1684002713086307600,8.9997080078125,-0.003591865222262169,-0.23779106145964612,-0.43045115469652373
1684002713096349600,9.00975,0.12683075665361712,-0.5222892760727709,-0.5742294788846224
1684002713106391600,9.0197919921875,0.18682682510948934,-0.5556411744114254,-0.8159561157523553
1684002713116433600,9.029833984375,0.20164582132057263,-0.4842920303011068,-0.6734337806283397
1684002713126475600,9.0398759765625,0.18698707209805218,-0.41766834263723956,-0.5545787811534731
1684002713136517800,9.049918212890624,0.13986271630273506,-0.22615623467563153,-0.49621129038865686
1684002713146559600,9.0599599609375,0.1493486762552515,0.01744747154281554,-0.34212112422101476
1684002713156601800,9.070002197265625,0.10002908118704765,0.022267341694885756,-0.112922191683114
1684002713166643900,9.080044189453124,0.10777151568970086,0.16842269898520082,0.14278364173232078
1684002713176686000,9.09008642578125,0.11354056011899105,0.11470890052609996,0.29719781867729794
1684002713186728100,9.10012841796875,0.08191952107606175,0.04137229913225128,0.41870927805052505
1684002713196770000,9.11017041015625,0.13812124736545775,0.048951148875270245,0.5413680075844145
1684002713206812100,9.12021240234375,0.18503785133964715,0.20815658576922993,0.6927118301938306
1684002713216854200,9.130254638671875,0.1988145708105018,0.3054199217521034,0.7880234717341884
1684002713226896300,9.140296630859376,0.26506397131596143,0.4259576798742314,0.8399810791563692
1684002713236938200,9.150338623046874,0.2676874995207145,0.483202934413717,0.790197372504131
1684002713246980300,9.160380615234375,0.2228854596114571,0.39224624631223914,0.7123107908460765
1684002713257022400,9.1704228515625,0.15987724073519446,0.2715682983621837,0.6492938996790203
1684002713267064600,9.18046484375,0.10078769924605122,0.2795305252442736,0.6792635916668702
1684002713277106600,9.190507080078126,0.034898638752055636,0.36645412438865776,0.7920727729292448
1684002713287148500,9.200548828125,0.0017151237815469203,0.47188091287780215,1.017434597105703
1684002713297190600,9.210591064453125,-0.012661397478574492,0.5899333953058516,1.2403078080219998
1684002713307232600,9.220633056640626,-0.0006664394321793169,1.1492218971996746,1.3244194985549447
1684002713317274800,9.23067529296875,0.07857006788813853,1.377043724122447,2.049530029264039
1684002713327316600,9.240717041015625,0.1104652287141753,0.9500989914685739,2.1363492012014325
1684002713337358800,9.25075927734375,0.13232046367781503,0.6679420471123435,1.668133735594703
1684002713347400900,9.26080126953125,0.09970182169694985,0.7887535095963703,0.9612867831952053
1684002713357443000,9.270843505859377,0.14091390368008147,0.8935823441750723,0.657174348877403
1684002713367485100,9.280885498046874,0.19007110596652524,0.7607164384097571,0.5695884228391194
1684002713377527000,9.29092724609375,0.2914184331573042,0.6710777281194547,0.6096839906128503
1684002713387569100,9.300969482421875,0.4226831196841283,0.3530073166098209,0.7098395824650761
1684002713397611200,9.311011474609376,0.4736148716148968,0.30312442765446745,0.796000242349349
1684002713407653300,9.3210537109375,0.3067666888187478,0.5287866591388218,0.5419416426999039
1684002713417695200,9.331095458984375,0.02507555493206764,0.611751556379944,0.037180662188772994
1684002713427737300,9.3411376953125,0.08259737489976475,0.9250755311607779,0.18169355385729236
1684002713437779400,9.3511796875,0.06692945953725844,0.7793483734320532,0.6288244724838046
1684002713447821600,9.361221923828126,0.18093156808949432,0.6258516311514186,1.1726386547351715
1684002713457863300,9.371263671875,0.2607126235982117,0.6721324920588437,1.479422330798538
1684002713467905500,9.381305908203124,0.22000247240893214,0.8134508132338011,1.4973587989460753
1684002713477947600,9.391347900390626,0.33611661186978864,0.8981294632670417,1.3613512516736
1684002713487989600,9.40139013671875,0.46100962164093673,0.9234209059648137,1.5177321434720656
1684002713498031800,9.41143212890625,0.6391897795925247,1.2951335905961365,2.0211045740334566
1684002713508073600,9.42147412109375,0.696825027651669,2.0921187401868275,2.746213674437048
1684002713518115800,9.43151611328125,0.9066632391438273,2.0681414603785635,2.963690281017429
1684002713528157900,9.441558349609377,1.2225980758324746,1.0542764662879274,2.5871157646277956
1684002713538200000,9.451600341796874,1.3228588104679089,0.40561485295460026,2.1685955525127993
1684002713548241800,9.461642333984376,1.0590116976925426,0.367847442545771,1.8569517134517048
1684002713558284000,9.471684326171877,0.799807012260486,0.4966974259035454,1.5046691893938253
1684002713568326100,9.4817265625,0.7190905809721561,0.26790905002578,1.3149187563380385
1684002713578368200,9.4917685546875,0.5933300256244777,0.04386234271831626,1.0629270075775445
1684002713588410300,9.501810791015624,0.5670086741402537,0.20471286766366664,0.7604172229824663
1684002713598452100,9.5118525390625,0.4139665960633884,-0.15827178959567717,0.7009987830490363
1684002713608494300,9.521894775390624,0.6705863476040922,-0.20714759815095463,0.2563884257704685
1684002713618536400,9.531936767578124,0.5303923488369161,0.11620903025030559,0.2189140319655644
1684002713628578600,9.541978759765623,0.5920051930982465,0.14160346999678755,0.9544477461566778
1684002713638620300,9.552020751953124,0.28787189733681534,-0.5564489364464004,0.9888851641935731
1684002713648662400,9.562062744140626,-0.12605500208189707,0.1624364853353691,1.8317580222824106
1684002713658704600,9.57210498046875,-0.35856640353008984,-0.8458099363845774,2.171930551663834
1684002713668746600,9.58214697265625,-0.7973693609841482,-1.3570175170050105,1.7739424705670237
1684002713678788800,9.592189208984376,-1.0156403778864176,-0.675905227664522,2.0524568556921907
1684002713688830600,9.60223095703125,-1.0210981368900565,-1.3925342559384506,1.1740005016664659
1684002713698872800,9.612273193359377,-1.2698960304057108,-0.7545700072860895,0.28357648850386447
1684002713708914900,9.622315185546874,-1.1491250992115765,-0.6591272354702037,-0.6124048232750838
1684002713718957000,9.632357421875,-1.2494052646919431,-0.6301393509039722,-0.98972082127253
1684002713728999100,9.6423994140625,-1.430969357362845,-0.6145524979928346,-1.3880770206733848
1684002713739040900,9.65244140625,-0.831027388484165,-0.34235572818502286,-0.701528787543998
1684002713749083100,9.6624833984375,-0.7253147960042335,-0.5518083573145423,-1.141794443213358
1684002713759125200,9.672525634765623,-0.38010448221121623,0.4370126724334774,-0.33808565137334984
1684002713769167300,9.682567626953125,-0.06768050798793916,-0.6738119124906795,-0.6907820700751713
1684002713779209100,9.692609619140624,-0.05226781966902808,0.8294401168146003,0.4291920661172002
1684002713789251200,9.702651611328124,0.03810662031022971,0.025483131446183457,0.2530484199500296
1684002713799293400,9.71269384765625,-0.10603132835252616,0.4470930098441322,0.6596941947063594
1684002713809335500,9.72273583984375,0.093557626070627,-0.06415939337423184,0.7211866378493207
1684002713819377600,9.732778076171876,-0.04432921845575305,0.11920642855611373,0.5510363578370394
1684002713829419400,9.74281982421875,-0.17304658878867474,-0.028196334810828786,0.24459743498460326
1684002713839461600,9.752862060546876,-0.16264322393995712,0.05549144739231275,-0.023146629325726416
1684002713849503600,9.762904052734376,-0.48045903447720545,0.324036598277298,-0.0019869804108668607
1684002713859545800,9.7729462890625,-0.7186981439505746,-0.2409887315211859,-0.04975318894401736
1684002713869587600,9.782988037109376,-0.8795052767466706,-0.6149101258060332,-0.492627858999797
1684002713879629700,9.793030029296874,-0.9514051080936711,-1.2737483979257829,-0.28696489344034637
1684002713889671900,9.803072265625,-1.3373128176062954,0.0347223281885398,-0.07863473891209255
1684002713899714000,9.8131142578125,-1.4511799812169224,0.24808120733192948,-0.6496434211543396
1684002713909756100,9.823156494140624,-1.1272977589110031,-0.2975835800294828,-0.3165025709873301
1684002713919797900,9.8331982421875,-0.505284607389757,-2.1024379729669898,-0.26367235191803895
1684002713929840000,9.843240478515623,0.22201502318447905,-1.7315740586371415,0.6074404717393124
1684002713939882200,9.853282470703125,0.46218249212123896,-0.11757469167454772,0.16276216524609352
1684002713949924300,9.86332470703125,0.6562076807512904,0.030731201020528363,-0.8430666924400937
1684002713959966400,9.87336669921875,1.2296733856486188,-0.32664298996123686,-0.8458085060625065
1684002713970008200,9.88340869140625,1.6859450340425157,-0.4456777573990309,-0.5506439209382045
1684002713980050400,9.89345068359375,1.9165468215316954,-0.24578857430129586,-0.3386974334638931
1684002713990092500,9.903492919921876,2.039263486811243,-0.15498447417857672,-0.08654785160553846
1684002714000134600,9.913534912109377,2.103880405423206,-0.003709793053903094,0.1382579803677912
1684002714010176400,9.923576904296874,2.1077327729319917,0.08438968669359324,0.20729351047609396
1684002714020218600,9.933618896484376,2.0445201396736765,0.33814334867944396,0.26054477677342813
1684002714030260600,9.9436611328125,1.8984864951170994,0.513362407617475,0.3564314841816809
1684002714040302800,9.953703125,1.749826908178455,0.9480886459598253,0.6815643309810362
1684002714050344900,9.963745361328124,1.8829259872406032,1.2540245057668975,0.9682965277514536
1684002714060386700,9.973787109375,2.3150835038717137,1.0525054931476365,0.8458380700333985
1684002714070428800,9.983829345703125,2.374200582602866,0.9216661454248924,0.22657680524135543
1684002714080471000,9.993871337890624,2.3416500091321026,1.0353660583948072,-0.04774427417934843
1684002714090513100,10.00391357421875,2.1228358744211215,0.928276061903568,-0.2738847734164814
1684002714100555200,10.01395556640625,1.9509775638441067,0.7563152314063484,-0.430746078508521
1684002714110597000,10.02399755859375,1.799020767151814,0.6035842894327693,-0.5604629515798005
1684002714120639200,10.03403955078125,1.6701223850669953,0.47623348241924346,-0.5801472662643099
1684002714130681300,10.04408154296875,1.6507503986221672,0.36610507977179757,-0.5981683730692664
1684002714140723400,10.054123779296877,1.7019376754691982,0.2560367584867653,-0.6432604790924477
1684002714150765600,10.064165771484374,1.6284904480185936,0.16513156901667458,-0.6840472222168072
1684002714160807300,10.074207763671875,1.6475617885229097,0.08106613152298328,-0.5994009972398138
1684002714170849500,10.084249755859377,1.604397892904714,-0.04668045043303542,-0.5291857717989965
1684002714180891600,10.0942919921875,1.3268560170804475,-0.09731292731488464,-0.4759874344140042
1684002714190933600,10.104333984375,0.9700452090332197,-0.16828346234764585,-0.5152196885069423
1684002714200975600,10.1143759765625,0.6538223623866073,-0.29588127127079183,-0.46427679065855915
1684002714211017600,10.12441796875,0.2533942461123293,-0.46086311324444434,-0.4023036956184876
1684002714221059800,10.134460205078126,-0.18778276439932595,-0.6586694717887668,-0.26997804626839506
1684002714231101900,10.144502197265624,-0.7327356339321057,-0.8637371063368652,-0.10409164431551367
1684002714241144000,10.15454443359375,-1.3602602481496244,-1.0585212706494962,0.15601968755674647
1684002714251185800,10.164586181640624,-1.7162944078222666,-1.1112508773617875,0.28750944142964036
1684002714261228000,10.17462841796875,-2.079779147923083,-0.7117700575737669,0.585798740409402
1684002714271270100,10.18467041015625,-3.653667449900362,-0.3605566024888401,1.2467789649583767
1684002714281312200,10.194712646484374,-2.5707995892084283,-0.310627937307658,0.9417901038177608
1684002714291354300,10.204754638671876,-1.1182610989001711,-0.49681758891327965,0.22074508668438647
1684002714301396100,10.214796630859375,-0.08422613140527545,-0.7231464385645359,-0.16880607590920765
1684002714311438300,10.224838623046876,0.8034009933689856,-0.6359243393506293,-0.5577344895248616
1684002714321480400,10.234880859375,1.380978822534621,-0.09232425695639772,-0.8956990241066117
1684002714331522600,10.2449228515625,1.6599037646322745,0.15635299691245225,-0.9207558629966606
1684002714341564300,10.25496484375,1.6642054320330018,0.18118715276004085,-0.8163747786982651
1684002714351606400,10.2650068359375,1.4718668459621043,0.2257652284132075,-0.6184864043099018
1684002714361648600,10.275049072265626,1.2257182596310898,0.32422065733722355,-0.3969101906739173
1684002714371690600,10.285091064453123,1.0054972172725272,0.49931859965244335,-0.11954641345857728
1684002714381732800,10.29513330078125,0.8900820016776086,0.7099828719048421,0.13339662540582273
1684002714391774900,10.30517529296875,0.9522640704211988,0.865528106780412,0.3395204543421097
1684002714401816800,10.315217041015623,1.1122741700466712,0.9665966032952708,0.46044301991786696
1684002714411858900,10.32525927734375,1.2190214396279369,0.9849500655375594,0.5363965033782783
1684002714421901000,10.33530126953125,1.1959452629569105,0.9161367416330418,0.5929937363874778
1684002714431943100,10.345343505859375,1.0270296335673799,0.8772859573541191,0.5912141799776747
1684002714441985200,10.355385498046877,0.7908873558272824,0.7795438765770298,0.5973162650928876
1684002714452027100,10.365427490234374,0.5025984049207919,0.6416373252922474,0.5781750679002379
1684002714462069200,10.375469482421876,0.2191019059672189,0.4343514441299758,0.5543045997032446
1684002714472111300,10.38551171875,0.11346507074822869,0.35793495173697415,0.4671945571106241
1684002714482153400,10.3955537109375,0.06228935727858536,0.2339439391635691,0.16594266882985823
1684002714492195200,10.405595703125,0.16776692880310226,0.14993476871816422,-0.10256910331706073
1684002714502237400,10.4156376953125,0.26302826412087804,0.003520488850900953,-0.3598914146515965
1684002714512279600,10.425679931640625,0.23498892775913535,-0.07077884680792206,-0.41697406755163696
1684002714522321600,10.435721923828124,-0.032524466587215556,-0.17926311491158692,-0.2447524071331547
1684002714532363600,10.44576416015625,-0.2668778894951404,-0.1743755340996145,-0.04943895335981119
1684002714542405600,10.455805908203123,-0.18906676755685584,-0.11355590834602948,-0.1531629562593846
1684002714552447600,10.46584814453125,-0.08113670348902914,-0.1441583633564772,-0.4697408675019281
1684002714562489800,10.47589013671875,0.009664773947793198,-0.2791953087333008,-0.7194800376888965
1684002714572531900,10.485932373046875,0.28060114391037033,-0.3654236793403252,-1.0926089288342051
1684002714582574000,10.495974365234376,0.43482708928805097,-0.4728546141212845,-1.5253524780161816
1684002714592615900,10.506016357421874,0.385696530306387,-0.6458563803990011,-1.9185206889527362
1684002714602658000,10.516058349609375,0.2354122400171622,-0.7510080337371222,-2.290644407115804
1684002714612700100,10.5261005859375,-0.08896267417174072,-0.7464404107061655,-2.658040285016611
1684002714622742200,10.536142578125,-0.492416500911801,-0.5938630104536373,-2.9501063823296967
1684002714632784300,10.546184814453126,-0.92464590062594,-0.5169935226798653,-2.913465738280567
1684002714642826200,10.5562265625,-1.2479671240226835,-0.5327086447755438,-2.806147813684395
1684002714652868300,10.5662685546875,-1.2799743413763434,-0.6342692374392094,-2.6322035789772498
1684002714662910400,10.576310791015626,-1.0173785685899803,-0.8164129258055565,-2.3638691900444626
1684002714672952600,10.586352783203123,-0.936299920014251,-1.0786266327821303,-1.926874875936961
1684002714682994600,10.59639501953125,-1.1423431635737629,-1.4889087676200308,-0.9017086028744068
1684002714693036500,10.606436767578124,-1.2527313233182469,-2.2116546630427454,0.7443346977390971
1684002714703078600,10.61647900390625,-0.9867271185167082,-3.030472755465135,2.3845081329201463
1684002714713120600,10.62652099609375,-0.37983131410724696,-3.5896701811952294,3.312890052820223
1684002714723162800,10.636563232421874,0.4068536162155096,-3.4386281967589523,3.0087695121784876
1684002714733204900,10.646605224609376,1.338853955190551,-2.721837043687094,2.0335960388712007
1684002714743246800,10.656647216796877,2.15316534048768,-1.7866601942872413,1.015594005580886
1684002714753288900,10.666689208984376,2.388014316640888,-0.5823011399368034,-0.24784660340972978
1684002714763331000,10.6767314453125,2.2958683967580917,0.354014873539201,-1.217480182654859
1684002714773373100,10.6867734375,2.0344157218970107,1.0235223768875512,-1.81088280667624
1684002714783415000,10.6968154296875,1.6755204200754685,1.4027934075468793,-2.183384656912928
1684002714793457100,10.706857421875,1.3149555922113625,1.6269807815417552,-2.572096586135089
1684002714803499200,10.716899658203126,1.082080483521137,1.6191191673237615,-2.6964728831604092
1684002714813541300,10.726941650390623,0.8577859402374334,1.2653427122902563,-2.3337004185823575
1684002714823583400,10.73698388671875,0.6397077441784146,0.5881090165551731,-1.5062525272661627
1684002714833625600,10.74702587890625,0.5881147383923304,-0.06272983553496275,-0.08370208751919594
1684002714843667400,10.75706787109375,0.5482398867658508,-0.3193740844576704,0.8169713020490845
1684002714853709600,10.76710986328125,0.4871604738907518,-0.09685897829387949,1.1059594154515662
1684002714863751600,10.777152099609374,0.545228481292893,0.30817127211240697,1.2400770187085635
1684002714873793600,10.787194091796875,0.6826120615256311,0.7379889488737427,1.3379383087278354
1684002714883835800,10.797236328125,0.8420362472725912,1.0197415351606738,1.5346088410682894
1684002714893877600,10.807278076171874,1.0491709709633934,1.1189174652137797,1.7007379531483222
1684002714903919800,10.8173203125,1.3129541872901007,1.1590542792844638,1.6361513138992663
1684002714913961900,10.8273623046875,1.6261663437503375,1.0735182763050337,1.48249149316316
1684002714924004000,10.837404296875,1.827582597826621,0.8444190025359424,1.2940883636544895
1684002714934046100,10.847446533203126,1.9044404030565576,0.5372695923212089,1.1651201247363414
1684002714944088000,10.85748828125,1.9112831354139264,0.2073640822823597,1.0642580984960262
1684002714954130100,10.867530517578125,1.8784999845660602,0.031328201135110215,0.8426680564255458
1684002714964172200,10.877572509765624,1.732205867623326,-0.10798931127300271,0.45308160778236506
1684002714974214300,10.88761474609375,1.5842494964777765,-0.1672077179372425,0.035288333930652456
1684002714984256400,10.89765673828125,1.3892513512361404,-0.13410377500426518,-0.3380699158212813
1684002714994298300,10.90769873046875,1.215389609502215,-0.2143344877522866,-0.5190110206418597
1684002715004340400,10.91774072265625,1.0665692090747223,-0.268980026351558,-0.7130279542308819
1684002715014382600,10.927782958984375,0.9645541906998912,-0.2807979584276427,-0.9022135733087148
1684002715024424600,10.937824951171876,0.9376232624351195,-0.28775119787045683,-1.0047247409351396
1684002715034466600,10.947866943359376,1.0018754006453898,-0.4073686599620083,-0.9119396210924536
1684002715044508600,10.957908935546875,1.0796798468697357,-0.4440078735107801,-0.8975687027359012
1684002715054550600,10.967951171875,1.2052502631955426,-0.4068241119077213,-0.9101879596163901
1684002715064592800,10.9779931640625,1.3397357464508592,-0.42948150646070904,-0.7749121187512286
1684002715074634900,10.988035400390626,1.414179205870191,-0.4618082045632621,-0.5926015377336703
1684002715084676800,10.9980771484375,1.4776825903935875,-0.45104885108644033,-0.37006902691665416
1684002715094718900,11.008119384765624,1.4690282343808394,-0.3754138945299384,-0.2546291351187674
1684002715104761000,11.018161376953126,1.4291106463215018,-0.2872858047581282,-0.07105159752640461
1684002715114803100,11.02820361328125,1.3268538712768219,-0.07922363287426176,0.12080621719096164
1684002715124845200,11.03824560546875,1.2052602767139171,0.20776557918021882,0.22518682484163505
1684002715134887300,11.048287841796874,1.1008052826496462,0.4396057128710773,0.39251041414811877
1684002715144929200,11.05832958984375,1.0266245603961848,0.5778169633245264,0.5788497924573209
1684002715154971300,11.068371826171877,0.984397769169393,0.6365299224730765,0.7331571579011501
1684002715165013400,11.078413818359374,0.9703443647494508,0.6134080886137433,0.867133140678083
1684002715175055600,11.0884560546875,0.9461131692660336,0.4992103574948816,0.8687505720981457
1684002715185097600,11.098498046875,0.9126219152908152,0.3398351669921629,0.7078342437251514
1684002715195139600,11.108539794921874,0.8992075322706233,0.2574691770883413,0.4689116478057666
1684002715205181600,11.11858203125,0.9104793665973422,0.1637248993055237,0.22652673717639651
1684002715215223600,11.1286240234375,0.9156949520258316,0.15657424934277192,0.07865905755499827
1684002715225265800,11.138666259765625,0.9389892220294093,0.10682010653970342,0.06801843645860536
1684002715235308000,11.148708251953124,0.9778292774020845,-0.011827468800886469,0.09609556201234914
1684002715245349800,11.158750244140624,1.0369744299857833,-0.13981151564324487,0.20276021965201452
1684002715255391900,11.168792236328123,1.0778495072581327,-0.22969055174102943,0.24622964871205785
1684002715265434000,11.17883447265625,1.0972681045074297,-0.30109691624316115,0.2807307242000884
1684002715275476100,11.18887646484375,1.0673702954620519,-0.24436473838964556,0.16510677329117987
1684002715285518300,11.198918701171875,0.9685872195354112,-0.1240234374169195,-0.054330825807378226
1684002715295560100,11.20896044921875,0.6978017687372238,0.05528640737314522,-0.2835497855522054
1684002715305602200,11.219002685546876,0.29550761000668224,0.1529521942168921,-0.45711040504071104
1684002715315644300,11.229044677734375,-0.1456115246138364,0.09342384322149008,-0.5570802688391174
1684002715325686400,11.2390869140625,-0.4466046691376441,-0.04580593098352405,-0.5298752784461437
1684002715335728600,11.24912890625,-0.5159408450662901,-0.1759920121484202,-0.42580819147298
1684002715345770600,11.259171142578126,-0.26712703698721546,-0.1735916138787605,-0.18198156344358513
1684002715355812600,11.269212890625,0.19421377763957318,-0.009173393265399619,0.09838008875672846
1684002715365854600,11.279255126953124,0.5993759035886411,0.2202653884839445,0.34155082696502126
1684002715375896800,11.289297119140626,0.9146024584872858,0.33533859254762316,0.4496741295756011
1684002715385938900,11.29933935546875,1.122470855609311,0.23652648928298461,0.4886870384542856
1684002715395981000,11.30938134765625,1.206239342650532,-0.0323915482728935,0.4784045220115192
1684002715406022800,11.31942333984375,1.1775126456474838,-0.25570011131993875,0.38379812244602557
1684002715416064900,11.32946533203125,0.9885752202244191,-0.22988986965887906,0.2660245895701445
1684002715426107100,11.339507568359377,0.8275312780235613,-0.09618854518261163,0.11138153081394506
1684002715436149200,11.349549560546874,0.6565008163603694,-0.014772415143453439,-0.0034599304210682687
1684002715446191300,11.359591796875,0.5459270477983332,0.08418464657628612,-0.06582212447022848
1684002715456233100,11.369633544921877,0.5465934276828444,0.15311050401499562,0.027300834601136567
1684002715466275200,11.379675537109376,0.6326669453052348,0.1773052214331956,0.2197175025009078
1684002715476317400,11.3897177734375,0.7762495874337187,0.17799377436511246,0.35283613218890064
1684002715486359600,11.399759765625,0.8401025533971203,0.1356468199029403,0.45210981364386427
1684002715496401600,11.409802001953125,0.7711404560520562,0.03340530391320098,0.428778171619107
1684002715506443400,11.41984375,0.5215938092350042,-0.09377193442104868,0.3097805977936708
1684002715516485600,11.429885986328124,0.22188444442950692,-0.19295883183737686,0.14094018933099645
1684002715526527600,11.439927978515623,-0.054580781497421536,-0.29994010919323816,0.01248884196588123
1684002715536569800,11.44997021484375,-0.21145328883775286,-0.3839759826973039,-0.05275821673116422
1684002715546611900,11.46001220703125,-0.2958375811091664,-0.43376922597877376,-0.051351070370473074
1684002715556653700,11.47005419921875,-0.2449888884519889,-0.37448692323575045,-0.02894926061413589
1684002715566695900,11.48009619140625,-0.03157284471496325,-0.27848720548324085,0.002595424641552448
1684002715576738000,11.490138427734376,0.36672842503483405,-0.07340526586256707,0.0879263877971487
1684002715586780100,11.500180419921875,0.8074111939538193,0.10681343074258151,0.22087574017774225
1684002715596822200,11.51022265625,1.187152743401852,0.33761024477512075,0.31998062143562184
1684002715606864300,11.5202646484375,1.3991734981177644,0.5496778487428526,0.3971529005164405
1684002715616906200,11.530306640625,1.4888415336987264,0.6586771010837571,0.41996860512065537
1684002715626948300,11.5403486328125,1.4604271649093556,0.5160303116065509,0.33589553843628506
1684002715636990400,11.550390869140625,1.3118689059589637,0.3239545821158102,0.2649269104773256
1684002715647032600,11.560432861328126,1.076067805160641,0.12829208379661375,0.15092134467882315
1684002715657074600,11.57047509765625,0.8320140839257398,-0.051620483476773046,0.03789758688915466
1684002715667116500,11.580516845703125,0.5754866004852697,-0.1592550277396521,-0.13003730788493198
1684002715677158600,11.59055908203125,0.38173145058847585,-0.1911392211712938,-0.1989479064562916
1684002715687200600,11.60060107421875,0.3001440463986566,-0.21929740909263817,-0.24367475509395406
1684002715697242800,11.610643310546877,0.26976633058440375,-0.1380681993072922,-0.23910999291012217
1684002715707284900,11.620685302734374,0.3086760938329196,-0.0482654571542874,-0.17212820050836544
1684002715717326800,11.63072705078125,0.4984859525694793,0.0709314345800547,-0.01591491700379622
1684002715727368900,11.640769287109377,0.7328493593857621,0.1786413192950614,0.22258615490268036
1684002715737411000,11.650811279296876,0.866239190010377,0.27449607848446467,0.45133352284702366
1684002715747453100,11.660853515625,0.915723085549629,0.2996997834604519,0.5901017189211234
1684002715757495200,11.6708955078125,0.8705514073941989,0.3118448257669288,0.6284112928583601
1684002715767537300,11.680937744140625,0.7478100060979854,0.2970733642402912,0.6033101083230581
1684002715777579200,11.6909794921875,0.5907867550173032,0.3247261046870192,0.5312504768661828
1684002715787621300,11.701021728515624,0.48287177093000544,0.3377408981767357,0.5546045303381569
1684002715797663400,11.711063720703123,0.43821740132859494,0.4423532487247951,0.5024547575207079
1684002715807705600,11.72110595703125,0.4632904827110258,0.6040468216351625,0.43254566205953904
1684002715817747600,11.73114794921875,0.4322546123802064,0.6827154160593375,0.37056112294680804
1684002715827789600,11.74118994140625,0.3219326735210756,0.6727476118551011,0.29999399182272546
1684002715837831600,11.75123193359375,0.15356490015038035,0.6065473556390047,0.16269302357780055
1684002715847873600,11.761274169921874,-0.08284670115516705,0.4786043167810149,0.03150367740915535
1684002715857915800,11.771316162109375,-0.2826002835083336,0.30680751817421,-0.07407617573289534
1684002715867957900,11.7813583984375,-0.47967445862195124,0.13613796237856407,-0.12318372734156073
1684002715878000000,11.791400390625,-0.6252753735456918,0.024063110304776657,-0.20106983171338866
1684002715888041900,11.8014423828125,-0.67084693915694,-0.08687400812160372,-0.29313874235351756
1684002715898084000,11.811484375,-0.6018595099049975,-0.18460750571447393,-0.40133094780576506
1684002715908126100,11.821526611328125,-0.3438239098096903,-0.22671699538654386,-0.5456204414305443
1684002715918168200,11.831568603515626,-0.21590924266142011,-0.38340473175517037,-0.796333789936626
1684002715928210400,11.84161083984375,-0.32807034253561485,-0.566564559998865,-0.8921301364365842
1684002715938252200,11.851652587890625,-0.7603662609227477,-0.6932201386878606,-0.7492852210518699
1684002715948294300,11.86169482421875,-1.1914818287847668,-0.8670854568741194,-0.6473469735521007
1684002715958336400,11.87173681640625,-1.1170895099499947,-0.8040399551518473,-0.37597560890931236
1684002715968378600,11.881779052734377,-0.841081738476182,-0.6740541458634108,0.03917407986349207
1684002715978420600,11.891821044921874,-0.6731220484406395,-0.4918298722860249,0.5403494833672045
1684002715988462600,11.90186279296875,-0.5265004039227398,-0.22908592222279614,1.0572295188563998
1684002715998504600,11.911905029296875,-0.46698439116613877,0.19050693499585408,1.4172425269806932
1684002716008546700,11.921947021484376,-0.5291417838379792,0.5260334014565422,1.6021776199974813
1684002716018588800,11.9319892578125,-0.6554335354145182,0.6802625655815303,1.6796331405411538
1684002716028631000,11.94203125,-0.676010727893005,0.6323118210667609,1.6167182921136487
1684002716038673100,11.952073486328125,-0.5579096078735395,0.4542798995993565,1.4810986519533027
1684002716048714900,11.962115234375,-0.41689348223451816,0.28935623169466534,1.408654212924951
1684002716058757000,11.972157470703126,-0.3467866181995384,0.2110309601217801,1.3246903419509726
1684002716068799200,11.982199462890623,-0.38728487499662245,0.1494178770396481,1.250208377744991
1684002716078841300,11.99224169921875,-0.5444636345090997,0.05858421327775524,1.1790790558219226
1684002716088883400,12.00228369140625,-0.8402849436762353,-0.03378200532550864,1.128341197924953
1684002716098925200,12.01232568359375,-1.2070506810912547,-0.13877964007379975,1.1827297209524135
1684002716108967300,12.02236767578125,-1.3885041476614255,-0.1333065034447729,1.183279514188861
1684002716119009500,12.032409912109374,-1.2547529935181794,-0.05307865137487917,1.0904383658984975
1684002716129051600,12.042451904296875,-0.8544696569687144,0.05141353597653069,0.9142560958521697
1684002716139093600,12.052494140625,-0.0759724379136074,0.16172599798215004,0.5445470808719975
1684002716149135600,12.062535888671874,0.9085180162540336,0.11119937893273664,-0.007621288217489864
1684002716159177600,12.072578125,1.7534106969928442,0.04033279417003985,-0.39436292645567733
1684002716169219800,12.0826201171875,2.188105106279795,-0.1391811369318119,-0.7214722634661553
1684002716179261900,12.092662353515625,2.1932728290262378,-0.5186147688235052,-0.9826474191241762
1684002716189304000,12.102704345703126,1.8987785578706091,-0.9084768295203655,-0.9977946280481181
1684002716199345800,12.112746337890623,1.5373393295775808,-1.1075096129340727,-1.0335311889676009
1684002716209388000,12.122788330078125,1.2212972640483268,-1.0352926254507198,-1.2946419715298938
1684002716219430100,12.13283056640625,1.1067568063709645,-0.8509435653619283,-1.6720566749025074
1684002716229472200,12.14287255859375,0.8264644145395004,-0.7923431396724883,-1.8486237525957068
1684002716239514300,12.152914794921877,0.41564953320998693,-0.6580734253548969,-1.8878889085307895
1684002716249556400,12.162956787109374,0.0035982130805686224,-0.5267915725638953,-1.7500882149849346
1684002716259598600,12.1729990234375,-0.30271029465719723,-0.5271949767595988,-1.6024160386101547
1684002716269640400,12.183040771484375,-0.4861192703252025,-0.5082159042007878,-1.5617463588488711
1684002716279682600,12.193082763671876,-0.661064744071971,-0.5818386077175921,-1.6334891319076055
1684002716289724600,12.203125,-0.7475790977367874,-0.5481328963812582,-1.629756927365657
1684002716299766600,12.2131669921875,-0.7796165942892015,-0.5474276543926276,-1.577986240450702
1684002716309808800,12.223209228515625,-0.7406140565579867,-0.5441331862433063,-1.589682102146194
1684002716319850600,12.2332509765625,-0.6735322475104021,-0.4310607910149491,-1.6166296005546872
1684002716329892800,12.243293212890626,-0.534706115779699,-0.3974289894304351,-1.492476940111899
1684002716339934900,12.253335205078123,-0.3611413240531609,-0.44158697124942436,-1.5508880614622849
1684002716349977000,12.26337744140625,-0.20480215539158889,-0.4976582527564197,-1.487003803244841
1684002716360019100,12.27341943359375,-0.09443628778968248,-0.44882392878527244,-1.2179498671322602
1684002716370061200,12.283461669921875,0.05075883854512007,-0.41053533543289855,-1.1194682120879926
1684002716380103100,12.29350341796875,0.1701047420778091,-0.32828187954069993,-0.9835948945228146
1684002716390145200,12.303545654296874,0.2824811936445753,-0.3056230545535439,-0.7446603775755365
1684002716400187300,12.313587646484375,0.3793212174899198,-0.1752600670932024,-0.496448516741818
1684002716410229400,12.3236298828125,0.4355318546675277,-0.11387157439795448,-0.38695716853981277
1684002716420271600,12.333671875,0.4199479816618435,0.03224468235612527,-0.27649974813699735
1684002716430313400,12.3437138671875,0.31125628941755457,0.06492423999120285,-0.05489778510984569
1684002716440355600,12.353755859375,0.18448770056765884,0.10891914366832885,0.0655627250989514
1684002716450397600,12.363798095703125,0.05708169942938156,0.08494997031556399,0.2638258935071322
1684002716460439700,12.373840087890626,-0.054853916082570425,0.08609056488595292,0.3845729829362598
1684002716470481800,12.38388232421875,-0.12976109979684508,0.09523391731235882,0.3899240494823057
1684002716480524000,12.39392431640625,-0.07551372058231906,0.10273361217906075,0.37350511559113686
1684002716490565800,12.40396630859375,0.01085805879947487,0.044018745371795724,0.24234914796737345
1684002716500607900,12.41400830078125,0.14797687518823213,-0.044922351913572016,0.13275718685010265
1684002716510650000,12.424050537109377,0.2743853329796794,-0.16161251058674503,-0.03926801689656129
1684002716520692100,12.434092529296874,0.3904327154567922,-0.1555528641349047,-0.15704870222606465
1684002716530734300,12.444134765625,0.42767721401937064,-0.15836715683259048,-0.24015712738864914
1684002716540776100,12.454176513671875,0.36145627489515475,-0.08417367947015954,-0.18635749814607466
1684002716550818200,12.464218505859376,0.18041431897240962,-0.09595680225130626,-0.1396999358716538
1684002716560860300,12.4742607421875,-0.0037046671637728703,-0.10829925527378687,-0.10790061936156095
1684002716570902400,12.484302734375,-0.19722878945412728,-0.1047654151977327,-0.1650972367992913
1684002716580944600,12.494344970703125,-0.29876065249045813,-0.09672451009201617,-0.3225555420913342
1684002716590986600,12.504386962890624,-0.34671354293589746,-0.1618561745693958,-0.7248692511951895
1684002716601028600,12.514428955078126,-0.32787215708561435,-0.23730278011546133,-0.9745345115409231
1684002716611070600,12.524470947265623,-0.3048127888505829,-0.2751626967348091,-1.160249233186967
1684002716621112800,12.53451318359375,-0.3128464222668318,-0.34273529065216607,-1.222765445780833
1684002716631154900,12.54455517578125,-0.27510178081970094,-0.4229521751836535,-1.379285335498529
