time,seconds_elapsed,z,y,x
1684002781934801800,0.0422021484375,5.243995708926059e-11,-8.775602770041502e-11,9.033613407960521e-11
1684002781944844000,0.052244384765625,-0.3001270295424296,-0.2730538846565745,0.6598186492322056
1684002781954886100,0.062286376953125,0.28847026818283056,0.565826654403131,-0.5420663356844431
1684002781964928200,0.07232861328125,0.6045494079250662,-1.4001588821444815,0.920322418212044
1684002781974970600,0.082370849609375,0.4722347259490923,0.5031027793142756,-0.6377902029502215
1684002781985012600,0.0924130859375,1.0903196335150116,-1.1002509595421357,0.08177709589443624
1684002781995054800,0.102455078125,0.30110359193998887,0.035196542769378995,-0.4558379650720334
1684002782005096900,0.112497314453125,-0.4972047806974243,-0.9986593722957837,0.970205068752498
1684002782015139000,0.122539306640625,-0.6925859449817618,-0.1722424029539945,-0.3609833716733329
1684002782025181100,0.13258154296875,-1.180310249404579,-0.5648810863742597,0.6976637839877415
1684002782035223200,0.14262353515625,-1.12454557399259,-1.128540515864055,0.5932581424335622
1684002782045265600,0.152666015625,-1.2003054618241877,-0.09830164898162519,-0.2163505554839044
1684002782055307600,0.1627080078125,-0.5036139489845589,-0.20018529878837368,0.005319833829991023
1684002782065349800,0.172750244140625,0.5844049452110084,0.11791682237022807,0.8335967063772143
1684002782075391900,0.182792236328125,0.9501600265109817,0.536240339338521,1.1760988235653593
1684002782085434000,0.19283447265625,0.8954124450859609,1.4534648657374294,1.0521192550003564
1684002782095476100,0.20287646484375,0.3975954055820551,0.10275435443670226,1.692882537762324
1684002782105518300,0.212918701171875,-0.3497114180840044,0.5961905718017051,1.1312832830787036
1684002782115560600,0.2229609375,-1.2968902587751487,0.3605358600784911,0.5549430847908746
1684002782125602700,0.233003173828125,-0.772911071686299,0.2636265754691057,-0.37490654000974794
1684002782135644800,0.243045166015625,0.20631217961567808,0.0973861217234438,-0.1649646757816092
1684002782145687000,0.25308740234375,0.5737686157289187,0.27720212934402644,-0.7683305740012699
1684002782155729100,0.26312939453125,0.6951360702325579,0.13506269461025555,-1.2429134845509664
1684002782165771200,0.273171630859375,0.5462455749058034,-0.6551876066585425,-0.9037513732672291
1684002782175813300,0.283213623046875,0.24712133407662287,-0.7745106219275952,-0.7139182090151527
1684002782185855400,0.293255859375,-0.26339387882022647,-0.5417306423155853,-0.5571579933390814
1684002782195897800,0.303298095703125,-0.41511344915542925,-0.3985202312491022,-0.2847838402373634
1684002782205939900,0.31334033203125,-0.21090602865055277,-0.3105375768082938,0.2036867142848593
1684002782215982000,0.32338232421875,-0.07279157635725873,0.03534603120767703,0.6159505843322187
1684002782226024100,0.333424560546875,-0.3514728546442793,0.550185322840355,0.49693536758966617
1684002782236066200,0.343466552734375,-0.47742319099968245,0.7852954863569072,0.6231412886155906
1684002782246108300,0.3535087890625,-0.47696065906495533,0.6762434244510648,0.6871562004744675
1684002782256150600,0.363551025390625,-0.4711546897371855,0.25101578234549027,0.5459799766947471
1684002782266192800,0.37359326171875,-0.26330137238028045,-0.06945264344692967,0.35403728481033847
1684002782276234900,0.38363525390625,0.08299446113777156,-0.2601966857556321,0.19032239920399308
1684002782286277000,0.393677490234375,0.16165637973619343,-0.5855399369696902,0.1225461960357168
1684002782296319200,0.403719482421875,0.35498714448200247,-1.0836799145288916,0.20741510388622075
1684002782306361300,0.41376171875,0.22768259057545903,-1.289535403222446,-0.006969452027777347
1684002782316403400,0.4238037109375,0.21500349049291145,-1.4217321871759643,-0.22585344320263345
1684002782326445700,0.43384619140625,0.18451118464226846,-1.1883628367518797,-0.23579740524041817
1684002782336487900,0.44388818359375,0.00860309595867619,-0.8854060172732603,-0.11688899983246513
1684002782346530000,0.453930419921875,-0.1646223066919091,-0.5448436736917602,0.023338794676383105
1684002782356572100,0.463972412109375,-0.1410531997712549,-0.29176402097551474,0.16088533395455193
1684002782366614200,0.4740146484375,-0.1953530313382042,0.04008078572166258,0.10085821161161244
1684002782376656300,0.484056640625,-0.19005775451147866,-0.013031721161018495,0.22895431516249298
1684002782386698400,0.494098876953125,-0.08481502536273187,-0.3674185276086372,0.2485990523245671
1684002782396740600,0.504140869140625,0.22496986404882185,-0.6248133183707826,0.18945741648848474
1684002782406782900,0.514183349609375,0.4399933814029884,-0.5544085502560666,0.11283826820139421
1684002782416825000,0.524225341796875,0.4663844107010185,-0.37991333010594414,-0.007568836151799092
1684002782426867100,0.534267578125,0.489164829121782,-0.3723556994440461,0.12644672395216097
1684002782436909200,0.5443095703125,0.17769241343145217,-0.3703830241178643,0.08574914931237264
1684002782446951300,0.554351806640625,-0.39081001281694855,-0.27092957497016706,-0.018853187627263186
1684002782456993500,0.564393798828125,-0.8129096032488615,-0.12812471377249762,0.10211372382481386
1684002782467035600,0.57443603515625,-0.7225255966117567,-0.050001144226917614,0.07270193107956192
1684002782477077900,0.584478271484375,-0.5006966590694489,0.046071052601829865,0.03655958178475504
1684002782487120000,0.5945205078125,0.331069469493392,0.12479329106885909,0.06661272061153506
1684002782497162200,0.6045625,0.14353466029310116,0.24118113526545099,0.14226245876566956
1684002782507204300,0.614604736328125,-0.27866172786340304,0.2715318204098619,0.30743885043194863
1684002782517246400,0.624646728515625,-0.28138351457259914,0.011447668058193266,0.328076839435141
1684002782527288600,0.63468896484375,0.027682781274097578,-0.09802556020582172,0.17491102209499634
1684002782537330600,0.64473095703125,-0.1185607910282799,-0.10809612267411284,0.042258262697075125
1684002782547373000,0.6547734375,0.07187461870739376,-0.05869746207408847,-0.24411773691563257
1684002782557415100,0.6648154296875,0.4118304251235301,-0.026100397159057147,-0.39742374419618065
1684002782567457200,0.674857666015625,0.20415830599098414,0.07689332964108865,-0.3787064553172709
1684002782577499300,0.684899658203125,0.07145881647092114,0.3314056396151835,-0.24076509479346184
1684002782587541400,0.69494189453125,-0.22881412487860053,0.4282715319502746,-0.03561306011386789
1684002782597583600,0.70498388671875,-0.19622993463139363,0.2962388991490794,-0.1534862518124171
1684002782607625600,0.715026123046875,-0.18011617676322203,0.20531010627267768,0.1286854743028255
1684002782617667800,0.725068115234375,-0.3336315153827187,0.039608955531578754,-0.01571130748803913
1684002782627710100,0.735110595703125,-0.2771964072164632,-0.20076680186899792,-0.27799129476347173
1684002782637752200,0.745152587890625,-0.2236981393313337,-0.09425354012841848,-0.26818227769093844
1684002782647794400,0.75519482421875,-0.20726919182776596,-0.03792333593479584,-0.1612701416343121
1684002782657836500,0.76523681640625,-0.15801763543381325,-0.012116670562481382,-0.17681169508535372
1684002782667878600,0.775279052734375,0.10097026828653129,-0.029681444139153794,-0.0543212890642369
1684002782677920600,0.785321044921875,0.1866488457453605,-0.11756277090296506,-0.026747226689165585
1684002782687962800,0.79536328125,0.30661535268364853,-0.19875669475760854,-0.35617351545534653
1684002782698005200,0.805405517578125,0.31236600870286885,-0.26358795169154525,-0.6083288193911205
1684002782708047300,0.81544775390625,0.12759208666580565,-0.25246214866916267,-0.8052711486628409
1684002782718089400,0.82548974609375,-0.15695428851368012,-0.13388562214423486,-1.1843967437159786
1684002782728131600,0.835531982421875,0.22593736647246665,-0.01782393454535478,-1.131644249035233
1684002782738173600,0.845573974609375,0.5068435668544572,0.07280850425178628,-0.7434282302740657
1684002782748215600,0.8556162109375,0.8634929656860906,0.1340308189361214,-0.5867357253047348
1684002782758257800,0.865658203125,1.302571773687867,0.1281821726905312,-0.5646777154785511
1684002782768300200,0.87570068359375,2.0826463700398183,0.1097123623503878,-0.6574068070241603
1684002782778342300,0.88574267578125,2.8938283918828995,0.7633000613790353,-0.6559109689463719
1684002782788384400,0.895784912109375,1.3222889899348504,0.22284555428047106,0.24946737288824608
1684002782798426600,0.905826904296875,-0.5329923629214643,0.12180948255237696,1.753680706059949
1684002782808468600,0.915869140625,-2.0425000190756104,1.062023997409747,2.6948752404036287
1684002782818510800,0.9259111328125,-2.8783702850499417,1.4567332265988329,3.20754480373048
1684002782828552900,0.935953369140625,-3.2465674877011157,1.3568345308639684,2.5784492492427984
1684002782838595000,0.945995361328125,-3.2167499064990697,1.2401819229505535,1.687621593389562
1684002782848637400,0.956037841796875,-2.8052706716862588,1.102525353317075,1.1428713798806107
1684002782858679500,0.966079833984375,-1.915612697563809,0.8355133533600839,0.848740577655263
1684002782868721600,0.9761220703125,-1.1290330887923965,0.6445569993314626,0.44673204430942975
1684002782878763600,0.9861640625,-0.2151193620332649,0.7149320842020612,0.20221233381486287
1684002782888805800,0.996206298828125,1.1458501815435351,0.7373752593592812,-0.31091547007623
1684002782898847900,1.006248291015625,2.1549100874557703,0.6509357692455222,-0.7110919952661396
1684002782908890300,1.016290771484375,2.9663128853251584,0.3911632298008946,-0.9713802338043012
1684002782918932400,1.026332763671875,2.720925807918305,0.2692258357381488,-1.3811330794300858
1684002782928974600,1.036375,1.6841158866100885,0.1784389018874994,-1.6930007934382227
1684002782939016600,1.0464169921875,0.5241031647952435,0.2720259428132959,-1.6957354545872383
1684002782949058700,1.056459228515625,0.015583038356505886,0.22725880144298485,-1.256995678046502
1684002782959100800,1.066501220703125,-0.33343935026480065,0.1859116554895514,-0.6966862679498772
1684002782969143000,1.07654345703125,-0.9660959243694865,0.31652140608914586,-0.004274368256116821
1684002782979185300,1.086585693359375,-1.3860683440623707,0.34229421617204897,0.47441959394388067
1684002782989227400,1.0966279296875,-1.64406299592032,0.40095949169443634,0.7847270965277685
1684002782999269600,1.106669921875,-1.095041751905082,-0.0930819511961726,0.8868751525967165
1684002783009311600,1.116712158203125,0.03863859174195461,-0.2811248300905167,0.339866638183289
1684002783019353800,1.126754150390625,0.7321624754842132,-0.5838580131497842,0.06361246110850738
1684002783029395900,1.13679638671875,0.7060127258956762,-0.8632879257404824,-0.35274267187413916
1684002783039438000,1.14683837890625,0.5770978926625623,-0.8162510394793836,-0.6327433586535112
1684002783049480100,1.156880615234375,0.35689401629697803,-0.7405991555023814,-0.4474940300359852
1684002783059522200,1.166922607421875,0.2120451926831659,-0.5657830239933686,-0.31525182726478373
1684002783069564600,1.176965087890625,0.2672209740177376,-0.319311380382066,-0.31298828130051465
1684002783079606600,1.187007080078125,0.4191427232046658,-0.2764291764761872,-0.3478078842566806
1684002783089648800,1.19704931640625,0.40006446832933923,-0.16305160507979655,-0.6055459976211073
1684002783099690900,1.20709130859375,0.3637809754615393,-0.08532404891854364,-0.5843667985011283
1684002783109733000,1.217133544921875,0.3499398230501099,0.04586768153619236,-0.4432010651005379
1684002783119775200,1.227175537109375,0.48408031470697527,0.29307305815106627,-0.47420406329639225
1684002783129817600,1.237218017578125,0.37844848629735645,0.5622061490629104,-0.8351488115209811
1684002783139859600,1.247260009765625,0.34958839423445737,0.17075335976898853,-0.597496986279331
1684002783149901700,1.25730224609375,0.3754777909304947,0.03443002697379971,-0.8282666205667177
1684002783159943900,1.26734423828125,0.8113646506998422,-0.056509733104535984,-0.12340164176903379
1684002783169986000,1.277386474609375,0.6239876747459572,0.34300267706666043,0.33369636536789554
1684002783180028100,1.287428466796875,0.22337198259134686,1.2739608286677333,0.20201587677728444
1684002783190070200,1.297470703125,0.038298130181920555,0.2584513425753936,0.9004611968139785
1684002783200112600,1.307512939453125,0.3306779862850566,-0.2818086146068526,1.1434774400037024
1684002783210154600,1.31755517578125,0.2289886475146923,0.025303840652547382,0.7327423095335114
1684002783220196800,1.32759716796875,0.05122661588868628,0.17548775668699446,0.312021255548298
1684002783230238900,1.337639404296875,-0.2713766098855992,0.173991203286726,-0.12363719944540968
1684002783240281000,1.347681396484375,-0.39186477647322004,0.22316694266523068,-0.49878120435257933
1684002783250323100,1.3577236328125,0.20767807953837894,0.02817678448840898,-0.35945892334514895
1684002783260365200,1.367765625,1.1402242182411404,-0.34562063211441824,-0.25785923013003276
1684002783270407300,1.377807861328125,2.189136028255121,-0.8034353255834672,-0.3568716048264913
1684002783280449600,1.38785009765625,1.8537957669648097,-0.9029524326859842,-0.516316413892552
1684002783290491800,1.397892333984375,1.0869131086748431,-0.8354589939237967,-0.8370666503497611
1684002783300533900,1.407934326171875,0.35015225410964784,-0.5539407731683927,-1.0540704727591066
1684002783310576000,1.4179765625,-0.11968374251436237,-0.16485190380312972,-1.316629886585896
1684002783320618200,1.4280185546875,-0.6831595896878836,0.06771087659867409,-1.3262195586222219
1684002783330660300,1.438060791015625,-1.0112457275153814,-0.04851984984841534,-0.4993133545348408
1684002783340702400,1.448102783203125,-1.3261737823526538,0.12960600843734602,-0.2514352799695138
1684002783350744800,1.458145263671875,-1.40887498865784,0.28025698666273646,0.410658836424422
1684002783360786900,1.468187255859375,-1.050191283225791,0.6440498827786403,0.701611518722901
1684002783370829000,1.4782294921875,-0.5328061581329117,0.7923834322633626,0.8908271790322431
1684002783380871100,1.488271484375,-0.011229991941762357,0.4177718161481818,1.5756435394623354
1684002783390913200,1.498313720703125,0.4005534650230162,-0.29761219029227426,1.834574699433013
1684002783400955300,1.508355712890625,0.5057132243842899,-0.6837036609249875,1.5935125351282908
1684002783410997600,1.518398193359375,0.4389363527605562,-0.8090350629605884,1.2574577330588281
1684002783421039800,1.528440185546875,0.14264976977809612,-0.7767794133596608,0.5985870361394604
1684002783431081900,1.538482421875,-0.3750162124323108,-0.3382837773147706,-0.5510482789650689
1684002783441124000,1.5485244140625,-0.5240644813646124,0.03753590593499866,-1.1227083207231323
1684002783451166100,1.55856640625,-0.5570446252270491,0.6243634225147854,-2.0584497451967283
1684002783461208200,1.568608642578125,-0.27472525835148676,0.49863338473897945,-1.5784525872455608
1684002783471250400,1.578650634765625,0.011437714068682657,0.6958065032903242,-1.669633865324582
1684002783481292500,1.58869287109375,0.2403346299540572,0.6395478247765625,-0.8924484252953798
1684002783491334600,1.59873486328125,0.36189383260309527,0.555765151973121,-0.38111019132398266
1684002783501376900,1.60877734375,0.05215030910079044,0.6408803464339735,-0.08606338498094815
1684002783511419100,1.6188193359375,-0.255813062196764,0.7336277961713834,0.008907318172003907
1684002783521461200,1.628861572265625,-0.43280208120787145,0.9114167690156332,-0.41651439658333983
1684002783531503300,1.638903564453125,-0.3137951493182373,1.2344100476477853,-0.8528618812572254
1684002783541545400,1.64894580078125,-0.433390349192346,1.2894864081883848,-0.8876485823477046
1684002783551587600,1.65898779296875,-0.48660612108488777,1.2834665776197354,-0.41133213048777806
1684002783561629900,1.6690302734375,-0.6053552627933887,1.3744101526032557,-0.11766624434141701
1684002783571672000,1.679072265625,-0.4918370844863431,1.102101325973353,-0.5021166801877129
1684002783581714100,1.689114501953125,0.15259891760414349,0.3436989784221907,0.27422237392044857
1684002783591756200,1.699156494140625,0.7670186757992242,0.04409933099765753,1.5288629530654827
1684002783601798300,1.70919873046875,1.2507042886356312,0.3160424230967085,2.3660945893542435
1684002783611840400,1.71924072265625,0.7568722962681699,0.40292310701547457,3.667409419968858
1684002783621882600,1.729282958984375,0.2545748352396836,1.0505042077317086,3.9006991387057344
1684002783631924900,1.7393251953125,-0.2599206269567764,1.6227016448392098,2.729389667601655
1684002783641967000,1.749367431640625,-0.5166658164599985,1.9406929016432746,1.7535557746567627
1684002783652009100,1.759409423828125,-0.7302951811408374,1.9697704314091682,0.781028747507887
1684002783662051200,1.76945166015625,-1.0372357368812368,1.4243130683193608,0.016878604846753013
1684002783672093400,1.77949365234375,-0.9530577659229309,0.5133962631664538,-0.0936603546578865
1684002783682135600,1.789535888671875,-0.6287616491042443,0.21037483211502028,-0.4995617865463678
1684002783692177600,1.799577880859375,-0.028789509122200258,0.14721059796588012,-0.530775070130533
1684002783702219600,1.8096201171875,0.5483323932200608,-0.03576660157327998,-0.0757956504211845
1684002783712261800,1.819662109375,0.8351197837304735,-0.24763393399960715,0.4534902574187845
1684002783722304200,1.82970458984375,1.1079860924605014,-0.3047037124214035,0.5901460646862581
1684002783732346300,1.83974658203125,1.2544920444649001,-0.3783283233086746,0.6081876754542265
1684002783742388400,1.849788818359375,1.2101823090806743,-0.5678515434616249,0.6895375251594179
1684002783752430600,1.859830810546875,0.6708186863728501,-1.2225451469615136,0.5577125549050123
1684002783762472600,1.869873046875,0.23947349192236636,-1.3151764868052511,0.47433185586739113
1684002783772514700,1.8799150390625,0.04765474436751341,-1.247805118472928,0.22555828091031135
1684002783782557100,1.88995751953125,-0.0022004135497865054,-1.0598168372135852,-0.06703090657624915
1684002783792599200,1.89999951171875,-0.1093395799793474,-0.3780622481299626,-0.27728176117103126
1684002783802641300,1.910041748046875,-0.18229083727745085,-1.2317280770814454,-0.5440998076492276
1684002783812683400,1.920083740234375,0.22598920758604274,-1.8551993371101647,-0.9554028512582691
1684002783822725600,1.9301259765625,0.5298463702379136,-1.6156921386901655,-0.7238278388802487
1684002783832767600,1.94016796875,0.9338546991683523,-1.6622772218654747,-0.41879892355324205
1684002783842809800,1.950210205078125,0.23741173758185727,-1.3755645752037118,-0.3990659712562997
1684002783852852100,1.96025244140625,-0.6999911069270356,-0.6255655288917322,0.2813553810463211
1684002783862894300,1.970294677734375,-0.6378968358326251,0.1427178383181887,1.0027942656845887
1684002783872936400,1.980336669921875,-0.39702621106139435,0.4645318983885096,0.8690142631358725
1684002783882978600,1.99037890625,-0.02796763180142269,0.41450595857660294,0.2113318444243437
1684002783893020600,2.0004208984375,0.05048772680474015,0.2560381889320455,-0.5084180830410469
1684002783903062600,2.010463134765625,0.015050858141409879,0.2607560157851201,-0.9139699935269147
1684002783913104800,2.020505126953125,-0.09293621762312737,0.15795993811154613,-0.9811725615036385
1684002783923146900,2.03054736328125,0.02956992384298184,-0.1713161469498234,-0.524042606433117
1684002783933189300,2.040589599609375,0.1364288031658722,-0.40341615687710125,-0.15236997595431068
1684002783943231400,2.0506318359375,0.1544298529594725,-0.5418596266846176,0.05478858947845812
1684002783953273600,2.060673828125,-0.039632022389827395,-0.5502858162977271,0.3421673774168973
1684002783963315600,2.070716064453125,-0.46165716640103144,-0.48277711875728313,0.6012444495454385
1684002783973357700,2.080758056640625,-0.7201585173968479,-0.42789077758860705,0.7418885231416807
1684002783983399900,2.09080029296875,-0.8084139227135013,-0.39546585079669516,0.8309979438395371
1684002783993442000,2.10084228515625,-0.8918527960040825,0.739206790871571,0.34474277496874506
1684002784003484300,2.110884765625,-0.7024096845095386,-0.8874478341388095,0.7935032844503426
1684002784013526400,2.1209267578125,-0.30531901111274184,-1.0571656226718888,0.8623313903402116
1684002784023568600,2.130968994140625,-0.46300381410889796,-1.1089816093992504,0.4479937552744628
1684002784033610600,2.141010986328125,-0.6223680972829029,-1.116082191519571,0.3234267235679416
1684002784043652800,2.15105322265625,-0.657562017462577,-0.9484472274734302,0.005340099357632936
1684002784053694900,2.16109521484375,-0.651025235668464,-0.01898050309205631,-0.5304031372470169
1684002784063737300,2.1711376953125,-0.7596875429706961,-0.569346427997988,-0.21249341970198013
1684002784073779400,2.1811796875,-0.6878885031200511,-1.2766995428526087,-0.10484886176372542
1684002784083821600,2.191221923828125,-0.5231903792613887,-0.7762675285686516,-0.4339857100059251
1684002784093863600,2.201263916015625,-0.4623010158243778,-0.3950681686525783,-0.5359973908142147
1684002784103905600,2.21130615234375,-0.6380976438736681,0.04360055916465298,-0.5871214866753538
1684002784113947800,2.22134814453125,-0.5135136841702755,0.3570747374801114,-0.17049598700661178
1684002784123989900,2.231390380859375,-0.7396707533604748,0.4166321754700598,-0.22806596756003392
1684002784134032000,2.241432373046875,-0.7039247750315933,0.44351196287412215,-0.2590074539114376
1684002784144074400,2.251474853515625,-0.53735446935505,0.10871124272424407,-0.1526875496057247
1684002784154116600,2.261516845703125,-0.21483755111317454,-0.41365051252555224,-0.17836523058090129
1684002784164158600,2.27155908203125,0.04122722137973436,-0.7004284857694715,0.03607177743202185
1684002784174200800,2.28160107421875,0.2200584410254553,-0.5956687927303319,-0.008391857200378935
1684002784184242900,2.291643310546875,0.006096839736008907,-0.5397763252721665,0.13854026791630758
1684002784194285000,2.301685302734375,-0.7455159425004125,-0.3498277664581763,0.046549320189858516
1684002784204327100,2.3117275390625,-0.6419875621408849,-0.03314590457258855,-0.192121982593199
1684002784214369500,2.321769775390625,-0.7938966751499623,0.5593533516691783,-0.5014128685943829
1684002784224411600,2.33181201171875,-1.2318226100630536,0.15665054331708325,-0.6857285500404007
1684002784234453600,2.34185400390625,-0.3695288897211083,-0.5660204886334879,-0.9950141906837441
1684002784244495800,2.351896240234375,0.307517349790454,-0.050079345777733764,-0.9495253563152983
1684002784254537900,2.361938232421875,0.23278677460073705,-0.2813382147962033,-0.7798647880184799
1684002784264580000,2.37198046875,-0.07162278892170702,-0.6751546859627738,-0.6073713303025935
1684002784274622100,2.3820224609375,-0.38737899075009474,-0.46382713322314434,-0.07273244864516719
1684002784284664600,2.39206494140625,-1.0715993642090125,-0.24654006962880778,0.0930848119789301
1684002784294706600,2.40210693359375,-1.2105696202416432,-0.5105090140730351,0.06853389744684546
1684002784304748600,2.412149169921875,-0.32742953293264715,-0.3206181524363681,-0.3274388312928005
1684002784314790800,2.422191162109375,-0.29467093940923045,-0.4321556090851146,0.15909767154890386
1684002784324832900,2.4322333984375,-0.3849545717248823,-0.505088806056588,-0.20459985734140737
1684002784334875100,2.442275390625,-0.46617683758659334,-0.3539452553224977,-0.475469589129249
1684002784344917200,2.452317626953125,-0.22688344131594249,-0.3410682677565179,-0.41109800353018033
1684002784354959600,2.46235986328125,-0.4867276846650306,-0.42440795896991657,-0.5147624015879897
1684002784365001600,2.472402099609375,-0.5274467468856294,-1.0207853316648456,-0.566500186976446
1684002784375043800,2.482444091796875,-0.3005118369030841,-0.9382429123129399,-0.6739287377864647
1684002784385085900,2.492486328125,-0.39335694901274904,-0.543071747011262,-0.6425733565984916
1684002784395128000,2.5025283203125,-0.569183468793428,-0.3613657952133744,-0.3774929047572165
1684002784405170100,2.512570556640625,-0.7319506405971081,-0.28831529616070056,0.1351809500205353
1684002784415212200,2.522612548828125,-1.1766273975604447,0.008513450619733822,-0.002514362270638511
1684002784425254300,2.53265478515625,-1.0071347952198173,-0.11772441864463047,-0.3642468452242291
1684002784435296600,2.542697021484375,-0.6535351871373654,-0.5154256820374677,-0.8257932662811038
1684002784445338800,2.5527392578125,-0.46566796298091284,-0.5784583091512666,-1.3049664497727351
1684002784455380900,2.56278125,0.019545674295930064,-0.6143031121097151,-1.5089864730736289
1684002784465423000,2.572823486328125,0.1581705808767206,-0.3439774513753762,-1.7024655341238268
1684002784475465100,2.582865478515625,0.21697497377943392,-0.14859056460432365,-1.9549889566211074
1684002784485507200,2.59290771484375,0.23388123520076637,-0.20836210252430115,-2.1311540604362644
1684002784495549400,2.60294970703125,0.5538372993563531,-0.12355422968135735,-2.0512828827641667
1684002784505591600,2.6129921875,0.5966174602694333,-0.03848266597872493,-2.0683627127576427
1684002784515633800,2.6230341796875,0.5482743977641941,-0.05287790314633738,-1.6869435308809442
1684002784525676000,2.633076416015625,0.5092552900625081,-0.20782375323388275,-0.8862295149449936
1684002784535718100,2.643118408203125,0.2908382416410299,-0.27832555776429,-0.4339995383795994
1684002784545760200,2.65316064453125,0.17312836633411702,-0.18145418175630465,-0.19197940822671725
1684002784555802300,2.66320263671875,-0.1350001097423968,-0.30922651285719294,-0.4677624703076701
1684002784565844600,2.6732451171875,-0.3333957196365636,-0.12531375893629837,-0.4358010291021591
1684002784575886800,2.683287109375,-0.5707887411480562,0.17760181431735428,-0.1987943649545843
1684002784585928900,2.693329345703125,-0.45510554298743044,0.42568397520454193,0.15262126926793554
1684002784595971000,2.703371337890625,0.06528210640128332,0.28691148753305307,0.462675571497365
1684002784606013100,2.71341357421875,0.07514977447320179,0.24328231804124065,0.3134107589732004
1684002784616055200,2.72345556640625,0.2618367670946613,0.12438774097356953,0.24303245539851848
1684002784626097300,2.733497802734375,0.4711523055822971,0.017944335951941406,-0.03688907625302249
1684002784636139400,2.743539794921875,0.23491859434005075,-0.1303501130814016,-0.2468733787060278
1684002784646181800,2.753582275390625,-0.13011932376395377,-0.03285646435296133,-0.18988656995248682
1684002784656223900,2.763624267578125,0.25832438473224356,-0.019689083191970626,-0.04447555544953773
1684002784666266000,2.77366650390625,-0.4418414831845459,-0.2949538230355462,-0.23477029783483208
1684002784676308100,2.78370849609375,-0.18746662144603513,-0.5003147124266629,-0.041282176912289435
1684002784686350300,2.793750732421875,-0.34938979144209303,-0.5846824646628188,-0.18137741093335202
1684002784696392400,2.803792724609375,-0.10440611839798832,-0.6625456810360345,0.04630565647305099
1684002784706434600,2.8138349609375,0.05451536188324699,-0.4683918953053452,0.18080663680490838
1684002784716476800,2.823877197265625,-0.34427022946429237,-0.17722749706515326,-0.3113570212386798
1684002784726519000,2.83391943359375,-0.8252274990534901,0.017121315009231083,-0.2408671380003836
1684002784736561100,2.84396142578125,-0.5307176113292339,-0.027146816422602672,-0.01981353766874655
1684002784746603200,2.854003662109375,-1.2624565362532674,0.19990110391380617,0.07250356670048214
1684002784756645300,2.864045654296875,-0.5215997697310395,0.36152696607276213,0.3255271910502377
1684002784766687400,2.874087890625,-0.26753902436569904,-0.22207641614029897,0.5177173614642414
1684002784776729600,2.8841298828125,-0.48617768282313617,-0.181300163349248,0.19985151288708414
1684002784786771900,2.89417236328125,-0.08073616019283124,-0.22939682021343372,0.16816616069705437
1684002784796814000,2.90421435546875,0.4466779232937048,-0.19698572157479619,0.2747025489546946
1684002784806856100,2.914256591796875,0.20790934555074986,-0.1824650764261209,-0.22663784018514502
1684002784816898200,2.924298583984375,-0.39183235163644226,-0.572001457187298,-0.35786533347955707
1684002784826940300,2.9343408203125,0.7096939086677372,-0.10198926922560307,-0.09554624560881478
1684002784836982400,2.9443828125,-0.030386924697307457,0.1338801382548468,0.01854085905632512
1684002784847024800,2.95442529296875,0.06823205953382984,0.37125635142075913,-0.03520774846272663
1684002784857066900,2.96446728515625,0.06375503537243261,0.28916883468459026,-0.07518863677664916
1684002784867109000,2.974509521484375,-0.0219731329534271,0.1791038511417271,-0.0699157713769457
1684002784877151200,2.984551513671875,0.0895597934816182,0.27907419191718763,-0.12612152100054183
1684002784887193300,2.99459375,-0.05329227450408607,0.2802548408678456,0.13656997689690104
1684002784897235400,3.0046357421875,0.16934466371286147,0.3333392142621793,0.056539535647380554
1684002784907277600,3.014677978515625,-0.9058911801012757,0.3051705360322511,0.08558177960419562
1684002784917319900,3.02472021484375,0.5917842388044395,0.03462648392825728,0.6327543259475401
1684002784927362000,3.034762451171875,-0.3340651988467228,-0.009756565056270698,0.08502769471618851
1684002784937404100,3.044804443359375,-0.20289635651566712,0.05844593056460571,-0.11427545538631828
1684002784947446200,3.0548466796875,-0.18864226343936447,0.06458473211441884,-0.19599151615618401
1684002784957488300,3.064888671875,-0.2196457384615755,0.030494213031811202,-0.25569200524469127
1684002784967530400,3.074930908203125,-0.7606678008769503,-0.18551492699308525,-0.1975159645418118
1684002784977572600,3.084972900390625,0.5174744128825128,-0.3270826338536907,0.14122724525280686
1684002784987614900,3.095015380859375,-0.0319595337290439,-0.5669245721150511,-0.08224725730136546
1684002784997657000,3.105057373046875,0.061057567627229074,-0.36361598962496705,-0.154582977151683
1684002785007699100,3.115099609375,-0.8431737421500909,-0.2503895759577558,-0.029391765466732604
1684002785017741200,3.1251416015625,0.7190113067931859,0.0389890671005386,0.28220272071711383
1684002785027783300,3.135183837890625,-0.5442643164565822,-0.17048311214919862,-0.13055372235727586
1684002785037825500,3.145225830078125,-0.4492921828507971,-0.19212627414301411,-0.16205501550837556
1684002785047867600,3.15526806640625,-0.6179471015376806,-0.056999206482670095,-0.10533952724718973
1684002785057909600,3.16531005859375,0.23988580699297687,0.3450751304453924,0.012338161469651948
1684002785067952000,3.1753525390625,0.07826423649288165,0.023175239495143718,0.0489921569537257
1684002785077994200,3.18539453125,0.031251668965508704,0.05270910267897322,0.01149272901396799
1684002785088036300,3.195436767578125,0.13389182098640703,0.06303787223172481,-0.046920776427976395
1684002785098078400,3.205478759765625,0.5521962643944481,-0.009092807784906624,0.6062278747526586
1684002785108120600,3.21552099609375,-0.01396012298753521,0.26929187764958207,0.22237634667831874
1684002785118162600,3.22556298828125,0.016610622520757415,0.030600070927175184,-0.22224330886847157
1684002785128205000,3.23560546875,0.18903779984006527,-0.0035090447079286374,-0.029200076934453277
1684002785138247100,3.2456474609375,0.25494599347876784,0.03578042971427992,-0.12679100039115546
1684002785148289200,3.255689697265625,0.14624404892159973,-0.025864124223574397,-0.20467472079103946
1684002785158331300,3.265731689453125,0.09194970129453656,0.16813850388503718,-0.1534781455219547
1684002785168373400,3.27577392578125,0.07875394817875365,0.1337180137233528,0.11677598951472291
1684002785178415600,3.28581591796875,-0.0377538205369727,0.12567710860293912,0.27917861946781664
1684002785188457600,3.295858154296875,-0.0663905144589203,0.0885119438121073,0.3241348268143041
1684002785198500000,3.305900390625,-0.17260694509265417,0.04832363114103225,0.2830910682367087
1684002785208542100,3.315942626953125,-0.22483229624355808,0.0005440712609105783,0.08483123777276728
1684002785218584200,3.325984619140625,-0.23258566849803233,0.024378776672896823,-0.046780586162112926
1684002785228626400,3.33602685546875,-0.2699139118285043,0.08758115770715913,-0.1720089912284747
1684002785238668500,3.34606884765625,-0.24101281165750651,0.06976556766120562,-0.17604160305251196
1684002785248710600,3.356111083984375,-0.25824451430370304,0.017537593671466567,-0.09077930433990723
1684002785258752900,3.3661533203125,-0.19484066975052686,-0.08217763909073685,0.10913038244646026
1684002785268795100,3.376195556640625,-0.22667551046020282,-0.09467887881873675,0.12389707581730787
1684002785278837200,3.386237548828125,-0.1856887340353611,-0.07425403596238225,0.1256127358450276
1684002785288879300,3.39627978515625,-0.13946080218814264,-0.1437211035403678,0.0830626488706679
1684002785298921400,3.40632177734375,-0.09605479239689732,-0.10350465773667625,0.05067205416417773
1684002785308963600,3.416364013671875,-0.11283731452296826,-0.041032790988733206,0.10338926309921259
1684002785319005600,3.426406005859375,-0.08523750288454751,-0.009362697589694626,0.03664064416480517
1684002785329048000,3.436448486328125,0.004866600003959479,-0.0012264251848444886,0.00047826754993327654
1684002785339090100,3.446490478515625,0.0610730647920489,0.010402679397803668,0.04854917525150017
1684002785349132200,3.45653271484375,-0.0018694400540278902,0.056110859017798644,0.09996652606316125
1684002785359174300,3.46657470703125,0.008167028416701683,0.08072042468932157,0.15223455436920053
1684002785369216400,3.476616943359375,-0.3177707194156165,0.04551124580382441,0.06035184844462283
1684002785379258600,3.486658935546875,0.07595610620107397,0.04036760326723038,0.17230749139366122
1684002785389300600,3.496701171875,-0.031821727747548614,-0.0919489860061993,0.24430322645594985
1684002785399342800,3.5067431640625,-0.2789313792773863,-0.04984045024623583,0.3088269234341373
1684002785409385100,3.51678564453125,-0.29439353945353036,0.025582790507861195,0.3293514251864496
1684002785419427200,3.52682763671875,-0.2595884799803809,0.001965045786493771,0.5084300042329022
1684002785429469400,3.536869873046875,-0.24809217440380127,0.09284353260028291,0.5183854102035407
1684002785439511600,3.546911865234375,-0.20382523521571294,-0.008030414638525189,0.7068142889253445
1684002785449553600,3.5569541015625,-0.17744541169171046,0.2979340553196635,0.6136946678142982
1684002785459595600,3.56699609375,0.14356756218663777,0.18265342703625548,0.7370362282390153
1684002785469637800,3.5770380859375,-0.04966044428734412,0.21388626104571315,0.4703645705243418
1684002785479680200,3.58708056640625,0.13066744806475716,0.10829496397035805,0.21166181573694004
1684002785489722300,3.597122802734375,0.08753538127008431,0.08838653562781658,-0.14074325556244635
1684002785499764400,3.607164794921875,0.1540579795559636,0.03398370749314252,-0.29234981526857745
1684002785509806600,3.61720703125,0.14877724649760088,-0.06692886345833716,-0.129102706928024
1684002785519848600,3.6272490234375,0.10952997203399971,0.02552175515216586,-0.07202529902921502
1684002785529890700,3.637291015625,-0.05553555476264498,-0.035446167137810417,-0.00829315185575112
1684002785539932800,3.647333251953125,-0.10649251945202327,-0.056768894126229895,0.012377262189332404
1684002785549975200,3.657375732421875,0.03192377092526438,-0.16733264929620528,0.2144622803091342
1684002785560017300,3.667417724609375,-0.3376905917905428,0.006856918315603657,0.12086725227589695
1684002785570059400,3.6774599609375,-0.44921755795591817,-0.2576360702828176,-0.05435228337241925
1684002785580101600,3.687501953125,-0.3518702982873305,-0.2919754981483262,-0.16430807109162102
1684002785590143600,3.6975439453125,-0.2620644569779316,-0.2930140496268978,-0.04761123665002591
1684002785600185800,3.707586181640625,-0.3146238326409554,-0.31924724580379144,-0.10601329802416029
1684002785610228100,3.717628662109375,-0.2836425304588262,-0.28396224986055757,-0.14119148258435443
1684002785620270300,3.727670654296875,-0.4098980427975065,-0.16438007367089344,-0.18552255632155493
1684002785630312400,3.737712646484375,-0.368184566469976,-0.07034730916775532,-0.16486692433548947
1684002785640354600,3.7477548828125,-0.3212053775970424,-0.043555736535816056,-0.14849329003783615
1684002785650396600,3.757796875,-0.20739674568491812,-0.030330180983782228,-0.1925292014371995
1684002785660438600,3.767839111328125,-0.12563347814556874,-0.1293449402196912,-0.23185062404163784
1684002785670480800,3.777881103515625,-0.28291010865290345,-0.04119825372401512,0.0038418770360017095
1684002785680523200,3.787923583984375,0.020474672224668585,-0.05955123905751881,-0.13867855061629472
1684002785690565300,3.797965576171875,0.06492471693056821,0.09328317632497206,-0.14653301240695785
1684002785700607400,3.8080078125,-0.02318048485766806,0.002940177886718483,-0.1628599167130933
1684002785710649600,3.8180498046875,0.12638974175690168,0.1999058722030047,-0.10813045493136605
1684002785720691600,3.828092041015625,0.20013189305984352,0.18163394920134704,0.08755159379780886
1684002785730733700,3.838134033203125,0.10637474062072494,0.09722614275949094,-0.0029482841624549074
1684002785740775900,3.84817626953125,0.26029562935011474,0.10954236974561835,-0.10257434846176007
1684002785750818000,3.85821826171875,-0.3502895831371486,0.07996797549915606,0.165561675980752
1684002785760860300,3.8682607421875,0.2494072914524403,0.10421037673812358,0.04771614070941846
1684002785770902400,3.878302734375,-0.10905861852478652,0.12440824518006433,-0.13585281379075617
1684002785780944600,3.888344970703125,-0.2852225302821877,0.30899858488204873,-0.08168125158619231
1684002785790986600,3.898386962890625,-0.3080027102610788,0.44613647453648675,0.011127471951081358
1684002785801028800,3.90842919921875,-0.10159635530826547,0.3542695044275821,0.13938903803876912
1684002785811070900,3.91847119140625,-0.18077731149333784,0.3404517173762927,-0.04269886013722248
1684002785821113000,3.928513427734375,0.04575991622481235,0.2849016189835206,-0.25947523115875054
1684002785831155400,3.9385556640625,-0.05941510206942644,0.3060450553364202,-0.2224798201469384
1684002785841197600,3.948597900390625,-0.16225075730772287,0.3541193008328214,-0.2823009489720131
1684002785851239600,3.958639892578125,-0.6232314110356953,0.7735981940865453,0.03693389891805223
1684002785861281600,3.96868212890625,-0.07792425152371495,0.43070650109018915,0.3001894952192858
1684002785871323800,3.97872412109375,-0.262618064951214,0.43307495115046424,0.025851726596590262
1684002785881365900,3.988766357421875,-0.11196351062402975,0.5623421668507689,-0.07356500636254504
1684002785891408300,3.99880859375,-0.14127111439859127,0.5533099175099214,-0.08550405511043108
1684002785901450400,4.008850830078125,-0.018278121946907297,0.5672745704470221,0.0033993722240681958
1684002785911492600,4.018892822265625,0.006229638938253509,0.5462789537018682,0.0005898474198556571
1684002785921534600,4.02893505859375,-0.06490445135393201,0.5789408682453796,-0.01594543445737999
1684002785931576800,4.03897705078125,-0.0993671418060936,0.46158409116853133,0.12730026262863173
1684002785941618900,4.049019287109375,-0.08092951787273878,0.4402031897295375,0.32887268060119346
1684002785951661000,4.059061279296875,-0.1395497323389979,0.310130596224719,0.40360403063627726
1684002785961703300,4.069103759765625,0.0908670425046637,0.2639198304371669,0.6935815810495739
1684002785971745500,4.079145751953125,-0.40148568144645835,0.040111541836175546,0.260370254531309
1684002785981787600,4.08918798828125,-0.3333642482004776,0.014490127698411997,0.4019694328660074
1684002785991829600,4.09922998046875,-0.34960460666450754,0.06326532381619605,0.4878530501652052
1684002786001871800,4.109272216796875,-0.35090589516781373,0.025156021121591314,0.3959217071347804
1684002786011913900,4.119314208984375,-0.3239529133444277,-0.033870697097867816,0.3253970145891014
1684002786021956000,4.1293564453125,-0.32120561603056574,-0.07708263394964182,0.3543682098871371
1684002786031998400,4.139398681640625,-0.38383316998743533,-0.028219699666785395,0.3449988365251975
1684002786042040600,4.14944091796875,-0.4231722355674218,-0.006146430901236516,0.31316709518379765
1684002786052082600,4.15948291015625,-0.4135453702599842,0.049505710560701945,0.21345996840923592
1684002786062124600,4.169525146484375,-0.6875143052317395,-0.06858253476348351,-0.0010080336405384892
1684002786072166800,4.179567138671875,-0.5094065666099353,-0.24236011500133064,-0.4457540512518371
1684002786082208900,4.189609375,-0.4968228339323599,-0.17046928413711848,-0.4891023635356337
1684002786092251100,4.1996513671875,-0.5861854551814769,-0.0521378517512096,-0.6062331198172499
1684002786102293200,4.209693603515625,-0.5212740899504601,0.6673383714492579,0.40463304511426335
1684002786112335600,4.21973583984375,-1.1020970344586742,0.3002033232657913,-0.9799828528902002
1684002786122377600,4.229778076171875,-0.4713895320762747,0.4080090522964754,-0.7199144363950933
1684002786132419800,4.239820068359375,-0.037100553380686165,0.7536172867807688,-0.5052289963373219
1684002786142461900,4.2498623046875,0.12596797939889715,0.707006454401444,-0.2864613532499767
1684002786152504000,4.259904296875,0.4402992724748478,0.4529905319346817,0.009483814302055228
1684002786162546100,4.269946533203125,0.8482286929336685,0.3873066903908215,0.366182804270804
1684002786172588500,4.27998876953125,0.9337670802669616,0.10909175874331488,1.1967349051771121
1684002786182630600,4.290031005859375,0.9678528309624147,0.014395713912655808,2.483398437537314
1684002786192672600,4.300072998046875,1.075984001175342,0.38384532934548515,2.8336610794704336
1684002786202714800,4.310115234375,0.7885389327595571,0.6104712485320124,2.6739153861561267
1684002786212756900,4.3201572265625,0.29978156094936237,1.1152143479071375,1.6792140005391227
1684002786222799000,4.330199462890625,-0.2018201350842167,0.8135261533977084,0.8237347602760471
1684002786232841100,4.340241455078125,-0.26488590237494014,0.7320761679975487,-0.007629394664946511
1684002786242883600,4.350283935546875,-0.012883186447206122,0.5267806052667791,-0.1399292945308741
1684002786252925600,4.360325927734375,0.37910246865224156,0.067336082465836,-0.11053514483177232
1684002786262967600,4.3703681640625,0.5373616218266196,-0.5104107856187147,-0.35564327239892507
1684002786273009800,4.38041015625,0.5756101608681663,-0.9489231109931529,-0.5291657446548664
1684002786283052000,4.390452392578125,0.6726231573131113,-1.1207523346090944,-0.5750446319860061
1684002786293094100,4.400494384765625,0.5963840484338309,-1.1880459784486894,-0.5641493798479977
1684002786303136200,4.41053662109375,0.49488067612333125,-1.4574298859138737,-0.36831474311794593
1684002786313178600,4.420578857421875,0.3658566473616896,-1.5274329185399615,-0.09184074404065494
1684002786323220600,4.43062109375,0.22061622145785478,-1.2799000740659021,0.053477287241809855
1684002786333262800,4.4406630859375,0.0030384063323491447,-1.114587783910119,0.08916378016945012
1684002786343304900,4.450705322265625,0.17361927032046953,-0.7176451682960382,-0.13967227939112023
1684002786353347000,4.460747314453125,-0.0881648658879959,-0.3232927323977309,-0.5640106200415347
1684002786363389100,4.47078955078125,-0.34387159345551155,-0.1138348579718373,-0.5501475335262158
1684002786373431200,4.48083154296875,-0.12187016002615275,0.9166646003250354,0.5029668807434379
1684002786383473300,4.490873779296875,0.13407626748131135,1.5487594604231822,-1.0065240859934768
1684002786393515600,4.500916015625,-0.5891677736576207,0.3192100525949723,-0.9314913750301362
1684002786403557800,4.510958251953125,-0.16319757716485206,0.16500854484330987,-0.8380413055247059
1684002786413599900,4.521000244140625,0.2549514769580357,0.23010492324202247,-1.0754117965932708
1684002786423642000,4.53104248046875,0.2647401989304153,-0.1651229859022082,-1.020816326139056
1684002786433684100,4.54108447265625,0.2437608539263801,-0.6809391974523136,-0.7780218125500079
1684002786443726300,4.551126708984375,0.3611041604529429,-0.7828521729142597,-0.288089275329038
1684002786453768600,4.5611689453125,0.6071043014437503,-0.38533973693453444,-0.5528688431294181
1684002786463810700,4.571211181640625,0.28217059377117165,-0.9139156342285433,-0.05728626239267445
1684002786473852800,4.581253173828125,0.7550119162916228,-0.6004972457572014,0.18465423588709975
1684002786483895000,4.59129541015625,0.8441789150685751,-0.18848562246162803,0.7723445893074272
1684002786493937100,4.60133740234375,0.37257096167678455,-0.12868309027153665,1.3540353774632208
1684002786503979200,4.611379638671875,0.3698051272747537,-0.3078866005057804,1.2764244080847
1684002786514021300,4.621421630859375,0.5012930036547624,-0.45380830759316004,0.4300832748429793
1684002786524063400,4.6314638671875,0.573903143357303,-0.7259211539563744,-0.5902795791531559
1684002786534105800,4.641506103515625,0.6129769086847435,-1.0335087775756169,-1.2145328521168393
1684002786544147900,4.65154833984375,0.4829697310968909,-1.0729703903162906,-1.666390418963866
1684002786554190000,4.66159033203125,0.2731996177256973,-1.1203918456926087,-1.7127571105043418
1684002786564232100,4.671632568359375,-0.09218591456740113,-1.2287292479475662,-1.3421950339108475
1684002786574274200,4.681674560546875,-0.24042922269258074,-1.060774803168045,-0.8819880485069086
1684002786584316300,4.691716796875,-0.16029718517346755,-1.022414207454189,-0.2621326447044791
1684002786594358400,4.7017587890625,-0.142340242839448,-0.580170154677945,-0.10307121271520867
1684002786604400600,4.711801025390625,-0.1261292994651737,-0.6094350814469756,-0.017085075304834024
1684002786614442900,4.72184326171875,0.047026991725703515,-0.49722862249474237,0.0608944892800101
1684002786624485000,4.731885498046875,0.09775955986952077,-0.7364764214710202,-0.07754421243164153
1684002786634527200,4.741927490234375,-0.19224585595539342,-1.4470262527176545,-0.04910326003878595
1684002786644569300,4.7519697265625,-0.06332883231638466,-1.2241292000016195,0.3964605331719355
1684002786654611400,4.76201171875,0.36843040575618136,-0.49147558227322335,0.15459060664708132
1684002786664653600,4.772053955078125,0.7393768428285009,-0.2870430945242855,0.1389093398138979
1684002786674695900,4.78209619140625,0.4311376810212385,-0.07111597051450756,-0.09076547633359917
1684002786684738000,4.792138427734375,0.6014574766714353,0.40136194218329124,-0.2589931487289663
1684002786694780100,4.802180419921875,0.5934991240934329,0.3407011030839421,0.07218980791533874
1684002786704822200,4.81222265625,0.6805381775479569,0.234933376207266,0.31182527532470994
1684002786714864300,4.8222646484375,0.7258263826015218,0.22589492797563326,0.5809388161160255
1684002786724906400,4.832306884765625,0.8347928524966219,0.28006744378773585,0.6400985717691432
1684002786734948600,4.842348876953125,1.1389262675596625,0.07855319974910867,0.7428522110005664
1684002786744990600,4.85239111328125,1.5281237364153486,-0.16160202040591842,0.7704277037690184
1684002786755033000,4.862433349609375,1.4363145828344346,-0.49112749097474845,0.2753453253895493
1684002786765075100,4.8724755859375,1.306644082009317,-0.4795775414471072,-0.4796071051361372
1684002786775117200,4.882517578125,1.1353557109981574,-0.4732356071283143,-0.8533196449129539
1684002786785159300,4.892559814453125,1.0645209549410093,-0.47410011298540267,-1.0475630760130636
1684002786795201500,4.902601806640625,1.0027126073766646,-0.46987056744577804,-0.7795667649237755
1684002786805243600,4.91264404296875,0.9717649222633661,-0.3531322479529841,-0.30082464225802147
1684002786815285600,4.92268603515625,1.096775651033663,-0.22154378887005807,0.09671449663992038
1684002786825328000,4.932728515625,1.1955094337973229,-0.13325214378455533,0.26976633059660315
1684002786835370200,4.9427705078125,1.1554926633802165,-0.1808285713217958,0.4442195893105018
1684002786845412300,4.952812744140625,1.0852915048243568,-0.055844783618235555,0.18976354611239182
1684002786855454400,4.962854736328125,0.919847309504312,0.16595792765816084,-0.31447315213993265
1684002786865496600,4.97289697265625,0.49671453229408263,0.10896778119703802,-0.4897298811337698
1684002786875538600,4.98293896484375,0.44874918448412865,-0.23631048203906208,-0.5783081054861932
1684002786885580600,4.992981201171875,0.6737771034527549,-0.5241546629670891,-0.4955186844280686
1684002786895623100,5.0030234375,0.5125167966872086,-0.5346512794196384,-0.3746352197420886
1684002786905665200,5.013065673828125,0.29764497274008894,-0.21828937547027746,-0.29466485971509543
1684002786915707300,5.023107666015625,0.34073221678617116,0.06732273107943092,-0.13300323495496724
1684002786925749400,5.03314990234375,0.32000800963136067,0.29056072219819395,-0.06510400760010766
1684002786935791600,5.04319189453125,0.1345409750138564,0.3797969819179822,-0.04028654111687831
1684002786945833600,5.053234130859375,0.09961375593686674,1.4043016435108457,-0.1717548370506487
1684002786955875800,5.063276123046875,0.1006762682713412,0.9999442099940635,-0.3974695207213447
1684002786965917900,5.073318359375,0.3144859076333573,0.3812880515634222,-0.10067605971343213
1684002786975960200,5.083360595703125,0.650200009298518,0.2733926772545125,0.2147870064462562
1684002786986002400,5.09340283203125,1.20957541464937,-0.16864967348152377,0.66136360163627
1684002786996044500,5.10344482421875,0.3465960324385804,-0.6976752281422884,0.8156442642114354
1684002787006086600,5.113487060546875,0.09904980660353734,-0.7523088455683224,0.8726286889257805
1684002787016128600,5.123529052734375,0.18993607167100846,-0.5702357291828126,0.6991100310386493
1684002787026170800,5.1335712890625,0.3344661594493818,-0.646131992319023,0.6178994178777903
1684002787036212900,5.14361328125,0.4598795176160246,0.82311725624603,0.17428159727477513
1684002787046255300,5.15365576171875,0.305406689616868,0.2772231102629032,-0.1110277174628773
1684002787056297400,5.16369775390625,0.36451411247627513,-0.4538755416193941,-0.12581014643552615
1684002787066339600,5.173739990234375,0.5485552550459131,-0.6326785088812446,-0.002919197055544828
1684002787076381600,5.183781982421875,0.5435529948179754,-0.1836643218493501,-0.13626766205060808
1684002787086423700,5.19382421875,0.6444854141460288,0.2613816260744027,-0.2647123336602168
1684002787096465800,5.2038662109375,0.7266352773959902,0.1420230865417424,-0.2896280287827352
1684002787106508000,5.213908447265625,0.699308633704433,-0.7761201860193345,0.10463142384230413
1684002787116550300,5.22395068359375,0.760230541211667,-1.2248044014906099,0.40898704532380836
1684002787126592400,5.233992919921875,0.5329831837316111,-0.5227069854901343,0.1335253716143001
1684002787136634600,5.244034912109375,-0.011866256681450691,-0.11697387704801432,0.029834270572212232
1684002787146676600,5.2540771484375,-0.3197252749807747,0.08227777484609715,-0.12884712216632085
1684002787156718800,5.264119140625,-0.09844572842728205,0.09298706060910472,-0.21520900734976608
1684002787166760900,5.274161376953125,0.18846063315961636,0.010419368858875802,-0.3827471733038847
1684002787176803000,5.284203369140625,0.508930027459149,0.056551456521102696,-0.6048717498383873
1684002787186845100,5.29424560546875,0.7375305891998469,-0.05388689043058142,-0.3304009438003929
1684002787196887600,5.304287841796875,0.7356383205285973,-0.6097402573160768,0.44606256474690464
1684002787206929600,5.314330078125,0.6730554699736953,-0.6882314683090671,1.0970683099060001
1684002787216971600,5.3243720703125,0.48288545018833157,-0.3430442811060805,1.078341960949478
1684002787227013800,5.334414306640625,0.12157312028548024,-0.025183677740282608,0.25700139981730596
1684002787237055900,5.344456298828125,-0.06983996943086554,-0.16807270050457707,-0.038403034269827524
1684002787247098000,5.35449853515625,0.14099106192433875,-0.15728044517985615,-0.1679859161178513
1684002787257140100,5.36454052734375,0.4744434654284286,-0.23982000359483863,-0.21387481686892326
1684002787267182600,5.3745830078125,0.5423528551045952,-0.25642490398718937,-0.2745170593283855
1684002787277224600,5.384625,0.5981581209641582,-0.07789897915980853,-0.02664089188163909
1684002787287266700,5.394667236328125,0.3436672090204182,0.6556730272027272,0.18639850618277926
1684002787297308800,5.404709228515625,-0.2283419520140897,-0.6155142783142586,-0.2913799284789142
1684002787307351000,5.41475146484375,-0.12106832859754099,-0.8759331702716533,-0.7761011123593891
1684002787317393100,5.42479345703125,0.17217716564512864,-0.6970024108350741,-0.22192573549757572
1684002787327435200,5.434835693359375,0.33495068551801693,-0.4059467317359305,0.39316797252911034
1684002787337477300,5.444877685546875,0.41331809759979804,-0.11624622328124265,0.7411723137173626
1684002787347519600,5.454920166015625,0.1965721249265349,0.003168106105698297,0.8519816398902466
1684002787357561800,5.464962158203125,-0.11405110349729534,0.5644006729583428,1.3713488579987048
1684002787367603900,5.47500439453125,-0.17083981621017366,0.712553501118501,0.8547019958114599
1684002787377646000,5.48504638671875,-0.11864039315482977,0.5078253746570551,0.663706779531427
1684002787387688100,5.495088623046875,-0.0803378521318636,0.5834536551046022,0.18194675450222106
1684002787397730200,5.505130615234375,-0.1323699952280413,0.5742621422636573,-0.16620206831566234
1684002787407772300,5.5151728515625,-0.036911338554073116,0.5727543831275758,-0.3945035934017977
1684002787417814600,5.525215087890625,0.12475925680339964,0.4887356757729794,-0.3914093972970112
1684002787427856800,5.53525732421875,0.3292660711872898,0.16738128659621795,0.1282577514501174
1684002787437898900,5.54529931640625,0.4134891034119516,0.1285996437598482,0.4949312210068916
1684002787447941000,5.555341552734375,0.3835598229776989,0.5571756362042491,0.48620605474521805
1684002787457983200,5.565383544921875,0.11892217398993273,0.9640259742254623,0.226886272459167
1684002787468025300,5.57542578125,-0.018976867144182594,1.0505509376789448,-0.024323463382534542
1684002787478067400,5.5854677734375,-0.11242246631708482,1.1512265204112135,-0.19653654104385476
1684002787488109600,5.595510009765625,0.08791536111416476,1.4414062500314275,-0.03828859327380824
1684002787498151900,5.60555224609375,0.3337400554940124,1.832452774105341,0.0657720563874289
1684002787508194000,5.615594482421875,0.36655193567415995,1.6554889679933755,0.16137695299618315
1684002787518236100,5.625636474609375,0.35740655669696936,0.8260293007775482,0.4512238501215312
1684002787528278200,5.6356787109375,-0.8453235626798912,-0.07339429848975787,0.9982099533227887
1684002787538320300,5.645720703125,-0.0627191960151774,0.6162528992339087,1.9710459709601735
1684002787548362400,5.6557626953125,0.9825943708983681,1.3553023338172543,1.9706974027926762
1684002787558404600,5.665804931640625,0.6977056263456578,0.8216943740763851,1.3742008209555303
1684002787568446900,5.675847412109375,0.5873647928390887,0.7849559783431842,1.2112946510406055
1684002787578489000,5.685889404296875,0.8845489622648229,0.943832874183336,1.0576910972973874
1684002787588531100,5.695931640625,1.2197288274197104,1.0190458299416207,1.0025057791557683
1684002787598573200,5.7059736328125,1.3007957935809933,1.0468425751641923,0.844841480271836
1684002787608615300,5.716015625,1.089000701968809,0.7937984467950248,0.5861668586886031
1684002787618657500,5.726057861328125,0.7970491051145823,1.1086888312805485,0.32097959506655704
1684002787628699600,5.736099853515625,0.6224172114595603,0.8880047799530367,0.29695940004185595
1684002787638741600,5.74614208984375,0.5027941464340946,0.47856855384104297,0.3270111083430633
1684002787648784000,5.756184326171875,0.41282293200122067,-0.3605146409098736,0.6327385900817606
1684002787658826200,5.7662265625,0.4989258050933072,-0.09152221677413262,2.004520893137208
1684002787668868300,5.7762685546875,0.8057239056321456,-0.6825819015456305,2.5902328489746798
1684002787678910400,5.786310791015625,1.079789280998652,-0.7324843406995812,2.397901534993949
1684002787688952600,5.796352783203125,1.153093457341045,-0.4186787605607688,1.4739150999677157
1684002787698994600,5.80639501953125,0.9756535290803214,-0.31148385999092615,0.5295329094826062
1684002787709036600,5.81643701171875,0.7563270328607679,-0.03200721736919209,-0.3015809058967856
1684002787719079100,5.8264794921875,0.6371350288667368,0.12379646297639482,-0.9893503188451822
1684002787729121200,5.836521484375,0.5986905695374832,0.195431709374567,-1.3751163481321647
1684002787739163300,5.846563720703125,0.6128711699903707,0.2229070663548458,-1.6795272826547372
1684002787749205400,5.856605712890625,0.46243423232243475,0.32808780661247305,-1.7689957618822127
1684002787759247600,5.86664794921875,0.20031890275618722,0.4098463058477295,-1.3925662041014983
1684002787769289600,5.87668994140625,-0.06349164239516139,0.14109039319383207,-0.9844655989624991
1684002787779331800,5.886732177734375,0.018063634674371044,0.02351665495793088,-0.5130190849052246
1684002787789373900,5.896774169921875,-0.1048049181816523,0.0022649765501516084,-0.28189563759680075
1684002787799416000,5.90681640625,-0.16049450632956028,0.06058979034928937,-0.04908418655661624
1684002787809458400,5.916858642578125,-0.11705067747167912,-0.02580738071237415,0.12085962311881103
1684002787819500500,5.92690087890625,-0.14624899620678602,0.044303893995879,0.14291095739621074
1684002787829542600,5.93694287109375,-0.2956351041229666,0.09632158274593518,0.27335453027648204
1684002787839584600,5.946985107421875,-0.5551354885022898,0.06818151462084933,0.24699544915852878
1684002787849626800,5.957027099609375,-0.49290281519511664,0.08578252805882611,0.05706882462599348
1684002787859668900,5.9670693359375,-0.42195409536616024,0.05792427067196458,0.11656045911516276
1684002787869711300,5.977111572265625,-0.15068644296412403,0.09915161132376668,-0.09859991071363887
1684002787879753400,5.98715380859375,-0.07687413701601051,-0.6665410995848514,-0.6987161637623895
1684002787889795600,5.99719580078125,-0.015841066837633207,-0.5866479873948728,-0.2990207672908286
1684002787899837600,6.007238037109375,-0.06528127195096771,0.6948213576991299,0.5274872779805646
1684002787909879600,6.017280029296875,-0.8247314691416472,-1.1725807189767572,-0.7220606804873385
1684002787919921800,6.027322265625,-0.3429906367494281,-1.0495939253390538,-0.2709436418136564
1684002787929964000,6.0373642578125,-0.7341212034202445,1.3136429786731807,-0.31367397316665907
1684002787940006100,6.047406494140625,-0.8069851398877516,1.6652913092158066,-0.15961980810074344
1684002787950048200,6.057448486328125,-1.395146727543504,-0.28204631806148023,-0.45950937280759363
1684002787960090600,6.067490966796875,-0.7893569470397686,-0.5714435577900847,0.12045812613123727
1684002787970132600,6.077532958984375,-0.21133553974039593,-0.06840133679191518,0.8389697074893046
1684002787980174800,6.0875751953125,-0.15505874155323768,0.613883495251374,0.7771492003902338
1684002787990216900,6.0976171875,-0.2967528106610251,0.5599298477772902,0.5038514136286706
1684002788000259000,6.107659423828125,-0.1918333768653645,0.6097145078937568,-0.20157003390583578
1684002788010301100,6.117701416015625,0.007316946986035909,0.57028579701342,-1.0639364720560658
1684002788020343200,6.12774365234375,-0.13592195516790706,0.3263254166288742,-1.4339313506744131
1684002788030385600,6.137785888671875,-0.3049147128642756,-0.2993488312223453,-1.417354583684088
1684002788040427600,6.147828125,-0.18909192086258245,-0.4687910081572094,-1.5575931072286027
1684002788050469800,6.1578701171875,-0.14833402631017517,-0.35114955900140654,-1.7761230467194344
1684002788060511900,6.167912353515625,-0.07371997817619215,-0.4578561782434098,-1.8046567440431378
1684002788070554000,6.177954345703125,-0.07424402235129599,-0.5928773880527977,-1.5102584362570608
1684002788080596100,6.18799658203125,-0.10119128238658259,-0.720064163227657,-1.176647901494952
1684002788090638300,6.19803857421875,-0.14214849478844338,-0.8863782882133164,-0.7151277066881742
1684002788100680400,6.208080810546875,0.0018153191838040763,-0.8103513716830034,-0.44006729118415994
1684002788110722700,6.218123046875,0.12786555294078283,-1.4729261398251463,0.5552597045291918
1684002788120764800,6.228165283203125,0.4998006821612306,-3.309162139805796,1.0201554298268685
1684002788130807000,6.238207275390625,0.9399842022689957,-3.2508478166196695,2.0391674041117818
1684002788140849100,6.24824951171875,1.0504003762055003,-2.478640556281831,2.2126498221799853
1684002788150891200,6.25829150390625,0.6428416968148413,0.5597386361009868,3.3773303032140833
1684002788160933300,6.268333740234375,0.3368859291525235,-0.974225998098344,1.0302882194526202
1684002788170975400,6.278375732421875,0.2558293340963253,0.1316795349124874,0.35960865008322923
1684002788181017600,6.28841796875,0.5211119651839803,-1.9050531387564207,-0.9024634360958028
1684002788191059900,6.298460205078125,1.0382605790552388,-3.276783943133395,-0.9540963172765127
1684002788201102000,6.30850244140625,1.518938303124607,-1.4331121445071064,-1.0600342751146075
1684002788211144100,6.31854443359375,1.2059004306831993,-0.1922216414686142,-1.5625019074257125
1684002788221186200,6.328586669921875,1.0291045905512166,-0.009385108975309007,-1.8077783585432303
1684002788231228300,6.338628662109375,0.8041884898781486,-0.36014652260605806,-2.030369043393607
1684002788241270400,6.3486708984375,0.7042515278234408,-0.7900037766957654,-1.6558437346968906
1684002788251312600,6.358712890625,0.6431748866829358,-0.41636848461764636,-1.5230410098853477
1684002788261354600,6.368755126953125,0.5138905047362872,-0.24764633169792408,-1.549976110374725
1684002788271397000,6.37879736328125,0.4180297851658114,-0.2436275481556841,-1.5444123745924445
1684002788281439200,6.388839599609375,0.22342228879552609,-0.38049793248244623,-1.4038810731319629
1684002788291481300,6.398881591796875,0.14243721953995628,-0.040074348341931534,-1.4578921794763389
1684002788301523400,6.408923828125,0.0971021652416915,1.1235914229976527,-0.9801776408943821
1684002788311565600,6.4189658203125,-0.3838372230382198,0.23255157477619776,-1.2065975666636335
1684002788321607600,6.429008056640625,-0.9152293206442671,-1.557579994081149,-1.1586415767515972
1684002788331649600,6.439050048828125,-0.7767698764637323,0.518826484655116,-0.19815373425609967
1684002788341691800,6.44909228515625,-1.2260563372598736,-3.708720207134841,0.9401223659850114
1684002788351734200,6.459134521484375,-0.9669616222519619,-2.3276605605689107,1.8522589206215814
1684002788361776300,6.4691767578125,-0.7581377028619052,0.18219375629093534,1.1055710315119247
1684002788371818400,6.47921875,-0.7419331073629084,0.01065921779802346,0.5410122871113601
1684002788381860600,6.489260986328125,-0.7094187737657266,-0.6350622175925137,-0.002337694076535917
1684002788391902600,6.499302978515625,-0.7487559318401948,-1.834256172092627,0.2697827816422787
1684002788401944800,6.50934521484375,-0.6891551016757479,-0.8235445022561703,0.3278901577064122
1684002788411986900,6.51938720703125,-0.4374952316342611,-0.03524017334406252,-0.44085097315282423
1684002788422029000,6.529429443359375,-0.35904240606837934,-0.5907554627646475,-0.6180918217135389
1684002788432071300,6.5394716796875,-0.293396472939737,-0.27528095249597073,-0.6026449204377637
1684002788442113500,6.549513916015625,-0.3929934501713592,-0.03216552737359559,-0.6963024140179048
1684002788452155600,6.559555908203125,-0.526125907972236,-0.1519451142441861,-0.6726646423879594
1684002788462197600,6.56959814453125,-0.6366863251349335,-0.21847438804514288,-0.48133778572099933
1684002788472239800,6.57964013671875,-0.6812551021728876,-0.18755626667762482,-0.22023606302978374
1684002788482281900,6.589682373046875,-0.4870765207938056,0.10085296632352993,-0.12369418132336754
1684002788492324000,6.599724365234375,-0.3630924224755557,0.3681192398629404,0.22181367873584928
1684002788502366400,6.609766845703125,-0.3022403717753303,0.3520793916215857,0.4167153835310492
1684002788512408600,6.619808837890625,-0.12632536887770363,0.5161361693396013,0.2673962115744096
1684002788522450600,6.62985107421875,-0.10270214085342128,0.428251266511387,0.25207734111402497
1684002788532492600,6.63989306640625,0.05256748193016195,0.34046173093527743,-0.268609523849731
1684002788542534800,6.649935302734375,0.25925278664831314,0.10980415331469551,-0.29976701730052024
1684002788552576900,6.659977294921875,0.8459496496815107,0.0884370804263253,-0.08094048489460362
1684002788562619100,6.67001953125,1.2890996933348358,0.58903694137278,-0.05904412266700238
1684002788572661200,6.6800615234375,1.1421766280491665,0.30492591851725237,0.26580953610521746
1684002788582703300,6.690103759765625,1.1699547768558256,-1.0196123122938672,0.5932712553965456
1684002788592745600,6.70014599609375,1.2626950740825076,-0.2673978804789117,0.21595716483480903
1684002788602787800,6.710188232421875,1.447848439270144,0.7246184349440824,-0.24526667593146192
1684002788612829900,6.720230224609375,1.1935069561169966,0.9256682396782652,-0.6737103462495094
1684002788622872000,6.7302724609375,0.8951878548012778,0.5648355483634546,-1.030014753238578
1684002788632914100,6.740314453125,0.6475353240312185,0.17108440406445344,-1.2165298460762055
1684002788642956200,6.750356689453125,0.5240619182591942,0.14501285560906021,-1.3657097817162533
1684002788652998300,6.760398681640625,0.3237004279523435,0.07119369506456882,-1.3403801918254876
1684002788663040400,6.77044091796875,0.20601034163688312,0.2780456542494357,-1.1176004409172737
1684002788673082600,6.78048291015625,0.23764443400835528,0.7982301712738943,-0.8953640460383203
1684002788683124900,6.790525390625,0.2565927506514805,1.0841932296500083,-0.6058187485265168
1684002788693167000,6.8005673828125,0.23719382277531803,0.9055471420105199,-0.5155239104378495
1684002788703209100,6.810609619140625,0.4021694659001639,1.6099619864664505,-0.047521591241931976
1684002788713251200,6.820651611328125,0.4907491207695735,1.647863864923238,-0.09189510344483467
1684002788723293400,6.83069384765625,0.3287160396389328,1.6255149842165049,-0.2512512205488848
1684002788733335600,6.84073583984375,0.07490539557569734,1.3203663826359984,-0.4715373516136458
1684002788743377600,6.850778076171875,-0.20016789438189314,0.8429346084597121,-0.613384723641878
1684002788753420000,6.8608203125,-0.4465141296842965,0.2545614241901845,-0.9248225690089943
1684002788763462100,6.870862548828125,-0.6247432230644281,-0.16739749901671908,-1.2209804058670208
1684002788773504200,6.880904541015625,-0.6427142619544193,-0.38972568511906364,-1.2764105798673855
1684002788783546300,6.89094677734375,-0.5237817764419497,-0.7272653580928702,-1.4122791289618415
1684002788793588400,6.90098876953125,-0.3915071486964481,-0.8747739792181393,-1.5019564627919528
1684002788803630600,6.911031005859375,-0.2636981010017103,-1.0200624464859451,-1.4766356944818677
1684002788813672600,6.921072998046875,-0.23426580426394342,-1.2925996780413083,-1.322453021994903
1684002788823714700,6.931115234375,-0.3112611770977615,-1.6528062820388136,-1.0623016356541646
1684002788833757100,6.941157470703125,-0.40051889419220543,-1.8033685684134118,-0.8218445779077437
1684002788843799200,6.95119970703125,-0.4614369868582241,-1.7535343170669713,-0.7268817423864746
1684002788853841300,6.96124169921875,-0.48225212090855274,-1.3166608809490563,-0.8969054221588159
1684002788863883400,6.971283935546875,-0.5319900513648106,-0.17676734933861163,-0.2761476038985828
1684002788873925600,6.981325927734375,-0.8191905022655791,-0.22572612768957573,-0.14231729515261554
1684002788883967600,6.9913681640625,-1.1643884181555884,-0.6793966292353771,0.24007487305187467
1684002788894009800,7.00141015625,-1.5541977882496008,-1.4586629867657719,0.3219459057607856
1684002788904051900,7.011452392578125,-1.8690602780559282,-1.9188776016766596,0.11426663392397163
1684002788914094000,7.021494384765625,-2.0304598808232295,-2.139764785714471,-0.2355816363831996
1684002788924136400,7.031536865234375,-2.1238889694466496,-1.9497547149778705,-0.08989024168029822
1684002788934178600,7.041578857421875,-2.136336565008008,-3.3189373016812804,0.834636449836447
1684002788944220600,7.05162109375,-1.2890412807422766,-0.898103713821011,0.13297867775413838
1684002788954262600,7.0616630859375,-0.10276889797485393,1.3062672616247053,-0.04968023313554431
1684002788964304800,7.071705322265625,0.49936509122698053,0.5692501067837006,0.39419245704557093
1684002788974346900,7.081747314453125,0.984751224487392,-0.493648528976278,0.6179714202542803
1684002788984389000,7.09178955078125,1.5245888232106548,-0.38714885707000063,0.47206330290750126
1684002788994431200,7.10183154296875,1.90066885949182,-0.2015895843094968,0.19961071003233818
1684002789004473300,7.111873779296875,2.042903184810772,-0.2989044189922968,0.04411768906265756
1684002789014515600,7.121916015625,1.7602398395164944,-0.23591232309977972,-0.23636126509593908
1684002789024557700,7.131958251953125,1.382008314117225,0.29741954802981213,-0.64572668083121
1684002789034599900,7.142000244140625,0.9597240687130002,0.9342803953727581,-0.5552921295177783
1684002789044642000,7.15204248046875,0.692817211018592,1.2923974990673215,-0.32550406453616004
1684002789054684100,7.16208447265625,0.5244817732851988,1.4049501418304298,-0.1524250508187486
1684002789064726200,7.172126708984375,0.5159711838408004,1.3137564659089729,0.0511541366786763
1684002789074768300,7.182168701171875,0.6050282716713995,1.077702522140845,0.28354358688073245
1684002789084810400,7.1922109375,0.6759572029260362,0.720427513092317,0.4367125034077847
1684002789094852800,7.202253173828125,0.7533749343073486,0.2754392623386319,0.5898244381897544
1684002789104894900,7.21229541015625,0.7309188841307097,-0.034685135000055045,0.5733301639445764
1684002789114937000,7.22233740234375,0.7973154783431784,-0.03196144091363125,0.46264100067889424
1684002789124979100,7.232379638671875,0.7969805001684629,-0.04728221897910821,0.505467891628143
1684002789135021200,7.242421630859375,0.7589223385270616,-0.22517585741949694,0.48033928870621445
1684002789145063300,7.252463623046875,0.5575557947492604,-0.6297044753400182,0.2618198395774918
1684002789155105500,7.262505859375,0.2814817429608558,-0.6923923493318781,-0.08339071284080157
1684002789165147600,7.2725478515625,0.12363290789167598,-0.3371591569795303,-0.21677684782702547
1684002789175189600,7.282590087890625,0.19499254226139814,0.09926795948409585,-0.23363327984567636
1684002789185232000,7.292632568359375,0.2800679208158421,0.09648132334038388,-0.11792373657236424
1684002789195274200,7.302674560546875,0.2100594042717116,0.03943729408519514,0.08873009677743558
1684002789205316300,7.312716552734375,-0.1550968885897493,-0.005590438719942175,0.27890586856618144
1684002789215358400,7.3227587890625,-0.5472081901034576,-0.07958126064305543,0.2989253997133941
1684002789225400600,7.33280078125,-0.8132580517221528,-0.0702352523340635,0.27017331132585976
1684002789235442600,7.342843017578125,-0.9043292998421135,-0.0016860962234239508,0.23650121680566266
1684002789245484600,7.352885009765625,-0.6869766713112063,0.08016300217861856,0.2824008465600661
1684002789255526800,7.36292724609375,-0.29412555711293886,0.12002086634328833,0.30142521872147665
1684002789265569200,7.372969482421875,0.15926241864045354,0.09865093245917764,0.3802421092409409
1684002789275611300,7.38301171875,0.506996870136986,0.030650138798548096,0.32082414634249634
1684002789285653400,7.3930537109375,0.7759451864611199,0.014410018876481462,0.2717320918476769
1684002789295695600,7.403095947265625,1.0225229262257778,0.045535087586798216,0.1902937889449641
1684002789305737600,7.413137939453125,1.1789164543893003,0.08140373231730764,0.2369689941574588
1684002789315779800,7.42318017578125,1.3052814006996034,0.08885002133065162,0.23488521574907645
1684002789325821900,7.43322216796875,1.378791212902707,0.03220176694934637,0.24128699301077486
1684002789335864000,7.443264404296875,1.4306778908134312,-0.014084816115555395,0.27295541758065434
1684002789345906100,7.453306396484375,1.4671883583019762,-0.004656791654766283,0.28820466997412525
1684002789355948500,7.463348876953125,1.4802520274825155,0.05544281016639962,0.34540748591592785
1684002789365990600,7.473390869140625,1.4710388184406007,0.1033487320531841,0.4493360518280159
1684002789376032600,7.48343310546875,1.4916107656077955,0.09553718560343423,0.5033829212602469
1684002789386074800,7.49347509765625,1.373494863634673,0.057945251338218824,0.5917012691313125
1684002789396116900,7.503517333984375,1.2726624012170984,-0.014047622655139381,0.6299314498744851
1684002789406159000,7.513559326171875,1.155112505026316,-0.08426094061292976,0.6146574020316837
1684002789416201100,7.5236015625,0.9733877182445534,-0.12137222283814676,0.5277037620550802
1684002789426243200,7.5336435546875,0.8396131991957936,-0.1469793319106517,0.4430029393671849
1684002789436285400,7.543685791015625,0.7522520424256107,-0.14192867294447054,0.33650541306628606
1684002789446327600,7.55372802734375,0.6781954169063404,-0.1346530914635085,0.18247985846734735
1684002789456369800,7.563770263671875,0.5943548082692807,-0.10811710351041733,0.03904891002931712
1684002789466412000,7.573812255859375,0.5429694056543924,-0.13869953158989715,-0.0291965005910018
1684002789476454100,7.5838544921875,0.5197642446704485,-0.18071269988493033,-0.08867836004250533
1684002789486496200,7.593896484375,0.47125467654047654,-0.20532894123128737,-0.11722111698699675
1684002789496538300,7.603938720703125,0.4155887366224565,-0.17901992791051444,-0.2122039794242815
1684002789506580400,7.613980712890625,0.3367499114416132,-0.15920162204667956,-0.27781462684705316
1684002789516622600,7.62402294921875,0.28272017836537305,-0.13422489183596373,-0.29122018816673556
1684002789526664900,7.634065185546875,0.25087040675667627,-0.15466594695639438,-0.22762346270547534
1684002789536707000,7.644107421875,0.2678807974586175,-0.15601444226339914,-0.18296504033485858
1684002789546749100,7.6541494140625,0.3440008760016747,-0.154881477361066,-0.11601901058219162
1684002789556791200,7.664191650390625,0.48410236844875537,-0.07462882995792744,-0.03328418742631186
1684002789566833300,7.674233642578125,0.6653211712406604,-0.0015583037954981947,0.04790520684909041
1684002789576875400,7.68427587890625,0.8306431771290144,0.00924682613686209,0.11001586923080107
1684002789586917600,7.69431787109375,0.9710667134182365,-0.020617485026396317,0.18370199206254956
1684002789596959600,7.704360107421875,1.0590001343436848,0.0069837570489426825,0.27148294438834175
1684002789607001800,7.714402099609375,1.1153954265579085,0.06805038450312964,0.3088169098863937
1684002789617044100,7.724444580078125,1.0850172042921247,0.06678485853952573,0.3286085128786382
1684002789627086300,7.734486572265625,1.021290421486384,0.022306442275825008,0.31146073344726877
1684002789637128400,7.74452880859375,0.9353537558815317,-0.03174495701681931,0.24844861026813198
1684002789647170600,7.75457080078125,0.814232051370298,-0.07610225679348692,0.24539160729424037
1684002789657212600,7.764613037109375,0.7184489965845439,-0.07739639279866685,0.22569465636026567
1684002789667254600,7.774655029296875,0.6676669716268335,-0.059651374729403885,0.2084705830636591
1684002789677296800,7.784697265625,0.6550896765341019,-0.058780670210442976,0.23901867866464813
1684002789687338900,7.7947392578125,0.6611990929585314,-0.04139041885481007,0.24288463579632485
1684002789697381000,7.804781494140625,0.6327396631816721,-0.038551330561144286,0.18427181244619328
1684002789707423400,7.81482373046875,0.6313607691724965,-0.05248737336443474,0.18068218219832993
1684002789717465600,7.824865966796875,0.6356436015674604,-0.025368690533741977,0.18660521512735667
1684002789727507600,7.834907958984375,0.6072342991155278,0.053110122595991384,0.2043075562718392
1684002789737549700,7.8449501953125,0.570242166425632,0.03600883476271594,0.24025583259390598
1684002789747591900,7.8549921875,0.5249520541693903,0.073220253053771,0.176418304560229
1684002789757634000,7.865034423828125,0.5025411844540096,0.008369445899366335,0.19314527509926524
1684002789767676100,7.875076416015625,0.48155459770520675,0.040492057788640845,0.11595439913117694
1684002789777718200,7.88511865234375,0.4621587692989917,0.0030269623704595057,0.03306603431409788
1684002789787760300,7.89516064453125,0.39177799220652487,-0.3401613234956329,-0.05602955817223282
1684002789797802600,7.905203125,0.34603455649918413,-0.665303230296856,-0.31070518479746806
1684002789807844800,7.9152451171875,0.42019620541796104,-0.7715520858518706,-0.5555016995622374
1684002789817886900,7.925287353515625,0.6545734405224899,-0.16482830053024414,-0.8257193564462737
1684002789827929000,7.935329345703125,0.7692081927654839,-0.2611150741776912,-0.4486331939854031
1684002789837971100,7.94537158203125,0.6836918592241925,-0.10094070432273655,-0.37710189802289623
1684002789848013200,7.95541357421875,0.5931961536957425,0.019072532762167697,-0.2658369540946618
1684002789858055300,7.965455810546875,0.48101103301560927,-0.029666900628537555,-0.24899339673077114
1684002789868097500,7.975497802734375,0.5318807363276347,0.2621841430074005,-0.13091230394102585
1684002789878139600,7.9855400390625,0.6229072212322968,0.7799854279886561,0.05343651779154689
1684002789888181900,7.995582275390625,0.5791121721795627,0.690263748249643,0.26874184619994695
1684002789898224000,8.00562451171875,0.4677205383414968,0.5159292222246153,0.2730433939362736
1684002789908266200,8.01566650390625,0.3889518976866685,0.5597314834477667,0.467702388705789
1684002789918308300,8.025708740234375,0.39272487154715274,0.5161695480362424,0.6501367090408591
1684002789928350400,8.035750732421874,0.25760346645606175,0.45767784118235455,0.4076325894131629
1684002789938392600,8.04579296875,0.22218269098608268,0.1990404128959137,0.33306121816905415
1684002789948434600,8.0558349609375,0.1820254027193936,-0.008869171226487269,0.23663091666391528
1684002789958476600,8.065877197265625,0.16068351270371434,-0.08884239189490566,0.06343531593574926
1684002789968519100,8.07591943359375,0.13836726554737208,0.008994102454264127,-0.10224246985297307
1684002789978561200,8.085961669921875,0.16346064219791104,0.09789752954212469,-0.22590637197129018
1684002789988603300,8.096003662109375,0.15668094163814253,0.1752929687032309,-0.288447141684673
1684002789998645400,8.1060458984375,0.14236429336845655,0.2269268035586127,-0.39074444781119133
1684002790008687600,8.116087890625,0.09398230895504069,0.14499759660536946,-0.47983264922632146
1684002790018729600,8.126130126953125,0.11439555885337366,-0.013717651328106917,-0.49315905576524927
1684002790028771800,8.136172119140625,0.17461532348033906,-0.06851863862762805,-0.5173451899928138
1684002790038813900,8.14621435546875,0.12385290863073051,-0.3106021881062161,-0.49291157723268647
1684002790048856000,8.15625634765625,0.12148860098777378,-0.42850112911415605,-0.4514572618808639
1684002790058898100,8.166298583984375,0.1580235957717232,-0.511408805983902,-0.4171526432912664
1684002790068940500,8.1763408203125,0.15521118054102853,-0.38779544843923563,-0.5095863341076861
1684002790078982600,8.186383056640626,0.17330378292625156,0.01912975310982864,-0.6581237317409504
1684002790089024600,8.196425048828125,0.22624486685509101,0.2737703322801806,-0.6760532855209684
1684002790099066800,8.20646728515625,0.28123563540754565,0.09356212618295703,-0.5497260093836567
1684002790109108900,8.21650927734375,0.29731038200127263,-0.13768100749380704,-0.451087474878886
1684002790119151000,8.226551513671875,0.2804688514554259,-0.3885555267554517,-0.32320642465117305
1684002790129193100,8.236593505859375,0.20721229916638245,-0.4985857008811765,-0.28652834903063895
1684002790139235200,8.2466357421875,0.1482555867119592,-0.5546417235635722,-0.2589640617002197
1684002790149277400,8.256677734375,0.06690537925547879,-0.5105457306158896,-0.2524201870475188
1684002790159319600,8.266719970703125,0.008142769363027533,-0.42444610593735255,-0.214735984797747
1684002790169361800,8.27676220703125,-0.05608427530935598,-0.308855056766878,-0.1605474948151017
1684002790179404000,8.286804443359374,-0.112305402764862,-0.2983713150054456,-0.08008813859200786
1684002790189446100,8.296846435546875,-0.16809779418686538,-0.27863693241802523,0.06307649621494778
1684002790199488200,8.306888671875,-0.21912753594366766,-0.34404659272360116,0.12455773359467805
1684002790209530300,8.3169306640625,-0.2544664143823263,-0.4342594145657921,0.20525312432532866
1684002790219572400,8.326972900390626,-0.2548922301340681,-0.4640665053672264,0.2228507996513494
1684002790229614600,8.337014892578125,-0.2526261806668063,-0.3214015960319107,0.1690928935980425
1684002790239656600,8.34705712890625,-0.23567026849026237,-0.17419242867362872,0.14277768131690483
1684002790249698700,8.35709912109375,-0.18991166357419434,-0.029935836767684895,0.1488399506795049
1684002790259741100,8.3671416015625,-0.17335712901346892,0.11370372771128792,0.06852579132924372
1684002790269783200,8.37718359375,-0.12234377863657048,0.1697292328386182,-0.011791705960807667
1684002790279825300,8.387225830078124,-0.07726931580549795,0.15373992919957655,-0.056713342670667646
1684002790289867400,8.397267822265626,-0.03089582928866061,0.1823501588188863,-0.1678543090864803
1684002790299909600,8.40731005859375,-0.03941118709156369,0.30194187159323876,-0.2920947075636918
1684002790309951600,8.41735205078125,-0.0383899213513883,0.1859817503148888,-0.3354880809474362
1684002790319993800,8.427394287109376,-0.06443917746087834,0.029032707143732787,-0.44122147548460405
1684002790330035900,8.437436279296875,-0.11618447313923555,-0.16328334789739277,-0.56335639960171
1684002790340078300,8.447478759765625,-0.2647786139737355,-0.4299697875505966,-0.6489021778487908
1684002790350120400,8.457520751953124,-0.4481800796317442,-0.5362243652574977,-0.6854963301375919
1684002790360162600,8.46756298828125,-0.5973737239510171,-0.581004142845298,-0.6520295142724021
1684002790370204600,8.47760498046875,-0.6957068442652689,-0.5818614961247295,-0.5872542859234158
1684002790380246600,8.487647216796875,-0.7567781209795122,-0.5138740538184863,-0.586128473303387
1684002790390288800,8.497689208984376,-0.842402339066541,-0.417373657178726,-0.5445830823070117
1684002790400330900,8.5077314453125,-1.0770907400928498,-0.3691205977661327,-0.4976058006636723
1684002790410373000,8.5177734375,-1.5001763105297143,-0.6106786727620717,-0.29826688763211834
1684002790420415200,8.527815673828124,-1.7339298723983814,-0.8118944167742396,-0.10833811754988966
1684002790430457300,8.537857666015626,-1.4663175345091501,-0.6645288467174723,-0.15971088404602238
1684002790440499400,8.547899658203125,-0.9745324849188124,-0.22179412826555023,-0.3694899081486166
1684002790450541700,8.557942138671875,-0.5050950050691196,0.11640262600623895,-0.5332105159132755
1684002790460583900,8.567984375,-0.11142039298348948,0.1227970122878028,-0.6272728444422454
1684002790470626000,8.5780263671875,0.192931771306474,-0.0749673842652798,-0.63016200076611
1684002790480668100,8.588068359375,0.4790453909741774,-0.12126159660358891,-0.662264823975065
1684002790490710200,8.598110595703124,0.7532530427624845,0.3128051757974789,-0.5944762229564448
1684002790500752300,8.608152587890626,0.9266348480940799,0.5202236176065179,-0.29413342473214626
1684002790510794400,8.61819482421875,0.9362208246590044,0.47241210920724047,0.20366144184939775
1684002790520836600,8.62823681640625,0.7912409307444402,0.42916393271660563,0.6854712962851189
1684002790530878600,8.638279052734376,0.47864532468040594,0.40852737427928343,1.0864520074300088
1684002790540921000,8.6483212890625,0.0568406581097276,0.40990257258414164,1.3314769269015028
1684002790550963100,8.658363525390625,-0.41689002510764617,0.3850440977310872,1.4183337688775066
1684002790561005200,8.668405517578124,-0.9230045080506446,0.2474899292069809,1.2526941299493783
1684002790571047300,8.67844775390625,-1.3670405148348372,0.011297226082119343,0.8291504382510992
1684002790581089500,8.68848974609375,-1.6829280854353994,-0.3017644881229918,0.23866248137968044
1684002790591131600,8.698531982421875,-1.769561171548287,-0.49287891395717104,-0.4353451729506506
1684002790601173600,8.708573974609376,-1.6000163554257067,-0.5237140656434113,-1.038922667340876
1684002790611215800,8.7186162109375,-1.36395168306577,-0.36341762524926235,-1.4246590137152444
1684002790621257900,8.728658203125,-1.1236443520712953,-0.2323207854673292,-1.551581382934515
1684002790631300000,8.738700439453124,-0.8424624204269041,-0.1449232100321627,-1.5602771042693107
1684002790641342100,8.748742431640625,-0.562755823154708,-0.0007181169061782457,-1.358374357305556
1684002790651384600,8.758784912109375,-0.43274867546858625,0.04997062685998175,-1.1618204117187751
1684002790661426600,8.768826904296875,-0.28655946242840696,0.10107898710355029,-0.9305080175866757
1684002790671468600,8.778869140625,-0.13993704317698932,0.17948150628818227,-0.6768071651504206
1684002790681510800,8.7889111328125,-0.16396868214102145,0.19199085227659968,-0.28479576095570847
1684002790691552900,8.798953369140625,-0.2263852356955352,0.2504978181061907,0.1886875629475832
1684002790701595100,8.808995361328124,-0.27190768706965607,0.36616802210085225,0.6161780357271497
1684002790711637200,8.81903759765625,-0.35640716553064367,0.5097198486725274,0.9316117763679967
1684002790721679300,8.82907958984375,-0.38785541060547196,0.6689195633175744,1.174819707800712
1684002790731721400,8.839121826171874,-0.3968579769580029,0.8125915527319297,1.3736717701537007
1684002790741763800,8.8491640625,-0.38223290438344665,0.8692483901633266,1.4935224057528707
1684002790751805900,8.859206298828125,-0.31071817875101365,0.8321352005905976,1.5518541335879255
1684002790761848000,8.869248291015625,-0.2607965468472317,0.7899723052202835,1.5529108047594649
1684002790771890100,8.87929052734375,-0.18565678602059896,0.7954626083547561,1.4404578210420054
1684002790781932200,8.88933251953125,-0.1342375279796424,0.7986822127508181,1.2473649978896852
1684002790791974300,8.899374755859375,-0.13397288332528898,0.749821662967759,1.0101046563768843
1684002790802016400,8.909416748046874,-0.19807744035837582,0.6419296263933374,0.7559688091493422
1684002790812058600,8.919458984375,-0.33223903170366764,0.36267471307740373,0.6641023159334822
1684002790822100600,8.9295009765625,-0.5144413709756318,0.06004905694642069,0.708820581251743
1684002790832142800,8.939543212890625,-0.8354963065603733,-0.05393218984319439,0.9021170138963978
1684002790842185100,8.94958544921875,-1.1615544556892556,-0.053946495047148865,1.1355819703951413
1684002790852227200,8.959627685546875,-1.3037145138633135,-0.040472030595711375,1.402596950423057
1684002790862269400,8.969669677734375,-1.225844144995247,0.015251159516936008,1.5751357077925692
1684002790872311500,8.9797119140625,-1.0199530125642928,0.043821334926841024,1.65427041061174
1684002790882353600,8.98975390625,-0.7748419045878776,0.13112926470411423,1.5597257612544966
1684002790892395600,8.999796142578125,-0.5125712155832985,0.15993785856017048,1.3403382301432778
1684002790902437800,9.009838134765625,-0.36395192146523664,0.15917110435309756,1.035195112284651
1684002790912479900,9.01988037109375,-0.34145629411921025,0.22492504109238418,0.6408450604630423
1684002790922522000,9.02992236328125,-0.46150124082083677,0.26704025272823156,0.206472873824933
1684002790932564400,9.03996484375,-0.6289510726822877,0.2910003663688849,-0.24093723283848362
1684002790942606600,9.0500068359375,-0.7667196987844684,0.16815376283600736,-0.639228820821978
1684002790952648600,9.060049072265626,-0.8334608078941441,-0.04873561856433348,-0.993362903629369
1684002790962690700,9.070091064453123,-0.8526659010910617,-0.3022356033539295,-1.3026463984895316
1684002790972732800,9.08013330078125,-0.8720110654830864,-0.48934364332173996,-1.4724619388489562
1684002790982775000,9.09017529296875,-0.8638564349505679,-0.6126613616819024,-1.4933431149374041
1684002790992817100,9.100217529296875,-0.8354743719834896,-0.624889373886293,-1.3809967041582036
1684002791002859200,9.110259521484377,-0.7070331573820199,-0.5124416351361426,-1.1352775097178964
1684002791012901300,9.1203017578125,-0.5329928397826861,-0.29537010201127595,-0.8402316569712875
1684002791022943400,9.13034375,-0.27182579054925643,-0.08688259118075758,-0.5367789267441145
1684002791032985600,9.140385986328123,0.05194360026009783,0.11757278457851171,-0.2091016770619414
1684002791043027900,9.15042822265625,0.35740798709181437,0.15823078167465476,-0.03788733494992872
1684002791053070000,9.160470458984374,0.6827399730723581,0.16012859346600156,0.08129334442097716
1684002791063112100,9.170512451171875,0.9052352307804049,0.18349838264684334,0.08993768682978324
1684002791073154200,9.1805546875,1.0165657996689386,0.13310432425021185,-0.0014755724959766947
1684002791083196300,9.1905966796875,0.9755403994547384,0.2123918533300042,-0.07503437997456903
1684002791093238400,9.200638916015626,0.8579763173522331,0.2348508834096318,-0.061415195568457454
1684002791103280600,9.210680908203123,0.7430799007854672,0.2172212600078539,-0.03260159499616723
1684002791113322600,9.22072314453125,0.5886585712896605,0.2624197006660625,-0.006983518708305994
1684002791123364800,9.23076513671875,0.45625731346339715,0.30586338047332967,-0.005317449510868299
1684002791133407200,9.2408076171875,0.33348190767527836,0.31155872357322023,-0.06813883776498772
1684002791143449300,9.250849609375,0.1835473478337861,0.3511133192978446,-0.16433763501376017
1684002791153491400,9.260891845703124,0.03665912158356999,0.34057712542316454,-0.18698740011543616
1684002791163533600,9.270933837890626,-0.007998824190600948,0.23416233061337702,-0.1664226054714129
1684002791173575600,9.28097607421875,0.07630303493959834,0.08896255489133871,-0.2068672180305878
1684002791183617600,9.29101806640625,0.2190627901448078,0.012627601565342692,-0.31059312820251817
1684002791193659800,9.301060302734374,0.44435200108457534,0.14193058001422582,-0.5517947672817328
1684002791203701900,9.311102294921875,0.6475991010626346,0.21209526074248453,-0.6723952292240177
1684002791213744000,9.32114453125,0.7803279758175926,0.180231094485687,-0.5558867454153964
1684002791223786200,9.3311865234375,0.8283768296588002,0.0773649214723233,-0.4711229800768267
1684002791233828300,9.341228759765626,0.932861566548592,0.008664131121231388,-0.3035962582837842
1684002791243870600,9.35127099609375,1.0209791659684333,0.017202377294835088,-0.1939227580993314
1684002791253912800,9.361313232421876,1.011735081621816,0.17213726037208887,-0.007989406641797953
1684002791263954900,9.371355224609376,0.8392102717403119,0.23864269258318468,0.3268184660397115
1684002791273997000,9.3813974609375,0.6466801761591053,0.26152515422112016,0.6789419649904271
1684002791284039100,9.391439453125,0.36669951670085243,0.21628761293104415,0.9460701942501599
1684002791294081200,9.401481689453124,0.04895813746588561,0.21971511840312447,1.1727147102681046
1684002791304123300,9.411523681640626,-0.16668555145030603,0.15196990963231244,1.2695167063803279
1684002791314165400,9.42156591796875,-0.22459527849760627,0.061091423098426065,1.2486090661965896
1684002791324207600,9.43160791015625,-0.050363000370056706,-0.01183223734214007,1.0944139957439107
1684002791334249600,9.441650146484376,0.2540913224979276,-0.12617874144247296,0.7699570656239841
1684002791344292000,9.4516923828125,0.593728065621102,-0.1645164489688232,0.36981582641051947
1684002791354334100,9.461734619140625,0.8526914715863649,-0.08094978338050553,-0.003168344591355212
1684002791364376200,9.471776611328124,1.04301166522822,-0.039984703055154704,-0.24923825257825571
1684002791374418400,9.48181884765625,1.184004545199564,-0.04371166224642674,-0.4014823436103457
1684002791384460500,9.49186083984375,1.2806838750144613,-0.024845123367825617,-0.471066236523969
1684002791394502600,9.501903076171876,1.3114269972302635,-0.023962974673435947,-0.3671855925307173
1684002791404544600,9.511945068359376,1.3624083996145624,0.04474639890678993,-0.1983358859839894
1684002791414586800,9.5219873046875,1.3801667690451147,0.11143589034846084,0.022091627049867904
1684002791424628900,9.532029296875,1.4281190634750522,0.14249134073904915,0.22654986396760096
1684002791434671300,9.54207177734375,1.4223015308030524,0.1569404600455177,0.39546632769396745
1684002791444713400,9.55211376953125,1.3579367398503261,0.16418647759100963,0.5760483741589901
1684002791454755600,9.562156005859377,1.2372794152007496,0.252581596354127,0.751409292128856
1684002791464797600,9.572197998046876,1.1280144454256267,0.3263940812496706,0.9286472797910976
1684002791474839700,9.582240234375,1.014652133090428,0.4046535491149439,1.1241514683299514
1684002791484881800,9.5922822265625,0.8783465028705931,0.4179458619729542,1.2730565070985578
1684002791494924000,9.602324462890625,0.7391400931985179,0.36868000023531683,1.4252934454952186
1684002791504966100,9.612366455078124,0.6092997790514704,0.3237895965095916,1.5447793008184656
1684002791515008200,9.62240869140625,0.5066924691436647,0.30961513518932027,1.5482215881723986
1684002791525050300,9.63245068359375,0.43027403944432074,0.32151031505643485,1.5081291198697129
1684002791535092400,9.642492919921876,0.3663724065090578,0.36666679386185325,1.3985688687962357
1684002791545134800,9.65253515625,0.2808035016817886,0.3919162748928459,1.2753419875810075
1684002791555176900,9.662577392578124,0.10394287098925876,0.31582069401576773,0.9202837942851297
1684002791565219000,9.672619384765625,-0.08922207370730788,0.16798210151913753,0.4555253981588002
1684002791575261100,9.68266162109375,-0.2520646452944575,0.07604885101644808,0.08704233153314872
1684002791585303200,9.69270361328125,-0.3402794301022572,0.023458480962710682,-0.15841722496589414
1684002791595345300,9.702745849609377,-0.3645612000392137,0.019474983347854788,-0.24142885211926052
1684002791605387400,9.712787841796874,-0.32875543830030773,0.05918788912312797,-0.31310415274633113
1684002791615429600,9.722829833984376,-0.21598097684730885,0.09017562876218528,-0.25342631338395055
1684002791625471600,9.7328720703125,-0.037528246661281,0.09586334224527186,-0.08358550062260839
1684002791635513800,9.7429140625,0.14407271143362288,0.11184692382275167,0.20279502858572881
1684002791645555900,9.752956298828124,0.2692809401475223,0.16871356955387293,0.456324100337131
1684002791655598300,9.76299853515625,0.3280416129709792,0.2494668961542339,0.6431789397558313
1684002791665640400,9.773040771484377,0.34931784866647636,0.3086280822390484,0.8445646762680048
1684002791675682600,9.783082763671874,0.3384301960812841,0.3270711898587075,0.9765579700064944
1684002791685724600,9.793125,0.3389298617498179,0.35022354126423716,1.0367124080731465
1684002791695766600,9.8031669921875,0.33485633120669483,0.29685783400280097,1.0823268889999726
1684002791705808800,9.813209228515625,0.36941334610354654,0.2651481627645654,1.0515475272879518
1684002791715850900,9.823251220703124,0.37740474922681083,0.24798297880054784,0.9880285263841762
1684002791725893000,9.83329345703125,0.37282201645354757,0.1975221633484836,0.9323854446944737
1684002791735935200,9.84333544921875,0.33835542206301966,0.1926088333380558,0.8511338232850063
1684002791745977300,9.853377685546874,0.2715641261217655,0.19270706161372025,0.7879757880742083
1684002791756019400,9.863419677734376,0.21148002153108897,0.1643877030286713,0.8144767283700771
1684002791766061700,9.873462158203123,0.18011629579244992,0.16263294227019381,0.8849098681665191
1684002791776103900,9.883504150390625,0.1555253862641634,0.18005084986730838,0.9270536900247719
1684002791786146000,9.89354638671875,0.12258285298253792,0.25710487365667933,0.9909839629274917
1684002791796188100,9.90358837890625,0.0739330649294018,0.34339427952685286,1.0644145012506927
1684002791806230200,9.913630615234377,-0.003742575610883253,0.44354152693168764,1.0654532910044892
1684002791816272300,9.923672607421874,-0.10417702805930142,0.4881067276202275,1.1056361199740934
1684002791826314400,9.93371484375,-0.21017602087894113,0.46759986879614607,1.0650236607872847
1684002791836356600,9.9437568359375,-0.2957221568595262,0.40857791909335917,0.9848940372384977
1684002791846398600,9.953799072265625,-0.36365336190054165,0.3449058533143952,0.9096398352955224
1684002791856440800,9.963841064453124,-0.4134122132473907,0.3271465300242904,0.8501744268907582
1684002791866482900,9.97388330078125,-0.41004031885663283,0.3483457565218275,0.8885171414603944
1684002791876525200,9.983925537109377,-0.3238684833351078,0.3697834013458641,0.93713164313325
1684002791886567300,9.9939677734375,-0.2204543353424775,0.46932411195887536,1.0786745547329943
1684002791896609500,10.004009765625,-0.05973535789371387,0.5676517488238199,1.2514283656659204
1684002791906651600,10.014052001953123,0.0702025890643491,0.6079740523390075,1.40661525733628
1684002791916693600,10.024093994140625,0.18813198805438652,0.6638050078105702,1.5524170398747517
1684002791926735800,10.03413623046875,0.24605560304375723,0.6498613357819956,1.6481997965438815
1684002791936777900,10.04417822265625,0.304809749136873,0.654314041078449,1.671206951050429
1684002791946820000,10.054220458984377,0.3228628040349107,0.6133375167903794,1.6514348983133353
1684002791956862100,10.064262451171874,0.34029424195710245,0.5632085801823282,1.6187622546820972
1684002791966904200,10.0743046875,0.29816427834672454,0.518517494128092,1.6193482875722496
1684002791976946400,10.0843466796875,0.2890749274368824,0.4369182587503385,1.6060450077968542
1684002791986988600,10.09438916015625,0.28133967523857223,0.3448486327662343,1.583597660029515
1684002791997030800,10.10443115234375,0.2603882252736299,0.2091836930157243,1.5721344949215297
1684002792007072900,10.114473388671875,0.29281046996300764,0.1291236877790296,1.485132455906171
1684002792017115100,10.124515380859377,0.3080322146646859,0.06594944014217698,1.3491511346279825
1684002792027157200,10.1345576171875,0.34031599761529874,-0.02994632728250361,1.2924222945593629
1684002792037199300,10.144599609375,0.4207833409683059,-0.13674163821344607,1.271506071264461
1684002792047241400,10.154641845703123,0.47825852044816913,-0.22586822500519227,1.236891508115582
1684002792057283600,10.164683837890625,0.5555589199148067,-0.3918600082851169,1.306313991589659
1684002792067325600,10.17472607421875,0.619134247478058,-0.5299501420230559,1.3294904231307219
1684002792077367600,10.18476806640625,0.6378045678017148,-0.7961616516198432,1.3773667812371473
1684002792087409800,10.194810302734377,0.6462392807725125,-1.0521612167938754,1.4391832350860385
1684002792097452200,10.2048525390625,0.5621205567251327,-1.2160186767732255,1.3774991034677149
1684002792107494300,10.214894775390626,0.4452114404757329,-1.3057804107844146,1.2888488769784048
1684002792117536400,10.224936767578123,0.23141303666791535,-1.1926136017192368,0.9358804226262365
1684002792127578600,10.23497900390625,-0.035108134255114734,-0.9801015854530678,0.4138848781614588
1684002792137620600,10.24502099609375,-0.3216460050690987,-0.7609586715593997,-0.13736057284806705
1684002792147662800,10.255063232421875,-0.6067168713244635,-0.5352153777361519,-0.6993951795939554
1684002792157704900,10.265105224609377,-0.7663056255699915,-0.35829448704372274,-1.1113475561848836
1684002792167747000,10.2751474609375,-0.8702627420059922,-0.14884090429764124,-1.3577259778270243
1684002792177789100,10.285189453125,-0.8686030508033364,0.1740064622775897,-1.6868978739547136
1684002792187831200,10.295231689453123,-0.934233784517125,0.43503284461860087,-1.8961519001532114
1684002792197873300,10.305273681640625,-0.9629092215535134,0.6002855301252871,-2.031524419959741
1684002792207915400,10.31531591796875,-0.9998245835969202,0.6336536408430655,-2.099957466027929
1684002792217957800,10.325358154296875,-0.9179004430647184,0.5373668671682621,-1.914691567284258
1684002792227999900,10.335400390625,-0.8067312240055294,0.5122928620064595,-1.5240072012794799
1684002792238042000,10.3454423828125,-0.7337582112271159,0.6018114090962668,-1.038024544681563
1684002792248084100,10.355484619140626,-0.5134960412635836,0.7415752411240684,-0.5291953086072415
1684002792258126300,10.365526611328123,-0.1936689168075948,0.9193334579702191,-0.0984175204685966
1684002792268168400,10.37556884765625,0.13784933076870526,1.0792341231577973,0.21154522902497988
1684002792278210600,10.38561083984375,0.26701968922168146,1.0481758119238425,0.4316821098845361
1684002792288252600,10.395653076171875,0.2041437327662984,0.7974014281971009,0.4208865166364858
1684002792298294600,10.405695068359377,0.05955757954467206,0.47342109665333537,0.2602279185252887
1684002792308336800,10.4157373046875,-0.04921654231308847,0.1536340714551399,-0.0405066012184997
1684002792318378900,10.425779296875,-0.12728177004553812,-0.11586761464981399,-0.3862400055305143
1684002792328421000,10.435821533203123,-0.1559676825965701,-0.20341205605795123,-0.7113862037402583
1684002792338463400,10.44586376953125,-0.20461446033345043,-0.2098369598754372,-0.9517402649367817
1684002792348505600,10.455906005859376,-0.2921995222136372,-0.25023746488190646,-1.2227859495326994
1684002792358547600,10.465947998046875,-0.4087787568652773,-0.31540298450737275,-1.432453751494821
1684002792368589700,10.475990234375,-0.4534675179523114,-0.427283287066055,-1.5034326315271174
1684002792378631900,10.4860322265625,-0.44428455838973463,-0.5407447815440828,-1.5895273684987472
1684002792388674000,10.496074462890626,-0.34698003527554216,-0.634105682417374,-1.689664125528783
1684002792398716100,10.506116455078123,-0.23831528409208344,-0.6832447051264585,-1.7405101060315262
1684002792408758200,10.51615869140625,-0.17493605618020425,-0.7383441924382476,-1.694206595478836
1684002792418800300,10.52620068359375,-0.018735706825818963,-0.7396020889265154,-1.5369011164316124
1684002792428842400,10.536242919921875,0.15779584638758065,-0.686669349754059,-1.3446879388131496
1684002792438884600,10.546284912109376,0.32306861877534615,-0.5716276169029708,-1.070821523690055
1684002792448926900,10.556327392578124,0.5135530234080901,-0.43911647802893833,-0.7689428329695399
1684002792458969000,10.566369384765624,0.7078416347517443,-0.1836452484364964,-0.4335649012168231
1684002792469011100,10.57641162109375,0.9121245146878253,0.04134368903250481,-0.046455621638558944
1684002792479053200,10.58645361328125,1.0942156314019666,0.1593170167751435,0.25810098644261853
1684002792489095300,10.596495849609376,1.0848326682527611,0.17274379738578313,0.515484094617395
1684002792499137500,10.606537841796875,0.9432684182356921,0.1701059342727995,0.7488527298528124
1684002792509179600,10.616580078125,0.8074353932766208,0.18947505958024913,0.8689591884389452
1684002792519221600,10.6266220703125,0.8059341311924366,0.2093057631939516,0.8424122334577702
1684002792529263800,10.636664306640624,0.8603063821223624,0.24659347527354183,0.6202790737040725
1684002792539305900,10.646706298828123,0.9145599007925245,0.26352500918280347,0.3239910603127557
1684002792549348000,10.65674853515625,1.0443611144016818,0.21953105931661462,0.07117438311533786
1684002792559390400,10.666790771484376,1.0975993872658167,0.20744991318118655,-0.12719535842238097
1684002792569432600,10.6768330078125,1.0338813066041506,0.18597316740701217,-0.2346127033524241
1684002792579474600,10.686875,0.7572684289320646,0.3029184342473775,-0.40982055648156
1684002792589516600,10.696917236328124,0.5367382169642406,0.4026842117385817,-0.5409116745369267
1684002792599558800,10.706959228515624,0.3713723421334917,0.4423465729566454,-0.606663942323946
1684002792609600900,10.71700146484375,0.1558730603373536,0.41730499261570536,-0.6620411873308978
1684002792619643100,10.72704345703125,-0.10374796377487926,0.3203411102117979,-0.680866480028217
1684002792629685200,10.73708544921875,-0.3858639001712884,0.1846437453332246,-0.6968150139280584
1684002792639727300,10.747127685546875,-0.7133953570570604,0.021827697660985843,-0.6906995774174873
1684002792649769400,10.757169677734376,-1.0312026738356188,-0.09200668342707291,-0.6835045814454659
1684002792659811600,10.7672119140625,-1.3853907583783336,-0.20282363889344004,-0.6935338974988678
1684002792669853600,10.77725390625,-1.5731059311436573,-0.40946865081001654,-0.5846121311933433
1684002792679896000,10.78729638671875,-1.5307215452525456,-0.5213079452646469,-0.4673795699753876
1684002792689938100,10.79733837890625,-1.1677341461349593,-0.669419288486022,-0.4512364864659356
1684002792699980200,10.807380615234376,-0.6448005438271527,-0.7400646208460664,-0.5184555052609656
1684002792710022300,10.817422607421875,-0.2661321163273605,-0.7799539564535294,-0.5044543742548747
1684002792720064400,10.82746484375,-0.010219931575915038,-0.790747642562735,-0.34122562399094597
1684002792730106600,10.8375068359375,0.05729150770538872,-0.7220592499598457,-0.16158294679703927
1684002792740148600,10.847549072265624,0.06629991538053126,-0.53360080715473,-0.013715267288118187
1684002792750190800,10.857591064453125,-0.02241444600199796,-0.3769912718371279,0.261819362562155
1684002792760232900,10.86763330078125,-0.11738646021177812,-0.2097959518590404,0.40742254254849686
1684002792770275000,10.87767529296875,-0.17325043672966248,0.029839515711453525,0.5083723066631017
1684002792780317100,10.887717529296877,-0.13889288890309556,0.14387607570309746,0.5333628655048531
1684002792790359200,10.897759521484376,-0.03928828229446719,0.22682571413721697,0.4111914632903426
1684002792800401600,10.907802001953126,0.15593731407139477,0.23701572423747033,0.14913988126679562
1684002792810443600,10.917843994140624,0.3778831959096189,0.3042545318251182,-0.11343002325827464
1684002792820485800,10.92788623046875,0.5056728124318816,0.32843112939129687,-0.3956398962965178
1684002792830527900,10.93792822265625,0.5625411272097098,0.37876415242823613,-0.6026287077906628
1684002792840570000,10.947970458984376,0.6577746867702846,0.5340909958347496,-0.737173795748076
1684002792850612100,10.958012451171877,0.8455053567234159,0.6412372588073636,-0.7903990746067697
1684002792860654300,10.9680546875,1.0317294596830684,0.6834650039787088,-0.7559280394731877
1684002792870696400,10.9780966796875,1.196634769501562,0.734646797084833,-0.7113394736660449
1684002792880738600,10.988138916015624,1.3323926924527272,0.7945947647193946,-0.6023974417141974
1684002792890780600,10.998180908203125,1.4789710044468458,0.7989473343695298,-0.5463833808054306
1684002792900822600,11.00822314453125,1.6109760999530351,0.8414978980908203,-0.4951624871309462
1684002792910864800,11.01826513671875,1.6383577584328584,0.8606553077915177,-0.3959145545330515
1684002792920906900,11.028307373046877,1.593228697748273,0.8305268287045681,-0.32056236269212307
1684002792930949300,11.038349609375,1.4347848891148896,0.6770458220240546,-0.3077354432196318
1684002792940991400,11.048391845703126,1.2014766932902852,0.4762458800216082,-0.2916631700211254
1684002792951033600,11.058433837890624,0.901127338254837,0.40875053394267685,-0.31688070303140164
1684002792961075600,11.06847607421875,0.6000581981073543,0.3561944961664282,-0.32226037984127437
1684002792971117700,11.07851806640625,0.5063354969450011,0.32245445261587574,-0.3225708008170519
1684002792981159900,11.088560302734376,0.4353595972694824,0.1761178969880761,-0.46259212504071817
1684002792991202000,11.098602294921877,0.24464619170033178,-0.008183479255088597,-0.36609315868032155
1684002793001244100,11.10864453125,-0.15023696423018365,-0.18972778313190514,-0.35457086546546157
1684002793011286200,11.1186865234375,-0.7422653437741973,-0.4214010239256784,-0.27070617681113046
1684002793021328300,11.128728759765623,-1.1739207506958997,-0.6057558058468265,-0.21473979950624614
1684002793031370400,11.138770751953125,-1.181992173102845,-0.5851116181311157,-0.25225782405293834
1684002793041412800,11.148813232421874,-1.0656265021676954,-0.4331588744863629,-0.3372626303961526
1684002793051454900,11.158855224609376,-1.0171859264732408,-0.3673133850528203,-0.29339361177104434
1684002793061497000,11.1688974609375,-1.0700149535989678,-0.39282321922850755,-0.12423181536319103
1684002793071539100,11.178939453125,-1.1306763888319302,-0.33195304875775083,-0.0550866127163237
1684002793081581200,11.188981689453126,-0.9980367421753124,-0.10762405393948941,-0.35373783104780326
1684002793091623300,11.199023681640623,-0.6521539688496781,0.01192760466861247,-1.1072235106927348
1684002793101665500,11.20906591796875,-0.14473724362619006,-0.19354820253081578,-1.9628553389742747
1684002793111707600,11.21910791015625,0.2209569215286213,-0.34985065466544735,-2.651676654784611
1684002793121749600,11.229150146484375,0.4411152599892503,-0.32785797130925004,-3.029953956505716
1684002793131791800,11.239192138671877,0.5571405888028808,-0.2267446519081563,-3.176020383799655
1684002793141833900,11.249234375,0.5580819845252927,-0.21790504465464464,-3.1310834886396117
1684002793151876000,11.2592763671875,0.40998268112276387,-0.5540876389793206,-3.0156869888497373
1684002793161918100,11.269318603515623,0.08147323134695149,-1.279953956784062,-2.695636034160819
1684002793171960600,11.27936083984375,-0.3199033737529418,-2.2494201660056508,-2.0216901301791266
1684002793182002600,11.289403076171874,-0.6728500127022736,-3.1696138381992864,-0.9782705306408661
1684002793192044600,11.299445068359375,-1.0231167077653265,-3.7155609130255907,-0.036576270936658405
1684002793202086800,11.3094873046875,-1.2145547867322257,-3.7416906356938906,0.43655252458375926
1684002793212128900,11.319529296875,-0.9930850266868344,-2.9325227737319803,0.44372034070500804
1684002793222171100,11.329571533203126,-0.30415368076406174,-1.6036739349274987,0.24147558210940065
1684002793232213200,11.339613525390623,0.5608435869274849,-0.3538980483278334,-0.04932880411162192
1684002793242255300,11.34965576171875,1.2522848844088716,0.6619863510653039,-0.41821813591153933
1684002793252297400,11.35969775390625,1.7148951292680312,1.265298843453665,-0.5983960628248903
1684002793262339600,11.369739990234375,1.999990582441744,1.4705719948364304,-0.5372657775732019
1684002793272381600,11.379781982421877,2.1340625286108446,1.4619259834414602,-0.37609338767596023
1684002793282423600,11.38982421875,2.1119489668789453,1.3693141936536926,-0.29494619375169195
1684002793292465800,11.3998662109375,2.0847454069979188,1.2283101081605707,-0.39897274978555763
1684002793302508000,11.409908447265623,2.0609350204504318,0.9767313003998842,-0.4789378641624737
1684002793312550300,11.41995068359375,2.0548582076872353,0.6829280852876104,-0.3801808355807152
1684002793322592400,11.429992919921874,2.0051994323528186,0.3512725830211032,-0.043971300256272744
1684002793332634600,11.440034912109375,1.8418782948992691,-0.05079269418633092,0.29564166068616976
1684002793342676600,11.4500771484375,1.604783534941848,-0.26637649529976076,0.5134656428824237
1684002793352718800,11.460119140625,1.2839057446058488,-0.16999816909739487,0.5614197254739961
1684002793362760900,11.470161376953126,0.9987013934453812,-0.05396366110014857,0.38467288015422324
1684002793372803000,11.480203369140623,0.7911522985096818,0.009835243242954636,0.1965854166830888
1684002793382845100,11.49024560546875,0.6553027032736602,0.11459827429167815,0.048636674916567826
1684002793392887200,11.50028759765625,0.6410735249756873,0.20538806915559157,0.016497135137851636
1684002793402929300,11.510329833984375,0.7541449665678812,0.2708053588047922,0.07096242901801661
1684002793412971400,11.520371826171877,0.8993238806590469,0.24238586426569778,0.22301626199213406
1684002793423013600,11.5304140625,0.9662662745187262,0.31235504152410787,0.38294720631626583
1684002793433055600,11.5404560546875,1.0504312514985679,0.2494125366392156,0.6540572643427937
1684002793443098000,11.55049853515625,1.1870677472006317,0.20424556731350077,0.9257855416115924
1684002793453140100,11.56054052734375,1.3476552964275417,0.3818559646603587,1.1328279972714241
1684002793463182300,11.570582763671876,1.4691584109784914,0.568530082702076,1.2352685928386107
1684002793473224400,11.580624755859375,1.5162086487697173,0.7346725463744068,1.2136809826779456
1684002793483266600,11.5906669921875,1.434973001356977,0.7868118285288083,1.0860626696220332
1684002793493308600,11.600708984375,1.2545814513290618,0.5631122589775239,0.8319461345939682
1684002793503350600,11.610751220703126,1.0833299161917402,0.3821048736501185,0.524009704669915
1684002793513392800,11.620793212890623,0.970073878783579,0.25316524500267157,0.21494865405929514
1684002793523434900,11.63083544921875,0.8944799899972403,0.18579673763641183,-0.05900287622045571
1684002793533477000,11.64087744140625,0.8552542924626274,0.17530918136439913,-0.3138592243073045
1684002793543519200,11.65091943359375,0.8316580058731035,0.1596822737953206,-0.45114111891922715
1684002793553561300,11.660961669921877,0.8670017719075218,0.05791759481189144,-0.5017228127113481
1684002793563603400,11.671003662109374,0.9003581404084956,-0.045851707571310844,-0.43647170068855595
1684002793573645700,11.681046142578126,0.9202076197853094,-0.0771150589794853,-0.2833309175251837
1684002793583687900,11.691088134765623,0.9406020045428883,-0.06706523880669106,-0.032892227158402475
1684002793593730000,11.70113037109375,0.9366845488141659,0.14389991761579338,0.25185275096500004
1684002793603772100,11.71117236328125,1.035000562761173,0.3306903837784571,0.45136284820254247
1684002793613814200,11.721214599609375,1.1678838729298944,0.42853736884232807,0.6533706187742265
1684002793623856300,11.731256591796877,1.3789889811786982,0.45156955709957514,0.8638236521566671
1684002793633898400,11.741298828125,1.5829699039991918,0.47146606455835166,1.0294868945879054
1684002793643940600,11.7513408203125,1.77378702161926,0.4881849288096255,1.1498851775051577
1684002793653982600,11.761383056640623,1.8876957894435573,0.5017032623736751,1.155276298440475
1684002793664024800,11.771425048828124,1.955123424494967,0.4807558058635466,1.2240018845691585
1684002793674066900,11.78146728515625,1.9445772172516222,0.3967142104005094,1.1288144587037636
1684002793684109000,11.79150927734375,1.898278474782836,0.22373104104159935,0.9928891658505457
1684002793694151100,11.801551513671876,1.857645034859521,0.11507034292799086,0.752811193607
1684002793704193500,11.81159375,1.786585569432849,0.01826286315554143,0.526754856122802
1684002793714235600,11.821635986328126,1.6851522923317692,-0.1525526047292305,0.3556892871319446
1684002793724277600,11.831677978515623,1.5712435245765795,-0.32310676566543783,0.23474931705516014
1684002793734319800,11.84172021484375,1.417398929650647,-0.4694595338163208,0.1424293519477913
1684002793744361900,11.85176220703125,1.2955901622940051,-0.5176887511894583,0.035578966280286034
1684002793754404000,11.861804443359375,1.2177393437944344,-0.47999000541347436,-0.1000847815571015
1684002793764446100,11.871846435546876,1.150367021451508,-0.42593383783249017,-0.2002756596280775
1684002793774488200,11.881888671875,1.1036279200289352,-0.45102787012480194,-0.3914189339077645
1684002793784530400,11.8919306640625,1.0419356823269692,-0.29447174065043336,-0.6747541426816362
1684002793794572500,11.901972900390623,0.905549287919364,-0.20958423614927107,-0.7817406653685027
1684002793804614600,11.912014892578124,0.8520030378715431,0.030746459914538265,-1.0135116577941952
1684002793814656600,11.92205712890625,0.7752521633883085,-0.06385135643578006,-1.0103828906370291
1684002793824698800,11.93209912109375,0.7161133289713444,-0.07744026194372317,-1.0035512447341648
1684002793834740900,11.942141357421876,0.6890041232697836,-0.05814933775871409,-1.0294454098034735
1684002793844783000,11.952183349609374,0.7311701177731241,0.11568737028661984,-1.0142505169774318
1684002793854825400,11.962225830078124,0.8568771481597213,0.3359346390045757,-0.9828722476856468
1684002793864867600,11.972267822265623,0.9353514909684019,0.3660593032704473,-0.963984251051782
1684002793874909600,11.98231005859375,0.9212520122702856,0.05931568149480866,-0.8904871941811905
1684002793884951700,11.99235205078125,0.9041095972777577,-0.2721147536783419,-0.7191741466162269
1684002793894993800,12.002394287109375,0.9303980468818286,-0.19124031073508413,-0.42423915872545903
1684002793905036000,12.012436279296876,0.9264711737302286,-0.027227401749828888,-0.17837381347488865
1684002793915078100,12.022478515625,0.7903858422672777,-0.06954574594422544,-0.06351280203752369
1684002793925120200,12.0325205078125,0.5070142745701928,-0.3499555586162275,-0.23586297033905881
1684002793935162300,12.042562744140625,0.24874001746397434,-0.3272409439991936,-0.3623824119183419
1684002793945204400,12.052604736328124,0.045182377126144826,-0.18667697898184674,-0.46892118451700254
1684002793955246600,12.06264697265625,-0.1246970742064256,0.025142669734756914,-0.5798635483014452
1684002793965288600,12.07268896484375,-0.26975798602948037,0.059284210317941254,-0.5940542220033966
1684002793975330700,12.082731201171876,-0.41283687943406083,0.06228542319258202,-0.6136662960552176
1684002793985372800,12.092773193359376,-0.4493665696265598,0.09717845930368997,-0.6052482127781975
1684002793995415200,12.102815673828124,-0.25484153630344075,0.05877685546803394,-0.45891761788507357
1684002794005457300,12.112857666015625,0.0698479117203747,-0.11730194084474008,-0.39227533336212045
1684002794015499400,12.12289990234375,0.3874064683796611,-0.2802505493178876,-0.3545687197624519
1684002794025541600,12.13294189453125,0.7065871954513343,-0.41593551652797484,-0.23609018320872757
1684002794035583600,12.142984130859375,0.9852685332351611,-0.5627021789859658,-0.053830146818253544
1684002794045625800,12.153026123046876,1.2193468810842154,-0.5869951248322285,0.138942241784516
1684002794055667900,12.163068359375,1.39587926868323,-0.31277751918210217,0.3123638629290557
1684002794065710000,12.1731103515625,1.4902679919506434,0.16335773460515282,0.4199657439959209
1684002794075752100,12.183152587890625,1.5072025061294523,0.5662288665949458,0.5666816235672689
1684002794085794200,12.193194580078124,1.4265745878182412,0.6954908370840832,0.7573268414652696
1684002794095836300,12.20323681640625,1.2504005433817413,0.7596158980568558,0.9488437177154975
1684002794105878400,12.21327880859375,1.1076993943808064,0.7156696319789354,1.1050488950558826
1684002794115920600,12.223321044921876,1.0201998949176745,0.575510025172198,1.2535846233142651
1684002794125962600,12.233363037109376,0.9063805341795946,0.45147991191100073,1.2578880787132527
1684002794136004800,12.2434052734375,0.7526900767749071,0.28159618369643313,1.0949115753600536
1684002794146047200,12.253447509765625,0.5852852463410076,0.09727764141968132,0.8447055816770459
1684002794156089300,12.26348974609375,0.5308707952841764,0.09721374507685858,0.44202613820957015
1684002794166131400,12.27353173828125,0.5974091887522689,0.09521198265539633,0.12782883633691414
1684002794176173600,12.283573974609377,0.7442103624655471,0.1439037322315048,-0.06912422181824335
1684002794186215600,12.293615966796876,0.947981715199618,0.21444988254343356,-0.15642952927828566
1684002794196257600,12.303658203125,1.107183814126098,0.02995967855561073,-0.12181568146560076
1684002794206299800,12.3137001953125,1.2307895420707204,-0.17482566837491978,-0.07281255729504077
1684002794216341900,12.323742431640625,1.2482335568206557,-0.21850776675245953,-0.01712322235438397
1684002794226384000,12.333784423828124,1.165993690573535,-0.24732112882484922,0.06140565878380491
1684002794236426200,12.34382666015625,1.024606466324544,-0.14204597479528727,0.07863426208934095
1684002794246468300,12.35386865234375,0.878074646154859,-0.05850219731017598,0.12468028058639215
1684002794256510400,12.363910888671874,0.8673357963228526,0.02208423619861819,0.21507716185990985
1684002794266552600,12.373952880859376,0.8641549350243272,0.11362934124114836,0.26959371570125545
1684002794276594600,12.3839951171875,0.8652628661172383,0.25887775421671977,0.26368284223476024
1684002794286636600,12.394037109375,0.8451490402272474,0.3862800598500403,0.19097495083322136
1684002794296679100,12.40407958984375,0.8227930664409575,0.44153404229130533,0.11561894418923425
1684002794306721200,12.41412158203125,0.8872771264163233,0.48720645897903214,0.1103298663269074
1684002794316763300,12.424163818359377,0.885987758559723,0.389819145172606,0.06831812874917546
1684002794326805400,12.434205810546874,0.8266517521073522,0.03556537632845641,0.12984156614122647
1684002794336847600,12.444248046875,0.7977869509312838,-0.07813358308140923,0.16117453560262066
1684002794346889600,12.4542900390625,0.8468105791520101,-0.0474681854101283,0.20044112211400367
1684002794356931800,12.464332275390625,0.8748778700599457,0.07700824740624207,0.19732451445770796
1684002794366973900,12.474374267578124,0.9655869006301934,0.17294597623629498,0.30852413178715377
