time,seconds_elapsed,z,y,x
1684002781934801800,0.0422021484375,6.74533927165261e-11,-1.2442574954247637e-10,1.292829870814901e-10
1684002781944844000,0.052244384765625,-0.3001270294928435,-0.2730538844756708,0.6598186493909303
1684002781954886100,0.062286376953125,0.2884702683253616,0.5658266545756666,-0.5420663357638992
1684002781964928200,0.07232861328125,0.6045494079486423,-1.4001588821956448,0.9203224183342511
1684002781974970600,0.082370849609375,0.47223472605297506,0.5031027793967932,-0.6377902031553947
1684002781985012600,0.0924130859375,1.090319633435999,-1.1002509594121916,0.08177709587329525
1684002781995054800,0.102455078125,0.301103591953661,0.03519654287601716,-0.45583796514342406
1684002782005096900,0.112497314453125,-0.49720478061475193,-0.9986593724403877,0.9702050685226703
1684002782015139000,0.122539306640625,-0.6925859450229895,-0.17224240304842656,-0.3609833718497539
1684002782025181100,0.13258154296875,-1.1803102492875757,-0.5648810864305365,0.6976637839994962
1684002782035223200,0.14262353515625,-1.1245455741869752,-1.1285405159241702,0.5932581426440804
1684002782045265600,0.152666015625,-1.2003054617922846,-0.0983016489856603,-0.2163505553840277
1684002782055307600,0.1627080078125,-0.5036139486759761,-0.20018529900587215,0.005319833614116636
1684002782065349800,0.172750244140625,0.5844049452904864,0.11791682233994392,0.8335967064190153
1684002782075391900,0.182792236328125,0.9501600266883458,0.5362403393457912,1.1760988234166994
1684002782085434000,0.19283447265625,0.8954124449899343,1.4534648655383091,1.0521192550764207
1684002782095476100,0.20287646484375,0.39759540552431427,0.10275435432538634,1.6928825378589956
1684002782105518300,0.212918701171875,-0.34971141814655377,0.5961905717359115,1.13128328323128
1684002782115560600,0.2229609375,-1.296890258854173,0.36053586015013,0.5549430848223548
1684002782125602700,0.233003173828125,-0.7729110717776311,0.2636265754585105,-0.37490653977441935
1684002782135644800,0.243045166015625,0.2063121794474602,0.09738612170623823,-0.16496467580986268
1684002782145687000,0.25308740234375,0.5737686157039489,0.2772021295476637,-0.7683305741286589
1684002782155729100,0.26312939453125,0.6951360703813013,0.13506269454693862,-1.242913484693209
1684002782165771200,0.273171630859375,0.5462455750632165,-0.655187606673616,-0.9037513733900527
1684002782175813300,0.283213623046875,0.24712133397174207,-0.7745106219695351,-0.7139182091281708
1684002782185855400,0.293255859375,-0.2633938789020908,-0.541730642305327,-0.5571579931756854
1684002782195897800,0.303298095703125,-0.415113449037723,-0.39852023122374475,-0.2847838400949337
1684002782205939900,0.31334033203125,-0.21090602875711134,-0.3105375766337032,0.2036867141396935
1684002782215982000,0.32338232421875,-0.07279157634850898,0.03534603118004817,0.6159505844680241
1684002782226024100,0.333424560546875,-0.3514728545662977,0.5501853226901549,0.49693536756810436
1684002782236066200,0.343466552734375,-0.4774231909884537,0.7852954864240177,0.6231412886665265
1684002782246108300,0.3535087890625,-0.4769606589832377,0.6762434244918523,0.6871562003182822
1684002782256150600,0.363551025390625,-0.47115468982848524,0.25101578220473986,0.5459799766558522
1684002782266192800,0.37359326171875,-0.26330137251430447,-0.06945264334412835,0.35403728479002117
1684002782276234900,0.38363525390625,0.0829944611356266,-0.26019668580128646,0.19032239910139476
1684002782286277000,0.393677490234375,0.1616563796092343,-0.5855399370335675,0.12254619594296597
1684002782296319200,0.403719482421875,0.3549871444836255,-1.0836799146711533,0.2074151039679671
1684002782306361300,0.41376171875,0.22768259047740314,-1.2895354034064337,-0.0069694519360071405
1684002782316403400,0.4238037109375,0.21500349036659636,-1.4217321872051798,-0.2258534432561684
1684002782326445700,0.43384619140625,0.18451118457472582,-1.1883628368326444,-0.23579740507861552
1684002782336487900,0.44388818359375,0.008603095889701212,-0.8854060174251627,-0.11688899995615983
1684002782346530000,0.453930419921875,-0.16462230697894187,-0.5448436737123101,0.02333879473735464
1684002782356572100,0.463972412109375,-0.14105319974025904,-0.2917640209525413,0.1608853341348525
1684002782366614200,0.4740146484375,-0.1953530311895091,0.040080785727657955,0.10085821151899389
1684002782376656300,0.484056640625,-0.19005775446556133,-0.01303172099266137,0.22895431525364818
1684002782386698400,0.494098876953125,-0.08481502545954177,-0.3674185276487736,0.2485990523852579
1684002782396740600,0.504140869140625,0.22496986393434934,-0.6248133182478662,0.1894574164986996
1684002782406782900,0.514183349609375,0.4399933816851686,-0.5544085502772542,0.11283826820995857
1684002782416825000,0.524225341796875,0.4663844107449545,-0.37991333003487515,-0.007568836276646874
1684002782426867100,0.534267578125,0.4891648294112424,-0.37235569942073077,0.1264467238734056
1684002782436909200,0.5443095703125,0.17769241320475343,-0.370383024153224,0.08574914931613568
1684002782446951300,0.554351806640625,-0.39081001281298733,-0.2709295750119884,-0.01885318762745005
1684002782456993500,0.564393798828125,-0.8129096030820614,-0.12812471387754204,0.10211372377520596
1684002782467035600,0.57443603515625,-0.7225255967325634,-0.050001144320380726,0.07270193102448239
1684002782477077900,0.584478271484375,-0.5006966592537259,0.0460710525610192,0.03655958172781524
1684002782487120000,0.5945205078125,0.33106946945225035,0.12479329096859883,0.06661272047702324
1684002782497162200,0.6045625,0.14353466044006014,0.24118113524704807,0.1422624588765457
1684002782507204300,0.614604736328125,-0.2786617279702295,0.2715318203563847,0.30743885032819024
1684002782517246400,0.624646728515625,-0.2813835143987812,0.011447667924214797,0.32807683948881294
1684002782527288600,0.63468896484375,0.027682781270648136,-0.09802556044657383,0.17491102231338077
1684002782537330600,0.64473095703125,-0.11856079100991597,-0.10809612278838665,0.04225826266701235
1684002782547373000,0.6547734375,0.07187461841758643,-0.05869746213505084,-0.24411773696881056
1684002782557415100,0.6648154296875,0.4118304253359525,-0.026100397135686966,-0.3974237442227788
1684002782567457200,0.674857666015625,0.2041583061183729,0.07689332953799034,-0.3787064551183813
1684002782577499300,0.684899658203125,0.07145881639525678,0.33140563958349206,-0.2407650947149304
1684002782587541400,0.69494189453125,-0.2288141251582573,0.42827153223283276,-0.03561306010822327
1684002782597583600,0.70498388671875,-0.19622993462618948,0.29623889929567015,-0.153486251783912
1684002782607625600,0.715026123046875,-0.18011617662156257,0.2053101063589316,0.1286854744458069
1684002782617667800,0.725068115234375,-0.3336315154703048,0.03960895521243298,-0.01571130742542512
1684002782627710100,0.735110595703125,-0.2771964073211764,-0.20076680197995006,-0.27799129477891316
1684002782637752200,0.745152587890625,-0.22369813916023146,-0.09425354020624144,-0.26818227773905795
1684002782647794400,0.75519482421875,-0.20726919172567834,-0.037923335968794984,-0.1612701415526355
1684002782657836500,0.76523681640625,-0.15801763524708037,-0.01211667075336176,-0.17681169514518152
1684002782667878600,0.775279052734375,0.10097026839819541,-0.029681444153921963,-0.054321288912576565
1684002782677920600,0.785321044921875,0.18664884569917972,-0.11756277079734968,-0.026747226785364096
1684002782687962800,0.79536328125,0.30661535253345684,-0.1987566948353246,-0.35617351525291613
1684002782698005200,0.805405517578125,0.3123660087514774,-0.2635879515721036,-0.6083288193768054
1684002782708047300,0.81544775390625,0.1275920867810903,-0.2524621485876652,-0.8052711486176679
1684002782718089400,0.82548974609375,-0.15695428851958731,-0.1338856219180963,-1.1843967439129794
1684002782728131600,0.835531982421875,0.22593736649861898,-0.017823934494223825,-1.1316442488152127
1684002782738173600,0.845573974609375,0.5068435668112828,0.07280850410510153,-0.7434282303725289
1684002782748215600,0.8556162109375,0.8634929657179069,0.13403081894499674,-0.5867357252328952
1684002782758257800,0.865658203125,1.3025717735576035,0.12818217276760013,-0.5646777152918998
1684002782768300200,0.87570068359375,2.082646369883692,0.1097123623737238,-0.6574068070579175
1684002782778342300,0.88574267578125,2.8938283921356507,0.7633000611586616,-0.6559109688325218
1684002782788384400,0.895784912109375,1.3222889900990795,0.2228455543366576,0.24946737285226753
1684002782798426600,0.905826904296875,-0.5329923629964277,0.12180948239840543,1.7536807061414215
1684002782808468600,0.915869140625,-2.0425000190610825,1.0620239971505911,2.694875240168673
1684002782818510800,0.9259111328125,-2.8783702850225237,1.456733226651318,3.207544803543045
1684002782828552900,0.935953369140625,-3.246567487617811,1.35683453087291,2.5784492493311886
1684002782838595000,0.945995361328125,-3.2167499064690426,1.2401819229312974,1.6876215934704912
1684002782848637400,0.956037841796875,-2.8052706719588048,1.1025253534395085,1.142871379733689
1684002782858679500,0.966079833984375,-1.9156126976166616,0.8355133534509589,0.848740577792316
1684002782868721600,0.9761220703125,-1.1290330886656286,0.6445569993256633,0.4467320442576442
1684002782878763600,0.9861640625,-0.2151193618204912,0.7149320839363822,0.20221233370957842
1684002782888805800,0.996206298828125,1.145850181476674,0.7373752592424064,-0.31091547019025884
1684002782898847900,1.006248291015625,2.154910087649075,0.6509357691675074,-0.7110919951619928
1684002782908890300,1.016290771484375,2.9663128853624388,0.39116322998296504,-0.9713802336998582
1684002782918932400,1.026332763671875,2.7209258080017187,0.26922583571411357,-1.381133079640893
1684002782928974600,1.036375,1.684115886586256,0.17843890188099348,-1.6930007934231825
1684002782939016600,1.0464169921875,0.5241031646574646,0.2720259427513568,-1.6957354545750445
1684002782949058700,1.056459228515625,0.015583038235182816,0.22725880164560236,-1.2569956778181008
1684002782959100800,1.066501220703125,-0.3334393499704724,0.18591165545438038,-0.6966862678422552
1684002782969143000,1.07654345703125,-0.9660959242994537,0.31652140616551305,-0.004274368163099631
1684002782979185300,1.086585693359375,-1.386068344064479,0.3422942162407818,0.47441959374097575
1684002782989227400,1.0966279296875,-1.644062995981283,0.4009594916084753,0.7847270964859696
1684002782999269600,1.106669921875,-1.095041751838561,-0.09308195101613166,0.8868751525539449
1684002783009311600,1.116712158203125,0.03863859186259823,-0.28112483019464773,0.3398666380515392
1684002783019353800,1.126754150390625,0.7321624757435833,-0.5838580131266902,0.06361246096216899
1684002783029395900,1.13679638671875,0.706012725696351,-0.8632879256409348,-0.35274267193332054
1684002783039438000,1.14683837890625,0.577097892676692,-0.8162510394847773,-0.6327433585700609
1684002783049480100,1.156880615234375,0.35689401611527827,-0.7405991554768705,-0.44749402994460796
1684002783059522200,1.166922607421875,0.21204519271273756,-0.5657830238249254,-0.31525182725705825
1684002783069564600,1.176965087890625,0.26722097408405765,-0.31931138029245143,-0.3129882812304446
1684002783079606600,1.187007080078125,0.4191427231083271,-0.2764291761458905,-0.34780788413332725
1684002783089648800,1.19704931640625,0.4000644682290527,-0.16305160513894915,-0.6055459974467421
1684002783099690900,1.20709130859375,0.3637809753638242,-0.08532404913030633,-0.5843667982418509
1684002783109733000,1.217133544921875,0.34993982315213285,0.04586768161641279,-0.4432010651282708
1684002783119775200,1.227175537109375,0.4840803146650137,0.2930730581314253,-0.4742040633012192
1684002783129817600,1.237218017578125,0.37844848639905715,0.5622061490003788,-0.835148811479383
1684002783139859600,1.247260009765625,0.34958839405066156,0.1707533597527938,-0.5974969863552448
1684002783149901700,1.25730224609375,0.37547779072205967,0.034430026997290274,-0.8282666206776731
1684002783159943900,1.26734423828125,0.811364650747108,-0.05650973327383337,-0.12340164178341863
1684002783169986000,1.277386474609375,0.6239876746831288,0.34300267685642916,0.3336963654759596
1684002783180028100,1.287428466796875,0.22337198249592805,1.273960828782132,0.20201587675502272
1684002783190070200,1.297470703125,0.0382981299983636,0.2584513426750607,0.9004611970054853
1684002783200112600,1.307512939453125,0.3306779861486993,-0.28180861457323114,1.1434774398785732
1684002783210154600,1.31755517578125,0.22898864754141676,0.02530384062321146,0.7327423094911627
1684002783220196800,1.32759716796875,0.05122661604886731,0.1754877568977828,0.3120212553622108
1684002783230238900,1.337639404296875,-0.2713766098150866,0.1739912031714885,-0.12363719924319949
1684002783240281000,1.347681396484375,-0.39186477657622654,0.22316694263719172,-0.498781204233499
1684002783250323100,1.3577236328125,0.2076780796369874,0.028176784458856786,-0.35945892342272423
1684002783260365200,1.367765625,1.1402242183199667,-0.3456206321963287,-0.2578592300134629
1684002783270407300,1.377807861328125,2.189136028332489,-0.803435325606767,-0.35687160501438314
1684002783280449600,1.38785009765625,1.8537957668144216,-0.9029524325407308,-0.5163164137896384
1684002783290491800,1.397892333984375,1.0869131087152177,-0.8354589939286974,-0.8370666503247763
1684002783300533900,1.407934326171875,0.3501522542450732,-0.5539407731754977,-1.0540704727620989
1684002783310576000,1.4179765625,-0.11968374251467316,-0.1648519038884056,-1.3166298866381443
1684002783320618200,1.4280185546875,-0.6831595896560926,0.06771087646674513,-1.3262195585295935
1684002783330660300,1.438060791015625,-1.0112457275518525,-0.048519849893146456,-0.499313354399272
1684002783340702400,1.448102783203125,-1.3261737823176822,0.12960600835395492,-0.2514352798343231
1684002783350744800,1.458145263671875,-1.4088749884629104,0.28025698665359194,0.4106588361954442
1684002783360786900,1.468187255859375,-1.050191283330093,0.6440498829022956,0.7016115189582179
1684002783370829000,1.4782294921875,-0.5328061579284971,0.7923834323022947,0.8908271788509264
1684002783380871100,1.488271484375,-0.011229992051802846,0.41777181612037106,1.575643539308192
1684002783390913200,1.498313720703125,0.4005534648277319,-0.29761219023037067,1.8345746993202139
1684002783400955300,1.508355712890625,0.5057132244419533,-0.6837036609582197,1.5935125351117256
1684002783410997600,1.518398193359375,0.43893635267846864,-0.8090350627132665,1.2574577331461207
1684002783421039800,1.528440185546875,0.14264976991279688,-0.7767794132179934,0.5985870362110389
1684002783431081900,1.538482421875,-0.3750162124829952,-0.3382837772147581,-0.5510482787759828
1684002783441124000,1.5485244140625,-0.5240644811043681,0.03753590589841884,-1.1227083206193076
1684002783451166100,1.55856640625,-0.5570446252759035,0.6243634223575338,-2.0584497452490864
1684002783461208200,1.568608642578125,-0.27472525820281746,0.49863338474654034,-1.578452586995043
1684002783471250400,1.578650634765625,0.011437714158806586,0.6958065033611841,-1.6696338654104257
1684002783481292500,1.58869287109375,0.2403346301536073,0.6395478249491657,-0.8924484252336734
1684002783491334600,1.59873486328125,0.3618938326248672,0.5557651520038563,-0.381110191240479
1684002783501376900,1.60877734375,0.05215030919574401,0.6408803462557205,-0.08606338504799917
1684002783511419100,1.6188193359375,-0.25581306209908783,0.7336277963007828,0.008907317976806096
1684002783521461200,1.628861572265625,-0.432802081093979,0.9114167689166678,-0.41651439658166284
1684002783531503300,1.638903564453125,-0.31379514919395063,1.2344100474089292,-0.8528618812647372
1684002783541545400,1.64894580078125,-0.4333903491763657,1.2894864082776916,-0.8876485824472938
1684002783551587600,1.65898779296875,-0.48660612100965656,1.2834665776133902,-0.411332130566826
1684002783561629900,1.6690302734375,-0.6053552627444425,1.374410152413583,-0.11766624459423507
1684002783571672000,1.679072265625,-0.491837084316736,1.102101325826889,-0.502116680271002
1684002783581714100,1.689114501953125,0.15259891749109278,0.34369897857154896,0.2742223739165202
1684002783591756200,1.699156494140625,0.7670186759138965,0.04409933086388652,1.528862953107283
1684002783601798300,1.70919873046875,1.2507042884177821,0.31604242327086485,2.366094589181908
1684002783611840400,1.71924072265625,0.7568722963691308,0.40292310721494184,3.667409419987689
1684002783621882600,1.729282958984375,0.25457483540933223,1.050504207757638,3.9006991385751615
1684002783631924900,1.7393251953125,-0.2599206267818417,1.6227016450139025,2.729389667585071
1684002783641967000,1.749367431640625,-0.5166658163281099,1.9406929017028718,1.7535557748555053
1684002783652009100,1.759409423828125,-0.7302951811628534,1.9697704315559654,0.7810287475969753
1684002783662051200,1.76945166015625,-1.0372357369370848,1.424313068304015,0.016878604871443655
1684002783672093400,1.77949365234375,-0.9530577658093146,0.5133962630907261,-0.09366035465101753
1684002783682135600,1.789535888671875,-0.6287616490440865,0.21037483221824227,-0.4995617867277339
1684002783692177600,1.799577880859375,-0.028789508994013203,0.14721059814827966,-0.5307750702755403
1684002783702219600,1.8096201171875,0.5483323930568591,-0.03576660152608291,-0.0757956504770029
1684002783712261800,1.819662109375,0.8351197839628207,-0.24763393412032533,0.4534902573503023
1684002783722304200,1.82970458984375,1.1079860926032896,-0.30470371230773247,0.5901460646378538
1684002783732346300,1.83974658203125,1.2544920445648273,-0.3783283233508648,0.6081876754580324
1684002783742388400,1.849788818359375,1.2101823092797104,-0.5678515435193655,0.6895375252486741
1684002783752430600,1.859830810546875,0.6708186864862785,-1.2225451470718194,0.5577125549968109
1684002783762472600,1.869873046875,0.2394734918209733,-1.3151764869655007,0.47433185579158826
1684002783772514700,1.8799150390625,0.047654744238382736,-1.247805118505228,0.22555828097274672
1684002783782557100,1.88995751953125,-0.002200413485695728,-1.059816837334281,-0.06703090666087627
1684002783792599200,1.89999951171875,-0.10933958009878957,-0.3780622482129451,-0.27728176128816057
1684002783802641300,1.910041748046875,-0.18229083707289334,-1.231728076909567,-0.5440998076995792
1684002783812683400,1.920083740234375,0.22598920748982465,-1.855199337013158,-0.9554028510889246
1684002783822725600,1.9301259765625,0.5298463701298228,-1.6156921387122472,-0.7238278388243923
1684002783832767600,1.94016796875,0.9338546990593157,-1.6622772217367547,-0.41879892361801757
1684002783842809800,1.950210205078125,0.23741173753089959,-1.3755645753104404,-0.39906597142093964
1684002783852852100,1.96025244140625,-0.6999911069325265,-0.625565528881338,0.2813553812005125
1684002783862894300,1.970294677734375,-0.6378968357299541,0.1427178381762354,1.0027942656677677
1684002783872936400,1.980336669921875,-0.3970262109458864,0.4645318984287382,0.8690142632160611
1684002783882978600,1.99037890625,-0.02796763176615067,0.4145059586425726,0.21133184433577387
1684002783893020600,2.0004208984375,0.05048772684129383,0.2560381889128531,-0.5084180831632308
1684002783903062600,2.010463134765625,0.015050858307533131,0.2607560157638238,-0.9139699934933968
1684002783913104800,2.020505126953125,-0.09293621771521036,0.15795993815402315,-0.9811725618163759
1684002783923146900,2.03054736328125,0.029569923871499627,-0.17131614690057367,-0.5240426065084042
1684002783933189300,2.040589599609375,0.1364288032570704,-0.40341615674242404,-0.15236997611569186
1684002783943231400,2.0506318359375,0.15442985297099251,-0.5418596268618918,0.054788589580451484
1684002783953273600,2.060673828125,-0.03963202241385863,-0.5502858163146526,0.342167377577227
1684002783963315600,2.070716064453125,-0.46165716644551813,-0.4827771185438556,0.6012444495557078
1684002783973357700,2.080758056640625,-0.720158517343071,-0.42789077765129657,0.7418885230001074
1684002783983399900,2.09080029296875,-0.808413922818668,-0.3954658507940872,0.8309979440201902
1684002783993442000,2.10084228515625,-0.891852796042152,0.7392067909823863,0.34474277484637084
1684002784003484300,2.110884765625,-0.7024096845852974,-0.8874478340474128,0.7935032843435219
1684002784013526400,2.1209267578125,-0.30531901130784694,-1.0571656227672526,0.862331390390481
1684002784023568600,2.130968994140625,-0.4630038142550662,-1.10898160934599,0.4479937554150655
1684002784033610600,2.141010986328125,-0.6223680973896655,-1.116082191449716,0.3234267235403965
1684002784043652800,2.15105322265625,-0.6575620173798058,-0.9484472274273865,0.005340099195895236
1684002784053694900,2.16109521484375,-0.6510252356582985,-0.01898050318616658,-0.5304031372178738
1684002784063737300,2.1711376953125,-0.759687542915127,-0.5693464279120255,-0.21249341978917108
1684002784073779400,2.1811796875,-0.6878885030632297,-1.2766995428811412,-0.10484886162194339
1684002784083821600,2.191221923828125,-0.523190379133475,-0.7762675285132296,-0.43398570999245345
1684002784093863600,2.201263916015625,-0.46230101581489375,-0.39506816874065254,-0.5359973906768167
1684002784103905600,2.21130615234375,-0.6380976439018489,0.04360055917659701,-0.5871214867323691
1684002784113947800,2.22134814453125,-0.5135136841160765,0.3570747376263688,-0.1704959868768351
1684002784123989900,2.231390380859375,-0.7396707533447332,0.4166321753506513,-0.22806596751838001
1684002784134032000,2.241432373046875,-0.7039247751030541,0.4435119629942475,-0.2590074539276868
1684002784144074400,2.251474853515625,-0.5373544694059306,0.10871124278126423,-0.15268754961101016
1684002784154116600,2.261516845703125,-0.21483755108393854,-0.4136505125730356,-0.17836523051534314
1684002784164158600,2.27155908203125,0.041227221520379886,-0.7004284860218339,0.03607177733264339
1684002784174200800,2.28160107421875,0.22005844122602577,-0.5956687928360735,-0.008391857165790448
1684002784184242900,2.291643310546875,0.006096839810163785,-0.5397763251811449,0.13854026794222762
1684002784194285000,2.301685302734375,-0.7455159427035191,-0.34982776639496077,0.04654932030388412
1684002784204327100,2.3117275390625,-0.6419875622521296,-0.033145904629911065,-0.19212198273578251
1684002784214369500,2.321769775390625,-0.7938966752261194,0.5593533517536026,-0.5014128685019542
1684002784224411600,2.33181201171875,-1.231822609979298,0.15665054324440242,-0.6857285499876328
1684002784234453600,2.34185400390625,-0.3695288896883629,-0.5660204888531871,-0.9950141906463437
1684002784244495800,2.351896240234375,0.3075173497219761,-0.05007934565693991,-0.9495253563868572
1684002784254537900,2.361938232421875,0.2327867747095987,-0.2813382148926689,-0.7798647880295778
1684002784264580000,2.37198046875,-0.07162278884241395,-0.6751546858858991,-0.6073713303264414
1684002784274622100,2.3820224609375,-0.387378990554457,-0.46382713310057744,-0.07273244853765966
1684002784284664600,2.39206494140625,-1.07159936421298,-0.24654006970697206,0.09308481222355926
1684002784294706600,2.40210693359375,-1.2105696202084335,-0.5105090141334548,0.06853389736722501
1684002784304748600,2.412149169921875,-0.327429533027523,-0.32061815269210947,-0.3274388313793533
1684002784314790800,2.422191162109375,-0.2946709393110674,-0.4321556091436579,0.1590976715145447
1684002784324832900,2.4322333984375,-0.38495457168746255,-0.5050888060887498,-0.20459985739871195
1684002784334875100,2.442275390625,-0.46617683754025846,-0.35394525530507925,-0.47546958921887306
1684002784344917200,2.452317626953125,-0.22688344122973694,-0.34106826782342203,-0.41109800328647733
1684002784354959600,2.46235986328125,-0.48672768472600003,-0.424407959006107,-0.5147624016563889
1684002784365001600,2.472402099609375,-0.5274467467782336,-1.0207853318987785,-0.5665001868732872
1684002784375043800,2.482444091796875,-0.30051183684375726,-0.9382429124070771,-0.6739287375699173
1684002784385085900,2.492486328125,-0.3933569489436454,-0.5430717468197096,-0.6425733566883906
1684002784395128000,2.5025283203125,-0.5691834688046903,-0.36136579512834033,-0.37749290468321073
1684002784405170100,2.512570556640625,-0.7319506408337105,-0.2883152963014329,0.13518095019444512
1684002784415212200,2.522612548828125,-1.176627397467367,0.008513450692834738,-0.0025143623477387592
1684002784425254300,2.53265478515625,-1.0071347951808045,-0.11772441867334638,-0.3642468453250315
1684002784435296600,2.542697021484375,-0.6535351872911769,-0.5154256819579454,-0.8257932664070188
1684002784445338800,2.5527392578125,-0.4656679630517886,-0.5784583091008493,-1.3049664496738818
1684002784455380900,2.56278125,0.01954567433919147,-0.6143031120410684,-1.5089864730351976
1684002784465423000,2.572823486328125,0.1581705808861878,-0.34397745148203046,-1.702465534294407
1684002784475465100,2.582865478515625,0.21697497352234063,-0.14859056475454244,-1.9549889565074463
1684002784485507200,2.59290771484375,0.23388123510876507,-0.20836210250918988,-2.1311540603679484
1684002784495549400,2.60294970703125,0.553837299402173,-0.12355422967808169,-2.0512828827676333
1684002784505591600,2.6129921875,0.5966174601559778,-0.03848266609724824,-2.0683627128041544
1684002784515633800,2.6230341796875,0.5482743978027962,-0.052877903132392844,-1.6869435310386303
1684002784525676000,2.633076416015625,0.5092552900275037,-0.20782375346938148,-0.88622951503862
1684002784535718100,2.643118408203125,0.2908382416312622,-0.27832555785069313,-0.4339995383020191
1684002784545760200,2.65316064453125,0.1731283665678595,-0.1814541815983637,-0.19197940812380807
1684002784555802300,2.66320263671875,-0.13500010969656745,-0.3092265127477227,-0.4677624702829533
1684002784565844600,2.6732451171875,-0.33339571954516534,-0.12531375877029763,-0.4358010293035709
1684002784575886800,2.683287109375,-0.5707887410650797,0.17760181427528077,-0.19879436504044523
1684002784585928900,2.693329345703125,-0.4551055432438266,0.4256839752300438,0.15262126921871852
1684002784595971000,2.703371337890625,0.06528210655232544,0.28691148758722823,0.46267557154566413
1684002784606013100,2.71341357421875,0.07514977451536561,0.24328231824459637,0.31341075902276844
1684002784616055200,2.72345556640625,0.2618367673360701,0.12438774104079858,0.2430324554525224
1684002784626097300,2.733497802734375,0.47115230559241955,0.017944335905081342,-0.03688907629827028
1684002784636139400,2.743539794921875,0.23491859431884765,-0.13035011295655619,-0.24687337883915472
1684002784646181800,2.753582275390625,-0.13011932365292642,-0.032856464431661694,-0.18988657012176588
1684002784656223900,2.763624267578125,0.2583243847090705,-0.019689083252527016,-0.0444755554342796
1684002784666266000,2.77366650390625,-0.4418414830597178,-0.29495382299510803,-0.2347702978896124
1684002784676308100,2.78370849609375,-0.187466621327677,-0.5003147125261753,-0.04128217689820092
1684002784686350300,2.793750732421875,-0.3493897913960836,-0.5846824645425092,-0.18137741091346676
1684002784696392400,2.803792724609375,-0.10440611833704729,-0.6625456809495966,0.046305656435545677
1684002784706434600,2.8138349609375,0.0545153619178978,-0.46839189526731057,0.18080663667590308
1684002784716476800,2.823877197265625,-0.34427022939553537,-0.17722749725162323,-0.31135702134144677
1684002784726519000,2.83391943359375,-0.8252274989981961,0.017121315117722285,-0.24086713789738237
1684002784736561100,2.84396142578125,-0.5307176112123414,-0.02714681615816736,-0.019813537675223786
1684002784746603200,2.854003662109375,-1.262456536330863,0.19990110400376143,0.07250356661973008
1684002784756645300,2.864045654296875,-0.5215997696440742,0.3615269660720994,0.32552719122349894
1684002784766687400,2.874087890625,-0.2675390243746139,-0.22207641602634304,0.5177173614401105
1684002784776729600,2.8841298828125,-0.48617768303003644,-0.1813001632790772,0.1998515128431656
1684002784786771900,2.89417236328125,-0.08073616027220326,-0.22939681996273548,0.16816616064971476
1684002784796814000,2.90421435546875,0.44667792318888105,-0.1969857215843964,0.27470254907750674
1684002784806856100,2.914256591796875,0.2079093455455663,-0.18246507643042062,-0.22663784029788342
1684002784816898200,2.924298583984375,-0.39183235154382934,-0.5720014572314429,-0.35786533345829225
1684002784826940300,2.9343408203125,0.7096939086189773,-0.10198926932901396,-0.09554624557121662
1684002784836982400,2.9443828125,-0.03038692474274044,0.13388013835597418,0.01854085916780611
1684002784847024800,2.95442529296875,0.06823205940664634,0.37125635154593656,-0.035207748579812966
1684002784857066900,2.96446728515625,0.06375503554164014,0.28916883467931753,-0.07518863662130086
1684002784867109000,2.974509521484375,-0.021973132989941822,0.17910385128233328,-0.06991577146914839
1684002784877151200,2.984551513671875,0.08955979346231674,0.2790741920115818,-0.12612152092610815
1684002784887193300,2.99459375,-0.05329227449208747,0.2802548407867869,0.1365699768398741
1684002784897235400,3.0046357421875,0.16934466361966186,0.33333921414491063,0.05653953542461209
1684002784907277600,3.014677978515625,-0.905891180128659,0.3051705359452158,0.08558177958391575
1684002784917319900,3.02472021484375,0.5917842386665281,0.03462648404601319,0.632754325948733
1684002784927362000,3.034762451171875,-0.33406519878454405,-0.009756565157964511,0.08502769455055602
1684002784937404100,3.044804443359375,-0.20289635649163407,0.05844593060414394,-0.11427545543884829
1684002784947446200,3.0548466796875,-0.18864226329293274,0.06458473190149412,-0.195991516136363
1684002784957488300,3.064888671875,-0.21964573842644838,0.030494213141911246,-0.255692005018518
1684002784967530400,3.074930908203125,-0.7606678009484378,-0.1855149268619539,-0.19751596453282072
1684002784977572600,3.084972900390625,0.5174744129553026,-0.3270826340089416,0.14122724544152565
1684002784987614900,3.095015380859375,-0.03195953357306319,-0.5669245719966367,-0.08224725722743251
1684002784997657000,3.105057373046875,0.061057567565766524,-0.36361598975803355,-0.15458297725156175
1684002785007699100,3.115099609375,-0.8431737424482443,-0.2503895758571508,-0.02939176562799891
1684002785017741200,3.1251416015625,0.7190113067719667,0.03898906703084121,0.2822027204940774
1684002785027783300,3.135183837890625,-0.5442643165462838,-0.17048311252215803,-0.13055372241699417
1684002785037825500,3.145225830078125,-0.4492921828342216,-0.19212627407685334,-0.16205501566107255
1684002785047867600,3.15526806640625,-0.6179471015477349,-0.056999206652552606,-0.10533952709414028
1684002785057909600,3.16531005859375,0.23988580693434022,0.34507513050944666,0.012338161613677024
1684002785067952000,3.1753525390625,0.0782642364628852,0.02317523940577434,0.04899215699033503
1684002785077994200,3.18539453125,0.03125166897407853,0.05270910263178742,0.0114927292552936
1684002785088036300,3.195436767578125,0.13389182078981715,0.06303787228621378,-0.04692077639003191
1684002785098078400,3.205478759765625,0.5521962643656615,-0.009092807666704861,0.6062278748202122
1684002785108120600,3.21552099609375,-0.013960123050596022,0.2692918777040059,0.22237634651028443
1684002785118162600,3.22556298828125,0.01661062230134489,0.0306000710182298,-0.22224330896830577
1684002785128205000,3.23560546875,0.18903779993919945,-0.003509044643409714,-0.02920007711690665
1684002785138247100,3.2456474609375,0.25494599349542996,0.03578042973854993,-0.12679100027248874
1684002785148289200,3.255689697265625,0.14624404918071754,-0.02586412435102626,-0.20467472081135835
1684002785158331300,3.265731689453125,0.09194970125480983,0.1681385041251845,-0.1534781455365872
1684002785168373400,3.27577392578125,0.07875394806173254,0.13371801366678568,0.1167759896972288
1684002785178415600,3.28581591796875,-0.037753820459309445,0.12567710885185623,0.27917861941333316
1684002785188457600,3.295858154296875,-0.06639051439857487,0.08851194383702968,0.3241348267384826
1684002785198500000,3.305900390625,-0.17260694498874823,0.04832363127835195,0.2830910683694894
1684002785208542100,3.315942626953125,-0.22483229644378253,0.0005440713241099173,0.08483123772870309
1684002785218584200,3.325984619140625,-0.23258566861518215,0.024378776585986466,-0.04678058626489275
1684002785228626400,3.33602685546875,-0.26991391190796765,0.08758115756786063,-0.17200899107364265
1684002785238668500,3.34606884765625,-0.24101281158757318,0.0697655677453274,-0.176041603109745
1684002785248710600,3.356111083984375,-0.2582445146220399,0.017537593873663014,-0.09077930453340731
1684002785258752900,3.3661533203125,-0.1948406697645178,-0.0821776388646482,0.1091303825408479
1684002785268795100,3.376195556640625,-0.2266755104980276,-0.09467887887217057,0.1238970756794443
1684002785278837200,3.386237548828125,-0.18568873405404343,-0.0742540360755292,0.12561273585136204
1684002785288879300,3.39627978515625,-0.13946080189136215,-0.14372110374441027,0.0830626487040767
1684002785298921400,3.40632177734375,-0.09605479249821192,-0.10350465769652083,0.05067205415892835
1684002785308963600,3.416364013671875,-0.11283731461152562,-0.041032791233463435,0.10338926303136177
1684002785319005600,3.426406005859375,-0.08523750299010988,-0.009362697622069836,0.03664064399114065
1684002785329048000,3.436448486328125,0.0048666000194024905,-0.001226425029490618,0.00047826767997926045
1684002785339090100,3.446490478515625,0.061073064852282866,0.010402679432022756,0.048549175199250755
1684002785349132200,3.45653271484375,-0.0018694400556132846,0.05611085893165458,0.0999665261506163
1684002785359174300,3.46657470703125,0.008167028538496704,0.08072042479361669,0.15223455428599142
1684002785369216400,3.476616943359375,-0.3177707193909676,0.04551124558187559,0.06035184867628862
1684002785379258600,3.486658935546875,0.07595610618078473,0.04036760319698556,0.1723074911505782
1684002785389300600,3.496701171875,-0.03182172783663981,-0.09194898602226223,0.24430322646813413
1684002785399342800,3.5067431640625,-0.27893137934529527,-0.04984045027499921,0.3088269232775602
1684002785409385100,3.51678564453125,-0.2943935393982172,0.025582790380239726,0.32935142517275656
1684002785419427200,3.52682763671875,-0.2595884798779349,0.001965046029432292,0.5084300042031042
1684002785429469400,3.536869873046875,-0.24809217443558537,0.0928435327433333,0.5183854103885819
1684002785439511600,3.546911865234375,-0.2038252354325804,-0.008030414525617056,0.7068142892884148
1684002785449553600,3.5569541015625,-0.17744541158670515,0.2979340552720202,0.6136946678248324
1684002785459595600,3.56699609375,0.14356756211495494,0.1826534270580641,0.7370362281024381
1684002785469637800,3.5770380859375,-0.04966044422314301,0.21388626099664085,0.4703645705760924
1684002785479680200,3.58708056640625,0.13066744802286018,0.10829496379172389,0.2116618156876688
1684002785489722300,3.597122802734375,0.08753538125411531,0.08838653562617454,-0.140743255551951
1684002785499764400,3.607164794921875,0.15405797971454452,0.03398370733072299,-0.2923498153223031
1684002785509806600,3.61720703125,0.1487772464288411,-0.06692886355088781,-0.12910270686559594
1684002785519848600,3.6272490234375,0.10952997210120263,0.025521755110860623,-0.07202529908785699
1684002785529890700,3.637291015625,-0.055535554806410224,-0.035446166993368174,-0.0082931518259757
1684002785539932800,3.647333251953125,-0.10649251946281736,-0.056768894302325686,0.012377262297318168
1684002785549975200,3.657375732421875,0.03192377090358295,-0.16733264919807295,0.21446228016881716
1684002785560017300,3.667417724609375,-0.3376905917765404,0.006856918252883186,0.12086725224845532
1684002785570059400,3.6774599609375,-0.4492175580576383,-0.2576360702054696,-0.05435228339279759
1684002785580101600,3.687501953125,-0.35187029833648803,-0.2919754981398397,-0.1643080711483758
1684002785590143600,3.6975439453125,-0.2620644569729631,-0.2930140494751338,-0.04761123662640091
1684002785600185800,3.707586181640625,-0.31462383274878686,-0.31924724577007507,-0.10601329810995538
1684002785610228100,3.717628662109375,-0.2836425304487021,-0.28396224977860735,-0.14119148260990608
1684002785620270300,3.727670654296875,-0.40989804263639645,-0.1643800735889027,-0.18552255621442476
1684002785630312400,3.737712646484375,-0.3681845663257483,-0.07034730920600608,-0.16486692431882244
1684002785640354600,3.7477548828125,-0.3212053775420683,-0.04355573648566092,-0.14849328992604408
1684002785650396600,3.757796875,-0.20739674557593443,-0.030330181100350823,-0.19252920154830286
1684002785660438600,3.767839111328125,-0.1256334781247988,-0.12934494007267547,-0.2318506239830631
1684002785670480800,3.777881103515625,-0.28291010854818316,-0.041198253638641526,0.003841877119603038
1684002785680523200,3.787923583984375,0.020474672396626033,-0.05955123911136687,-0.13867855074424595
1684002785690565300,3.797965576171875,0.06492471694850105,0.09328317631817856,-0.1465330123955618
1684002785700607400,3.8080078125,-0.02318048479946264,0.002940177935031776,-0.16285991660999372
1684002785710649600,3.8180498046875,0.12638974179180962,0.19990587248002456,-0.108130454917456
1684002785720691600,3.828092041015625,0.20013189322968603,0.1816339492665648,0.08755159374297483
1684002785730733700,3.838134033203125,0.10637474065243918,0.09722614279437858,-0.002948284194033061
1684002785740775900,3.84817626953125,0.26029562945736573,0.10954236971770794,-0.10257434834482677
1684002785750818000,3.85821826171875,-0.3502895833067755,0.07996797574740683,0.16556167616531464
1684002785760860300,3.8682607421875,0.2494072915093454,0.10421037689898581,0.04771614061873002
1684002785770902400,3.878302734375,-0.10905861863915589,0.12440824509278677,-0.13585281378016606
1684002785780944600,3.888344970703125,-0.28522253038148543,0.30899858475873787,-0.08168125161251233
1684002785790986600,3.898386962890625,-0.30800271037388116,0.4461364744165249,0.011127471849458151
1684002785801028800,3.90842919921875,-0.10159635544311191,0.3542695046323623,0.13938903812058184
1684002785811070900,3.91847119140625,-0.18077731147303996,0.3404517173896708,-0.04269886004310349
1684002785821113000,3.928513427734375,0.04575991639253845,0.2849016188700397,-0.25947523104531917
1684002785831155400,3.9385556640625,-0.05941510212871679,0.306045055394766,-0.22247982028646207
1684002785841197600,3.948597900390625,-0.16225075722121818,0.35411930070921344,-0.28230094906867736
1684002785851239600,3.958639892578125,-0.6232314110977738,0.7735981941942959,0.036933898967762946
1684002785861281600,3.96868212890625,-0.07792425148274917,0.4307065008758912,0.3001894950152916
1684002785871323800,3.97872412109375,-0.2626180648515995,0.4330749510428283,0.02585172651517239
1684002785881365900,3.988766357421875,-0.11196351063125044,0.5623421669905854,-0.0735650062084374
1684002785891408300,3.99880859375,-0.14127111441524565,0.5533099174165124,-0.08550405505580648
1684002785901450400,4.008850830078125,-0.01827812201019639,0.5672745703882384,0.003399372259523268
1684002785911492600,4.018892822265625,0.0062296390336823325,0.546278953562372,0.0005898475662168522
1684002785921534600,4.02893505859375,-0.06490445143227822,0.5789408683543985,-0.01594543458143796
1684002785931576800,4.03897705078125,-0.09936714174339008,0.46158409118180593,0.12730026227492627
1684002785941618900,4.049019287109375,-0.08092951780343666,0.4402031896697081,0.3288726805490168
1684002785951661000,4.059061279296875,-0.13954973216811928,0.3101305961654277,0.40360403059463973
1684002785961703300,4.069103759765625,0.09086704247149006,0.26391983032081223,0.6935815811212019
1684002785971745500,4.079145751953125,-0.401485681664779,0.04011154169713449,0.26037025454255674
1684002785981787600,4.08918798828125,-0.333364248234826,0.014490127467766603,0.4019694327668839
1684002785991829600,4.09922998046875,-0.34960460649882363,0.06326532360901113,0.48785305021101044
1684002786001871800,4.109272216796875,-0.35090589539567774,0.025156021271280176,0.39592170710518726
1684002786011913900,4.119314208984375,-0.3239529134332659,-0.03387069704494665,0.32539701473623
1684002786021956000,4.1293564453125,-0.32120561597649483,-0.07708263407063538,0.35436820988046414
1684002786031998400,4.139398681640625,-0.38383316992361294,-0.028219699819522687,0.3449988365833773
1684002786042040600,4.14944091796875,-0.42317223563508266,-0.006146430925638459,0.3131670951242958
1684002786052082600,4.15948291015625,-0.4135453701774918,0.04950571060835987,0.21345996854620133
1684002786062124600,4.169525146484375,-0.687514305059935,-0.06858253481465791,-0.0010080337341246677
1684002786072166800,4.179567138671875,-0.5094065667257458,-0.24236011503375715,-0.44575405126050827
1684002786082208900,4.189609375,-0.49682283394416327,-0.17046928423758312,-0.4891023634791717
1684002786092251100,4.1996513671875,-0.5861854552167807,-0.05213785161320163,-0.6062331198834352
1684002786102293200,4.209693603515625,-0.5212740899499901,0.6673383712647343,0.40463304528962984
1684002786112335600,4.21973583984375,-1.1020970344835228,0.30020332322433224,-0.9799828529724534
1684002786122377600,4.229778076171875,-0.47138953206600165,0.4080090523201416,-0.7199144362337359
1684002786132419800,4.239820068359375,-0.037100553532891774,0.7536172866703224,-0.5052289961338134
1684002786142461900,4.2498623046875,0.12596797947798405,0.7070064544269965,-0.2864613532690209
1684002786152504000,4.259904296875,0.4402992725800107,0.45299053189970145,0.009483814361724697
1684002786162546100,4.269946533203125,0.8482286930277855,0.38730669016091096,0.3661828040534678
1684002786172588500,4.27998876953125,0.9337670802873073,0.1090917588930615,1.1967349053572423
1684002786182630600,4.290031005859375,0.967852830862849,0.01439571398030414,2.4833984374458775
1684002786192672600,4.300072998046875,1.0759840012100925,0.3838453293209584,2.83366107937008
1684002786202714800,4.310115234375,0.788538932727854,0.6104712485793204,2.673915386175836
1684002786212756900,4.3201572265625,0.2997815609078801,1.1152143478600918,1.6792140006544682
1684002786222799000,4.330199462890625,-0.20182013513677177,0.8135261534610296,0.8237347603280751
1684002786232841100,4.340241455078125,-0.26488590249476685,0.7320761680325274,-0.007629394659538064
1684002786242883600,4.350283935546875,-0.012883186278699197,0.5267806054156378,-0.13992929454623607
1684002786252925600,4.360325927734375,0.3791024685135134,0.06733608256182454,-0.11053514479122968
1684002786262967600,4.3703681640625,0.5373616218305236,-0.5104107855678904,-0.3556432723621506
1684002786273009800,4.38041015625,0.5756101608647592,-0.9489231109754463,-0.5291657447476625
1684002786283052000,4.390452392578125,0.6726231576878373,-1.1207523345092911,-0.5750446317646236
1684002786293094100,4.400494384765625,0.5963840485393247,-1.1880459785979902,-0.5641493797399763
1684002786303136200,4.41053662109375,0.4948806763165565,-1.4574298858463528,-0.368314742898193
1684002786313178600,4.420578857421875,0.3658566475630508,-1.5274329185477038,-0.09184074419141472
1684002786323220600,4.43062109375,0.2206162215270421,-1.27990007396843,0.053477287330598935
1684002786333262800,4.4406630859375,0.0030384062495546413,-1.1145877838103226,0.08916378020641696
1684002786343304900,4.450705322265625,0.17361927031364283,-0.7176451681870314,-0.1396722794666087
1684002786353347000,4.460747314453125,-0.08816486600982458,-0.3232927321642665,-0.5640106201712977
1684002786363389100,4.47078955078125,-0.34387159344126644,-0.11383485789294746,-0.5501475335345396
1684002786373431200,4.48083154296875,-0.12187016007718866,0.9166646005551701,0.5029668807607254
1684002786383473300,4.490873779296875,0.13407626743700463,1.5487594603061385,-1.0065240859704452
1684002786393515600,4.500916015625,-0.5891677738145789,0.31921005249707896,-0.9314913750297716
1684002786403557800,4.510958251953125,-0.16319757696378773,0.1650085448573472,-0.8380413054809995
1684002786413599900,4.521000244140625,0.25495147707941057,0.23010492344341119,-1.0754117964971468
1684002786423642000,4.53104248046875,0.2647401988376298,-0.1651229857593619,-1.0208163262128211
1684002786433684100,4.54108447265625,0.24376085403405648,-0.6809391974315506,-0.7780218124399965
1684002786443726300,4.551126708984375,0.3611041604865928,-0.7828521727736457,-0.28808927526339306
1684002786453768600,4.5611689453125,0.6071043015113761,-0.38533973713003883,-0.5528688430779872
1684002786463810700,4.571211181640625,0.2821705936202621,-0.9139156341826957,-0.05728626260414923
1684002786473852800,4.581253173828125,0.7550119161821139,-0.600497245691773,0.18465423582432897
1684002786483895000,4.59129541015625,0.8441789149810999,-0.18848562244701306,0.7723445891742708
1684002786493937100,4.60133740234375,0.37257096172415016,-0.1286830903328602,1.3540353775057326
1684002786503979200,4.611379638671875,0.3698051274747571,-0.30788660040832305,1.2764244079504128
1684002786514021300,4.621421630859375,0.5012930035405594,-0.4538083076437225,0.4300832750212942
1684002786524063400,4.6314638671875,0.5739031435329196,-0.7259211541630396,-0.5902795790299692
1684002786534105800,4.641506103515625,0.6129769086472959,-1.033508777539583,-1.2145328520804466
1684002786544147900,4.65154833984375,0.4829697312372473,-1.0729703902987802,-1.6663904190193715
1684002786554190000,4.66159033203125,0.2731996179520579,-1.1203918458693614,-1.712757110598613
1684002786564232100,4.671632568359375,-0.09218591447040504,-1.2287292480903291,-1.3421950339656137
1684002786574274200,4.681674560546875,-0.24042922260911126,-1.0607748032023903,-0.8819880485162636
1684002786584316300,4.691716796875,-0.16029718513260502,-1.0224142075933966,-0.26213264476934683
1684002786594358400,4.7017587890625,-0.14234024290126523,-0.5801701545602235,-0.10307121272805962
1684002786604400600,4.711801025390625,-0.12612929922570884,-0.6094350815028736,-0.017085075430259142
1684002786614442900,4.72184326171875,0.04702699173032167,-0.49722862239205584,0.06089448935576515
1684002786624485000,4.731885498046875,0.09775955971200342,-0.7364764213066334,-0.07754421230198746
1684002786634527200,4.741927490234375,-0.1922458559079632,-1.447026252842114,-0.04910326014925586
1684002786644569300,4.7519697265625,-0.06332883236123762,-1.2241291998420976,0.39646053298648215
1684002786654611400,4.76201171875,0.368430405803645,-0.49147558218276366,0.15459060664965785
1684002786664653600,4.772053955078125,0.7393768428810213,-0.2870430947604234,0.13890933995136281
1684002786674695900,4.78209619140625,0.4311376810461227,-0.07111597068089441,-0.09076547612530253
1684002786684738000,4.792138427734375,0.6014574767807797,0.4013619423429508,-0.258993148835672
1684002786694780100,4.802180419921875,0.5934991241170311,0.34070110332950965,0.07218980797504564
1684002786704822200,4.81222265625,0.6805381775000025,0.23493337627739913,0.3118252755743509
1684002786714864300,4.8222646484375,0.7258263825851152,0.22589492813859482,0.580938816062295
1684002786724906400,4.832306884765625,0.8347928523734993,0.2800674437984724,0.640098571714074
1684002786734948600,4.842348876953125,1.1389262676803191,0.0785531997835198,0.7428522110541378
1684002786744990600,4.85239111328125,1.5281237364347044,-0.16160202030190285,0.7704277037915831
1684002786755033000,4.862433349609375,1.43631458283262,-0.4911274910149618,0.2753453254250648
1684002786765075100,4.8724755859375,1.3066440820984981,-0.47957754137744807,-0.4796071051313814
1684002786775117200,4.882517578125,1.1353557111171757,-0.4732356070719608,-0.8533196448546388
1684002786785159300,4.892559814453125,1.064520955148938,-0.4741001130161742,-1.0475630760093928
1684002786795201500,4.902601806640625,1.0027126074606603,-0.46987056741325056,-0.7795667648947522
1684002786805243600,4.91264404296875,0.971764922144045,-0.35313224792406295,-0.3008246420757803
1684002786815285600,4.92268603515625,1.096775651031428,-0.2215437890190436,0.09671449674690882
1684002786825328000,4.932728515625,1.1955094339204464,-0.13325214382513217,0.26976633063336497
1684002786835370200,4.9427705078125,1.1554926633699434,-0.18082857135195599,0.4442195893532827
1684002786845412300,4.952812744140625,1.0852915048261684,-0.05584478378046663,0.18976354585916985
1684002786855454400,4.962854736328125,0.9198473096393274,0.16595792769039389,-0.31447315221312605
1684002786865496600,4.97289697265625,0.4967145323800624,0.10896778101483995,-0.4897298811690143
1684002786875538600,4.98293896484375,0.4487491846873326,-0.23631048209100694,-0.5783081053569505
1684002786885580600,4.992981201171875,0.673777103464233,-0.5241546631327478,-0.4955186844132395
1684002786895623100,5.0030234375,0.5125167965132276,-0.5346512794206819,-0.3746352194671512
1684002786905665200,5.013065673828125,0.29764497272759183,-0.21828937524200032,-0.29466485980228285
1684002786915707300,5.023107666015625,0.3407322168445542,0.06732273091768283,-0.13300323487137236
1684002786925749400,5.03314990234375,0.3200080098649077,0.290560722320066,-0.06510400756802963
1684002786935791600,5.04319189453125,0.13454097512386198,0.3797969817985971,-0.04028654099730554
1684002786945833600,5.053234130859375,0.09961375599288688,1.4043016434603794,-0.17175483703678582
1684002786955875800,5.063276123046875,0.10067626827944007,0.9999442100901491,-0.3974695204894393
1684002786965917900,5.073318359375,0.31448590765918877,0.38128805168994134,-0.10067605968586282
1684002786975960200,5.083360595703125,0.6502000093771849,0.2733926772342815,0.2147870062664108
1684002786986002400,5.09340283203125,1.2095754147782067,-0.16864967344369514,0.6613636015296921
1684002786996044500,5.10344482421875,0.3465960324103705,-0.6976752282768162,0.8156442641397768
1684002787006086600,5.113487060546875,0.09904980668476494,-0.7523088454166301,0.8726286887767052
1684002787016128600,5.123529052734375,0.18993607157346695,-0.5702357292408732,0.6991100309397138
1684002787026170800,5.1335712890625,0.3344661593112129,-0.6461319924091858,0.6178994177402597
1684002787036212900,5.14361328125,0.45987951753924344,0.823117256088724,0.17428159707059007
1684002787046255300,5.15365576171875,0.3054066896537359,0.2772231100789333,-0.11102771758708013
1684002787056297400,5.16369775390625,0.36451411247239457,-0.4538755415973921,-0.12581014629575876
1684002787066339600,5.173739990234375,0.548555255055226,-0.6326785087653909,-0.0029191970083373322
1684002787076381600,5.183781982421875,0.5435529947371688,-0.18366432191346005,-0.1362676620171032
1684002787086423700,5.19382421875,0.6444854139801858,0.26138162621333483,-0.2647123335246108
1684002787096465800,5.2038662109375,0.7266352772387643,0.14202308658431323,-0.28962802878562594
1684002787106508000,5.213908447265625,0.6993086336850385,-0.7761201858752994,0.10463142389249014
1684002787116550300,5.22395068359375,0.7602305410623634,-1.2248044014246458,0.40898704545732817
1684002787126592400,5.233992919921875,0.532983183678311,-0.5227069855477874,0.13352537149798638
1684002787136634600,5.244034912109375,-0.011866256656259377,-0.11697387707213429,0.029834270482243495
1684002787146676600,5.2540771484375,-0.31972527505560333,0.08227777472300982,-0.12884712219145772
1684002787156718800,5.264119140625,-0.09844572835140945,0.09298706049870066,-0.21520900716376762
1684002787166760900,5.274161376953125,0.18846063313137265,0.010419368690281044,-0.3827471734432902
1684002787176803000,5.284203369140625,0.5089300273372331,0.05655145647295618,-0.6048717499083007
1684002787186845100,5.29424560546875,0.7375305889799492,-0.05388689046477993,-0.33040094367407347
1684002787196887600,5.304287841796875,0.735638320437598,-0.6097402573020657,0.4460625647840676
1684002787206929600,5.314330078125,0.673055470034704,-0.6882314682103311,1.0970683097698306
1684002787216971600,5.3243720703125,0.482885450125179,-0.3430442810488978,1.0783419609979343
1684002787227013800,5.334414306640625,0.12157312034580703,-0.025183677685766563,0.2570014000720447
1684002787237055900,5.344456298828125,-0.06983996944525334,-0.16807270058046933,-0.038403034248342294
1684002787247098000,5.35449853515625,0.14099106189250607,-0.1572804451271963,-0.16798591619990194
1684002787257140100,5.36454052734375,0.47444346532259213,-0.23982000361487912,-0.2138748169606514
1684002787267182600,5.3745830078125,0.5423528552442269,-0.25642490394011397,-0.2745170591543639
1684002787277224600,5.384625,0.5981581212205196,-0.0778989791146026,-0.026640891985412266
1684002787287266700,5.394667236328125,0.3436672091197412,0.6556730270974895,0.1863985062773085
1684002787297308800,5.404709228515625,-0.22834195192224166,-0.6155142783788835,-0.2913799286849254
1684002787307351000,5.41475146484375,-0.12106832879240077,-0.8759331703828547,-0.7761011123290295
1684002787317393100,5.42479345703125,0.172177165711911,-0.6970024109564215,-0.2219257356300721
1684002787327435200,5.434835693359375,0.33495068550967183,-0.40594673162251577,0.393167972566236
1684002787337477300,5.444877685546875,0.4133180974696297,-0.1162462234245585,0.7411723136885329
1684002787347519600,5.454920166015625,0.19657212482867786,0.003168106070649529,0.8519816398666655
1684002787357561800,5.464962158203125,-0.11405110366473876,0.5644006728402912,1.3713488578843585
1684002787367603900,5.47500439453125,-0.17083981638223275,0.7125535011079337,0.8547019958008001
1684002787377646000,5.48504638671875,-0.11864039302035692,0.5078253747248187,0.6637067795215196
1684002787387688100,5.495088623046875,-0.0803378522529082,0.5834536550814484,0.18194675449161068
1684002787397730200,5.505130615234375,-0.13236999516250783,0.5742621423594775,-0.16620206838862275
1684002787407772300,5.5151728515625,-0.03691133862315776,0.5727543830327014,-0.39450359332701307
1684002787417814600,5.525215087890625,0.12475925676027125,0.4887356759909845,-0.3914093970760623
1684002787427856800,5.53525732421875,0.3292660713699625,0.16738128666268567,0.1282577514981368
1684002787437898900,5.54529931640625,0.41348910337869826,0.1285996438402009,0.4949312210372599
1684002787447941000,5.555341552734375,0.38355982298211805,0.5571756362164592,0.4862060546431626
1684002787457983200,5.565383544921875,0.1189221739509386,0.9640259741494746,0.2268862724846648
1684002787468025300,5.57542578125,-0.01897686723669185,1.0505509375551383,-0.02432346337281374
1684002787478067400,5.5854677734375,-0.11242246641184601,1.151226520543695,-0.19653654107864868
1684002787488109600,5.595510009765625,0.08791536105225153,1.441406250175733,-0.03828859329112697
1684002787498151900,5.60555224609375,0.3337400557170073,1.8324527740272791,0.06577205661897495
1684002787508194000,5.615594482421875,0.366551935652233,1.6554889678647446,0.16137695324093346
1684002787518236100,5.625636474609375,0.3574065565927729,0.8260293006744791,0.45122385019589956
1684002787528278200,5.6356787109375,-0.8453235626093102,-0.07339429845259082,0.9982099533289455
1684002787538320300,5.645720703125,-0.06271919615482417,0.6162528990870546,1.9710459710598813
1684002787548362400,5.6557626953125,0.9825943707170312,1.3553023337936603,1.9706974029133528
1684002787558404600,5.665804931640625,0.6977056263945749,0.8216943741197978,1.3742008209673733
1684002787568446900,5.675847412109375,0.5873647928521447,0.7849559783045993,1.2112946509623348
1684002787578489000,5.685889404296875,0.884548962067227,0.9438328741295098,1.0576910972986457
1684002787588531100,5.695931640625,1.2197288274775773,1.0190458297156944,1.0025057792093983
1684002787598573200,5.7059736328125,1.3007957936015841,1.046842575136829,0.8448414803362511
1684002787608615300,5.716015625,1.0890007018142562,0.7937984467886627,0.5861668586236393
1684002787618657500,5.726057861328125,0.7970491051329145,1.108688831240897,0.32097959511042745
1684002787628699600,5.736099853515625,0.6224172114956127,0.8880047797957294,0.29695940016289984
1684002787638741600,5.74614208984375,0.5027941466378626,0.47856855384571945,0.32701110845484405
1684002787648784000,5.756184326171875,0.412822932059383,-0.3605146407175218,0.6327385901318889
1684002787658826200,5.7662265625,0.4989258050563727,-0.09152221674926724,2.0045208930802056
1684002787668868300,5.7762685546875,0.8057239054811798,-0.6825819015871142,2.5902328490551025
1684002787678910400,5.786310791015625,1.0797892809455114,-0.7324843407400795,2.397901535082092
1684002787688952600,5.796352783203125,1.153093457244743,-0.418678760661683,1.4739151000320716
1684002787698994600,5.80639501953125,0.9756535292169887,-0.31148385995481975,0.5295329093601789
1684002787709036600,5.81643701171875,0.7563270329513371,-0.0320072174168865,-0.3015809059516876
1684002787719079100,5.8264794921875,0.6371350289409297,0.12379646299264083,-0.9893503187893308
1684002787729121200,5.836521484375,0.598690569447391,0.1954317093380775,-1.3751163482516708
1684002787739163300,5.846563720703125,0.6128711701477862,0.22290706649969483,-1.679527282790558
1684002787749205400,5.856605712890625,0.46243423219014845,0.3280878068307062,-1.768995761878289
1684002787759247600,5.86664794921875,0.20031890282448414,0.4098463058548816,-1.392566204053551
1684002787769289600,5.87668994140625,-0.06349164260869734,0.14109039293692754,-0.9844655989800649
1684002787779331800,5.886732177734375,0.01806363455727214,0.023516654970780232,-0.513019084967024
1684002787789373900,5.896774169921875,-0.104804918065855,0.0022649763916684157,-0.2818956375712855
1684002787799416000,5.90681640625,-0.1604945064133509,0.06058979020535373,-0.04908418656353644
1684002787809458400,5.916858642578125,-0.11705067759983583,-0.025807380622079424,0.12085962297466755
1684002787819500500,5.92690087890625,-0.14624899609670336,0.04430389403065863,0.14291095722893665
1684002787829542600,5.93694287109375,-0.2956351042582087,0.09632158283803695,0.2733545304144404
1684002787839584600,5.946985107421875,-0.5551354885169053,0.06818151470232561,0.24699544902823697
1684002787849626800,5.957027099609375,-0.49290281547823944,0.08578252796375153,0.05706882473224785
1684002787859668900,5.9670693359375,-0.4219540952340495,0.0579242705816293,0.11656045920933927
1684002787869711300,5.977111572265625,-0.15068644290477867,0.09915161128057919,-0.09859991062895324
1684002787879753400,5.98715380859375,-0.07687413675735677,-0.6665410994866331,-0.6987161634706477
1684002787889795600,5.99719580078125,-0.015841066845402107,-0.586647987235598,-0.29902076708737835
1684002787899837600,6.007238037109375,-0.0652812719566291,0.6948213576031291,0.5274872780218057
1684002787909879600,6.017280029296875,-0.8247314693360257,-1.172580719129059,-0.722060680335961
1684002787919921800,6.027322265625,-0.3429906367783194,-1.0495939255636115,-0.2709436414796718
1684002787929964000,6.0373642578125,-0.7341212034513911,1.3136429787594446,-0.31367397306472444
1684002787940006100,6.047406494140625,-0.8069851398655842,1.6652913092851342,-0.15961980818195212
1684002787950048200,6.057448486328125,-1.39514672753549,-0.2820463182074357,-0.45950937269278525
1684002787960090600,6.067490966796875,-0.7893569471147318,-0.5714435577026816,0.12045812620681504
1684002787970132600,6.077532958984375,-0.21133553976615113,-0.06840133660934787,0.838969707462615
1684002787980174800,6.0875751953125,-0.1550587416136689,0.613883495332781,0.7771492003570988
1684002787990216900,6.0976171875,-0.29675281036142837,0.559929847705294,0.5038514137808762
1684002788000259000,6.107659423828125,-0.19183337697138467,0.6097145080916405,-0.20157003385963113
1684002788010301100,6.117701416015625,0.007316947005934953,0.5702857970346827,-1.0639364720721078
1684002788020343200,6.12774365234375,-0.13592195498413703,0.32632541653183345,-1.4339313507799842
1684002788030385600,6.137785888671875,-0.3049147128449514,-0.2993488312581354,-1.4173545837420665
1684002788040427600,6.147828125,-0.18909192093153598,-0.4687910080445978,-1.5575931072475189
1684002788050469800,6.1578701171875,-0.14833402625839687,-0.35114955895086036,-1.7761230468329403
1684002788060511900,6.167912353515625,-0.07371997825011381,-0.45785617838519105,-1.8046567439912664
1684002788070554000,6.177954345703125,-0.07424402241091227,-0.5928773879949039,-1.5102584361998286
1684002788080596100,6.18799658203125,-0.10119128234473244,-0.7200641631799645,-1.176647901677956
1684002788090638300,6.19803857421875,-0.14214849485129263,-0.886378288255375,-0.7151277066694162
1684002788100680400,6.208080810546875,0.0018153192278876687,-0.8103513717898668,-0.44006729121377963
1684002788110722700,6.218123046875,0.12786555305087147,-1.4729261398525442,0.5552597045672996
1684002788120764800,6.228165283203125,0.49980068218116663,-3.309162139783985,1.0201554298263278
1684002788130807000,6.238207275390625,0.9399842022789474,-3.2508478164325276,2.0391674041883894
1684002788140849100,6.24824951171875,1.0504003762286882,-2.47864055650023,2.212649822213432
1684002788150891200,6.25829150390625,0.642841696713046,0.5597386358868326,3.3773303031658077
1684002788160933300,6.268333740234375,0.33688592902118414,-0.9742259977832219,1.030288219589506
1684002788170975400,6.278375732421875,0.2558293343440571,0.1316795349343018,0.35960865033041955
1684002788181017600,6.28841796875,0.521111965016292,-1.9050531388395153,-0.9024634361672516
1684002788191059900,6.298460205078125,1.038260579206076,-3.276783943129325,-0.9540963171841221
1684002788201102000,6.30850244140625,1.5189383030640276,-1.4331121443882122,-1.060034274968598
1684002788211144100,6.31854443359375,1.205900430745768,-0.19222164154222007,-1.562501907532396
1684002788221186200,6.328586669921875,1.029104590307486,-0.009385108826521741,-1.8077783583992177
1684002788231228300,6.338628662109375,0.8041884898130134,-0.3601465224126334,-2.030369043276545
1684002788241270400,6.3486708984375,0.7042515277024375,-0.7900037764037375,-1.6558437346259152
1684002788251312600,6.358712890625,0.6431748866156758,-0.416368484601172,-1.5230410099582623
1684002788261354600,6.368755126953125,0.5138905048271386,-0.24764633170003408,-1.5499761103037117
1684002788271397000,6.37879736328125,0.4180297851642445,-0.24362754815742557,-1.54441237458572
1684002788281439200,6.388839599609375,0.22342228882920367,-0.38049793250639224,-1.4038810731345635
1684002788291481300,6.398881591796875,0.14243721953350277,-0.04007434845882325,-1.4578921794422361
1684002788301523400,6.408923828125,0.09710216509780005,1.1235914231409059,-0.9801776409571931
1684002788311565600,6.4189658203125,-0.3838372231241092,0.23255157452697098,-1.2065975666172608
1684002788321607600,6.429008056640625,-0.9152293205665539,-1.5575799942312452,-1.1586415767403202
1684002788331649600,6.439050048828125,-0.7767698766272499,0.5188264847815968,-0.198153734296768
1684002788341691800,6.44909228515625,-1.2260563373388373,-3.708720207163368,0.9401223660765313
1684002788351734200,6.459134521484375,-0.9669616223995031,-2.327660560602484,1.8522589206857196
1684002788361776300,6.4691767578125,-0.7581377028616331,0.1821937562048614,1.1055710315259202
1684002788371818400,6.47921875,-0.7419331072509983,0.010659217735894854,0.5410122871267897
1684002788381860600,6.489260986328125,-0.7094187736538338,-0.6350622177415195,-0.00233769400409235
1684002788391902600,6.499302978515625,-0.7487559318548797,-1.83425617211254,0.2697827815731832
1684002788401944800,6.50934521484375,-0.6891551016461386,-0.8235445022474192,0.32789015772229213
1684002788411986900,6.51938720703125,-0.43749523163815784,-0.035240173274313065,-0.4408509730112138
1684002788422029000,6.529429443359375,-0.3590424059402834,-0.5907554625130905,-0.618091821500468
1684002788432071300,6.5394716796875,-0.2933964729275452,-0.27528095231154986,-0.6026449205165036
1684002788442113500,6.549513916015625,-0.39299345029165617,-0.032165527345521604,-0.6963024139051808
1684002788452155600,6.559555908203125,-0.5261259078401871,-0.15194511404095876,-0.6726646423530375
1684002788462197600,6.56959814453125,-0.6366863250671421,-0.21847438809996,-0.4813377855784398
1684002788472239800,6.57964013671875,-0.6812551021718407,-0.18755626681250656,-0.2202360629724091
1684002788482281900,6.589682373046875,-0.48707652093621967,0.10085296625363094,-0.12369418142324665
1684002788492324000,6.599724365234375,-0.36309242264148167,0.3681192397313929,0.22181367859112106
1684002788502366400,6.609766845703125,-0.30224037174229884,0.3520793915247486,0.4167153835287984
1684002788512408600,6.619808837890625,-0.12632536907556963,0.5161361694430343,0.2673962117184816
1684002788522450600,6.62985107421875,-0.1027021406854607,0.42825126650844464,0.25207734106150703
1684002788532492600,6.63989306640625,0.052567482090299676,0.3404617309935242,-0.26860952370400604
1684002788542534800,6.649935302734375,0.2592527867095081,0.1098041533935351,-0.2997670174449825
1684002788552576900,6.659977294921875,0.8459496498595243,0.08843708041769074,-0.08094048497899882
1684002788562619100,6.67001953125,1.2890996931652523,0.5890369415066111,-0.05904412269077718
1684002788572661200,6.6800615234375,1.1421766280021537,0.3049259185263692,0.26580953590087547
1684002788582703300,6.690103759765625,1.1699547767870067,-1.019612312325559,0.5932712553491444
1684002788592745600,6.70014599609375,1.2626950741325618,-0.2673978804420291,0.21595716467177542
1684002788602787800,6.710188232421875,1.4478484392332698,0.7246184348306051,-0.24526667598857727
1684002788612829900,6.720230224609375,1.1935069562244178,0.9256682395415193,-0.6737103462177307
1684002788622872000,6.7302724609375,0.8951878547458514,0.5648355484558639,-1.0300147533412958
1684002788632914100,6.740314453125,0.647535324069565,0.17108440399066413,-1.2165298462170158
1684002788642956200,6.750356689453125,0.5240619181981295,0.14501285545290135,-1.3657097814940697
1684002788652998300,6.760398681640625,0.3237004280080603,0.07119369519074939,-1.3403801918950256
1684002788663040400,6.77044091796875,0.20601034172079818,0.27804565435429246,-1.1176004409077385
1684002788673082600,6.78048291015625,0.23764443388002418,0.7982301711413788,-0.895364046106102
1684002788683124900,6.790525390625,0.25659275071167637,1.0841932296820331,-0.6058187483951816
1684002788693167000,6.8005673828125,0.2371938227635066,0.9055471419634828,-0.5155239105294697
1684002788703209100,6.810609619140625,0.40216946609237025,1.609961986489202,-0.0475215912128076
1684002788713251200,6.820651611328125,0.4907491206744631,1.6478638650611483,-0.09189510336625803
1684002788723293400,6.83069384765625,0.3287160398412447,1.6255149841480019,-0.25125122068201766
1684002788733335600,6.84073583984375,0.07490539550122569,1.3203663827599768,-0.47153735176074574
1684002788743377600,6.850778076171875,-0.20016789429830326,0.8429346082871686,-0.6133847237670433
1684002788753420000,6.8608203125,-0.446514129460593,0.2545614242363475,-0.9248225689943452
1684002788763462100,6.870862548828125,-0.6247432233700494,-0.16739749925911473,-1.220980405785242
1684002788773504200,6.880904541015625,-0.6427142621131664,-0.3897256852196855,-1.2764105797127454
1684002788783546300,6.89094677734375,-0.5237817763122938,-0.7272653579382241,-1.4122791290591494
1684002788793588400,6.90098876953125,-0.39150714867101283,-0.8747739791715253,-1.501956462930541
1684002788803630600,6.911031005859375,-0.26369810097404367,-1.02006244654065,-1.4766356945172825
1684002788813672600,6.921072998046875,-0.23426580433355587,-1.2925996781107485,-1.3224530218985944
1684002788823714700,6.931115234375,-0.31126117705892303,-1.6528062820701337,-1.062301635687824
1684002788833757100,6.941157470703125,-0.4005188941199809,-1.803368568445375,-0.8218445778050091
1684002788843799200,6.95119970703125,-0.46143698678980016,-1.7535343170969515,-0.726881742513929
1684002788853841300,6.96124169921875,-0.48225212098682946,-1.316660880899614,-0.8969054221619496
1684002788863883400,6.971283935546875,-0.5319900514138074,-0.17676734910885733,-0.2761476039193994
1684002788873925600,6.981325927734375,-0.8191905021550705,-0.22572612763648178,-0.14231729507856514
1684002788883967600,6.9913681640625,-1.1643884182130035,-0.6793966293672206,0.24007487309787864
1684002788894009800,7.00141015625,-1.5541977882733915,-1.4586629866993186,0.3219459058346917
1684002788904051900,7.011452392578125,-1.8690602778391354,-1.9188776015952373,0.11426663405998003
1684002788914094000,7.021494384765625,-2.030459880942076,-2.139764785783772,-0.2355816365371626
1684002788924136400,7.031536865234375,-2.1238889693746525,-1.949754715039407,-0.08989024177972882
1684002788934178600,7.041578857421875,-2.1363365648394574,-3.3189373016307337,0.8346364499449831
1684002788944220600,7.05162109375,-1.289041280776803,-0.8981037139901054,0.1329786777649413
1684002788954262600,7.0616630859375,-0.10276889784317389,1.3062672614290762,-0.049680232999760425
1684002788964304800,7.071705322265625,0.4993650912766236,0.5692501068977361,0.3941924572432748
1684002788974346900,7.081747314453125,0.9847512246488538,-0.4936485290846053,0.6179714203485857
1684002788984389000,7.09178955078125,1.5245888233352087,-0.38714885702994617,0.4720633029301497
1684002788994431200,7.10183154296875,1.9006688593684535,-0.20158958444875597,0.19961071018621834
1684002789004473300,7.111873779296875,2.042903184857511,-0.2989044189416387,0.04411768912599705
1684002789014515600,7.121916015625,1.7602398396032346,-0.23591232296650708,-0.23636126508491667
1684002789024557700,7.131958251953125,1.3820083142035104,0.29741954807845544,-0.6457266807487266
1684002789034599900,7.142000244140625,0.9597240688024269,0.9342803954890725,-0.5552921295433
1684002789044642000,7.15204248046875,0.6928172113305208,1.292397499078246,-0.32550406454591607
1684002789054684100,7.16208447265625,0.5244817733808685,1.404950141880539,-0.15242505072385973
1684002789064726200,7.172126708984375,0.5159711837854802,1.3137564658296057,0.05115413659913905
1684002789074768300,7.182168701171875,0.6050282717964073,1.0777025223301402,0.2835435866360853
1684002789084810400,7.1922109375,0.6759572028836993,0.7204275131775139,0.4367125033583266
1684002789094852800,7.202253173828125,0.7533749342096139,0.27543926240363664,0.5898244380913703
1684002789104894900,7.21229541015625,0.7309188841598476,-0.03468513482509677,0.5733301637979059
1684002789114937000,7.22233740234375,0.7973154783580716,-0.03196144103589329,0.462641000683279
1684002789124979100,7.232379638671875,0.7969805001001379,-0.04728221884883803,0.5054678917036207
1684002789135021200,7.242421630859375,0.7589223385784716,-0.2251758576598184,0.48033928861119457
1684002789145063300,7.252463623046875,0.5575557947715952,-0.6297044754241025,0.26181983953511273
1684002789155105500,7.262505859375,0.2814817428853593,-0.6923923493294284,-0.08339071282301289
1684002789165147600,7.2725478515625,0.12363290771761108,-0.33715915683830094,-0.21677684802388555
1684002789175189600,7.282590087890625,0.19499254225708557,0.09926795963748207,-0.23363327976696885
1684002789185232000,7.292632568359375,0.28006792069855124,0.09648132328531751,-0.11792373659935779
1684002789195274200,7.302674560546875,0.21005940425363986,0.03943729404869625,0.088730096719446
1684002789205316300,7.312716552734375,-0.1550968886665049,-0.00559043895999266,0.27890586866226186
1684002789215358400,7.3227587890625,-0.5472081898562645,-0.07958126068363812,0.29892539962122644
1684002789225400600,7.33280078125,-0.8132580517991103,-0.07023525233795894,0.2701733113875126
1684002789235442600,7.342843017578125,-0.9043292997956126,-0.0016860962677518769,0.23650121690374554
1684002789245484600,7.352885009765625,-0.6869766710514895,0.08016300198647962,0.2824008464363295
1684002789255526800,7.36292724609375,-0.29412555682855546,0.12002086643867131,0.30142521848232523
1684002789265569200,7.372969482421875,0.15926241871787905,0.09865093242694914,0.3802421094199354
1684002789275611300,7.38301171875,0.5069968700407468,0.030650138964982213,0.32082414628392303
1684002789285653400,7.3930537109375,0.775945186597836,0.01441001886039811,0.27173209176383484
1684002789295695600,7.403095947265625,1.0225229264405458,0.04553508763484529,0.19029378894265683
1684002789305737600,7.413137939453125,1.178916454376853,0.08140373230038885,0.23696899415386408
1684002789315779800,7.42318017578125,1.3052814006677835,0.08885002141727617,0.2348852157417997
1684002789325821900,7.43322216796875,1.3787912131106461,0.032201767108116244,0.24128699306351628
1684002789335864000,7.443264404296875,1.4306778909102078,-0.014084815964961576,0.2729554177788985
1684002789345906100,7.453306396484375,1.467188358402016,-0.004656791655731319,0.28820466994653116
1684002789355948500,7.463348876953125,1.4802520274871507,0.05544281002665408,0.34540748604074517
1684002789365990600,7.473390869140625,1.471038818484037,0.1033487320100852,0.44933605206807836
1684002789376032600,7.48343310546875,1.4916107654686495,0.09553718564151459,0.5033829211282729
1684002789386074800,7.49347509765625,1.373494863434558,0.05794525140422876,0.5917012690285068
1684002789396116900,7.503517333984375,1.272662401203416,-0.014047622666608183,0.6299314498654743
1684002789406159000,7.513559326171875,1.1551125050660054,-0.08426094055416422,0.6146574019234077
1684002789416201100,7.5236015625,0.9733877181964594,-0.12137222285644819,0.5277037619547205
1684002789426243200,7.5336435546875,0.8396131993314926,-0.14697933182305564,0.443002939366757
1684002789436285400,7.543685791015625,0.7522520424703265,-0.1419286726666799,0.3365054131680469
1684002789446327600,7.55372802734375,0.6781954169340849,-0.13465309127026495,0.18247985848152426
1684002789456369800,7.563770263671875,0.594354808233307,-0.10811710346671315,0.03904891018074003
1684002789466412000,7.573812255859375,0.5429694055431556,-0.13869953147636935,-0.029196500924402617
1684002789476454100,7.5838544921875,0.5197642446290782,-0.18071269985122043,-0.08867835992345341
1684002789486496200,7.593896484375,0.4712546766150154,-0.20532894126154247,-0.11722111699453434
1684002789496538300,7.603938720703125,0.41558873661101786,-0.1790199279875111,-0.21220397952703912
1684002789506580400,7.613980712890625,0.3367499112963627,-0.15920162200957608,-0.2778146267732433
1684002789516622600,7.62402294921875,0.2827201782991455,-0.13422489173448038,-0.2912201880719154
1684002789526664900,7.634065185546875,0.2508704066349086,-0.15466594699427536,-0.22762346265837494
1684002789536707000,7.644107421875,0.26788079745045285,-0.15601444243975693,-0.18296504024209478
1684002789546749100,7.6541494140625,0.3440008758515872,-0.15488147722006987,-0.11601901053887578
1684002789556791200,7.664191650390625,0.48410236831989006,-0.07462883010680411,-0.033284187245351586
1684002789566833300,7.674233642578125,0.6653211714190982,-0.001558303690224824,0.0479052065667989
1684002789576875400,7.68427587890625,0.8306431768924174,0.009246826110535226,0.11001586914980609
1684002789586917600,7.69431787109375,0.9710667133692723,-0.0206174852307781,0.1837019920281938
1684002789596959600,7.704360107421875,1.05900013445817,0.006983756909068498,0.2714829443713008
1684002789607001800,7.714402099609375,1.1153954267816975,0.06805038463771412,0.3088169096920723
1684002789617044100,7.724444580078125,1.0850172042611033,0.06678485874053174,0.3286085127631603
1684002789627086300,7.734486572265625,1.0212904214202325,0.022306442314116756,0.31146073341651603
1684002789637128400,7.74452880859375,0.9353537559998245,-0.03174495695042283,0.24844861023492898
1684002789647170600,7.75457080078125,0.8142320514028012,-0.07610225671951198,0.24539160746008062
1684002789657212600,7.764613037109375,0.7184489965218838,-0.07739639282975454,0.22569465627272914
1684002789667254600,7.774655029296875,0.6676669716978034,-0.05965137470588496,0.2084705829200207
1684002789677296800,7.784697265625,0.6550896762817763,-0.05878067012224458,0.23901867860933662
1684002789687338900,7.7947392578125,0.6611990930260806,-0.04139041907423141,0.24288463578060324
1684002789697381000,7.804781494140625,0.6327396630990467,-0.03855133058039297,0.18427181253651606
1684002789707423400,7.81482373046875,0.6313607692038218,-0.05248737333209357,0.18068218235662295
1684002789717465600,7.824865966796875,0.6356436013666036,-0.02536869059468858,0.18660521499005675
1684002789727507600,7.834907958984375,0.6072342992087681,0.053110122762631114,0.2043075561739673
1684002789737549700,7.8449501953125,0.5702421665978216,0.03600883494108924,0.24025583269660922
1684002789747591900,7.8549921875,0.5249520541324758,0.07322025283382338,0.1764183045208281
1684002789757634000,7.865034423828125,0.502541184395345,0.008369445772127006,0.19314527506616963
1684002789767676100,7.875076416015625,0.48155459760792063,0.04049205781236272,0.11595439906451985
1684002789777718200,7.88511865234375,0.4621587693966338,0.0030269623064708177,0.03306603444407673
1684002789787760300,7.89516064453125,0.39177799234519045,-0.34016132348320294,-0.05602955807735099
1684002789797802600,7.905203125,0.3460345565300198,-0.665303230415896,-0.31070518501685906
1684002789807844800,7.9152451171875,0.42019620543763087,-0.7715520859111064,-0.5555016994897128
1684002789817886900,7.925287353515625,0.6545734406072036,-0.16482830045118174,-0.8257193566385874
1684002789827929000,7.935329345703125,0.7692081926844471,-0.26111507400367184,-0.4486331938698899
1684002789837971100,7.94537158203125,0.683691859165717,-0.10094070438473,-0.37710189816561723
1684002789848013200,7.95541357421875,0.5931961536862849,0.01907253266712277,-0.2658369539992938
1684002789858055300,7.965455810546875,0.48101103296673775,-0.0296669006079624,-0.24899339690958547
1684002789868097500,7.975497802734375,0.5318807362614123,0.2621841431149296,-0.13091230389408812
1684002789878139600,7.9855400390625,0.6229072212879732,0.7799854278645375,0.05343651755602831
1684002789888181900,7.995582275390625,0.5791121721916551,0.690263748318941,0.2687418460429458
1684002789898224000,8.00562451171875,0.46772053840368394,0.5159292220861016,0.2730433941352296
1684002789908266200,8.01566650390625,0.38895189762127963,0.5597314834951532,0.4677023887817686
1684002789918308300,8.025708740234375,0.3927248716835666,0.5161695480369751,0.6501367091097577
1684002789928350400,8.035750732421874,0.2576034665402127,0.45767784136013245,0.4076325893397934
1684002789938392600,8.04579296875,0.2221826911969375,0.1990404128900626,0.33306121812117684
1684002789948434600,8.0558349609375,0.18202540275229823,-0.008869171178091245,0.23663091654776058
1684002789958476600,8.065877197265625,0.16068351260493946,-0.0888423920280739,0.06343531610863463
1684002789968519100,8.07591943359375,0.13836726554340686,0.008994102608410113,-0.10224246967954895
1684002789978561200,8.085961669921875,0.16346064200506613,0.09789752944861112,-0.22590637206222677
1684002789988603300,8.096003662109375,0.15668094172444316,0.1752929687870271,-0.28844714171262814
1684002789998645400,8.1060458984375,0.14236429328192604,0.22692680359126124,-0.3907444476536018
1684002790008687600,8.116087890625,0.09398230900546341,0.14499759679909854,-0.4798326491474589
1684002790018729600,8.126130126953125,0.11439555877027383,-0.013717651273181577,-0.4931590557979085
1684002790028771800,8.136172119140625,0.17461532358584136,-0.0685186385662055,-0.517345190058907
1684002790038813900,8.14621435546875,0.12385290868013676,-0.3106021881051398,-0.4929115772023527
1684002790048856000,8.15625634765625,0.12148860087177976,-0.42850112916018723,-0.4514572619138418
1684002790058898100,8.166298583984375,0.15802359582063374,-0.5114088059068147,-0.4171526431863099
1684002790068940500,8.1763408203125,0.15521118051574248,-0.38779544830056817,-0.5095863342224292
1684002790078982600,8.186383056640626,0.17330378295343227,0.019129753201565906,-0.6581237314598887
1684002790089024600,8.196425048828125,0.2262448668102115,0.2737703323859225,-0.6760532856103468
1684002790099066800,8.20646728515625,0.28123563517935,0.09356212607223714,-0.5497260093688366
1684002790109108900,8.21650927734375,0.29731038202499005,-0.13768100746840375,-0.4510874748026167
1684002790119151000,8.226551513671875,0.28046885117180614,-0.38855552674061056,-0.3232064247288377
1684002790129193100,8.236593505859375,0.20721229905434027,-0.4985857010578312,-0.28652834890738443
1684002790139235200,8.2466357421875,0.14825558664361832,-0.5546417235407337,-0.2589640618515203
1684002790149277400,8.256677734375,0.06690537931827885,-0.5105457306977759,-0.2524201870734682
1684002790159319600,8.266719970703125,0.008142769304706943,-0.42444610610372463,-0.21473598478723996
1684002790169361800,8.27676220703125,-0.056084275279482586,-0.30885505677146435,-0.16054749485621844
1684002790179404000,8.286804443359374,-0.1123054028456572,-0.29837131508691744,-0.08008813853930744
1684002790189446100,8.296846435546875,-0.16809779411623166,-0.2786369324670296,0.06307649611769985
1684002790199488200,8.306888671875,-0.2191275357975109,-0.3440465927973367,0.12455773358474664
1684002790209530300,8.3169306640625,-0.2544664144661431,-0.43425941460258627,0.20525312416237346
1684002790219572400,8.326972900390626,-0.25489222990521,-0.4640665052525979,0.22285079946427525
1684002790229614600,8.337014892578125,-0.2526261807838148,-0.3214015959612644,0.1690928936015933
1684002790239656600,8.34705712890625,-0.23567026860922172,-0.17419242868802012,0.14277768134898677
1684002790249698700,8.35709912109375,-0.189911663583776,-0.02993583694084122,0.14883995051224785
1684002790259741100,8.3671416015625,-0.17335712909845416,0.11370372757263913,0.06852579116490505
1684002790269783200,8.37718359375,-0.12234377856707657,0.16972923287460967,-0.011791706145730095
1684002790279825300,8.387225830078124,-0.07726931566689493,0.15373992928855432,-0.05671334266410266
1684002790289867400,8.397267822265626,-0.030895829185240514,0.18235015876124608,-0.16785430899561987
1684002790299909600,8.40731005859375,-0.039411187246698114,0.30194187157626745,-0.29209470752492894
1684002790309951600,8.41735205078125,-0.038389921279551,0.18598175060043726,-0.3354880810475474
1684002790319993800,8.427394287109376,-0.06443917762385168,0.029032707376719896,-0.4412214755724839
1684002790330035900,8.437436279296875,-0.11618447313380793,-0.16328334793033944,-0.5633563995388668
1684002790340078300,8.447478759765625,-0.26477861396856395,-0.42996978764900573,-0.6489021777456343
1684002790350120400,8.457520751953124,-0.4481800795592761,-0.5362243650909733,-0.6854963304157703
1684002790360162600,8.46756298828125,-0.5973737238265568,-0.5810041427803058,-0.6520295142985919
1684002790370204600,8.47760498046875,-0.6957068443712578,-0.5818614960400355,-0.5872542858216211
1684002790380246600,8.487647216796875,-0.7567781208952923,-0.5138740539809153,-0.586128473247991
1684002790390288800,8.497689208984376,-0.8424023389886625,-0.41737365726795816,-0.5445830822396129
1684002790400330900,8.5077314453125,-1.077090740286346,-0.36912059790308277,-0.4976058006803483
1684002790410373000,8.5177734375,-1.5001763105519526,-0.6106786728007761,-0.2982668876511293
1684002790420415200,8.527815673828124,-1.7339298724535361,-0.8118944166291616,-0.10833811762110901
1684002790430457300,8.537857666015626,-1.4663175345858959,-0.6645288466717929,-0.1597108840980387
1684002790440499400,8.547899658203125,-0.9745324850259245,-0.22179412848662836,-0.3694899081366472
1684002790450541700,8.557942138671875,-0.5050950050138009,0.1164026259906648,-0.5332105159115119
1684002790460583900,8.567984375,-0.11142039306085078,0.12279701234661909,-0.6272728441911686
1684002790470626000,8.5780263671875,0.192931771253986,-0.0749673844069512,-0.6301620006414901
1684002790480668100,8.588068359375,0.4790453911149289,-0.12126159665823054,-0.6622648238913648
1684002790490710200,8.598110595703124,0.7532530427132312,0.3128051757521005,-0.5944762230658671
1684002790500752300,8.608152587890626,0.9266348481704466,0.5202236175387805,-0.29413342469772924
1684002790510794400,8.61819482421875,0.9362208246534313,0.47241210939267564,0.20366144173155726
1684002790520836600,8.62823681640625,0.7912409303707824,0.4291639327206034,0.6854712963851576
1684002790530878600,8.638279052734376,0.4786453247399008,0.4085273743053036,1.086452007157497
1684002790540921000,8.6483212890625,0.05684065812878017,0.4099025726445064,1.3314769267998756
1684002790550963100,8.658363525390625,-0.4168900251558255,0.3850440978834119,1.4183337687488144
1684002790561005200,8.668405517578124,-0.9230045079360679,0.24748992925189559,1.2526941299799896
1684002790571047300,8.67844775390625,-1.367040514888281,0.011297225807562091,0.8291504384716339
1684002790581089500,8.68848974609375,-1.6829280852688087,-0.3017644881771136,0.23866248125862496
1684002790591131600,8.698531982421875,-1.7695611716280852,-0.4928789137357423,-0.4353451728129442
1684002790601173600,8.708573974609376,-1.6000163555475424,-0.5237140656085678,-1.03892266760015
1684002790611215800,8.7186162109375,-1.363951683096011,-0.3634176254010918,-1.4246590136121802
1684002790621257900,8.728658203125,-1.1236443519087702,-0.23232078534271428,-1.5515813828331873
1684002790631300000,8.738700439453124,-0.8424624204294219,-0.1449232101278364,-1.560277104429731
1684002790641342100,8.748742431640625,-0.562755823132538,-0.0007181169444396827,-1.3583743572710734
1684002790651384600,8.758784912109375,-0.4327486754419017,0.049970626866090655,-1.1618204117365867
1684002790661426600,8.768826904296875,-0.28655946245204117,0.10107898702549457,-0.9305080174866905
1684002790671468600,8.778869140625,-0.13993704320017586,0.17948150650125058,-0.6768071650730831
1684002790681510800,8.7889111328125,-0.16396868244338764,0.19199085240642608,-0.2847957611828761
1684002790691552900,8.798953369140625,-0.22638523570821245,0.25049781786192893,0.18868756300736736
1684002790701595100,8.808995361328124,-0.2719076870729003,0.3661680221675196,0.6161780356067714
1684002790711637200,8.81903759765625,-0.3564071655555374,0.5097198487247141,0.9316117764903514
1684002790721679300,8.82907958984375,-0.38785541059884204,0.668919563399193,1.1748197079109626
1684002790731721400,8.839121826171874,-0.39685797694415104,0.812591552748955,1.3736717702259358
1684002790741763800,8.8491640625,-0.38223290459673415,0.8692483901704189,1.4935224054933227
1684002790751805900,8.859206298828125,-0.31071817881509317,0.832135200437891,1.5518541335305518
1684002790761848000,8.869248291015625,-0.26079654680842673,0.7899723053216526,1.552910804672713
1684002790771890100,8.87929052734375,-0.18565678591552906,0.79546260836555,1.4404578208565706
1684002790781932200,8.88933251953125,-0.13423752767784913,0.7986822127909416,1.247364997974756
1684002790791974300,8.899374755859375,-0.13397288334157564,0.7498216628552544,1.0101046560866325
1684002790802016400,8.909416748046874,-0.1980774403312425,0.6419296264043953,0.7559688092286514
1684002790812058600,8.919458984375,-0.3322390316394717,0.36267471304818993,0.6641023158021768
1684002790822100600,8.9295009765625,-0.5144413709517135,0.06004905689622699,0.7088205813586113
1684002790832142800,8.939543212890625,-0.8354963064229638,-0.05393218988926216,0.9021170139443268
1684002790842185100,8.94958544921875,-1.161554455722762,-0.0539464951671211,1.1355819702043395
1684002790852227200,8.959627685546875,-1.3037145136920414,-0.04047203075256817,1.4025969506616338
1684002790862269400,8.969669677734375,-1.2258441449455322,0.015251159655500267,1.5751357078967316
1684002790872311500,8.9797119140625,-1.0199530125482426,0.043821334817498635,1.654270410544066
1684002790882353600,8.98975390625,-0.7748419046192965,0.13112926492290813,1.5597257613558442
1684002790892395600,8.999796142578125,-0.5125712156043705,0.15993785860544982,1.3403382301353854
1684002790902437800,9.009838134765625,-0.3639519215241406,0.15917110443757077,1.0351951121320726
1684002790912479900,9.01988037109375,-0.3414562939460516,0.22492504110485997,0.6408450603580167
1684002790922522000,9.02992236328125,-0.46150124069384746,0.2670402526469765,0.20647287371778714
1684002790932564400,9.03996484375,-0.6289510725409504,0.29100036630027615,-0.24093723292813984
1684002790942606600,9.0500068359375,-0.7667196989704828,0.16815376281279648,-0.6392288207441088
1684002790952648600,9.060049072265626,-0.8334608079274592,-0.0487356186454672,-0.993362903618995
1684002790962690700,9.070091064453123,-0.8526659010860279,-0.30223560324030546,-1.3026463986748376
1684002790972732800,9.08013330078125,-0.8720110655542014,-0.48934364302016653,-1.4724619388780045
1684002790982775000,9.09017529296875,-0.8638564348189731,-0.6126613617460225,-1.4933431148242802
1684002790992817100,9.100217529296875,-0.8354743718890251,-0.6248893738098031,-1.3809967041974496
1684002791002859200,9.110259521484377,-0.7070331573372367,-0.5124416351727626,-1.1352775095963363
1684002791012901300,9.1203017578125,-0.53299283978988,-0.2953701020227969,-0.8402316569278666
1684002791022943400,9.13034375,-0.2718257903468298,-0.08688259128188484,-0.5367789268890701
1684002791032985600,9.140385986328123,0.05194360026209983,0.11757278436196912,-0.20910167693935072
1684002791043027900,9.15042822265625,0.35740798716034927,0.1582307815442423,-0.03788733465515896
1684002791053070000,9.160470458984374,0.6827399730791693,0.16012859349750203,0.08129334437395416
1684002791063112100,9.170512451171875,0.9052352309168598,0.18349838262434495,0.0899376869475187
1684002791073154200,9.1805546875,1.0165657996275956,0.13310432428474697,-0.0014755725551264668
1684002791083196300,9.1905966796875,0.9755403994599902,0.21239185332246457,-0.0750343800712683
1684002791093238400,9.200638916015626,0.8579763174128963,0.23485088346998104,-0.0614151953592422
1684002791103280600,9.210680908203123,0.7430799006981,0.21722126005984466,-0.032601594953232005
1684002791113322600,9.22072314453125,0.588658571232479,0.26241970069620135,-0.006983518560981555
1684002791123364800,9.23076513671875,0.4562573134268625,0.30586338029469473,-0.005317449525858186
1684002791133407200,9.2408076171875,0.3334819078427493,0.31155872341095847,-0.06813883780086348
1684002791143449300,9.250849609375,0.18354734780762408,0.3511133192790672,-0.16433763508090682
1684002791153491400,9.260891845703124,0.03665912157836106,0.340577125514942,-0.18698740020098398
1684002791163533600,9.270933837890626,-0.007998824059687559,0.2341623306557693,-0.16642260565028252
1684002791173575600,9.28097607421875,0.07630303516492161,0.08896255487230052,-0.2068672180407894
1684002791183617600,9.29101806640625,0.21906279037572987,0.012627601697926637,-0.3105931283218176
1684002791193659800,9.301060302734374,0.4443520010899168,0.1419305801301409,-0.5517947674197199
1684002791203701900,9.311102294921875,0.6475991009983447,0.2120952606359412,-0.6723952292925774
1684002791213744000,9.32114453125,0.7803279756718643,0.18023109443422097,-0.5558867455683255
1684002791223786200,9.3311865234375,0.8283768296957058,0.0773649215961297,-0.47112298007104764
1684002791233828300,9.341228759765626,0.9328615664761407,0.008664131275165679,-0.30359625829082776
1684002791243870600,9.35127099609375,1.0209791661593417,0.01720237728213984,-0.19392275814009285
1684002791253912800,9.361313232421876,1.011735081559836,0.1721372605050921,-0.007989406686839803
1684002791263954900,9.371355224609376,0.8392102718757287,0.2386426925052728,0.32681846611120774
1684002791273997000,9.3813974609375,0.6466801762633193,0.26152515392583825,0.6789419652136351
1684002791284039100,9.391439453125,0.3666995167674215,0.21628761301884086,0.9460701943529706
1684002791294081200,9.401481689453124,0.04895813759080386,0.21971511835861096,1.17271471019841
1684002791304123300,9.411523681640626,-0.16668555143200278,0.15196990964397183,1.2695167065855513
1684002791314165400,9.42156591796875,-0.22459527852731082,0.06109142304009449,1.2486090661321163
1684002791324207600,9.43160791015625,-0.050363000470715104,-0.01183223723453163,1.0944139957754089
1684002791334249600,9.441650146484376,0.2540913225214981,-0.12617874144561309,0.7699570655380625
1684002791344292000,9.4516923828125,0.5937280654947094,-0.164516448980768,0.3698158264021762
1684002791354334100,9.461734619140625,0.8526914716163155,-0.08094978341734912,-0.00316834449161342
1684002791364376200,9.471776611328124,1.0430116653801413,-0.03998470303051008,-0.24923825257604654
1684002791374418400,9.48181884765625,1.1840045451664096,-0.04371166238546775,-0.40148234358803764
1684002791384460500,9.49186083984375,1.2806838750555067,-0.024845123391898153,-0.4710662366119035
1684002791394502600,9.501903076171876,1.311426997145346,-0.02396297450975838,-0.36718559267885004
1684002791404544600,9.511945068359376,1.3624083995883627,0.04474639887679863,-0.1983358860263629
1684002791414586800,9.5219873046875,1.380166769047525,0.11143589002229795,0.02209162729524336
1684002791424628900,9.532029296875,1.4281190633738605,0.14249134060791532,0.22654986380462522
1684002791434671300,9.54207177734375,1.422301530826972,0.1569404603079394,0.3954663276810914
1684002791444713400,9.55211376953125,1.3579367400563016,0.16418647760636976,0.5760483742678757
1684002791454755600,9.562156005859377,1.237279415225109,0.25258159626978033,0.7514092923769978
1684002791464797600,9.572197998046876,1.1280144454639258,0.3263940810009149,0.928647279628601
1684002791474839700,9.582240234375,1.0146521330437694,0.4046535493507867,1.124151468414552
1684002791484881800,9.5922822265625,0.8783465027953293,0.41794586195721534,1.2730565071890159
1684002791494924000,9.602324462890625,0.7391400932607506,0.3686800002980916,1.4252934456164135
1684002791504966100,9.612366455078124,0.6092997788568202,0.3237895966524108,1.5447793007745305
1684002791515008200,9.62240869140625,0.5066924691414347,0.309615135172385,1.5482215881623937
1684002791525050300,9.63245068359375,0.43027403963047306,0.32151031483733966,1.5081291198815643
1684002791535092400,9.642492919921876,0.3663724063742916,0.3666667937831231,1.398568868608546
1684002791545134800,9.65253515625,0.2808035016757497,0.39191627503932497,1.2753419875165122
1684002791555176900,9.662577392578124,0.10394287107293367,0.3158206938842818,0.9202837945589384
1684002791565219000,9.672619384765625,-0.08922207366796932,0.1679821015547737,0.4555253983372024
1684002791575261100,9.68266162109375,-0.25206464528026545,0.07604885102862997,0.08704233169756195
1684002791585303200,9.69270361328125,-0.340279430288824,0.02345848085224377,-0.1584172247590186
1684002791595345300,9.702745849609377,-0.3645612001238093,0.01947498324920018,-0.24142885191935337
1684002791605387400,9.712787841796874,-0.3287554383518459,0.05918788914394686,-0.31310415271099346
1684002791615429600,9.722829833984376,-0.21598097677908493,0.09017562866058662,-0.2534263133873468
1684002791625471600,9.7328720703125,-0.03752824664696498,0.09586334225056094,-0.08358550073673447
1684002791635513800,9.7429140625,0.1440727115568913,0.11184692373353795,0.20279502869121876
1684002791645555900,9.752956298828124,0.2692809402713086,0.16871356954462582,0.4563241003803985
1684002791655598300,9.76299853515625,0.32804161306406593,0.2494668960403566,0.6431789398750906
1684002791665640400,9.773040771484377,0.34931784869784394,0.3086280824211981,0.844564676131711
1684002791675682600,9.783082763671874,0.3384301961461228,0.32707118995803885,0.9765579700015677
1684002791685724600,9.793125,0.33892986178170686,0.3502235413550168,1.0367124081275347
1684002791695766600,9.8031669921875,0.3348563312936225,0.2968578340475569,1.0823268891596074
1684002791705808800,9.813209228515625,0.3694133460263645,0.26514816292791626,1.0515475273152046
1684002791715850900,9.823251220703124,0.37740474944268204,0.24798297889270204,0.9880285261670952
1684002791725893000,9.83329345703125,0.3728220163862824,0.19752216338944892,0.9323854448054388
1684002791735935200,9.84333544921875,0.3383554220284997,0.19260883341268195,0.8511338232937065
1684002791745977300,9.853377685546874,0.27156412603811536,0.19270706181805372,0.7879757882880042
1684002791756019400,9.863419677734376,0.21148002150322845,0.16438770286995613,0.814476728306736
1684002791766061700,9.873462158203123,0.18011629578196925,0.16263294223285452,0.8849098683061731
1684002791776103900,9.883504150390625,0.15552538624630902,0.180050849980058,0.9270536899644548
1684002791786146000,9.89354638671875,0.12258285292139767,0.25710487365508833,0.9909839628852006
1684002791796188100,9.90358837890625,0.0739330649125558,0.34339427956709356,1.0644145012489303
1684002791806230200,9.913630615234377,-0.0037425756399047144,0.4435415268581524,1.0654532910021988
1684002791816272300,9.923672607421874,-0.10417702785955453,0.48810672759686596,1.105636119777968
1684002791826314400,9.93371484375,-0.21017602084781242,0.46759986889456817,1.0650236606902908
1684002791836356600,9.9437568359375,-0.29572215685829817,0.40857791903271873,0.9848940373570146
1684002791846398600,9.953799072265625,-0.36365336186061475,0.3449058533873719,0.9096398352119371
1684002791856440800,9.963841064453124,-0.41341221328708333,0.32714653016336653,0.8501744269972
1684002791866482900,9.97388330078125,-0.41004031901273924,0.34834575651038935,0.8885171414861531
1684002791876525200,9.983925537109377,-0.32386848339079094,0.36978340154667766,0.937131643248345
1684002791886567300,9.9939677734375,-0.22045433533628858,0.46932411202643975,1.0786745548241832
1684002791896609500,10.004009765625,-0.0597353578140472,0.5676517485399536,1.2514283655610228
1684002791906651600,10.014052001953123,0.07020258899110897,0.6079740525303379,1.4066152572807211
1684002791916693600,10.024093994140625,0.18813198795512762,0.6638050080170907,1.5524170397997297
1684002791926735800,10.03413623046875,0.24605560299065027,0.6498613357607358,1.648199796556426
1684002791936777900,10.04417822265625,0.3048097490933382,0.6543140412339992,1.6712069512018828
1684002791946820000,10.054220458984377,0.32286280393363903,0.6133375166250499,1.651434898422526
1684002791956862100,10.064262451171874,0.3402942418387575,0.56320858001875,1.6187622547400458
1684002791966904200,10.0743046875,0.2981642783984448,0.5185174942306808,1.6193482877033343
1684002791976946400,10.0843466796875,0.28907492755993464,0.43691825874714707,1.6060450076983943
1684002791986988600,10.09438916015625,0.2813396751829014,0.34484863275949124,1.583597660148338
1684002791997030800,10.10443115234375,0.2603882253323797,0.20918369286101512,1.5721344946986777
1684002792007072900,10.114473388671875,0.29281046992876997,0.12912368778781363,1.4851324558329886
1684002792017115100,10.124515380859377,0.3080322146883148,0.06594943982813725,1.3491511345924758
1684002792027157200,10.1345576171875,0.3403159974959907,-0.029946327287768217,1.2924222946313766
1684002792037199300,10.144599609375,0.420783340897555,-0.13674163810023737,1.2715060711130322
1684002792047241400,10.154641845703123,0.4782585203603098,-0.2258682250706931,1.2368915081515655
1684002792057283600,10.164683837890625,0.555558919823844,-0.3918600081469956,1.3063139915514903
1684002792067325600,10.17472607421875,0.6191342472931639,-0.5299501417393958,1.3294904232455822
1684002792077367600,10.18476806640625,0.6378045679547878,-0.7961616515586727,1.37736678114014
1684002792087409800,10.194810302734377,0.6462392807408954,-1.052161216878782,1.4391832352583103
1684002792097452200,10.2048525390625,0.5621205568935839,-1.216018676743693,1.3774991036378352
1684002792107494300,10.214894775390626,0.44521144031456206,-1.305780410923469,1.2888488769754132
1684002792117536400,10.224936767578123,0.23141303672684788,-1.1926136016259394,0.9358804225628836
1684002792127578600,10.23497900390625,-0.03510813409449535,-0.9801015852493787,0.41388487814000247
1684002792137620600,10.24502099609375,-0.3216460049672052,-0.7609586715224536,-0.1373605728802647
1684002792147662800,10.255063232421875,-0.6067168713614236,-0.5352153778309647,-0.6993951797963603
1684002792157704900,10.265105224609377,-0.7663056253937075,-0.35829448702645916,-1.1113475561015553
1684002792167747000,10.2751474609375,-0.8702627420029545,-0.14884090423952223,-1.35772597789115
1684002792177789100,10.285189453125,-0.8686030506549166,0.17400646215802792,-1.686897873844848
1684002792187831200,10.295231689453123,-0.9342337847146284,0.435032844684665,-1.8961519003270046
1684002792197873300,10.305273681640625,-0.9629092215487012,0.6002855300952801,-2.0315244197577558
1684002792207915400,10.31531591796875,-0.999824583649636,0.6336536407496739,-2.099957466171574
1684002792217957800,10.325358154296875,-0.9179004432037335,0.5373668669524788,-1.9146915674366827
1684002792227999900,10.335400390625,-0.8067312239181285,0.512292862081093,-1.524007201260968
1684002792238042000,10.3454423828125,-0.7337582110419251,0.6018114090075575,-1.0380245447218606
1684002792248084100,10.355484619140626,-0.5134960414162135,0.7415752410764054,-0.5291953085370218
1684002792258126300,10.365526611328123,-0.19366891664420363,0.9193334579339659,-0.09841752049454298
1684002792268168400,10.37556884765625,0.13784933091368898,1.0792341230676192,0.21154522901929287
1684002792278210600,10.38561083984375,0.2670196891413338,1.0481758118415072,0.43168210979900595
1684002792288252600,10.395653076171875,0.20414373281686185,0.79740142822447,0.42088651651390846
1684002792298294600,10.405695068359377,0.0595575794793609,0.473421096868376,0.2602279186855693
1684002792308336800,10.4157373046875,-0.04921654229970235,0.15363407123605977,-0.04050660138104609
1684002792318378900,10.425779296875,-0.1272817699973862,-0.11586761470363878,-0.38624000558031174
1684002792328421000,10.435821533203123,-0.15596768270839595,-0.2034120560990971,-0.7113862037829343
1684002792338463400,10.44586376953125,-0.20461446033982417,-0.209836959856814,-0.9517402648956962
1684002792348505600,10.455906005859376,-0.29219952224332923,-0.2502374648752802,-1.222785949684376
1684002792358547600,10.465947998046875,-0.40877875680686837,-0.31540298456305466,-1.432453751495582
1684002792368589700,10.475990234375,-0.45346751801834995,-0.427283286980863,-1.503432631479792
1684002792378631900,10.4860322265625,-0.4442845582748855,-0.5407447816184917,-1.5895273686023546
1684002792388674000,10.496074462890626,-0.3469800353456025,-0.6341056824374569,-1.689664125511142
1684002792398716100,10.506116455078123,-0.23831528418565523,-0.6832447052804321,-1.7405101062316057
1684002792408758200,10.51615869140625,-0.17493605627881448,-0.7383441925104061,-1.6942065954246002
1684002792418800300,10.52620068359375,-0.018735706863349123,-0.7396020889795337,-1.5369011163435988
1684002792428842400,10.536242919921875,0.15779584639969532,-0.6866693496497941,-1.344687938745681
1684002792438884600,10.546284912109376,0.3230686186788171,-0.5716276167758176,-1.0708215237842087
1684002792448926900,10.556327392578124,0.5135530233693638,-0.4391164780077282,-0.7689428329875417
1684002792458969000,10.566369384765624,0.7078416347238716,-0.1836452483398436,-0.4335649014204804
1684002792469011100,10.57641162109375,0.9121245145671447,0.04134368900788568,-0.04645562156509979
1684002792479053200,10.58645361328125,1.0942156313649543,0.1593170167035969,0.25810098635686374
1684002792489095300,10.596495849609376,1.0848326683389873,0.17274379735855847,0.5154840945111422
1684002792499137500,10.606537841796875,0.9432684182932572,0.17010593427704584,0.7488527299359287
1684002792509179600,10.616580078125,0.8074353934591934,0.18947505960446087,0.8689591884586436
1684002792519221600,10.6266220703125,0.8059341310847704,0.20930576326176925,0.8424122334722133
1684002792529263800,10.636664306640624,0.8603063822946605,0.2465934753079833,0.6202790736004613
1684002792539305900,10.646706298828123,0.9145599008308642,0.26352500914965143,0.32399106027038255
1684002792549348000,10.65674853515625,1.0443611143558498,0.21953105932977035,0.07117438312875675
1684002792559390400,10.666790771484376,1.0975993870171608,0.20744991303032145,-0.12719535823097533
1684002792569432600,10.6768330078125,1.0338813065776475,0.1859731674206226,-0.2346127033030699
1684002792579474600,10.686875,0.7572684287833918,0.30291843410026426,-0.4098205565733007
1684002792589516600,10.696917236328124,0.536738217036726,0.4026842118130359,-0.5409116745096635
1684002792599558800,10.706959228515624,0.3713723422384658,0.4423465728473619,-0.6066639423921261
1684002792609600900,10.71700146484375,0.1558730601887542,0.4173049928052509,-0.6620411871194894
1684002792619643100,10.72704345703125,-0.1037479639709539,0.32034111024326767,-0.6808664797710969
1684002792629685200,10.73708544921875,-0.3858639001697586,0.1846437456151862,-0.6968150139901471
1684002792639727300,10.747127685546875,-0.7133953572965535,0.02182769785132198,-0.6906995773619434
1684002792649769400,10.757169677734376,-1.0312026739436229,-0.09200668335530757,-0.6835045813689903
1684002792659811600,10.7672119140625,-1.385390758488862,-0.20282363895050753,-0.6935338973725312
1684002792669853600,10.77725390625,-1.5731059312632416,-0.4094686508105779,-0.5846121311331784
1684002792679896000,10.78729638671875,-1.5307215451362106,-0.5213079453795264,-0.467379569961979
1684002792689938100,10.79733837890625,-1.1677341461474877,-0.6694192886190392,-0.45123648630090035
1684002792699980200,10.807380615234376,-0.6448005436788524,-0.740064621131241,-0.5184555055120417
1684002792710022300,10.817422607421875,-0.2661321163551838,-0.779953956570452,-0.5044543744408092
1684002792720064400,10.82746484375,-0.010219931729178969,-0.790747642558779,-0.34122562405362095
1684002792730106600,10.8375068359375,0.05729150774377744,-0.7220592498534331,-0.16158294691671002
1684002792740148600,10.847549072265624,0.06629991518474977,-0.5336008072446797,-0.013715267165410844
1684002792750190800,10.857591064453125,-0.022414445920003592,-0.3769912719995082,0.26181936273181483
1684002792760232900,10.86763330078125,-0.1173864602897309,-0.20979595179009575,0.40742254254253146
1684002792770275000,10.87767529296875,-0.17325043695025405,0.029839515815193875,0.5083723067430141
1684002792780317100,10.887717529296877,-0.13889288894525187,0.14387607587460732,0.5333628653781798
1684002792790359200,10.897759521484376,-0.03928828253766662,0.22682571418301584,0.41119146339680823
1684002792800401600,10.907802001953126,0.15593731416154993,0.23701572414785993,0.14913988119979568
1684002792810443600,10.917843994140624,0.3778831958358242,0.30425453194631996,-0.11343002324282078
1684002792820485800,10.92788623046875,0.5056728124236657,0.32843112955960424,-0.3956398963804325
1684002792830527900,10.93792822265625,0.5625411273113912,0.3787641524314881,-0.6026287079760868
1684002792840570000,10.947970458984376,0.657774686764438,0.5340909957757024,-0.7371737956578217
1684002792850612100,10.958012451171877,0.8455053566718225,0.6412372588180065,-0.7903990746482786
1684002792860654300,10.9680546875,1.0317294598589017,0.683465004027874,-0.755928039523631
1684002792870696400,10.9780966796875,1.1966347693814636,0.7346467970762428,-0.7113394738617757
1684002792880738600,10.988138916015624,1.3323926926157126,0.7945947647419789,-0.6023974418024426
1684002792890780600,10.998180908203125,1.4789710046427293,0.7989473344128752,-0.5463833808352243
1684002792900822600,11.00822314453125,1.6109760999415574,0.8414978980968811,-0.4951624869040037
1684002792910864800,11.01826513671875,1.6383577585407185,0.8606553077423861,-0.39591455464693154
1684002792920906900,11.028307373046877,1.593228697745848,0.8305268287664066,-0.32056236275462757
1684002792930949300,11.038349609375,1.4347848892694095,0.6770458222483907,-0.3077354432809212
1684002792940991400,11.048391845703126,1.2014766931120002,0.47624587995414197,-0.29166316985254903
1684002792951033600,11.058433837890624,0.9011273383568,0.40875053403435346,-0.31688070297156434
1684002792961075600,11.06847607421875,0.6000581980418566,0.3561944963197512,-0.32226037985809747
1684002792971117700,11.07851806640625,0.5063354968224505,0.3224544525211676,-0.32257080085276435
1684002792981159900,11.088560302734376,0.43535959708289407,0.17611789696510263,-0.46259212498083735
1684002792991202000,11.098602294921877,0.24464619168205648,-0.00818347938681392,-0.36609315867425485
1684002793001244100,11.10864453125,-0.15023696430819056,-0.18972778315022967,-0.35457086568025215
1684002793011286200,11.1186865234375,-0.7422653437941052,-0.4214010238755953,-0.27070617681425385
1684002793021328300,11.128728759765623,-1.173920750531369,-0.6057558060448289,-0.21473979968059123
1684002793031370400,11.138770751953125,-1.1819921733053653,-0.5851116181272846,-0.25225782383330403
1684002793041412800,11.148813232421874,-1.06562650205492,-0.433158874460837,-0.33726263050962696
1684002793051454900,11.158855224609376,-1.0171859264721834,-0.3673133848769458,-0.29339361182730894
1684002793061497000,11.1688974609375,-1.0700149535360046,-0.39282321911343404,-0.12423181532183715
1684002793071539100,11.178939453125,-1.1306763887152818,-0.33195304852397306,-0.055086612676549546
1684002793081581200,11.188981689453126,-0.9980367421504039,-0.10762405394617466,-0.35373783112060536
1684002793091623300,11.199023681640623,-0.6521539688849615,0.011927604825246905,-1.1072235106355284
1684002793101665500,11.20906591796875,-0.14473724357387333,-0.19354820251130886,-1.962855339060166
1684002793111707600,11.21910791015625,0.2209569217613774,-0.3498506546448873,-2.651676654797279
1684002793121749600,11.229150146484375,0.44111526009606133,-0.327857971206978,-3.0299539565672315
1684002793131791800,11.239192138671877,0.5571405887245023,-0.22674465176904876,-3.17602038382896
1684002793141833900,11.249234375,0.5580819845288228,-0.2179050446785168,-3.1310834883638954
1684002793151876000,11.2592763671875,0.4099826813462587,-0.5540876388416742,-3.0156869889743847
1684002793161918100,11.269318603515623,0.08147323136879293,-1.2799539566172111,-2.6956360339834573
1684002793171960600,11.27936083984375,-0.31990337390629653,-2.249420166064606,-2.0216901303515327
1684002793182002600,11.289403076171874,-0.6728500127906845,-3.1696138382024994,-0.9782705307286306
1684002793192044600,11.299445068359375,-1.023116707915615,-3.715560913137552,-0.03657627110188553
1684002793202086800,11.3094873046875,-1.214554786681776,-3.7416906356603645,0.4365525246561783
1684002793212128900,11.319529296875,-0.993085026635398,-2.9325227737774977,0.4437203407257527
1684002793222171100,11.329571533203126,-0.3041536809513434,-1.6036739349175515,0.24147558201464575
1684002793232213200,11.339613525390623,0.5608435868327636,-0.35389804855172674,-0.04932880391360258
1684002793242255300,11.34965576171875,1.2522848843427818,0.6619863510369994,-0.41821813570935046
1684002793252297400,11.35969775390625,1.7148951292091954,1.2652988434966732,-0.598396062907998
1684002793262339600,11.369739990234375,1.999990582299083,1.4705719947665985,-0.5372657775221092
1684002793272381600,11.379781982421877,2.134062528543388,1.4619259834023992,-0.37609338763985917
1684002793282423600,11.38982421875,2.111948966931975,1.3693141938843068,-0.29494619374554576
1684002793292465800,11.3998662109375,2.084745407077299,1.2283101082660304,-0.3989727496127864
1684002793302508000,11.409908447265623,2.060935020399265,0.9767313003278423,-0.47893786417035344
1684002793312550300,11.41995068359375,2.0548582076556334,0.6829280852499715,-0.3801808356875518
1684002793322592400,11.429992919921874,2.0051994323789604,0.351272582970179,-0.04397130018955591
1684002793332634600,11.440034912109375,1.8418782947488483,-0.050792694133401074,0.29564166067427666
1684002793342676600,11.4500771484375,1.6047835351164488,-0.2663764954798545,0.5134656430195872
1684002793352718800,11.460119140625,1.2839057445446114,-0.1699981688776512,0.5614197255518154
1684002793362760900,11.470161376953126,0.9987013936532394,-0.053963661055010936,0.38467288024380925
1684002793372803000,11.480203369140623,0.7911522984103014,0.009835243245459233,0.19658541678719715
1684002793382845100,11.49024560546875,0.6553027033630016,0.11459827425958659,0.048636674833429934
1684002793392887200,11.50028759765625,0.6410735248840849,0.20538806920455613,0.01649713516065715
1684002793402929300,11.510329833984375,0.7541449666037339,0.2708053587618883,0.07096242913514951
1684002793412971400,11.520371826171877,0.8993238807854765,0.24238586425936387,0.22301626199513253
1684002793423013600,11.5304140625,0.9662662744580185,0.31235504150822974,0.382947206555624
1684002793433055600,11.5404560546875,1.050431251481429,0.24941253660337148,0.6540572644429913
1684002793443098000,11.55049853515625,1.1870677472100528,0.20424556721858178,0.9257855415233796
1684002793453140100,11.56054052734375,1.3476552962991881,0.38185596478045936,1.1328279973033517
1684002793463182300,11.570582763671876,1.4691584110835407,0.5685300826566307,1.2352685927558755
1684002793473224400,11.580624755859375,1.5162086487483502,0.734672546419099,1.2136809825731598
1684002793483266600,11.5906669921875,1.4349730014306321,0.7868118286661436,1.086062669646545
1684002793493308600,11.600708984375,1.2545814514877918,0.5631122590912403,0.8319461345976729
1684002793503350600,11.610751220703126,1.0833299159724878,0.3821048735427878,0.5240097047171197
1684002793513392800,11.620793212890623,0.9700738788355313,0.2531652450498316,0.21494865429704701
1684002793523434900,11.63083544921875,0.8944799901110985,0.18579673757197404,-0.059002876385893584
1684002793533477000,11.64087744140625,0.8552542924814743,0.1753091812339251,-0.3138592242738289
1684002793543519200,11.65091943359375,0.8316580058476195,0.15968227389294443,-0.45114111885389985
1684002793553561300,11.660961669921877,0.8670017719591308,0.05791759487821863,-0.501722812649663
1684002793563603400,11.671003662109374,0.9003581404877159,-0.04585170739712636,-0.4364717006949431
1684002793573645700,11.681046142578126,0.9202076195360853,-0.07711505907053677,-0.28333091724890946
1684002793583687900,11.691088134765623,0.9406020045173933,-0.0670652389302121,-0.03289222721963477
1684002793593730000,11.70113037109375,0.9366845489409241,0.143899917596333,0.25185275068783847
1684002793603772100,11.71117236328125,1.0350005627172496,0.3306903838320167,0.4513628482490714
1684002793613814200,11.721214599609375,1.1678838729882342,0.42853736876278553,0.6533706189535397
1684002793623856300,11.731256591796877,1.3789889812690523,0.45156955723352354,0.8638236521648854
1684002793633898400,11.741298828125,1.5829699039892113,0.47146606430579063,1.029486894605906
1684002793643940600,11.7513408203125,1.773787021570732,0.48818492891280063,1.1498851776105286
1684002793653982600,11.761383056640623,1.8876957893867394,0.5017032622620455,1.155276298430442
1684002793664024800,11.771425048828124,1.95512342454204,0.4807558059513022,1.2240018844116527
1684002793674066900,11.78146728515625,1.9445772171400681,0.39671421046856464,1.1288144589329796
1684002793684109000,11.79150927734375,1.8982784747977677,0.22373104101607907,0.9928891659201206
1684002793694151100,11.801551513671876,1.8576450348339364,0.11507034288022708,0.7528111933250944
1684002793704193500,11.81159375,1.7865855693233843,0.018262863042444826,0.5267548560758721
1684002793714235600,11.821635986328126,1.6851522921870927,-0.15255260450853647,0.35568928723253534
1684002793724277600,11.831677978515623,1.5712435245875833,-0.32310676578173037,0.23474931726243248
1684002793734319800,11.84172021484375,1.4173989294913443,-0.4694595336828637,0.14242935166699744
1684002793744361900,11.85176220703125,1.2955901622520576,-0.5176887513972742,0.03557896611318373
1684002793754404000,11.861804443359375,1.2177393435881514,-0.4799900054852145,-0.10008478162701856
1684002793764446100,11.871846435546876,1.1503670215664634,-0.4259338377999211,-0.20027565955487392
1684002793774488200,11.881888671875,1.103627920200287,-0.451027870028932,-0.3914189338757432
1684002793784530400,11.8919306640625,1.0419356822692893,-0.2944717406848244,-0.6747541427764099
1684002793794572500,11.901972900390623,0.9055492877719203,-0.20958423619174016,-0.781740665345119
1684002793804614600,11.912014892578124,0.8520030380518389,0.0307464599261275,-1.013511657563342
1684002793814656600,11.92205712890625,0.7752521634353388,-0.06385135654905734,-1.0103828906287549
1684002793824698800,11.93209912109375,0.7161133290301661,-0.07744026175154936,-1.0035512446859192
1684002793834740900,11.942141357421876,0.6890041233157665,-0.05814933773319715,-1.0294454098225514
1684002793844783000,11.952183349609374,0.731170117886095,0.11568737034064111,-1.0142505167909366
1684002793854825400,11.962225830078124,0.856877148142164,0.3359346389301131,-0.9828722475864082
1684002793864867600,11.972267822265623,0.935351491059628,0.36605930315045093,-0.9639842509026281
1684002793874909600,11.98231005859375,0.9212520122375653,0.059315681283453,-0.8904871940576181
1684002793884951700,11.99235205078125,0.9041095973423683,-0.2721147536314648,-0.7191741466222604
1684002793894993800,12.002394287109375,0.9303980468557299,-0.19124031061708735,-0.4242391585454823
1684002793905036000,12.012436279296876,0.926471173594687,-0.027227401591600118,-0.17837381356636622
1684002793915078100,12.022478515625,0.7903858422161231,-0.06954574581264425,-0.06351280226004634
1684002793925120200,12.0325205078125,0.5070142745896065,-0.34995555860324407,-0.23586297028484787
1684002793935162300,12.042562744140625,0.24874001737796522,-0.3272409440457003,-0.36238241201283655
1684002793945204400,12.052604736328124,0.0451823769678726,-0.18667697894836416,-0.46892118455062676
1684002793955246600,12.06264697265625,-0.12469707433031599,0.02514266969088711,-0.5798635482609793
1684002793965288600,12.07268896484375,-0.26975798609311846,0.05928421027677857,-0.5940542221313686
1684002793975330700,12.082731201171876,-0.41283687955156956,0.062285423238472165,-0.6136662960329489
1684002793985372800,12.092773193359376,-0.4493665693673616,0.09717845913278556,-0.6052482126610643
1684002793995415200,12.102815673828124,-0.2548415362253396,0.05877685554227419,-0.4589176178256707
1684002794005457300,12.112857666015625,0.06984791172021398,-0.11730194086959662,-0.392275333381298
1684002794015499400,12.12289990234375,0.387406468399854,-0.2802505493579402,-0.3545687198072154
1684002794025541600,12.13294189453125,0.7065871952848838,-0.4159355165226814,-0.23609018329087364
1684002794035583600,12.142984130859375,0.9852685332392138,-0.5627021790774938,-0.05383014693559212
1684002794045625800,12.153026123046876,1.2193468807773644,-0.5869951248247987,0.13894224152557932
1684002794055667900,12.163068359375,1.3958792687344095,-0.31277751917785895,0.31236386303474467
1684002794065710000,12.1731103515625,1.4902679919843669,0.16335773470966622,0.41996574404729237
1684002794075752100,12.183152587890625,1.507202506057911,0.5662288667486196,0.5666816234251452
1684002794085794200,12.193194580078124,1.4265745877048985,0.6954908371356927,0.757326841426185
1684002794095836300,12.20323681640625,1.2504005432026586,0.7596158980400277,0.9488437175135355
1684002794105878400,12.21327880859375,1.1076993941721376,0.7156696319518011,1.1050488948281565
1684002794115920600,12.223321044921876,1.0201998947707283,0.5755100250053891,1.2535846233207188
1684002794125962600,12.233363037109376,0.9063805342931676,0.45147991177349805,1.2578880785686706
1684002794136004800,12.2434052734375,0.7526900768257815,0.28159618372403916,1.0949115752235599
1684002794146047200,12.253447509765625,0.5852852462715824,0.09727764122079872,0.8447055816661129
1684002794156089300,12.26348974609375,0.5308707951811347,0.09721374516900327,0.4420261381564353
1684002794166131400,12.27353173828125,0.5974091887072503,0.09521198267864732,0.12782883659724975
1684002794176173600,12.283573974609377,0.7442103623265334,0.14390373217637747,-0.06912422178169994
1684002794186215600,12.293615966796876,0.947981715144793,0.21444988255113107,-0.1564295291791692
1684002794196257600,12.303658203125,1.1071838139850128,0.029959678656494976,-0.12181568155848911
1684002794206299800,12.3137001953125,1.230789542302834,-0.1748256681982597,-0.07281255718009409
1684002794216341900,12.323742431640625,1.2482335567680927,-0.21850776684254963,-0.01712322248300449
1684002794226384000,12.333784423828124,1.1659936905463155,-0.24732112882912843,0.061405658748979415
1684002794236426200,12.34382666015625,1.0246064662142942,-0.14204597477626638,0.0786342621012365
1684002794246468300,12.35386865234375,0.8780746461343651,-0.05850219712122233,0.12468028061393255
1684002794256510400,12.363910888671874,0.8673357963148641,0.022084236292694744,0.21507716185772474
1684002794266552600,12.373952880859376,0.8641549348362721,0.11362934094341835,0.2695937155830293
1684002794276594600,12.3839951171875,0.8652628660014958,0.25887775422278825,0.263682842122139
1684002794286636600,12.394037109375,0.8451490402088552,0.3862800598088027,0.19097495080152663
1684002794296679100,12.40407958984375,0.8227930665247642,0.4415340422887335,0.11561894420530763
1684002794306721200,12.41412158203125,0.8872771262568494,0.4872064591014396,0.11032986646303297
1684002794316763300,12.424163818359377,0.8859877585660766,0.3898191453206345,0.06831812862221037
1684002794326805400,12.434205810546874,0.8266517521132704,0.03556537615742302,0.12984156615671105
1684002794336847600,12.444248046875,0.7977869511713396,-0.07813358324620875,0.1611745356302422
1684002794346889600,12.4542900390625,0.8468105793804448,-0.04746818546107967,0.2004411219371593
1684002794356931800,12.464332275390625,0.8748778700300582,0.07700824733638939,0.1973245145012454
1684002794366973900,12.474374267578124,0.965586900729187,0.17294597627138975,0.30852413176106586
1684002794377016000,12.48441650390625,1.1053566932318601,0.20413494121573555,0.4798290729577656
