time,seconds_elapsed,z,y,x
1683999073090565300,0.032965576171875,-9.59560010458141e-11,1.2000650269572072e-10,-7.933415406983726e-11
1683999073100607200,0.043007568359375,-0.25395965564234574,0.2601809501977252,-0.8628129960078766
1683999073110649300,0.053049560546875,-0.5792322158968114,-0.10675668730396967,-1.47311973566317
1683999073120691400,0.063091796875,-0.6053624152941841,-0.692356109667145,-1.0230979919244443
1683999073130733600,0.0731337890625,-0.3420839309803289,-0.3562437295050739,-0.5901021955645898
1683999073140775300,0.08317578125,-1.3825817107714928,-0.24198663238486257,-0.27165699010695704
1683999073150817500,0.0932177734375,-2.335617065437441,-0.5515017509457693,-0.2364006041965522
1683999073160859600,0.103260009765625,-2.5503897667328292,-1.227477908057145,-0.39194250103179223
1683999073170901600,0.113302001953125,-2.461597204182582,-0.9285393953353617,-0.29684782030219553
1683999073180943600,0.123343994140625,-2.111166000249847,-0.6035251617684869,-0.2754125596784527
1683999073190985600,0.133385986328125,-0.5719685553649976,-0.2179578541597014,-0.5767903329079553
1683999073201027800,0.14342822265625,1.1301875113244764,0.9556782840515954,-1.4026713370689314
1683999073211069900,0.15347021484375,0.5782194137766685,0.7542368768581965,-0.8842124938882142
1683999073221111600,0.16351220703125,-0.5163087846010876,0.3669159411931241,-0.5928173064861658
1683999073231153800,0.17355419921875,-0.6062474249469422,0.4253101348682553,-0.8488988876418012
1683999073241196000,0.183596435546875,-0.4186739921945708,0.3784167765122594,-1.0048780439777973
1683999073251238100,0.193638427734375,0.3012146949700122,0.0723006725274145,-1.80906867973963
1683999073261279900,0.203680419921875,1.0122022629405585,0.17193794235565973,-1.7531247137011332
1683999073271322000,0.213722412109375,0.9510221482113815,-0.31586730467334034,-0.5161757468965512
1683999073281364100,0.2237646484375,1.801053524117624,-1.050595283489898,-1.3144068717948834
1683999073291406000,0.233806396484375,1.7212858200633685,-1.0898802281697066,-2.1645627023040257
1683999073301448100,0.2438486328125,2.369762897456759,-1.2989077567709892,-1.9053850173945146
1683999073311490200,0.253890625,3.0317583083915833,-2.2616577149656,-1.9765052796113116
1683999073321532300,0.2639326171875,2.906332015914057,-1.9598124027920096,-1.6204166412629257
1683999073331574200,0.273974609375,2.998295307126015,-1.572731256587906,-1.210209369619738
1683999073341616300,0.2840166015625,2.5926790237411157,-1.7556383609824582,-0.8083043098978269
1683999073351658400,0.294058837890625,1.9534411431014098,-1.9852540492811377,-1.074973106484524
1683999073361700600,0.304100830078125,1.3017272949403984,-1.5097932816647084,-1.1851325035640716
1683999073371742400,0.314142822265625,0.6430664063922437,-1.062532186354173,-1.2449359894328116
1683999073381784600,0.324184814453125,0.11432504658643415,-0.7818586826262955,-1.2481794356699516
1683999073391826600,0.33422705078125,0.04980421055470855,-0.6367590427809985,-1.1340065000901765
1683999073401868500,0.344268798828125,0.4797253610136667,-0.42614984512494336,-1.0110492705789416
1683999073411910600,0.35431103515625,1.1849017144495053,-0.2410366536490745,-1.0105509759181859
1683999073421952600,0.36435302734375,1.6999163628143974,0.0025467873493402607,-1.1185488700958874
1683999073431994800,0.374395263671875,1.970640659454253,0.27937149992495786,-0.6734871865599581
1683999073442036600,0.38443701171875,2.1076679229788664,0.1372184752118496,-0.26254796986058226
1683999073452078800,0.394479248046875,2.009834766367368,0.16921234133422805,0.3639402387946492
1683999073462120900,0.404521240234375,1.805625438688505,0.3282358647028144,0.6193199156605177
1683999073472163000,0.4145634765625,1.3538217544779705,0.2339103222066057,0.4310693740843021
1683999073482204800,0.424605224609375,1.0916783808738026,0.056128978828608206,-0.04181480393411562
1683999073492247000,0.4346474609375,0.861409902628062,-1.591178893922325,-2.2077574729510356
1683999073502289100,0.444689453125,1.3415901661557554,0.35858678815466966,-1.0196413994815534
1683999073512331200,0.454731689453125,1.7256345748877078,1.665533304240415,0.5348644257095783
1683999073522373000,0.4647734375,1.5195560455735913,1.5374290941551796,1.1072683334988083
1683999073532415200,0.474815673828125,0.6849262713640148,1.1602590083327133,1.2834177016031678
1683999073542457300,0.484857666015625,-0.24496650705281595,1.1058955191973459,1.5620384215336938
1683999073552499400,0.494899658203125,-1.4957643748516791,1.222727060203783,2.038526535037345
1683999073562541200,0.504941650390625,-2.8797569274388874,1.2159819603707713,2.179058074997669
1683999073572583300,0.514983642578125,-4.478500366057347,1.3806095124629767,1.6451950074246662
1683999073582625500,0.52502587890625,-5.741890907297425,1.951962709425418,1.018212318338906
1683999073592667300,0.535067626953125,-6.69113397599253,2.27395772941332,1.4695138931100513
1683999073602709400,0.54510986328125,-7.925099849696328,2.2810664178292037,2.488371849008253
1683999073612751600,0.55515185546875,-7.091671943606484,1.6477899551076827,2.5101184846041105
1683999073622793600,0.565194091796875,-3.907480716690927,1.5996155738895574,0.8046684265882339
1683999073632835600,0.57523583984375,5.267003059475728,4.080671787206627,-0.8318309784375709
1683999073642877600,0.585278076171875,0.1166774035045895,3.364717245189883,0.31194400791197874
1683999073652919600,0.595320068359375,1.228618860243877,2.7455530166142013,0.7621793746547759
1683999073662961800,0.6053623046875,-0.6117532252845281,1.476027250230119,1.2155580519955425
1683999073673003600,0.615404052734375,-1.3763444424723825,0.9295847416410508,0.6422128676585633
1683999073683045800,0.6254462890625,-0.6183397770335489,1.1980810164315734,-0.2259092329211732
1683999073693087900,0.63548828125,-0.18625900138556742,0.8053610325318066,-1.0464506148958201
1683999073703130000,0.645530517578125,-0.6368936300551906,-0.40361499782913485,-1.4597830773300107
1683999073713171900,0.655572265625,-0.6348134278930005,-1.5700948239993926,-1.4187846184491126
1683999073723214000,0.665614501953125,-0.6112645268177607,-2.0790803433262313,-1.5505809783824023
1683999073733256100,0.675656494140625,-1.0063594579578732,-1.6349213122569488,-0.7780466080233295
1683999073743298200,0.68569873046875,-1.1032035349549247,-1.3169672488927004,0.0567932128476173
1683999073753340100,0.695740478515625,-0.6499035358804676,-1.5048973561987489,0.5133609771992439
1683999073763382200,0.705782470703125,-0.4006081223334196,-1.1931889057333847,0.39640998833297025
1683999073773424300,0.71582470703125,-0.060741692773828924,-0.7181088923944435,-0.2090606689187097
1683999073783466200,0.725866455078125,0.7544683219117947,-0.4665582179945395,-0.7854709624236963
1683999073793508300,0.73590869140625,1.6925359963597129,-1.2135145665475175,-0.7805929185661281
1683999073803550400,0.74595068359375,1.7877373696440841,-2.1525475979650426,-1.1982889174785336
1683999073813592600,0.755992919921875,1.2419295312479401,-2.854237318073085,-1.787604808713179
1683999073823634400,0.76603466796875,0.3384105563451401,-2.7590589523550237,-1.87059783928593
1683999073833676500,0.776076904296875,-0.5412077904972751,-2.118742227474831,-1.9302520751730647
1683999073843718600,0.786118896484375,-0.8331300020025142,-0.9346780776553596,-1.4432334899941692
1683999073853760600,0.7961611328125,-1.4216630458426367,-0.40874528886842626,-0.6132030486955282
1683999073863802600,0.806202880859375,-1.5689529181782456,0.2844998835602079,-0.08777236952748298
1683999073873844600,0.8162451171875,-1.090549707317533,0.9146394731097744,-0.255298614479091
1683999073883886800,0.826287109375,-0.6596740484116934,1.2335510253182136,0.016582489106856856
1683999073893928900,0.836329345703125,-0.5497184395831559,1.0011277199777424,-0.37769699108083443
1683999073903970700,0.84637109375,0.0037644505371286683,-0.06590914730430872,-0.42230701455718933
1683999073914012800,0.856413330078125,0.5441713333121736,-0.25449705128434646,0.027325630174922927
1683999073924055000,0.866455322265625,0.48381358388810614,0.29419112191835484,0.4261999130528506
1683999073934097100,0.87649755859375,0.19048029183048554,0.4982283115652125,0.72878360749017
1683999073944138900,0.886539306640625,0.09894740579581437,-0.14838910085798285,0.3181676863464783
1683999073954181000,0.89658154296875,0.5590289831911783,-0.780500173716399,0.2744464874416181
1683999073964223200,0.90662353515625,0.3902979491942318,-1.3519594668675323,-0.01855182648913144
1683999073974265000,0.91666552734375,0.29892587646852503,-1.7501659393679647,0.3546934126506922
1683999073984307100,0.92670751953125,-0.016282558533328866,-1.7682330608838965,0.22467803964777783
1683999073994349200,0.93674951171875,0.601898789510233,-1.6121046543963375,0.43895435321853715
1683999074004391300,0.946791748046875,0.5955228807210052,-1.8732438085831258,1.859827995236452
1683999074014433200,0.95683349609375,0.2409118414765577,-1.9923000335295333,2.231559753451146
1683999074024475300,0.966875732421875,-0.29315257078117357,-2.0952482223731157,1.7468910215908442
1683999074034517400,0.976917724609375,-1.189598679397711,-2.07583379757881,0.24165725696579315
1683999074044559600,0.9869599609375,-1.7637324333379065,-2.6313343049047693,-0.596610069420159
1683999074054601400,0.997001708984375,-2.307596206615728,-1.9109377861741363,-2.81787014021047
1683999074064643600,1.0070439453125,-2.1582074164143976,-2.645498275740264,-2.2333497999615584
1683999074074685600,1.0170859375,-1.3645181655229979,-2.7854738237161407,-1.5002408028382868
1683999074084727600,1.027128173828125,-0.5401517152052872,-2.3861494063541957,-0.977939128814212
1683999074094769600,1.037169921875,-0.1738011837224221,-2.4223599433149814,0.7798957825064246
1683999074104811600,1.047212158203125,0.49960863590179466,-1.4496598243216023,1.3663692474356508
1683999074114853800,1.057254150390625,0.5844166278382547,-0.6794724462762609,0.7601480483972739
1683999074124895900,1.06729638671875,-0.36362934114838785,-0.713371753777415,-0.24815845493842073
1683999074134937800,1.077338134765625,-1.1552643774671791,0.22802019122603068,-0.6779003143146691
1683999074144979900,1.08738037109375,-1.559408426161453,0.3658909796467771,-0.14627361309349995
1683999074155022000,1.09742236328125,-0.5340824127834193,0.2530579566817608,-0.2977886200412767
1683999074165064100,1.107464599609375,1.9363045692450194,-0.3256702422864048,0.14275360120004385
1683999074175106000,1.11750634765625,4.885083198602748,-0.9186716079391647,0.8399095533828709
1683999074185148100,1.127548583984375,5.69297122957059,-0.7243523598560515,1.0383977889121532
1683999074195190200,1.137590576171875,6.492331981726704,-0.7190766333976498,0.8879566192004335
1683999074205232000,1.147632568359375,5.570248603774596,-0.6222281457459328,0.8031005858985899
1683999074215274200,1.157674560546875,4.881201267148406,-0.5489282607305427,0.3835906982299779
1683999074225316300,1.167716552734375,3.6135339737060925,-0.4517750741477421,0.061383247381641415
1683999074235358400,1.1777587890625,1.6631153821950986,-0.5064849853805079,-1.3168373109384661
1683999074245400200,1.187800537109375,-0.7295718194250358,-0.22295427322364542,-2.9407110214975902
1683999074255442400,1.1978427734375,-1.9441634416360298,-0.2024569511495506,-3.40912199008895
1683999074265484500,1.207884765625,-2.191151142170672,-0.9929842949055875,-2.5887980460918643
1683999074275526600,1.217927001953125,-0.8337616921002543,-1.3451237678835815,-1.6033945082356047
1683999074285568400,1.22796875,1.811453223381972,-1.498449802398452,-0.9999752044636264
1683999074295610600,1.238010986328125,3.0242304800612416,-2.1312699317899226,-1.119801521254065
1683999074305652600,1.248052978515625,3.8949899672281116,-2.768643379151924,-1.4635734559096085
1683999074315694800,1.25809521484375,4.382398605395694,-3.067198753334348,-1.9345788955222798
1683999074325736600,1.268136962890625,3.2363295556048834,-3.430048942699081,-2.587856292676807
1683999074335778700,1.27817919921875,1.3163690566348614,-3.444729328186896,-3.2148594856002664
1683999074345820800,1.28822119140625,-0.17896789314397296,-3.0937829019043277,-3.5041508673161093
1683999074355863000,1.298263427734375,-0.8339640499156673,-2.8857192992612397,-3.0992741584864802
1683999074365904800,1.30830517578125,-2.453474044795564,-2.464172840034831,-1.876187801311984
1683999074375946900,1.318347412109375,-4.166426181769888,-1.5440154073922316,0.2811546325834859
1683999074385989000,1.328389404296875,-2.6860072611082813,-1.1860036850612237,1.4737701417292253
1683999074396030900,1.338431396484375,-0.388769686212202,-0.5733656884185714,1.5850820541428223
1683999074406073000,1.348473388671875,0.7343560456026091,-1.2700757980814954,2.510469436752421
1683999074416115100,1.358515625,1.568710565660421,-1.7939333915774331,2.3643245697159987
1683999074426157200,1.3685576171875,1.2441160678355414,-1.2230286597534963,1.9253950119072085
1683999074436199100,1.378599609375,1.2100840807894433,-0.44074964523682825,1.7376270294312879
1683999074446241200,1.3886416015625,1.5952908992850852,-0.4279017447917718,1.4285707474418219
1683999074456283300,1.39868359375,1.9252234697491075,-0.3185410499561571,1.0691986083086185
1683999074466325400,1.408725830078125,1.6583479643038646,-0.4197196960897584,0.3940515517022862
1683999074476367600,1.418767822265625,1.1833553313522354,-0.8584485052959571,-0.9320621491788442
1683999074486409400,1.428809814453125,1.754808306684856,-0.6089525221439706,-1.3191165923847072
1683999074496451600,1.438851806640625,2.6780121325587736,-0.8819999693487599,-1.1735944748377185
1683999074506493600,1.44889404296875,3.4169077872474896,-0.9383020400532877,-1.2726993561024973
1683999074516535500,1.458935791015625,4.06921100610665,-0.4095191955424698,-0.5808744429680149
1683999074526577600,1.46897802734375,-0.3135668039938083,0.9477949141670333,-0.03002548209004883
1683999074536619600,1.47902001953125,-1.3449239730350646,2.125280857223621,1.0365071296141057
1683999074546661800,1.489062255859375,-0.6123964189962269,3.3917639256848657,2.0917019844569373
1683999074556703600,1.49910400390625,-0.18240749830585118,3.3648469448481517,2.12852048888577
1683999074566745800,1.509146240234375,-0.4384331703104943,2.6412823200204336,1.4816899299257837
1683999074576787900,1.519188232421875,-1.0838803052355885,2.4090023040587014,1.098350524953607
1683999074586830000,1.52923046875,-1.3478544949572626,2.435789585129085,0.8982605934743965
1683999074596871900,1.539272216796875,-1.1448107958197955,2.3423235416724304,0.3708114623738297
1683999074606914000,1.549314453125,-0.7073806525058188,1.8688082694327164,-0.07858657854447133
1683999074616956100,1.5593564453125,-0.42201095820871304,1.605703830683738,-1.56549167625438
1683999074626998200,1.569398681640625,-0.6573692560014167,1.6420526504781356,-2.384118080278615
1683999074637040000,1.5794404296875,-0.7063527107829484,1.4573855400013165,-2.1952171325848955
1683999074647082200,1.589482666015625,-0.7383106947168167,1.3271002769339886,-0.8275995253465146
1683999074657124300,1.599524658203125,-0.773643970538802,1.7535421848251176,0.4017782211492689
1683999074667166400,1.60956689453125,-1.2866233585652729,1.6078975198820205,1.1390085219585815
1683999074677208200,1.619608642578125,-1.1809697150584628,1.225693941098601,2.0551099776490767
1683999074687250400,1.629650634765625,0.04712203147212393,0.17190146464130868,0.6488351821295703
1683999074697292500,1.63969287109375,0.05423960073798418,-0.7719440461659262,0.35041713718597944
1683999074707334600,1.64973486328125,0.1681984811997741,0.19637990005049102,0.7006187437163385
1683999074717376400,1.65977685546875,0.5463234186240807,1.1611576079823478,0.9837818145095953
1683999074727418600,1.66981884765625,1.3838850261157662,1.1013162134979206,1.8554315567111037
1683999074737460600,1.679861083984375,1.6873329878741028,-0.19288873676444354,1.1820516584618272
1683999074747502600,1.68990283203125,1.0690330267254127,0.018928766301194628,0.2788991928538574
1683999074757544600,1.699945068359375,-0.7087362407212533,0.2818596362340331,-0.5873708725086565
1683999074767586700,1.709987060546875,-1.5298905372613856,-0.699278354784384,-1.319340705821068
1683999074777628800,1.720029296875,-1.0286444424189474,-1.7100050450307782,-0.9744052887682809
1683999074787670600,1.730071044921875,-1.0516599416911663,-2.4972686766214474,-0.757788658064429
1683999074797712800,1.74011328125,-2.516142368253643,-1.6848111151452496,-1.6799492834923169
1683999074807754900,1.7501552734375,-3.4349520204661608,-0.38138985635784217,-1.3979306222177699
1683999074817797000,1.760197509765625,-1.6258631944767779,-0.9837586880721199,0.12544250494515025
1683999074827838900,1.7702392578125,-0.6719117761359507,0.3771457670838492,-0.6376428604665092
1683999074837881000,1.780281494140625,1.4934008122521871,1.5758568049773596,-0.8423280716567666
1683999074847923100,1.790323486328125,5.255561828629921,1.2026796341638162,0.5986690521852402
1683999074857965200,1.80036572265625,3.181307077367628,1.033111333820999,0.7546844482120465
1683999074868007100,1.810407470703125,1.0455343723316666,0.7933175562820992,-0.3754520415919964
1683999074878049200,1.82044970703125,1.9824965000934163,0.5683805941482407,-1.1727762221349207
1683999074888091300,1.83049169921875,0.9942727088031522,-0.3139452934578323,-1.7549409866438788
1683999074898133400,1.840533935546875,0.1672173142694911,-1.590903759101286,-1.1314916610092678
1683999074908175300,1.85057568359375,-1.4479212761578588,-1.9838533401805578,-1.591260433190547
1683999074918217400,1.86061767578125,-1.8478281498424562,-1.4002261162370833,-2.904734611388666
1683999074928259600,1.870659912109375,0.15431112044564999,0.10574221619739246,-3.72677421587222
1683999074938301600,1.880701904296875,-1.568719148751713,-0.6720418930482038,-0.4269466399734505
1683999074948343500,1.890743896484375,-2.1751396655727238,0.09708189954990225,-0.17625617973774407
1683999074958385600,1.900785888671875,-1.5938940049793797,-0.07289075843555962,0.4315395354348129
1683999074968427600,1.910828125,-1.3379268646798228,-1.2394828796571968,1.70956039428117
1683999074978469600,1.920869873046875,-0.7016446589780685,-1.4640510081792537,1.4933500290915582
1683999074988511600,1.930912109375,-0.2753170430580907,-2.4747054577418215,1.8247880935810665
1683999074998553800,1.9409541015625,0.10620509087991277,-2.7214767934228754,1.7532644271932465
1683999075008595900,1.950996337890625,0.5005778074562409,-2.0264203547341504,0.850806236289906
1683999075018637700,1.9610380859375,0.7651923894234486,-1.0564644337081912,-0.06840705871090816
1683999075028679900,1.971080322265625,0.9496842025799455,-0.4797925949601318,-0.8660154343566275
1683999075038722000,1.981122314453125,0.47993600376508716,-0.1481423377502146,-1.6142172813844038
1683999075048764100,1.99116455078125,0.26842117294883444,-0.29671525947681443,-0.8657579421362389
1683999075058805900,2.001206298828125,0.08406066884824756,-0.6587095260904556,-0.153206825255806
1683999075068848000,2.01124853515625,0.11010241511408647,-1.0805377960369966,0.9134626389363824
1683999075078890200,2.02129052734375,0.5273815989095859,-1.0816044806564415,1.6207065583124014
1683999075088932300,2.031332763671875,-0.41485005608013703,-0.9166398048135127,1.877830505350033
1683999075098974100,2.04137451171875,-1.3918933868791263,-0.892157077712517,2.239480018689365
1683999075109016200,2.051416748046875,-1.2727302313788327,-0.261144638147629,0.9614953996410839
1683999075119058400,2.061458740234375,-1.4959768057285583,-0.1782364844595235,0.8444156646843582
1683999075129100500,2.0715009765625,-2.2276513576451515,0.06545972822464961,0.7632875441307376
1683999075139142300,2.081542724609375,-2.4119203089272867,-0.5834708214062804,0.10216140743689255
1683999075149184400,2.091584716796875,-1.8681160212792078,-0.43535995481745743,1.6297454833098186
1683999075159226600,2.101626953125,-0.6246038675566585,0.41243839267497096,3.087902069258321
1683999075169268600,2.1116689453125,0.3267569542145197,0.5322365759259323,3.5239725113654967
1683999075179310600,2.1217109375,0.8249278067492992,-0.06506443027800711,2.8466567993917566
1683999075189352600,2.1317529296875,0.9318768978349072,-0.7429127693314496,2.2781410217640246
1683999075199394700,2.141795166015625,1.1941132544577677,-1.1915493011450675,2.196974754312071
1683999075209436800,2.151837158203125,1.9701752662753083,-1.0236163140565606,2.179105758622775
1683999075219478600,2.161879150390625,2.763163566634214,-0.6587023733928724,2.6845769881261106
1683999075229520800,2.171921142578125,2.42155694963104,-0.05272817616349732,3.100425720219037
1683999075239562900,2.18196337890625,1.6283019781184813,0.6382436753171851,3.3701076506564176
1683999075249605000,2.19200537109375,0.09623660149156425,1.3171362877205426,2.7382020951910566
1683999075259646900,2.20204736328125,-1.383461356109478,1.6484971046672363,1.4300937651535004
1683999075269689000,2.21208935546875,-2.927504062655721,1.8399069309825258,-0.6209368705812836
1683999075279731100,2.222131591796875,-1.3429474829024721,0.9394583701912769,-0.7930951117776734
1683999075289773000,2.23217333984375,0.15088441949807865,0.543118476992079,-1.1902298926354293
1683999075299815100,2.242215576171875,1.173259973545185,0.7874379157104052,-1.315297126721366
1683999075309857200,2.252257568359375,1.1590297223772996,0.6913414001346551,-1.3198757170512347
1683999075319899300,2.2622998046875,0.6173442601620037,-0.1868247987091461,-1.901000022866561
1683999075329941200,2.272341552734375,-0.015517257054078552,-0.9310965537070355,-2.2546758651592493
1683999075339983300,2.2823837890625,-0.7701253891646241,-0.9590516091853598,-2.060156345309349
1683999075350025400,2.29242578125,-1.3096208572548642,-0.6806731224354242,-1.9870290755187705
1683999075360067600,2.302468017578125,-1.5389044285220799,-0.03987407674843733,-1.8477473259014092
1683999075370109400,2.312509765625,-1.5262277126043662,0.6573925018409488,-1.2149162292470068
1683999075380151500,2.3225517578125,-1.5458047388559575,0.2189931869893028,-0.9493923187154822
1683999075390193600,2.332593994140625,-1.525241851804343,-0.22041416170829187,-0.883464336474646
1683999075400235600,2.342635986328125,-0.46203625208909077,-0.6207752229309937,-2.070219516770906
1683999075410277600,2.352677978515625,-0.07299184796864279,-1.244242668009023,-2.0616736411929466
1683999075420319600,2.362719970703125,-0.5184196234857317,-0.8287324906629262,-1.8125553131061307
1683999075430361800,2.37276220703125,-0.9169785975732374,-0.5845680237655605,-2.765594482436575
1683999075440403900,2.38280419921875,-0.8048729896674627,-0.25978183759736123,-2.586984634447587
1683999075450445700,2.39284619140625,-1.3950760364814416,0.3880696296629691,-1.0315380096726512
1683999075460487900,2.40288818359375,-1.5778822898843843,-0.17754793181546952,0.3790512083327496
1683999075470530000,2.412930419921875,-1.2006927728940007,-1.27637958512004,0.4832401276699512
1683999075480572100,2.422972412109375,-0.8308832644035365,-1.4833426474508795,0.32481098161678934
1683999075490613900,2.433014404296875,-1.4656186103267863,-1.6678094864340642,-0.5155258178444314
1683999075500656000,2.443056396484375,-1.3646481038315172,-1.9445314408444003,-1.1784815789263632
1683999075510698200,2.4530986328125,-0.6061496734377946,-2.606015205239103,-0.20683193194900168
1683999075520740000,2.463140380859375,-0.3712630270544203,-2.4702334405778776,0.03107118589798398
1683999075530782100,2.4731826171875,-1.1585350036314337,-1.541990757039667,-1.0402445794446444
1683999075540824200,2.483224609375,-1.897437334136341,-1.5427470206860845,-2.154437065178003
1683999075550866400,2.493266845703125,-1.6072463988856092,-1.4986820219366543,-2.977494716616526
1683999075560908500,2.503308837890625,-1.04617750660296,-1.3964219093350374,-2.8361134530819694
1683999075570950300,2.513350830078125,-0.8684815168597059,-0.9430522918692263,-3.178009986903225
1683999075580992400,2.523392822265625,0.7185536623451131,-1.678328514120308,-0.7474579811933848
1683999075591034600,2.53343505859375,1.2387251853888284,-0.7009472847353226,0.6764407158022107
1683999075601076600,2.54347705078125,1.6655126811138308,-0.09495639801699413,0.7676405907034323
1683999075611118600,2.553518798828125,4.3731117250279254,-0.3322157860121018,2.3458809853479967
1683999075621160600,2.56356103515625,1.287013530881127,0.09385681146439685,1.866988181948116
1683999075631202700,2.57360302734375,-1.9163488149470451,-0.21082019817816602,1.723921298990536
1683999075641244600,2.58364501953125,-1.8713327647311235,0.34934282315341014,2.7965502738958095
1683999075651286600,2.59368701171875,-2.5434243679140303,0.07056188583469972,2.2281608580006123
1683999075661328800,2.603729248046875,-3.1455321311981974,0.23998308171166288,0.013473987619426609
1683999075671370900,2.613771240234375,-1.6787856816492746,1.3152999878165326,-0.7847728729100703
1683999075681412800,2.623813232421875,-0.6161125898056508,1.746791362745594,-0.3334712983873973
1683999075691454900,2.633855224609375,-0.6704163550068397,1.0343804357877875,-0.1303348541314507
1683999075701497000,2.6438974609375,-0.7896749972852534,0.4289498328234994,-0.19898557670758096
1683999075711539100,2.653939453125,-0.6264152526657439,0.18418550495005873,0.0770454408059045
1683999075721581000,2.6639814453125,0.02905964854809521,0.01938772197542703,0.48677015315670646
1683999075731623100,2.6740234375,0.9384818672699913,-0.22899770728806298,0.7558932304978742
1683999075741665200,2.684065673828125,0.29057443152352236,-0.45879077903589044,1.9451832771547546
1683999075751707300,2.694107666015625,-0.6996016504108045,-0.6357584000245401,2.1794490813611094
1683999075761749200,2.704149658203125,-1.2613761425145673,-0.2879295349259054,1.5236158370201964
1683999075771791300,2.714191650390625,-1.5196847915760896,0.03249883638557542,1.2420797347161259
1683999075781833400,2.72423388671875,-1.70796394354484,0.2631001472117488,0.6651053428317445
1683999075791875600,2.73427587890625,-1.5009303092861475,0.021068096082557254,-0.23401927937347008
1683999075801917400,2.74431787109375,-0.8836050034363979,-0.09259319305975516,-1.2385468484058522
1683999075811959500,2.75435986328125,-0.3433563708884096,0.17772531527967023,-2.43859577180348
1683999075822001600,2.764402099609375,-0.11134743677777172,0.40565681456976416,-2.7882003784441944
1683999075832043600,2.774444091796875,-0.038126468674474855,0.5321431159455133,-2.4212064743951993
1683999075842085600,2.78448583984375,0.3405790330150093,0.6173000336045752,-1.9219837187175142
1683999075852127600,2.794528076171875,0.6558679341371416,0.6650257110263114,-1.3511233331499892
1683999075862169800,2.804570068359375,0.5249031782872384,0.7761769294931895,-0.9882731438326101
1683999075872211900,2.8146123046875,0.29202222831412,0.8838701247243606,-0.8495388030989847
1683999075882253700,2.824654052734375,0.35743904103650953,1.1214962004708753,-1.4193716048968672
1683999075892295900,2.8346962890625,0.5963826179190173,1.2064003944141273,-1.9358658790619343
1683999075902338000,2.84473828125,1.1194628477590929,1.1496214866602943,-1.7830853463474692
1683999075912380100,2.854780517578125,1.5285340548505175,0.8971924783188584,-1.7226319314088054
1683999075922421900,2.864822265625,1.8893382549627051,0.04022741305212977,-2.25004053111429
1683999075932464000,2.874864501953125,2.760297298555891,-0.3384170531700415,-3.5639858244756035
1683999075942506200,2.884906494140625,3.209102153763744,-0.5283846856264927,-3.61839342117769
1683999075952548300,2.89494873046875,3.2682654857002267,-0.43677377701448894,-2.8783316611725343
1683999075962590100,2.904990478515625,3.149368524515323,0.049183368681288725,-1.729641914247958
1683999075972632200,2.91503271484375,2.5230987072637374,0.8096446992519383,-1.4038109779384378
1683999075982674400,2.92507470703125,0.9852659701743759,1.3824152947103023,-1.7138128279676155
1683999075992716200,2.93511669921875,-1.4087760447258648,0.8213787079252883,-2.831093788239719
1683999076002758300,2.94515869140625,-2.902178764332851,0.29758405681649136,-5.1607484815949185
1683999076012800400,2.955200927734375,-3.426694154664597,0.3709716795894019,-4.964413642894861
1683999076022842600,2.965242919921875,-4.690701484739954,0.8804035186860321,-3.418811798136113
1683999076032884400,2.975284912109375,-4.832191467369076,1.967661857506325,-1.8254866598822546
1683999076042926600,2.985326904296875,-4.918448448300809,1.409078121358065,1.89673471457336
1683999076052968600,2.995369140625,-5.275646686601772,0.16711950310310467,5.296216011119392
1683999076063010700,3.0054111328125,-5.397887706840663,-0.520830154518077,7.715869903454783
1683999076073052800,3.015453369140625,-4.030026435889063,0.8834085463946978,7.74607515334931
1683999076083094600,3.0254951171875,-4.436904907145023,0.8478970527614264,8.01497459398923
1683999076093136800,3.035537109375,-3.674032211395568,0.6174373626658045,6.743308067335102
1683999076103178900,3.045579345703125,-2.5806145668577307,0.6695251465458181,4.819714069493002
1683999076113221000,3.055621337890625,-2.6835403442481676,0.7003483771572285,2.641045093617221
1683999076123262900,3.065663330078125,-3.1599926949492523,0.856692314072626,1.2371416092450394
1683999076133305000,3.075705322265625,-3.0130119323668016,0.565437316890172,-0.05890464795167368
1683999076143347100,3.08574755859375,-0.5707114935008086,-0.6978492737308484,0.9603614807218566
1683999076153389000,3.095789306640625,0.19340455528933784,-1.4435529709271298,1.32620000828165
1683999076163431100,3.10583154296875,-0.5848053693927184,-1.536196708622718,0.839326858423046
1683999076173473200,3.11587353515625,-1.621160984068446,-1.0410432816214739,1.5659513473437048
1683999076183515300,3.125915771484375,-1.8231351374975633,-0.41021537784636847,1.92540216439881
1683999076193557200,3.13595751953125,-1.6333308220648108,-0.28380393981650026,2.1427335739129223
1683999076203599300,3.145999755859375,-0.9100139142217829,0.13178443925580766,2.692039489777148
1683999076213641400,3.156041748046875,-0.08765387536621627,0.22941637044096405,2.9945387839618385
1683999076223683600,3.166083984375,0.3270884752168426,-0.8562488555595686,1.8432564734563048
1683999076233725400,3.176125732421875,0.4683774711021311,-2.4855337144467198,0.09390830979629983
1683999076243767500,3.18616796875,0.47558939458112287,-4.219445228603606,-1.033510684905315
1683999076253809600,3.1962099609375,0.6620537042532906,-5.0926914215738925,-1.4408454894512792
1683999076263851600,3.206252197265625,1.1911258696560727,-3.9147133825756972,-2.0060915945508224
1683999076273893600,3.2162939453125,1.7235710621887477,-0.914428234097524,-2.74231505385595
1683999076283935600,3.226336181640625,1.1394786835924775,0.4168167114435418,-2.7615711688871882
1683999076293977800,3.236378173828125,0.43752264989795575,0.5114092826496002,-2.797535419614484
1683999076304019900,3.246420166015625,0.6350696088016159,1.0499482155040964,-3.771165132538312
1683999076314061700,3.256462158203125,0.44408106788893303,1.1698060035827467,-3.9695525169417656
1683999076324103900,3.266504150390625,0.43904161451369017,1.1218700409835722,-4.079993248081629
1683999076334146000,3.27654638671875,0.49400973320939995,0.17663335813260247,-3.58586621279694
1683999076344188100,3.28658837890625,0.9031332730926497,-1.0968961714783962,-3.257577180844521
1683999076354229900,3.29663037109375,1.6690728664805883,-2.3219571114866318,-2.6926388740965863
1683999076364272000,3.30667236328125,2.609026193491593,-2.8005228041575707,-1.9191522597441675
1683999076374314200,3.316714599609375,3.4466042518749886,-2.3560385703159747,-1.5212903021572628
1683999076384356300,3.326756591796875,4.055128097528017,-1.5702495575273352,-1.6837258340071215
1683999076394398100,3.336798583984375,4.260902404906228,-1.092134952464176,-1.3501462935703916
1683999076404440200,3.346840576171875,3.7165687083993895,-0.7395648955931463,-0.36256408689266223
1683999076414482400,3.3568828125,2.6577198505870308,-0.16880083085193479,0.3752279282545313
1683999076424524500,3.3669248046875,1.8139671086728473,0.4161405563003133,0.20357275004342676
1683999076434566300,3.376966796875,1.4411742688594453,0.9306645393111815,-0.08360147493937793
1683999076444608400,3.3870087890625,1.3942611218424867,1.1577882766686336,-0.04247093190332106
1683999076454650600,3.397051025390625,1.557528376578552,1.0378394127214485,-0.05407476432636585
1683999076464692600,3.407093017578125,1.732228755990394,0.7312965393529194,0.001629829256053551
1683999076474734600,3.417135009765625,1.8584483862114105,0.44269847876477547,0.07817649839071757
1683999076484776600,3.427177001953125,1.7504762409900165,-0.07673645021607407,0.18121719367238898
1683999076494818700,3.43721923828125,2.9424233437230125,-1.3754043578883375,0.3057065010810545
1683999076504860600,3.447260986328125,1.9380494357057148,-0.8262062073268593,-0.2292819022731306
1683999076514902600,3.45730322265625,1.4577871560373954,-1.139841079575633,-0.47062540048998025
1683999076524944800,3.46734521484375,1.177876234066172,-1.3602552415034221,-0.7795920372694541
1683999076534986900,3.47738720703125,1.0573192834664944,-1.2099962234556008,-1.1184380053700556
1683999076545029000,3.487429443359375,0.6588705181993226,-0.7961034773151787,-1.3334021568914431
1683999076555070900,3.49747119140625,0.030055165406398188,-0.2974233627907884,-1.2204601763880158
1683999076565113000,3.507513427734375,-0.7750450372404097,0.047777175916577215,-1.1277563571748606
1683999076575155100,3.517555419921875,-1.8149373531138764,0.24507999427778615,-1.3319211006283496
1683999076585197200,3.52759765625,-2.3646223546073437,0.9209370612941057,-1.8399794100796647
1683999076595239100,3.537639404296875,-2.492215156514026,1.5025534629946828,-1.7555832861921918
1683999076605281200,3.547681640625,-2.2071945667457022,1.889434337505407,-1.3924186230993585
1683999076615323300,3.5577236328125,-1.5709431172082224,2.0759086607448953,-1.5096037386861356
1683999076625365200,3.567765625,-0.5210564732041859,1.0712852478508332,-1.2173275946739321
1683999076635407300,3.5778076171875,0.9610409735552072,-1.68102931979335,0.780093193091914
1683999076645449400,3.587849853515625,1.8818542956908546,-2.620131492626013,2.035004377375878
1683999076655491600,3.597891845703125,2.800022125233858,-2.0018243788393475,4.1228713990637065
1683999076665533400,3.607933837890625,2.245417118118139,-0.33495330822312086,4.3605146408475575
1683999076675575500,3.617975830078125,0.43598586320870664,0.37639713303645594,2.429821729603358
1683999076685617600,3.62801806640625,-0.3650904298183342,1.594497680680776,0.4219913482893634
1683999076695659600,3.63806005859375,-1.5106861591750118,2.6995940207898066,-0.6010258199152394
1683999076705701800,3.648102294921875,-2.460331439924293,1.820733070274604,-2.2668366432847264
1683999076715743600,3.65814404296875,-1.617336154108856,1.9517517089634366,-2.4101848601792932
1683999076725785800,3.668186279296875,-0.8301033973648252,1.955796241832781,-1.7603201866357923
1683999076735827900,3.678228271484375,-0.7732381223690776,1.393589019873657,-0.7447178362079556
1683999076745870000,3.6882705078125,-0.7190470694841339,1.624990940005456,0.7516932487646497
1683999076755911900,3.698312255859375,-0.2464349866713707,1.3768329619682464,1.9702053070689773
1683999076765954000,3.708354248046875,0.16434255242709497,0.7970743179239611,3.0882418156423146
1683999076775996100,3.718396484375,0.3216710090839834,0.008398056126331772,4.2312707902355395
1683999076786037900,3.728438232421875,0.5830774902925765,-0.8020486831810807,4.773167610362195
1683999076796080000,3.73848046875,0.814344048623506,-1.893709182661175,4.212441444255015
1683999076806122200,3.7485224609375,0.7789785266263446,-2.2310476303363034,2.6919219493685698
1683999076816164300,3.758564697265625,0.5467240809957341,-2.4830293655274196,1.256315469742871
1683999076826206100,3.7686064453125,-0.05615401250780328,-2.7623300551948504,-0.05785822868620545
1683999076836248200,3.778648681640625,-0.538079023311047,-2.2401504516340176,-1.5382256506953975
1683999076846290400,3.788690673828125,-0.7743132710227658,-1.0333499908704584,-2.687627553849565
1683999076856332500,3.79873291015625,-1.12731468678546,-0.30307102198282737,-3.163057088903978
1683999076866374300,3.808774658203125,-1.5326942206256717,-0.07273387909583294,-2.8715314864241503
1683999076876416400,3.81881689453125,-2.120163440781359,-0.4910154342390561,-1.6776685713741506
1683999076886458600,3.82885888671875,-2.94581770886427,-0.5691833495125778,-0.03261399278883714
1683999076896500600,3.838901123046875,-2.5625498294983062,0.19553852083644738,1.5333318710413988
1683999076906542600,3.84894287109375,-1.374598026335531,0.7526884079398624,2.484519004891579
1683999076916584600,3.858985107421875,-0.5445336102862934,0.428672790455964,3.037821769565777
1683999076926626700,3.869027099609375,0.1387871951108697,0.29828739151652756,2.8513178824320704
1683999076936668800,3.8790693359375,0.9442669748728575,0.7066116334367297,2.622462034250039
1683999076946710600,3.889111083984375,1.0572793483713543,0.5203619001951396,1.8880693912518227
1683999076956752800,3.8991533203125,0.9001188278917914,-0.07917308815228595,1.2921972275799198
1683999076966794900,3.9091953125,0.9155688881123386,0.27065849309954915,0.7027399540081812
1683999076976837000,3.919237548828125,1.0226973295291157,0.794465064982992,-0.06941175479511666
1683999076986878900,3.929279296875,1.2284376620618966,0.7555036544579707,-0.010294198985857105
1683999076996921000,3.9393212890625,1.3171174526170686,0.3159751892625629,0.3043763635850569
1683999077006963100,3.949363525390625,1.0058615208738686,-0.22121334090956882,0.9902272223945707
1683999077017005200,3.959405517578125,0.7136600018220961,-0.591807365349542,1.6348047256399598
1683999077027047100,3.969447509765625,0.3728917240679175,0.05597972872890023,2.491925478051101
1683999077037089200,3.979489501953125,-0.12000441554393255,1.0871763230448037,2.1896121503121533
1683999077047131300,3.98953173828125,-0.23295214773638612,1.397329330439889,2.073510646821046
1683999077057173400,3.99957373046875,-0.11569696672683158,1.3276867865718713,1.8668322563281603
1683999077067215300,4.00961572265625,0.12503871320409837,1.2662100791207398,1.6324319840145134
1683999077077257400,4.01965771484375,0.408772975385979,1.136671066217662,1.729212760930403
1683999077087299600,4.029699951171875,0.5249290465392855,0.9489641189929418,1.7649831771470446
1683999077097341600,4.039741943359375,0.6012086868970005,0.6716909408482138,1.4903392790581902
1683999077107383500,4.049783935546875,0.9883376360433845,0.9500312806448501,0.891709327665152
1683999077117425600,4.059825927734375,1.4917460679696248,2.830179214372116,-0.11082792294759289
1683999077127467600,4.0698681640625,1.8613283635815194,2.8895921707179273,-0.5179729460449977
1683999077137509800,4.07991015625,1.9082586766134721,2.459002494717397,-0.7044858932766421
1683999077147551600,4.0899521484375,1.5530484914533538,1.6911177635217538,-0.8792066575031495
1683999077157593800,4.099994140625,1.027306198917005,0.7035131453794597,-1.0197765827367935
1683999077167635900,4.110036376953125,0.4911766648011028,-0.07540988922811206,-0.6006283759281512
1683999077177678000,4.120078369140625,-0.13827908034719294,-0.6082782745281872,-0.43702602383545874
1683999077187719900,4.130120361328125,-0.4973305463827938,-0.9625606538193098,-0.5308480261761999
1683999077197762000,4.140162353515625,-0.5359405280981792,-0.9933185577558978,-0.8445966243390415
1683999077207804100,4.15020458984375,-0.32903802376588914,-0.8692846297352624,-0.6068396566348635
1683999077217846200,4.16024658203125,-0.20390737051346317,-0.697891235305002,-0.27267289164215114
1683999077227888000,4.170288330078125,-0.28598344310540724,-0.48434734358531717,-0.10714721684882852
1683999077237930200,4.18033056640625,-0.6759200094618102,-0.2721710204814363,0.31486988062148497
1683999077247972300,4.19037255859375,-1.1309561729271471,-0.1676330567471885,0.6041691304147557
1683999077258014400,4.200414794921875,-1.3975223301719446,-0.6307096480249391,0.7561171054797856
1683999077268056200,4.21045654296875,-1.9084658621063404,-1.1276731492452166,0.8161706922987496
1683999077278098400,4.220498779296875,-7.082652091875788,-2.3375186919520945,1.0807175635572925
1683999077288140500,4.230540771484375,-6.799037933305928,-2.205479621966112,1.1270890236165005
1683999077298182600,4.2405830078125,-3.7329025269671186,-1.0694541930407304,0.8282558917521
1683999077308224600,4.250625,-1.322328448486139,-0.30760097501833855,0.4536931515188852
1683999077318266600,4.2606669921875,0.3202631473618507,3.9661879540935434,-1.8905920980821962
1683999077328308600,4.270708984375,-0.8601372240384869,2.9365587234000308,-2.1735196113566677
1683999077338350800,4.280751220703125,-0.4202579258008659,1.7257003785566496,-1.6446626187138016
1683999077348392600,4.29079296875,-0.5345519780435987,0.0238580703757368,-1.799726366963679
1683999077358434700,4.300835205078125,-0.35034322730271644,-1.479154586834168,-2.0940160751485837
1683999077368476800,4.310877197265625,0.1195787191124264,-2.1175575255739516,-2.029973983743283
1683999077378519000,4.32091943359375,1.0552145242211903,-1.1192512510487709,-1.5935510396434585
1683999077388560800,4.330961181640625,1.3889663220857091,-0.6807470322403661,-0.9570910931210838
1683999077398602900,4.34100341796875,1.2538055181662424,-0.3727588652434861,-0.38712358457217344
1683999077408645000,4.35104541015625,0.6949206590756796,-0.12202358259808589,0.21870446194387544
1683999077418687200,4.361087646484375,0.36414062986225915,0.06875228864847298,0.8010165691537797
1683999077428729300,4.371129638671875,0.12764704213930106,-0.4466781614981096,1.1588821409619148
1683999077438771100,4.381171630859375,-0.013504147428336766,-1.046569824187199,1.1508259773019762
1683999077448813200,4.391213623046875,0.2258285284770315,-1.6493120193055386,0.9058821199596763
1683999077458855300,4.401255859375,0.4252517223637891,-2.5412559510417783,0.7259762288141417
1683999077468897200,4.411297607421875,0.6547383071823516,-2.8731975555609677,-0.03344058986349074
1683999077478939300,4.421339599609375,0.6585361958235435,-2.8872137069529265,-0.665114998861306
1683999077488981400,4.4313818359375,0.4712337255752761,-2.4507274627805096,-1.107054591221504
1683999077499023600,4.441423828125,0.33517050742151655,-1.4570331571993442,-1.2104558945008568
1683999077509065400,4.4514658203125,0.15653347968101838,0.017541885320516856,-1.1050183774557367
1683999077519107600,4.4615078125,0.014522075672574304,1.5411028861976057,-1.1788461208355563
1683999077529149600,4.471550048828125,-0.19865822791579454,2.2704477309794213,-0.9837476016546165
1683999077539191600,4.481592041015625,-0.49414539337905083,2.402717590325525,-0.8496607542684823
1683999077549233800,4.49163427734375,-0.8074982165629603,1.875319004076019,-0.8953260183052331
1683999077559275600,4.501676025390625,-1.0071914195556473,1.301216125586018,-1.0286414623858688
1683999077569317800,4.51171826171875,-0.9941325188295342,0.7719469071109788,-1.1127552986426956
1683999077579359900,4.52176025390625,-0.7906711101343565,0.37088680257272216,-1.2779121398737479
1683999077589402000,4.531802490234375,-0.6055922507891506,0.07242774967636956,-1.4008023740011957
1683999077599443900,4.54184423828125,-0.4910738468333376,-0.21153450009160527,-1.3898776770317003
1683999077609486000,4.551886474609375,-0.45455527309006843,-0.44260120392909486,-1.279289007155149
1683999077619528100,4.561928466796875,-0.4298064708510651,-0.6704492568015672,-1.0878763199068833
1683999077629570000,4.571970458984375,-0.4669666291403837,-0.9210700988277427,-0.6667603849121442
1683999077639612100,4.582012451171875,-0.5290148258851202,-1.0531778335714637,-0.23517537124817736
1683999077649654200,4.5920546875,-0.6162297724609808,-1.168764114236755,0.11888647092137988
1683999077659696300,4.6020966796875,-0.8107097149208843,-1.2584066391049709,0.37118732935029886
1683999077669738400,4.612138916015625,-1.1022481920056941,-1.3121328353274415,0.4979304075435085
1683999077679780300,4.6221806640625,-1.4015042781701808,-1.134317397982224,0.3831690550518846
1683999077689822400,4.632222900390625,-1.4796593190156604,-0.8531799314947336,0.08003640168746068
1683999077699864600,4.642264892578125,-1.4096057415049497,-0.47835636135866033,-0.3275767564452547
1683999077709906600,4.65230712890625,-1.1966173649213818,-0.33875942232544987,-0.6439067125128232
1683999077719948500,4.662348876953125,-0.76810717599507,0.14391613013634644,-0.4817655085094691
1683999077729990600,4.672390869140625,-0.41570329661305283,0.3808135986538812,-0.3887296915710638
1683999077740032600,4.68243310546875,-0.26683807377885327,0.5258808135660888,-0.37500190741228207
1683999077750074600,4.692474853515625,-0.07597589495331697,0.7125463484682714,-0.44438850888172116
1683999077760116600,4.70251708984375,0.09942936911131386,1.1846294402010638,-0.461413025800334
1683999077770158800,4.71255908203125,0.0697150230217373,1.3129949569698462,0.008574366445308245
1683999077780200900,4.722601318359375,-0.017468690823754726,1.3315153121670738,0.29994869228227217
1683999077790243000,4.732643310546875,-0.06996798527156983,1.2816867828024254,0.3846876621460766
1683999077800284800,4.742685302734375,-0.11808538430937669,0.9479837417108028,0.42168581493734736
1683999077810327000,4.752727294921875,-0.1912879943202766,0.6986427307554491,0.3114013672280761
1683999077820369100,4.76276953125,-0.2791109085062285,0.5288982391310365,0.1739065646616969
1683999077830411200,4.7728115234375,-0.3764309883024059,0.3482017517119393,0.04824364193732897
1683999077840453000,4.782853515625,-0.5690762995565232,0.0827293395505105,0.057683825504024
1683999077850495200,4.7928955078125,-0.8017997742810506,-0.1431989670974221,0.08711838721604596
1683999077860537300,4.802937744140625,-0.9295094014064914,-0.23648548117998902,0.035761594669359534
1683999077870579400,4.812979736328125,-0.9277412891048873,-0.33092498773680146,-0.07519137853211307
1683999077880621200,4.823021728515625,-0.8892211914411674,-0.31145477280611966,-0.2428759335507042
1683999077890663300,4.833063720703125,-0.847889185125967,-0.6544113160325831,-0.6121671795016344
1683999077900705500,4.84310595703125,-0.5321810245034,-0.3222160338357771,-0.8832243084877178
1683999077910747600,4.85314794921875,-0.3708806037420143,0.1889982225099543,-1.1124500035570943
1683999077920789400,4.86318994140625,-0.17220830924195613,0.46877956408772875,-1.2126834391623609
1683999077930831600,4.87323193359375,0.09254288681704688,0.7427186965438612,-1.1564407348662329
1683999077940873600,4.883274169921875,0.3883876800805358,0.9967775344398501,-1.1219344139188534
1683999077950915800,4.893316162109375,0.5953943729282207,1.1426601409838104,-1.067171931304559
1683999077960957600,4.90335791015625,0.7053358553564674,1.274205207842189,-1.0157678127365175
1683999077970999600,4.913400146484375,0.6766848565033238,1.430038452085601,-0.9911707043577711
1683999077981041800,4.923442138671875,0.5346248150845818,1.4577083586115511,-0.97592413431972
1683999077991084000,4.933484375,0.16324663164813685,1.2637805939774953,-0.9342688918816986
1683999078001125800,4.943526123046875,-0.18438625342377435,1.0294256210876274,-1.0026659966252147
1683999078011167900,4.953568359375,-0.4907727241267576,0.5437335967413606,-1.091056585395829
1683999078021210000,4.9636103515625,-0.6756262779656214,0.360119819559912,-0.7797665001460147
1683999078031252100,4.973652587890625,-0.607641935231807,0.5919275283217545,-0.5620627999585204
1683999078041294000,4.9836943359375,-0.5353047848203282,0.6121883393456217,-0.6356159447572041
1683999078051336100,4.993736572265625,-0.4167253971356614,0.6191978454770146,-0.6078748701745559
1683999078061378200,5.003778564453125,-0.2601518631485912,0.398738861131299,-1.067152500235905
1683999078071420300,5.01382080078125,-0.45162987698022333,0.19264125820591857,-1.1727116109290991
1683999078081462400,5.02386279296875,-0.4539887904439298,-0.10474491127611488,-0.3837816417618386
1683999078091504300,5.03390478515625,-0.4778912065799889,-0.17988109600196597,-0.07178586710587065
1683999078101546400,5.04394677734375,-0.5937557219019349,0.1037406920684744,-0.05429512265066679
1683999078111588600,5.053989013671875,-0.6578402518031516,0.7318620681749446,-0.22606244683477064
1683999078121630400,5.06403076171875,-0.6736884116745467,1.0448760985043999,-0.10620051624233937
1683999078131672600,5.074072998046875,-0.5957667827111753,1.2343320845414945,0.0998225212653554
1683999078141714600,5.084114990234375,-0.5764455794039542,1.1951389312276186,0.20229953526450964
1683999078151756600,5.0941572265625,-0.6318995953692951,1.0376176834107365,0.1050868034504709
1683999078161798800,5.10419921875,-0.71445870388185,0.7406206131758453,-0.0583141446586549
1683999078171840600,5.114240966796875,-0.8889884949720294,0.14450550077234683,-0.23195791243171432
1683999078181882800,5.124283203125,-1.1961791514477194,-0.44190979006632575,-0.43065130710083355
1683999078191924900,5.1343251953125,-1.6014118195085216,-1.1551923752944608,-0.41168114541233986
1683999078201967000,5.144367431640625,-2.0804142950939406,-1.8214254377932764,-0.31313717368236454
1683999078212008900,5.1544091796875,-2.5308318137611137,-2.439296722442487,-0.04179704193396693
1683999078222051000,5.164451416015625,-2.7591907978874204,-2.940639495835609,0.3310046492339504
1683999078232093100,5.174493408203125,-2.9017257690574447,-3.243000984285058,0.7170027494419757
1683999078242135200,5.18453564453125,-3.0297703742814597,-3.295029640255554,1.2414143085524945
1683999078252177100,5.194577392578125,-2.8420867919407033,-2.8419370650887785,1.5554409025423361
1683999078262219200,5.20461962890625,-2.0886602401551624,-1.9392147062792173,1.63255751127468
1683999078272261300,5.21466162109375,-0.9876261949344882,-0.9568929671696218,1.3821545838860883
1683999078282303400,5.224703857421875,0.07081627844734426,-0.31422901157206706,0.9035502077413766
1683999078292345600,5.234745849609375,0.7712530492296776,-0.08359432217811552,0.5109534859160335
1683999078302387400,5.244787841796875,1.0161314011576743,0.027853012079606505,0.2833331524453384
1683999078312429600,5.254829833984375,0.9486056566725327,0.15431499480503008,0.24655359986349668
1683999078322471600,5.2648720703125,0.8249107004477453,0.5417718886865778,0.10770839451577452
1683999078332513500,5.274913818359375,0.642041981174908,0.9624900818354781,-0.4323650001948749
1683999078342555600,5.2849560546875,0.6277344225367129,1.2108812332790309,-0.8158755303173654
1683999078352597600,5.294998046875,0.8095571398356083,1.4402379988835583,-1.0054031611541687
1683999078362639800,5.305040283203125,1.1110409498131721,1.6602802275385322,-1.0984116793415246
1683999078372681900,5.315082275390625,1.54936158654812,1.6680374144424117,-1.0666615963962016
1683999078382723800,5.325124267578125,1.9457894563608917,1.6858196259627218,-1.0225946902419987
1683999078392765900,5.335166259765625,2.202730417229836,1.6080436706581835,-0.8864252567005488
1683999078402808000,5.34520849609375,2.3328180312540123,1.3247518538507639,-0.7674018146093554
1683999078412850100,5.35525048828125,2.3513436318513694,1.075235366919652,-0.7519009114572974
1683999078422892000,5.365292236328125,2.3057918548462193,0.804570198006077,-0.7136549949795491
1683999078432934100,5.37533447265625,2.2535018922546866,0.5821123122780336,-0.757686734162592
1683999078442976200,5.38537646484375,2.0788645742512055,0.33605766289297667,-0.8536714316203495
1683999078453018300,5.395418701171875,1.832465648725554,0.0424394607447591,-0.8360137939658964
1683999078463060100,5.40546044921875,1.5903937818403266,-0.19367408754204524,-0.810891628206988
1683999078473102300,5.415502685546875,1.4314744473312007,-0.45369052873044646,-0.7750827669873134
1683999078483144400,5.425544677734375,1.3163031340740452,-0.646900176945245,-0.7874920965026893
1683999078493186600,5.4355869140625,1.2164729834426482,-0.718708038362008,-0.8025428056390347
1683999078503228600,5.44562890625,1.1504075527508713,-0.6792030335362815,-0.7217978238308767
1683999078513270400,5.4556708984375,1.0387912988508496,-0.5097980499062054,-0.6262800096958859
1683999078523312600,5.465712890625,0.8657085894618045,-0.46399116517993483,-0.31551933282217787
1683999078533354600,5.475755126953125,0.5751204491291236,-0.40025043496441204,0.048813462252170384
1683999078543396600,5.485796875,0.3440848590170728,-0.4040689468737911,0.23995517187315632
1683999078553438600,5.495839111328125,0.20155426867897022,-0.5177440643653014,0.27086448675327635
1683999078563480800,5.505881103515625,0.12377171975737217,-0.6569824218437549,0.2663875520266392
1683999078573522900,5.51592333984375,0.02802647646079149,-0.8715715408760892,0.2846732139417591
1683999078583565000,5.52596533203125,-0.06652690455168206,-1.039505004913137,0.26673907037245986
1683999078593606800,5.53600732421875,-0.19335314640259582,-0.7292137145624509,-0.006414771072243952
1683999078603648900,5.54604931640625,-0.37497174744501927,-0.5440864563980481,-0.05235615378851626
1683999078613691100,5.556091552734375,-0.5922883154063331,-0.4216413498978813,0.14044064282404553
1683999078623733200,5.566133544921875,-0.7466280460118115,-0.30422306054519227,0.2615079581693233
1683999078633775000,5.576175537109375,-0.6853206753590586,-0.23477554329084355,0.3854675291933116
1683999078643817100,5.586217529296875,-0.34817376740989786,-0.17028045666279268,0.5184251665361826
1683999078653859200,5.596259765625,0.11818444736681058,-0.15141773216232335,0.6507829428918956
1683999078663901400,5.6063017578125,0.5001890063634147,-0.0038585663278898675,0.7775207758240339
1683999078673943600,5.61634375,0.8316549659105409,0.20747184753219028,0.7652810813202087
1683999078683985300,5.6263857421875,1.0364600420695655,0.4465103150144321,0.8357850314918077
1683999078694027400,5.636427734375,1.1372754575354118,0.5650920869124084,0.9302167297584529
1683999078704069600,5.646469970703125,1.0812790394322658,0.6327447891754221,1.0501470564461755
1683999078714111600,5.656511962890625,0.9689360857046154,0.637667655929613,1.2061458826879452
1683999078724153600,5.666553955078125,0.7931066751948084,0.673144340618285,1.2993254660767946
1683999078734195600,5.676595947265625,0.5500962734266782,0.557617187431255,1.3771984577297351
1683999078744237700,5.68663818359375,0.23196154820379242,0.3105974197463161,1.4660081864896504
1683999078754279900,5.69668017578125,-0.1710003019653249,0.09254169468067366,1.6130511761374966
1683999078764321600,5.70672216796875,-0.5964499711675717,-0.11076927175574362,1.6387518645377785
1683999078774363800,5.71676416015625,-1.0108131170886843,-0.2776641844303572,1.6460475920951043
1683999078784405900,5.726806396484375,-1.249460220360653,-0.30768394473025024,1.5225405693106648
1683999078794448000,5.736848388671875,-1.2283742426171231,-0.26783943189606996,1.3705015181307998
1683999078804489900,5.746890380859375,-1.0726861953351614,-0.21793937696182825,1.1562192438826273
1683999078814532000,5.756932373046875,-0.860413134031903,-0.27752208714280924,0.9425292611668669
1683999078824574100,5.766974609375,-0.6432415245981958,-0.37966823570342223,0.7310920953637405
1683999078834616200,5.7770166015625,-0.48448213922526917,-0.32866191857821275,0.6332075596188604
1683999078844658400,5.787058837890625,-0.391778647847923,-0.24201965338762996,0.6159150005369654
1683999078854700200,5.7971005859375,-0.28418821105083675,-0.16284275053727118,0.6143762468366673
1683999078864742300,5.807142822265625,-0.20235258341065526,-0.1436290740780857,0.6808072328377736
1683999078874784400,5.817184814453125,-0.15108597279813155,-0.1484317779931909,0.7411631346505669
1683999078884826600,5.82722705078125,-0.09488022342271847,-0.08650398249418251,0.7789651155969528
1683999078894868400,5.837268798828125,-0.03426402815046497,0.0920820235656322,0.856327831905617
1683999078904910600,5.847310791015625,0.006886303496886321,0.21750354754354492,0.960871696321347
1683999078914952600,5.85735302734375,0.03145450357701783,0.28044605251080446,1.0154204370353208
1683999078924994700,5.86739501953125,0.08500599847120624,0.30972003939027726,1.0441282986631584
1683999078935036800,5.877437255859375,0.13375687606565176,0.33155918121858885,1.0431953668656617
1683999078945078600,5.88747900390625,0.18492460258149807,0.3745746614025815,1.039536833764711
1683999078955120800,5.897521240234375,0.22651481622834188,0.3980464935576927,1.0837856531095889
1683999078965162900,5.907563232421875,0.23947596555323183,0.41872215271002167,1.104199171175374
1683999078975205000,5.91760546875,0.24085855477174786,0.3292980192836831,1.2284364701269115
1683999078985246900,5.927647216796875,0.2598999739767373,0.2710838316779738,1.2907507419873903
1683999078995289000,5.937689453125,0.26562058929350096,0.22721385959146284,1.3325861691072465
1683999079005331100,5.9477314453125,0.27478933336061306,0.1999979019948365,1.3805673123065807
1683999079015373200,5.957773681640625,0.28281772145577666,0.11777210228386974,1.441792607337024
1683999079025415300,5.967815673828125,0.29909884928254454,0.15256309513338073,1.4376127720070324
1683999079035457200,5.977857666015625,0.30674171443141013,0.039083480912178954,1.546370267925225
1683999079045499300,5.987899658203125,0.3268905878045831,0.01906490316057942,1.6492205858468798
1683999079055541400,5.99794189453125,0.32774996744278895,0.013440132170827087,1.6479103564591593
1683999079065583600,6.00798388671875,0.3107767105207783,-0.03296184550941144,1.6341874598336714
1683999079075625400,6.01802587890625,0.2512038945908975,-0.1561374664689079,1.6163876056724185
1683999079085667600,6.02806787109375,0.2005070447689942,-0.24879264826658803,1.5840076207310723
1683999079095709600,6.038110107421875,0.1034226418841962,-0.4403057098585393,1.5603036879972854
1683999079105751700,6.048152099609375,-0.04864847666165135,-0.6397905350423074,1.5509791374360005
1683999079115793600,6.058194091796875,-0.2325249314132913,-0.961631775057385,1.5959209204524465
1683999079125835600,6.068236083984375,-0.5081045627649722,-1.3885040282548045,1.6370805502947827
1683999079135877800,6.0782783203125,-0.8773444891214668,-1.9315366744425202,1.6825398206554787
1683999079145919900,6.0883203125,-1.205569863281105,-2.4294214248318147,1.843429088503748
1683999079155962000,6.098362548828125,-1.3100410699750327,-2.7731409071057085,2.0512228012519156
1683999079166003900,6.108404296875,-1.217320084696333,-2.946810722411924,2.34551429748111
1683999079176046000,6.1184462890625,-1.0338131187964097,-3.023425102088725,2.5429432392374864
1683999079186088100,6.128488525390625,-0.8503736256711569,-3.0058336258403195,2.5783424378766355
1683999079196130200,6.138530517578125,-0.8400043845920293,-2.639120102026638,2.1348550320147495
1683999079206172300,6.14857275390625,-1.3150523901798559,-2.37783813472282,1.6348963975503334
1683999079216214200,6.158614501953125,-2.1168534756233255,-1.8567943573867889,1.2338272332653069
1683999079226256300,6.16865673828125,-2.5251379012546664,-1.2790336610459936,0.981385350380345
1683999079236298400,6.17869873046875,-2.4509060382050394,-0.6444778440852943,0.6509246826066297
1683999079246340300,6.18874072265625,-2.2841441632963515,-0.10192203522580486,0.3011256456994915
1683999079256382400,6.19878271484375,-2.0035543440333043,0.42664432509200567,-0.1033687590528907
1683999079266424600,6.208824951171875,-1.623967528292489,0.9329881668044011,-0.5483783482893796
1683999079276466600,6.218866943359375,-1.1729137897505306,1.2660322190213076,-0.7695977687494197
1683999079286508600,6.2289091796875,-0.8076584935371579,1.5478019713995859,-0.8823982477450342
1683999079296550800,6.238951171875,-0.4451041818343625,1.7998738288642042,-1.042848348564265
1683999079306592600,6.2489931640625,-0.07233464716333618,2.069856166875076,-1.2164685727336793
1683999079316634800,6.25903515625,0.3252202869754182,2.2285795212051407,-1.409059405449065
1683999079326676900,6.269077392578125,0.602590918461073,2.135806083551291,-1.3499861954147574
1683999079336719000,6.279119384765625,0.878212094425767,1.7930145264422268,-1.1158828734971091
1683999079346760900,6.289161376953125,1.1718335151806296,1.2949857712435215,-0.8433007002524282
1683999079356803000,6.299203369140625,1.5568548439964205,0.7100105286002659,-0.6601657869120086
1683999079366845100,6.30924560546875,1.8990464210097084,0.10115814204818155,-0.7156209944261077
1683999079376887200,6.31928759765625,2.0903215409131564,-0.48120212554515956,-0.9835419654944147
1683999079386929100,6.32932958984375,2.0961179732824644,-1.068267822135246,-1.3087553977341737
1683999079396971200,6.33937158203125,1.9459528924510718,-1.7508506774263544,-1.6558827161152694
1683999079407013300,6.34941357421875,1.6062272787532885,-2.5617122650289916,-1.8949453829458756
1683999079417055400,6.359455810546875,1.1448576450143129,-3.153834342860407,-1.8975056408712232
1683999079427097600,6.369497802734375,0.5162848235757362,-2.9598999025061623,-1.9839215278965605
1683999079437139400,6.379539794921875,-0.15493679053610646,-2.1664762497198806,-1.6306250095127053
1683999079447181600,6.389581787109375,-0.6666254997407989,-1.1312990188572862,-0.9231902361762916
1683999079457223600,6.3996240234375,-0.8488688470781315,-0.28746223449848646,-0.28722906115066427
1683999079467265600,6.409666015625,-0.7096706628819238,0.4153480529005978,0.06568878899891971
1683999079477307600,6.4197080078125,-0.3378207683446641,0.924612998810314,0.10186123845091903
1683999079487349600,6.42975,0.16117417816487814,1.3411312103167297,0.06554883727015097
1683999079497391800,6.439792236328125,0.6443697214091102,1.6464786530314492,0.010404050287073979
1683999079507433900,6.449834228515625,0.9951084255764193,1.7914013862000713,0.017224728977447076
1683999079517476000,6.45987646484375,1.2239692210117923,1.8245987893006104,0.028104364949502837
1683999079527518100,6.46991845703125,1.2943643331674957,1.772985458211301,0.009607493849604283
1683999079537560000,6.47996044921875,1.2987166643772459,1.6679973601773666,-0.03370839368220305
1683999079547602100,6.49000244140625,1.2513637542980756,1.478558540339483,-0.25982576606421465
1683999079557644200,6.500044677734375,0.9983186126240923,1.3096237182118295,-0.38761544219291993
1683999079567686300,6.510086669921875,0.6948623657582219,1.1297101973745314,-0.4412876963002632
1683999079577728200,6.520128662109375,0.3070888520135448,1.031606674132938,-0.38013499972793763
1683999079587770300,6.530170654296875,-0.058173537243177045,0.8881978990202042,-0.3805059789973344
1683999079597812400,6.540212890625,-0.36953163143052503,0.7162160873972042,-0.21053406608767872
1683999079607854600,6.5502548828125,-0.521325111291198,0.6492147446713701,-0.240377008922937
1683999079617896400,6.560296875,-0.569872856132201,0.5361642837879277,-0.301749110157732
1683999079627938600,6.5703388671875,-0.46470963959910455,0.42727947249143405,-0.4009206890391166
1683999079637980600,6.580381103515625,-0.3514961004806081,0.2986679078035306,-0.4399676621785093
1683999079648022600,6.590423095703125,-0.3655858039610687,0.2028617858602925,-0.47255101804565636
1683999079658064800,6.60046533203125,-0.5461539030282134,0.0679998397045951,-0.4351021648385474
1683999079668106900,6.61050732421875,-0.6373641492355908,-0.005479812653894978,-0.38546204565057973
1683999079678148800,6.620549072265625,-0.6121830939660265,0.015932083157527567,-0.404318571120556
1683999079688190900,6.63059130859375,-0.43505191809029864,0.14911842355301222,-0.4640066327309472
1683999079698233000,6.64063330078125,-0.2664583921211317,0.3226003645977212,-0.5776867866258927
1683999079708275100,6.650675537109375,-0.20631623280088499,0.5438318252214435,-0.6568610669201775
1683999079718317000,6.66071728515625,-0.20662248132451283,0.7195854186105908,-0.6585485935949951
1683999079728359100,6.670759521484375,-0.28916430480118777,0.8066368103030691,-0.6443459989373927
1683999079738401200,6.680801513671875,-0.393964052191552,0.8859405517315903,-0.616390526316077
1683999079748443300,6.69084375,-0.37880778320989245,0.9524879455319779,-0.4635462166235119
1683999079758485200,6.700885498046875,-0.21627640731566855,1.0351266861035249,-0.2233040629855191
1683999079768527300,6.710927734375,0.00740516180931136,1.115121841521182,0.0411118716347225
1683999079778569400,6.7209697265625,0.21576237679749452,1.1618709563987826,0.40056285264779073
1683999079788611600,6.731011962890625,0.4384356737125507,1.0467739105586256,0.7493715287169194
1683999079798653600,6.741053955078125,0.6306457520928214,0.9067192076597326,1.079455137162795
1683999079808695600,6.75109619140625,0.7126146555701542,0.7324247358448434,1.3474632501362351
1683999079818737600,6.761137939453125,0.7013264894612392,0.5406637192008746,1.5467175245842124
1683999079828779600,6.77118017578125,0.5961049796122466,0.37413406369332053,1.6658933163424174
1683999079838821800,6.78122216796875,0.3446955681098583,0.26572036750137384,1.7120519877125344
1683999079848863900,6.791264404296875,-0.02093827711837409,0.11687088026557009,1.698027610949476
1683999079858906000,6.801306396484375,-0.5256969929016143,0.008398056026392273,1.4659668205858727
1683999079868947900,6.811348388671875,-1.2431018353418497,-0.22772788988941903,1.1437715293149626
1683999079878990000,6.821390380859375,-2.0049743652870267,-0.47988128664370244,0.701506316651482
1683999079889032100,6.8314326171875,-2.4925405977732185,-0.6766071318394175,0.39553427693843773
1683999079899074200,6.841474609375,-2.7203872203108617,-0.8483343124808604,0.27277234203567285
1683999079909116100,6.8515166015625,-2.670740127558339,-0.898174285939486,0.41134509437646977
1683999079919158200,6.86155859375,-2.404431343038386,-0.7577447891191954,0.5474883915686277
1683999079929200300,6.8716005859375,-2.064932823296611,-0.3612508772790326,0.7088958619973531
1683999079939242400,6.881642822265625,-1.8468463421509886,0.18380928053162668,0.6870704293207777
1683999079949284600,6.891684814453125,-1.5834625960761155,0.7971096038594588,0.1911779642361746
1683999079959326400,6.901726806640625,-0.9989997148808927,0.8201551438814423,-0.35530894996776957
1683999079969368600,6.911768798828125,-0.26034390922849726,0.4540386198257819,-0.8310278058304909
1683999079979410600,6.92181103515625,0.2797210216130319,-0.15784454328102096,-1.1215958595003526
1683999079989452600,6.93185302734375,0.49951088429984913,-0.9107465744992842,-1.3932085036239128
1683999079999494800,6.941895263671875,0.4238883256337578,-1.5116052627388215,-1.6412595511935528
1683999080009536600,6.95193701171875,0.0887720585228891,-1.9211826324724517,-1.9624838829056248
1683999080019578800,6.961979248046875,-0.6114714144987602,-2.472716331553748,-2.387728691089684
1683999080029620900,6.972021240234375,-2.157142639187919,-3.4846954345440717,-2.9291534424680945
1683999080039663000,6.9820634765625,-4.492907047231782,-4.973125457826067,-2.9843273162083963
1683999080049705100,6.99210546875,-4.053502082879502,-5.469260215702024,-0.7882622479667204
1683999080059747000,7.0021474609375,-1.14674103255615,-3.1442928315825016,1.8725218772775722
1683999080069789100,7.012189453125,1.6484808922284995,-0.29084205642291816,2.1659770011489785
1683999080079831200,7.022231689453125,3.6550574302070835,0.9032402039577764,1.9357571600631027
1683999080089873300,7.032273681640625,4.09068012220046,1.3800373077060306,1.3186335562445706
1683999080099915200,7.042315673828125,3.4901475906059014,1.9656786919702856,1.0147352217780656
1683999080109957300,7.052357666015625,2.9340939521438982,2.5709490776188315,1.0091924665923766
1683999080119999400,7.06239990234375,2.687935352485706,3.083932876601953,1.1372087002639988
1683999080130041600,7.07244189453125,2.5815424919438037,3.312027931069044,1.1615897416597396
1683999080140083600,7.082484130859375,2.4030356406904048,3.040960788894069,0.9707912801742445
1683999080150125600,7.09252587890625,2.1310634613032478,2.328586578276954,0.6642851233938444
1683999080160167600,7.102568115234375,1.8940014837704762,1.486097335765894,0.3113658429079059
1683999080170209600,7.112610107421875,1.7627680301961481,0.802926063456051,-0.011064529479376728
1683999080180251800,7.12265234375,1.7703700065093273,0.16170597073098536,-0.3467519284518096
1683999080190293900,7.1326943359375,1.771919965869464,-0.2829637527335855,-0.8146297931955357
1683999080200335800,7.142736083984375,1.6588125228136248,-0.5465383529380744,-1.2407742738522312
1683999080210377900,7.1527783203125,0.3285590113777327,-0.9776077270138447,-1.6502333879505167
1683999080220420000,7.1628203125,-1.6402361391610578,-1.2589502333745664,-1.9707784652920748
1683999080230462100,7.172862548828125,-2.1927270889696255,-0.7367315293328258,-2.247378826073161
1683999080240504200,7.182904541015625,-1.4911010264792601,-0.3218269348412046,-2.3669581413285106
1683999080250546400,7.19294677734375,-0.39652875077452443,-0.1938056946135382,-1.9451366663448744
1683999080260588200,7.202988525390625,0.5519450903956358,-0.15102195744267183,-1.15066277987847
1683999080270630300,7.21303076171875,1.285469532114663,-0.054065704342420896,-0.43579089660482634
1683999080280672400,7.22307275390625,1.821930289270338,0.045066833379745375,0.006472349181947025
1683999080290714600,7.233114990234375,2.0790805817638747,0.027422904992302977,0.2974488735212394
1683999080300756600,7.243156982421875,2.24544787398975,-0.015839576748084807,0.4522749185411487
1683999080310798600,7.253198974609375,2.260551929640059,-0.04651165021794863,0.6008312701729626
1683999080320840600,7.263240966796875,2.1551566124425086,-0.10053825373939812,0.7549499869325225
1683999080330882700,7.273283203125,1.9122716186830528,-0.13274669628684901,0.8073052169055361
1683999080340924800,7.2833251953125,1.6242191792551643,-0.22002887720269027,0.7137186526503799
1683999080350963400,7.29336376953125,1.310920357750338,-0.14512825026143453,0.6514521837555228
1683999080361005600,7.303406005859375,0.8496302963652412,0.034400939881680866,0.5664721726888404
1683999080371047600,7.313447998046875,-0.09261412914351895,0.27307605745682534,0.3573905230739877
1683999080381089600,7.323489990234375,-1.3915966749335624,0.5417623519705002,-0.06398093697504645
1683999080391131800,7.3335322265625,-2.3736557961839932,0.6204996110007003,-0.5125753881133803
1683999080401173900,7.34357421875,-2.3912808895908753,0.6245441436332639,-0.7621114253684139
1683999080411215800,7.3536162109375,-1.630094885922185,0.5614509584078653,-0.7059662341526116
1683999080421257900,7.363658203125,-0.6267052292935136,0.519513130278357,-0.5811189413118398
1683999080431300000,7.373700439453125,0.22553443906525653,0.4912290572146711,-0.32330608376393594
1683999080441342100,7.383742431640625,0.7950149774458445,0.481478691079535,0.02230405792467409
1683999080451384200,7.39378466796875,1.0575623511187013,0.4212388992835201,0.3364576101193277
1683999080461426100,7.403826416015625,1.0887088774989913,0.32753658292551346,0.6444748638919169
1683999080471468200,7.41386865234375,1.032363414645303,0.2912073135333398,0.8413786887396969
1683999080481510300,7.42391064453125,0.972626924514666,0.21168327330874298,0.992788195558197
1683999080491552400,7.433952880859375,0.851839304098056,0.05804634096140313,1.122805357082838
1683999080501594600,7.443994873046875,0.7359310388315538,-0.1001014709443354,1.221304535848275
1683999080511636400,7.454036865234375,0.6563803553531641,-0.2674016952668776,1.27590990065976
1683999080521678600,7.464078857421875,0.6271218059733169,-0.3816738128499947,1.286372780704959
1683999080531720600,7.47412109375,0.6277377008267502,-0.39753723152546444,1.2661809922320075
1683999080541762700,7.4841630859375,0.6330942510970403,-0.37969684603742837,1.1624357702128474
1683999080551804800,7.494205322265625,0.5541765690182946,-0.28775024415769324,0.9875626563699776
1683999080561846600,7.5042470703125,0.4038391709777714,-0.20308303827331084,0.7370700836591269
1683999080571888800,7.514289306640625,0.26252657161858617,-0.10897445661465961,0.4640983341723316
1683999080581930900,7.524331298828125,0.07913511984300649,-0.027076721189704833,0.2199709417070447
1683999080591973000,7.53437353515625,-0.049212276960590454,0.00678920755415159,-0.008991003068372588
1683999080602015200,7.54441552734375,-0.08127415176741865,0.02846336365385979,-0.18850660322725515
1683999080612057300,7.554457763671875,-0.08170944455431146,0.16205883027422655,-0.28225493425072373
1683999080622099100,7.56449951171875,-0.03614014394548384,0.24725437172124193,-0.30684733399987724
1683999080632141200,7.574541748046875,0.04611301421430497,0.30570030217441774,-0.2934298515952974
1683999080642183300,7.584583740234375,0.22397744669519415,0.3373441695391122,-0.2632696628386143
1683999080652225500,7.5946259765625,0.3861460686513384,0.4233417509878806,-0.18297839151146192
1683999080662267600,7.60466796875,0.46693432330635415,0.494130134585133,-0.1527771950648712
1683999080672309400,7.614709716796875,0.4754894971864994,0.4588251113698921,-0.1362938881961316
1683999080682351600,7.624751953125,0.43557441237884914,0.2936153411645836,-0.03499054893443873
1683999080692393600,7.6347939453125,0.3376216888440215,0.09660434710685889,0.10350346578013021
1683999080702435800,7.644836181640625,0.22762656210797666,-0.1513748167649404,0.37998831271771877
1683999080712477900,7.654878173828125,0.1231549978302805,-0.4332256315666345,0.805146813459754
1683999080722519700,7.664920166015625,0.07273924365966805,-0.6410598755016352,1.224570035895243
1683999080732561800,7.674962158203125,0.08150887492790039,-0.8081407547080255,1.5486297606878243
1683999080742604000,7.68500439453125,0.14958894248301605,-0.9127235412139524,1.859876275112849
1683999080752646100,7.69504638671875,0.25454115867678156,-0.947748184135074,2.07904529561093
1683999080762688200,7.705088623046875,0.349831461828326,-0.9181985855197714,2.3016026020588094
1683999080772730000,7.71513037109375,0.39072883140207537,-0.8123588562396479,2.4983723163589207
1683999080782772100,7.725172607421875,0.3236103056481248,-0.7329139709263383,2.7756516933714144
1683999080792814300,7.735214599609375,0.18000352369689923,-0.8058347702996057,2.9810051918812728
1683999080802856400,7.7452568359375,-0.05942535399578152,-1.1253519058384085,3.136229276555369
1683999080812898600,7.755298828125,-0.30834615229412227,-1.5706920624344194,3.108796596437931
1683999080822940300,7.7653408203125,-0.542690694410658,-1.9951095582214424,2.98147273049353
1683999080832982400,7.7753828125,-0.7200881839838845,-2.268864631771652,2.6366820334244134
1683999080843024600,7.785425048828125,-0.8632978201572367,-2.289296150098509,2.297605514554255
1683999080853066600,7.795467041015625,-0.8329276441323507,-2.4348239897991415,2.0306296347648543
1683999080863108800,7.80550927734375,-0.7999619244703853,-2.6751728058704543,1.7812845706137364
1683999080873150900,7.81555126953125,-0.8085247874688124,-2.8359241486199163,1.646883606982358
1683999080883192800,7.82559326171875,-0.9408362506080886,-2.804901123141167,1.4510447980103316
1683999080893234900,7.83563525390625,-1.1743472814658549,-2.4513692856284997,1.2023072243717137
1683999080903277000,7.845677490234375,-1.5794420241174283,-1.7678422927481376,0.6127669811149176
1683999080913319100,7.855719482421875,-2.1561765670378654,-1.0954399109207675,-0.061366081343223126
1683999080923361200,7.86576171875,-2.720537662540833,-0.572864532582068,-0.6463756561528962
1683999080933403100,7.875803466796875,-3.238754034037229,-0.056351661708676594,-1.1691241265266679
1683999080943445200,7.885845458984375,-3.642794847381987,0.3990039825753918,-1.6570549011464444
1683999080953487300,7.8958876953125,-3.6729404925923865,0.8956108094190177,-1.8851554392989034
1683999080963529400,7.9059296875,-2.8394091129104484,1.251133918875585,-1.651161432343708
1683999080973571600,7.915971923828125,-1.5080735683360023,1.4887561797219415,-1.2242875097416268
1683999080983613400,7.926013671875,-0.3011607825218612,1.6054992675199693,-0.8917219639555216
1683999080993655500,7.936055908203125,0.5734626055569071,1.5634078978912183,-0.7582437992101295
1683999081003697600,7.946097900390625,0.8723940850652063,1.4590349197378365,-0.8863581418837239
1683999081013739600,7.95614013671875,0.8000171780879846,1.1481199263288313,-0.764058947507839
1683999081023781800,7.96618212890625,0.5017896891870598,0.710795402504934,-0.5334497690155982
1683999081033823600,7.97622412109375,0.27554291489131266,0.13052845003560826,-0.2582643030527027
1683999081043865800,7.98626611328125,0.4876254797242649,-0.3155565262099622,-0.09922778598254171
1683999081053907900,7.996308349609375,0.9829210639529992,-0.6972990036690517,-0.08089697378422592
1683999081063950000,8.006350341796875,1.2909660339998161,-1.1225471496156332,-0.18869161594933573
1683999081073992100,8.016392578125,1.5020710229908134,-1.5601482391376893,-0.4737331866235891
1683999081084034200,8.0264345703125,1.4491237402353987,-1.9503316878282566,-0.7606277465496825
1683999081094076100,8.0364765625,1.3535754680824728,-2.1833000181963036,-1.0737650393035278
1683999081104118200,8.0465185546875,1.4207179545561104,-2.2734518051644645,-1.222132325029051
1683999081114160300,8.056560791015626,1.4508771897517843,-2.1891784667617014,-1.186961293125055
1683999081124202400,8.066602783203125,1.452850341737151,-1.9034376144598604,-0.9515187740972834
1683999081134244600,8.07664501953125,1.3796844482158772,-1.2463569641333192,-0.6966706514991069
1683999081144286600,8.08668701171875,1.4144618511559155,-0.4523420335010353,-0.4684090613732371
1683999081154328600,8.09672900390625,1.5574611424281262,0.34668731689434984,-0.46386545890118586
1683999081164370600,8.10677099609375,1.6358709334953605,0.9761457444411963,-0.47386842969562754
1683999081174412600,8.116813232421874,1.666383981684367,1.4748439787556689,-0.5802019836013703
1683999081184454800,8.126855224609375,1.6542823315046196,1.8785057069253486,-0.6290565133206145
1683999081194496900,8.1368974609375,1.4560526609458524,2.264512062073065,-0.9052534700382555
1683999081204538800,8.146939208984374,1.111166834723188,2.4864106179146157,-1.0916759968150107
1683999081214580900,8.156981201171876,0.7272435426677367,2.5540361402735696,-1.0858960152279538
1683999081224623000,8.1670234375,0.5228109360451175,2.4083299636557443,-0.9895941017457671
1683999081234665100,8.1770654296875,0.49257993698613206,2.0862283707666007,-0.7992479800717143
1683999081244707200,8.187107666015624,0.5809957979498308,1.7888751029273766,-0.7989228368051322
1683999081254749100,8.1971494140625,0.6907973288896865,1.5493831633011137,-1.0235741139477075
1683999081264791200,8.207191650390625,0.7026880980995461,1.3365917205300728,-1.283744812098945
1683999081274833300,8.217233642578124,0.47883522513162236,1.1287670135231769,-1.3037092685654488
1683999081284875400,8.22727587890625,0.16808187965492125,0.9351367950653636,-1.0956853629016587
1683999081294917600,8.23731787109375,-0.12140476694957154,0.7864408493082453,-0.7413244247511229
1683999081304959600,8.247360107421875,-0.27162277702127724,0.610935211148993,-0.5172646046666298
1683999081315001600,8.25740185546875,-0.30759811411263915,0.3659133912092537,-0.3554226459218424
1683999081325043600,8.267444091796875,-0.3284469842718303,0.08989620192068337,-0.3411269486815373
1683999081335085700,8.277486083984375,-0.3347408771391352,-0.018805503831619826,-0.40309160932106103
1683999081345127900,8.2875283203125,-0.3265043497203913,0.003513336148998374,-0.47787314655677987
1683999081355170000,8.2975703125,-0.36567962179082825,-0.022675514151155735,-0.6452096701598108
1683999081365211800,8.3076123046875,-0.37157773983749814,-0.01837062829873294,-0.7339013815211866
1683999081375253900,8.317654296875,-0.21868765353634706,-0.011685371470823647,-0.718862056810087
1683999081385296000,8.327696533203126,-0.08777105796614952,0.1246538163602276,-0.7045819759005788
1683999081395338200,8.337738525390625,-0.08976781373247329,0.34039211257783897,-0.6879651546363693
1683999081405380300,8.34778076171875,-0.1653764248641534,0.5442552567544712,-0.5834149122981475
1683999081415422100,8.357822509765626,-0.26423048975346963,0.6570129395248082,-0.37596619133197273
1683999081425464200,8.36786474609375,-0.32705008988298945,0.7095851897854725,-0.24402824046363633
1683999081435506400,8.37790673828125,-0.38402533543968864,0.7186527252789043,-0.025675565118054786
1683999081445548500,8.387948974609374,-0.5180221796675193,0.641184806808573,0.20924425107216796
1683999081455590600,8.397990966796876,-0.6854974032517642,0.42716693870158445,0.5296034812824256
1683999081465632600,8.408033203125,-0.8291386365738038,0.1367139815290279,0.8979514835836071
1683999081475674600,8.418074951171874,-1.022318363337433,-0.19426727309770445,1.1963318585132443
1683999081485716600,8.428116943359376,-1.236502885971708,-0.49445152292236744,1.4244410991238108
1683999081495758800,8.4381591796875,-1.2290626763888746,-0.6137056351350609,1.6125928162717695
1683999081505800900,8.448201171875,-0.8843836784340114,-0.4663772582378854,1.6417250633721605
1683999081515843000,8.458243408203124,-0.28114175783495104,0.03346920010248248,1.4616744517444853
1683999081525884800,8.46828515625,0.4889476300629669,0.5588808058857769,1.3211203813058676
1683999081535927000,8.478327392578125,1.0991500614343017,0.9365167618709889,1.0718357563587335
1683999081545969100,8.488369384765624,1.215494274995862,0.9376935959497753,0.7194162012553504
1683999081556011200,8.49841162109375,0.9659677743105183,0.7946157454144251,0.4559045730809885
1683999081566053300,8.50845361328125,0.4500601291388247,0.6456031797994923,0.33032569282764657
1683999081576095400,8.518495849609375,-0.2768537997903139,0.5092306136474598,0.20741862058778993
1683999081586137600,8.528537841796876,-0.8823282719330316,0.4424886703226905,0.02879685154433737
1683999081596179400,8.538579833984375,-1.2953832148260433,0.7892723081546069,-0.3677721024342733
1683999081606221600,8.548621826171875,-1.4386222363037509,1.2957944868341547,-0.6414747239255099
1683999081616263600,8.5586640625,-1.3909633159642376,1.5391659737325003,-0.8629182576708785
1683999081626305600,8.5687060546875,-1.14080095302489,1.2859239578698665,-1.0710828305185582
1683999081636347800,8.578748291015625,-0.6551334857357615,0.48943233481298776,-1.3334228992202433
1683999081646389600,8.5887900390625,-0.20735776417297705,-0.5910987853146824,-1.4802808761698407
1683999081656431800,8.598832275390626,0.042917132270069054,-2.062726020765913,-1.707684040021391
1683999081666473900,8.608874267578125,-0.11044275745253575,-3.7032918929587955,-2.2937905789126227
1683999081676516000,8.61891650390625,-0.8902102709207651,-5.193626403832911,-2.9369027613998138
1683999081686558100,8.62895849609375,-1.671563267716508,-5.932820320177085,-2.88126349444953
1683999081696600000,8.63900048828125,-1.309783458765115,-4.846459388832602,-0.49914288528934764
1683999081706642100,8.64904248046875,0.4374288321412673,-2.6897001266418323,1.3986445665682259
1683999081716684200,8.659084716796874,2.6657190324484046,-1.4231243133938183,1.8961975574139824
1683999081726726300,8.669126708984376,3.809647560171447,-0.602971076963722,1.5561367273673652
1683999081736768400,8.6791689453125,3.728683710022816,0.10835075384970946,1.1575956344352911
1683999081746810600,8.6892109375,3.315449237674906,0.6277332304505367,0.9222665428368948
1683999081756852400,8.699252685546876,2.9965796470845,1.1709508896478398,0.8466928004079234
1683999081766894600,8.709294921875,2.7929019926940466,1.6642007827996774,0.769018530719268
1683999081776936600,8.7193369140625,2.659850835819344,2.0457291602325434,0.7126949429758025
1683999081786978700,8.729379150390624,2.4468116759583007,2.2653632162676964,0.47821211813211645
1683999081797020800,8.739421142578125,2.103425502743089,2.3038535118150265,0.2557015419524042
1683999081807062600,8.749463134765625,1.3828654288426199,2.2085719107249924,-0.08338260638744516
1683999081817104800,8.759505126953124,-1.3040730954054496,2.0518651008533593,-1.2546483277642602
1683999081827146900,8.76954736328125,-2.333151578903221,1.2000732420384297,-2.3625369071203015
1683999081837189000,8.77958935546875,-1.3139379024534104,0.24851322175177612,-2.3643970489404147
1683999081847231200,8.789631591796875,-0.07908529056075833,-0.5215826034611324,-1.811607837654971
1683999081857273300,8.799673583984376,0.6834102869652112,-0.8693504333335913,-1.395815491602625
1683999081867315400,8.8097158203125,0.951046884015796,-0.8823614120472066,-1.2290959357813143
1683999081877357200,8.819757568359375,0.8695686460162215,-0.7956829071034266,-1.078735351560917
1683999081887399300,8.8297998046875,0.5928910374776908,-0.5090370178416727,-1.0026611090206283
1683999081897441500,8.839841796875,0.2642372847063255,-0.0468616484623732,-1.0110484361413599
1683999081907483600,8.849884033203125,0.30310550322834323,0.30380821231826,-0.8002321720217611
1683999081917525600,8.859926025390624,0.7828887106011548,0.46004390727166944,-0.41128230082105877
1683999081927567800,8.86996826171875,1.4395405053354502,0.5037574767835072,-0.09604966641495055
1683999081937609600,8.880010009765625,2.0064520835985435,0.34959030152053955,0.25596821307765694
1683999081947651800,8.89005224609375,2.433308601263179,0.2012710570959196,0.47957098470483633
1683999081957693900,8.90009423828125,2.707992792126917,0.04923820506932509,0.6347044706747343
1683999081967736000,8.910136474609375,2.7961111067857938,0.029497146528588924,0.6307588815787146
1683999081977778100,8.920178466796875,2.723468065421542,0.036576271033801226,0.57511365429629
1683999081987820000,8.930220458984374,2.546992778793697,0.025156020999870132,0.5261677503406849
1683999081997862100,8.940262451171876,2.3709807395208613,0.012012481620064136,0.337540388037803
1683999082007904200,8.9503046875,2.2298955918294032,-0.0031375884167122686,0.09423267838116835
1683999082017946300,8.9603466796875,2.105158329091318,-0.027697563096676172,-0.1643954517130898
1683999082027988400,8.970388916015626,1.9826345444483024,-0.04512691495816947,-0.43016803250828417
1683999082038030300,8.9804306640625,1.8694715500871233,-0.024522781543127342,-0.5973731278487318
1683999082048072400,8.99047265625,1.7341837884141484,-0.023334503173469984,-0.7806355952284239
1683999082058114600,9.000514892578124,1.5637261867550654,0.03964996349820728,-0.9223680496500373
1683999082068156600,9.010556884765624,1.2677625417726943,0.11410045627318369,-1.1347974538603482
1683999082078198600,9.02059912109375,0.7713242173189598,0.19277000416336795,-1.3890651463507198
1683999082088240800,9.03064111328125,0.12247486420945514,0.3112926481456507,-1.6344434023881866
1683999082098282900,9.040683349609376,-0.4330672025243847,0.40970230094465837,-1.681378483660952
1683999082108324800,9.05072509765625,-0.6680918930292956,0.42595195763373467,-1.5963647366747482
1683999082118366900,9.060767333984376,-0.5021116733861933,0.3484296797934189,-1.4460332394687583
1683999082128409000,9.070809326171876,-0.0411844327501498,0.23488521570150667,-1.1664198636022283
1683999082138451100,9.0808515625,0.5158621668974157,0.16438674923351457,-0.7683758735453129
1683999082148493200,9.0908935546875,1.0406297445630828,0.15835189814111583,-0.436766266929626
1683999082158535100,9.100935546875,1.4174498320283213,0.09962654120699739,-0.21023523812316217
1683999082168577200,9.1109775390625,1.5997370482549536,0.05755043019083848,-0.09099709989330343
1683999082178619300,9.121019775390623,1.6146293877636257,-0.013319969279367808,0.09307610995608265
1683999082188661400,9.131061767578124,1.424204468850256,-0.10565185551309318,0.25756561757074603
1683999082198703600,9.14110400390625,1.1328171491493906,-0.15480422973248192,0.3684000968887767
1683999082208745600,9.15114599609375,0.7738263011448614,-0.1822538376298314,0.43226385109439486
1683999082218787600,9.16118798828125,0.3951598407492646,-0.14736652373707174,0.4012211562372966
1683999082228829600,9.17122998046875,0.0731018483486894,-0.11947917943263192,0.3566353320809963
1683999082238871700,9.181272216796875,-0.17862020428166195,-0.10569095618102668,0.2891288996035628
1683999082248913800,9.191314208984377,-0.32763692730515415,-0.11075782772194005,0.18728601944058682
1683999082258956000,9.2013564453125,-0.3349013030001738,-0.175241470222748,0.08744513995351579
1683999082268998100,9.2113984375,-0.2387360334865246,-0.20345687862557094,0.03748226174429315
1683999082279040200,9.221440673828123,-0.0639900565699876,-0.20510292044160083,-0.022206783155373517
1683999082289082000,9.231482421875,0.1233143508595239,-0.16119480141593728,-0.06526482093302548
1683999082299124100,9.241524658203126,0.28583601114490675,-0.11257743846243083,-0.08177924167634135
1683999082309166300,9.251566650390624,0.391407340832146,-0.06651306152871296,-0.10980772964984407
1683999082319208400,9.26160888671875,0.4728661776486823,-0.011102676310665575,-0.11576235286298049
1683999082329250600,9.27165087890625,0.5107373595224212,0.020193100010533833,-0.06874001038483188
1683999082339292300,9.281692626953124,0.531239926738239,0.06093311308248074,-0.01701235773334024
1683999082349334400,9.29173486328125,0.5369807483632312,0.056188583313621455,0.06081557266716194
1683999082359376600,9.30177685546875,0.5402667522658215,0.06100463873748708,0.04772520068675634
1683999082369418600,9.311819091796876,0.5416502952428457,0.034778595120878435,0.15409028537178562
1683999082379460800,9.321861083984375,0.584553003209183,0.015834808379936994,0.18366599094472946
1683999082389502900,9.3319033203125,0.633120179201059,-0.04596233356957004,0.21054100976971718
1683999082399544800,9.341945068359376,0.6893429755510535,-0.10269832623698714,0.22720277309784373
1683999082409586900,9.3519873046875,0.7240632175832152,-0.12573719031157857,0.2527339457977222
1683999082419629000,9.362029296875,0.7107458115652658,-0.1557483672488745,0.2344386577279085
1683999082429671100,9.372071533203124,0.6970273255445003,-0.1759977339950359,0.1962462663497779
1683999082439713200,9.382113525390626,0.6590955258375193,-0.15545940409309625,0.1787804364202068
1683999082449755300,9.39215576171875,0.5996948481942965,-0.16115856184245392,0.05818545831132661
1683999082459797400,9.40219775390625,0.5690987706194539,-0.15484905251738051,-0.026611328128278825
1683999082469839300,9.41223974609375,0.5005761385846124,-0.1103334426923623,-0.09212458140414582
1683999082479881400,9.42228173828125,0.4351419508472909,-0.07791423797664983,-0.171463251029322
1683999082489923600,9.432323974609377,0.3806634842753579,-0.057598113969573775,-0.2093093395953369
1683999082499965600,9.442365966796874,0.3469335733448143,-0.018331527537717152,-0.21275472643965293
1683999082510007600,9.452408203125,0.33894369004603564,-0.015104293836638038,-0.1650247572241247
1683999082520049600,9.462449951171877,0.3540966213332893,0.038143157924270386,-0.1618032455021792
1683999082530091600,9.4724921875,0.40657126899222895,0.05050659181408192,-0.08343815804266658
1683999082540133800,9.4825341796875,0.5103104115627656,0.06506347666377339,-0.07342946538668772
1683999082550175900,9.492576416015623,0.6126005649372827,0.05075550066690789,0.021264791312137304
1683999082560218000,9.502618408203125,0.7658860684388169,0.07929229722675922,0.07382357103453327
1683999082570260100,9.51266064453125,0.9269344806966934,0.10524845126193433,0.17714655405191404
1683999082580302300,9.52270263671875,1.0738437175698878,0.13107585901632393,0.2805562020357121
1683999082590344100,9.53274462890625,1.2344298361993669,0.12817096715131662,0.33105576025823324
1683999082600386200,9.54278662109375,1.3263185024278465,0.07409572603478033,0.2742478847273255
1683999082610428300,9.552828857421876,1.3057423830953434,-0.016697883753351368,0.15893638141087538
1683999082620470400,9.562870849609377,1.1785047053633224,-0.08244132995668377,0.005073666509849124
1683999082630512600,9.572912841796876,0.9658273458367294,-0.11185264584140234,-0.15798807141687773
1683999082640554400,9.582954833984376,0.6942378281455825,-0.15967559810947646,-0.28989243511326895
1683999082650596600,9.592996826171875,0.423190623516457,-0.18791294089871968,-0.3956720830107538
1683999082660638600,9.6030390625,0.2598682343862914,-0.17812061320030023,-0.44458997251808563
1683999082670680800,9.6130810546875,0.10242179033749757,-0.1545038222621311,-0.43020319938491786
1683999082680722900,9.623123291015624,-0.022656679168674303,-0.11265850080090804,-0.3460623025493553
1683999082690765000,9.633165283203123,-0.05196997522617849,-0.0905914305739157,-0.18377304076897316
1683999082700807100,9.64320751953125,0.0009219944468532007,-0.08795356746066513,0.05741500849601368
1683999082710848900,9.653249267578126,0.06837086388533388,-0.07846641538246496,0.23915624632624746
1683999082720891100,9.66329150390625,0.21581365166440744,-0.09280300132342906,0.40204226974836854
1683999082730933200,9.67333349609375,0.3780432940629129,-0.1634588242864688,0.508247494615555
1683999082740975300,9.683375732421876,0.5681027173799824,-0.17876625057946818,0.5675544738066186
1683999082751017400,9.693417724609375,0.7511324284702201,-0.11836433426799238,0.5071254968297999
1683999082761059600,9.7034599609375,0.8949485420183964,-0.032970428474118074,0.41605937480573957
1683999082771101400,9.713501708984374,0.972800433678134,0.01578712456233227,0.28314816965068634
1683999082781143600,9.7235439453125,0.9731401203861385,0.054335594327777244,0.09307372557998704
1683999082791185600,9.7335859375,0.8881194590828639,0.08274269090623812,-0.06075370306347506
1683999082801227600,9.743628173828125,0.7179530264485423,0.05873298643226556,-0.11495089525841949
1683999082811269800,9.753670166015626,0.5244711635981039,0.07264327997163703,-0.16533100600755532
1683999082821311900,9.76371240234375,0.3329479694259468,0.07435512547112097,-0.19289398202164226
1683999082831353800,9.773754150390625,0.1794954389193815,0.0875053405599218,-0.21876668924879963
1683999082841395900,9.78379638671875,0.06392679357150456,0.09300422668522015,-0.24042081826388623
1683999082851438000,9.79383837890625,0.004637468702364599,0.10266971583519877,-0.19885730733188195
1683999082861480100,9.803880615234377,0.019373960648577753,0.18468284621793035,-0.17993378633171347
1683999082871522200,9.813922607421874,0.056896708883752506,0.1307058334524194,-0.10590505590300925
1683999082881564300,9.82396484375,0.20091757182462863,0.06311225900342803,-0.039175033618825975
1683999082891606200,9.834006591796877,0.3739116788821474,0.008069038402934315,0.046072125416350806
1683999082901648300,9.844048583984376,0.530470252114957,-0.046229362504445475,0.16519606117656274
1683999082911690400,9.8540908203125,0.69845795644532,-0.1586923600812744,0.2614655495187382
1683999082921732600,9.8641328125,0.8281382322237507,-0.32835102076627837,0.3918353318804879
1683999082931774600,9.874175048828125,0.9461656809873419,-0.44122600561919356,0.6121810673618718
1683999082941816800,9.884217041015624,1.060193777094193,-0.4111089707800147,0.8548556566811166
1683999082951858900,9.89425927734375,1.0880395174038562,-0.2332553862993464,1.0627286435701369
1683999082961900600,9.904301025390623,1.0591982603283534,-0.11496639258040212,1.2365416288426558
1683999082971942800,9.91434326171875,0.9576354026832549,-0.0010452271602876784,1.348441362342643
1683999082981984900,9.92438525390625,0.7720751166068,0.11358928675837701,1.4076192377980385
1683999082992027100,9.934427490234375,0.5031807423722847,0.2576065064097597,1.363681793115637
1683999083002069200,9.944469482421876,0.18784371023169177,0.2988576889746366,1.203339338314765
1683999083012111300,9.95451171875,-0.15096321701782017,0.3548097610269213,1.0225334166389055
1683999083022153100,9.964553466796875,-0.4672082661020981,0.4018516539114659,0.7757738829754718
1683999083032195200,9.974595703125,-0.771287321900022,0.37742614745351083,0.46744716170494055
1683999083042237400,9.9846376953125,-1.0851275921359065,0.28827667239022714,0.15712451931960456
1683999083052279500,9.994679931640626,-1.3827279804543329,0.17220592487490077,-0.11763310425643199
1683999083062321600,10.004721923828123,-1.53882157786807,0.06470775610540669,-0.28185510625146304
1683999083072363600,10.01476416015625,-1.665963172872692,0.027719497687038557,-0.34537458427917567
1683999083082405800,10.02480615234375,-1.684332370707081,0.0516653060601684,-0.2806456088686819
1683999083092447600,10.03484814453125,-1.542428135890383,0.10090923322674952,-0.16277313245738195
1683999083102489800,10.04489013671875,-1.2659823894279043,0.13995647419637636,-0.06854176507666446
1683999083112531900,10.054932373046874,-0.9732345342460205,0.09521675102001784,0.0951490401831755
1683999083122574000,10.064974365234375,-0.6806967258590978,-0.030373573372354152,0.23740077013182156
1683999083132616100,10.0750166015625,-0.4581797124769804,-0.16475391389864144,0.3653467893114948
1683999083142658000,10.085058349609374,-0.3642203806672726,-0.3031997680357827,0.3169051408681459
1683999083152700100,10.0951005859375,-0.294083476036127,-0.493555069073541,0.25709414475102216
1683999083162742200,10.105142578125,-0.34864306436291514,-0.6879272460984223,0.17316865928724612
1683999083172784300,10.115184814453125,-0.4088119268088644,-0.8147525787400872,0.10524797431739195
1683999083182826400,10.125226806640624,-0.5472445488363538,-0.8553447724252493,-0.1780560016652716
1683999083192868600,10.13526904296875,-0.61774384958433,-0.7430877687042728,-0.40882468215069656
1683999083202910600,10.14531103515625,-0.7162063121239345,-0.6428661347038427,-0.6694850921310378
1683999083212952600,10.155352783203124,-0.8239527941518933,-0.5253829956771803,-0.7569417953274581
1683999083222994600,10.16539501953125,-0.842228412612034,-0.4949283599363466,-0.7481808661738025
1683999083233036600,10.17543701171875,-0.9413986206170591,-0.32444190982389687,-0.6213498115198985
1683999083243078800,10.185479248046876,-1.0268762113231484,-0.21556568139358062,0.017049312622716625
1683999083253120900,10.195521240234376,-1.0094196796664476,-0.1970863343012179,0.71251833449785
1683999083263163100,10.2055634765625,-0.8151450156984869,-0.18231678006865285,1.3980137109548163
1683999083273204900,10.215605224609376,-0.4587970971818226,-0.17547416682002276,1.991971254457424
1683999083283247000,10.2256474609375,-0.028575778035350434,-0.10032176967417732,2.1698207854674925
1683999083293289100,10.235689453125,0.409149527403224,-0.048537254270784626,2.078320503351465
1683999083303331200,10.245731689453123,0.8088037967633667,0.1301307678828752,1.9506865740212838
1683999083313373400,10.255773681640624,1.149817466683837,0.20363998418592943,1.6069359779274537
1683999083323415600,10.26581591796875,1.5225175619311517,0.25341129300851206,1.1580158471505193
1683999083333457300,10.275857666015623,1.7570391893504567,0.24629592881917287,0.6393604280050283
1683999083343499400,10.28589990234375,1.8386999369791908,0.2660799027321941,0.05436348914627906
1683999083353541600,10.29594189453125,1.8518068788968367,0.24793624880308232,-0.4016956091794096
1683999083363583600,10.305984130859375,1.7589740754530583,0.28480339049734565,-0.7730170487351141
1683999083373625800,10.316026123046877,1.554514646632423,0.2783946991666709,-1.0259159803754525
1683999083383667900,10.326068359375,1.1661028861858638,0.19514560697645572,-1.2082526683155501
1683999083393710000,10.3361103515625,0.5305967330068105,-0.027139663756627255,-1.1979105473387295
1683999083403752100,10.346152587890623,-0.035198807576285955,-0.17819499967599536,-1.0576964617218947
1683999083413794000,10.3561943359375,-0.36287820347588456,-0.2175483703418012,-1.050496339779984
1683999083423836100,10.366236572265626,-0.4057970046886965,-0.2121219633736584,-1.231946825954587
1683999083433878200,10.376278564453123,-0.22333347788918959,-0.2142009734648954,-1.3899959326844291
1683999083443920300,10.38632080078125,-0.07524514203931147,-0.2162065505950469,-1.430597662921685
1683999083453962400,10.39636279296875,0.12496650211517342,-0.14861392976291807,-1.4777530432240433
1683999083464004300,10.40640478515625,0.2818709612324014,-0.05673980720977285,-1.499136924844364
1683999083474046400,10.41644677734375,0.389559030538525,0.03323268881828087,-1.4272890090079677
1683999083484088600,10.426489013671874,0.4883990288243712,0.14988136290224668,-1.3353031875199752
1683999083494130600,10.436531005859376,0.5313448905059557,0.26660537711869375,-1.3082103728777408
1683999083504172600,10.446572998046875,0.6219695806125928,0.3521070480396761,-1.2207326889471137
1683999083514214800,10.456615234375,0.7839652300364799,0.4445629120034703,-1.1599240301983322
1683999083524256900,10.4666572265625,1.0119919778194082,0.5009975433169113,-1.0961351394621501
1683999083534298800,10.47669921875,1.2649977206383578,0.5549144744457222,-0.9802262784050007
1683999083544340900,10.4867412109375,1.514066934496571,0.6278800965623839,-0.7618441582355131
1683999083554383000,10.496783447265624,1.6344237328470785,0.5577039719723984,-0.4183943272171443
1683999083564425100,10.506825439453126,1.538417577907982,0.5501995086560982,-0.11193257566046959
1683999083574467200,10.51686767578125,1.2783497571977223,0.42357635493727364,0.3055462837739412
1683999083584509400,10.52690966796875,0.9854961634652636,0.2567119599296107,0.5804974437993492
1683999083594551500,10.536951904296876,0.7328395843752195,0.08530902852540544,0.8723323343764285
1683999083604593300,10.54699365234375,0.5087929963712411,-0.038295745847863924,0.8766190409588783
1683999083614635400,10.557035888671876,0.2586085796928937,-0.18844890596054048,0.6535463930375276
1683999083624677600,10.567077880859374,0.10270237927232087,-0.16713905345325025,0.15053299074203647
1683999083634719600,10.5771201171875,-0.039208888933963716,-0.061036109814213355,-0.5415319203109896
1683999083644761800,10.587162109375,-0.06295466423987076,0.07916545857631933,-1.0546021461957307
1683999083654803900,10.597204345703124,-0.0022771359598387445,0.17940711968112033,-1.295777916874705
1683999083664846000,10.607246337890626,0.1513720750654274,0.31880188003001825,-1.440597415062969
1683999083674887900,10.617288330078123,0.35826396947563727,0.3924608229416585,-1.4632995127941208
1683999083684930000,10.627330322265625,0.5470199583584648,0.5155839919851969,-1.4528295993820763
1683999083694972100,10.63737255859375,0.7224179506010351,0.6264972686868476,-1.4415950774902908
1683999083705014200,10.64741455078125,0.7757800818485767,0.6944646835577185,-1.422967076366798
1683999083715056300,10.657456787109377,0.731500744959861,0.7219362259897898,-1.4609489440333585
1683999083725098400,10.667498779296874,0.6973004341719207,0.6660327912461678,-1.4741207360254076
1683999083735140300,10.677540771484376,0.5415275095096914,0.6082353592399322,-1.4535913468053308
1683999083745182400,10.687582763671877,0.3099436760077954,0.5485467910804427,-1.3782167434366854
1683999083755224600,10.697625,-0.015712976417374458,0.4032297134542657,-1.2880798578350023
1683999083765266600,10.7076669921875,-0.288756132205073,0.35381698623531577,-1.0944263934642406
1683999083775308600,10.717709228515623,-0.3781508207863163,0.3857803343842729,-0.7645397186435432
1683999083785350800,10.727751220703125,-0.2871845960537807,0.3414335250681338,-0.4647504389890739
1683999083795392900,10.73779345703125,-0.11453771594555695,0.24253940578878813,-0.24101006980734754
1683999083805434800,10.747835205078124,0.09195888035020797,0.12025070193726335,-0.1886818705633266
1683999083815476900,10.757877197265625,0.24915754803225962,-0.011180877780879155,-0.2400228083389638
1683999083825519000,10.76791943359375,0.3723707198928222,-0.08266448978587551,-0.28719183807727267
1683999083835561100,10.77796142578125,0.43826925754868545,-0.08964538575288257,-0.3236140012700154
1683999083845603200,10.788003662109375,0.42821419230369395,0.034548759421311755,-0.31670957800404537
1683999083855645400,10.798045654296876,0.3538287877223664,0.10820961003525303,-0.28829610349088985
1683999083865687600,10.808087890625,0.18414354334000657,0.11952018735218128,-0.2572166918324706
1683999083875729300,10.818129638671875,-0.08931529534270388,0.08279991144347766,-0.19729328152365128
1683999083885771400,10.828171875,-0.40314114094936265,0.014701843297843704,-0.18300187595644948
1683999083895813600,10.8382138671875,-0.7560163737301465,-0.08493995665057029,-0.2189232706915802
1683999083905855600,10.848256103515626,-1.0654983520504238,-0.17092037189831427,-0.2282975911462576
1683999083915897800,10.858298095703123,-1.288030147519652,-0.217177390975675,-0.2800866364759239
1683999083925939900,10.86834033203125,-1.2670160532937647,-0.152046203526008,-0.29754364491485424
1683999083935982000,10.87838232421875,-0.9705721140397738,0.03197288512115027,-0.2659212948053168
1683999083946023900,10.88842431640625,-0.5232439041167896,0.31153297415457964,-0.24166560171066875
1683999083956066000,10.89846630859375,-0.0961049796847837,0.5485639571593252,-0.27183258544431743
1683999083966108100,10.908508544921874,0.25721383095632494,0.5905361176450751,-0.4300782681086903
1683999083976150200,10.918550537109375,0.6210316420369764,0.2610301971542405,-0.72048264753023
1683999083986192300,10.9285927734375,0.9198594093162828,-0.281785965065617,-1.1606150865286184
1683999083996234400,10.938634765625,1.052677512173083,-0.703553199648138,-1.4887728689886734
1683999084006276300,10.9486767578125,0.9720959663806523,-0.9501590728504004,-1.6607172489523434
1683999084016318400,10.95871875,0.7763541937311026,-1.2945833206766693,-1.9345966576562454
1683999084026360600,10.968760986328125,0.3785996438377361,-1.8848047257253047,-2.437857627884131
1683999084036402600,10.978802978515626,-0.6727033854280147,-2.5104322433124326,-3.0503282547346893
1683999084046444600,10.98884521484375,-2.651600122416482,-2.904599189750523,-3.242944479074144
1683999084056486800,10.99888720703125,-3.077803373360022,-2.1147050857972913,-2.0224742888289877
1683999084066528600,11.00892919921875,-1.219124913355408,-0.7362680434901618,-0.35345053674299093
1683999084076570800,11.01897119140625,0.936432063556602,0.16325569156444644,0.8964999914064273
1683999084086612900,11.029013427734377,2.476896762921176,0.4994707106933285,1.5863906144346043
1683999084096655000,11.039055419921874,3.0668535233737355,0.796010017440165,1.4635477066122584
1683999084106697100,11.04909765625,2.988950252433833,1.2165660859826808,0.8986176253306426
1683999084116739200,11.0591396484375,2.718629836936273,1.521353721598077,0.5667444465826499
1683999084126781400,11.069181640625,2.4035289289275332,1.617314815520337,0.40050756938656945
1683999084136823200,11.0792236328125,2.1144473552382284,1.4812393188947428,0.3592343331727491
1683999084146865300,11.089265625,1.65952801717293,1.1262731553592076,0.35124742996678043
1683999084156907400,11.099307861328125,1.0020111798845632,0.7160758971718049,0.19877910613450842
1683999084166949600,11.109349853515624,0.48723912246935486,0.257767677234779,-0.016998291131136975
1683999084176991600,11.11939208984375,0.32160526507448256,-0.15368461609779022,-0.21007251732713816
1683999084187033800,11.12943408203125,0.4003281592797242,-0.40910434720866223,-0.31370544424069396
1683999084197075900,11.139476318359376,0.5403357146858941,-0.5665607450988903,-0.5033416749340144
1683999084207118000,11.149518310546876,0.6697698831124569,-0.557241439886181,-0.6596438885159591
1683999084217159900,11.159560302734375,0.770784020571623,-0.508258819655338,-0.7847512960053558
1683999084227202000,11.169602294921877,0.819407701426359,-0.453063964800378,-0.8356666565124273
1683999084237244100,11.17964453125,0.8004243970202809,-0.3077917099367304,-0.8394868373605153
1683999084247286200,11.1896865234375,0.777107000199666,-0.11297225952376799,-0.8254995345428258
1683999084257328300,11.199728759765623,0.7197468877881353,0.08364200600575251,-0.7339911460765849
1683999084267370400,11.209770751953124,0.7024595140816505,0.28685188301280923,-0.6201025247137956
1683999084277412600,11.21981298828125,0.6976394653274656,0.3627595901463231,-0.4978586435306403
1683999084287454400,11.229854736328123,0.7733308077354425,0.45965003971634205,-0.42448198795038866
1683999084297496600,11.23989697265625,0.891336500794262,0.4866237639792118,-0.38012766849390645
1683999084307538600,11.24993896484375,1.0426483155259478,0.4725904465174191,-0.3642451763238684
1683999084317580600,11.259981201171875,1.1768076420355773,0.34622097008310293,-0.2668079138714355
1683999084327622800,11.270023193359377,1.2708525656879381,0.20120906827746302,-0.13899695869392215
1683999084337664900,11.2800654296875,1.3179466724893951,0.09982872017575253,-0.07721447948800478
1683999084347707100,11.290107421875,1.3736536502078602,-0.005807876571523388,-0.1220451593484799
1683999084357748900,11.3001494140625,1.435444116581694,-0.14422321322354723,-0.14245593565622525
1683999084367791000,11.31019140625,1.4620115756887588,-0.27699184424432094,-0.22492897503852766
1683999084377833100,11.320233642578126,1.433811545555287,-0.3754348755868832,-0.27860712989279557
1683999084387875200,11.330275634765623,1.3816094397614307,-0.4037075042823234,-0.3255648613137324
1683999084397917400,11.34031787109375,1.271948337735219,-0.3690748215461219,-0.34957563876095243
1683999084407959600,11.35035986328125,1.1575696466625307,-0.3051872251650078,-0.3983345031548019
1683999084418001600,11.360402099609376,0.977185010974009,-0.15019321436492222,-0.4522147178824734
1683999084428043400,11.37044384765625,0.7873235940072485,0.014284133900125192,-0.4820154905220208
1683999084438085600,11.38048583984375,0.6474059820784325,0.16647338875462378,-0.515651941161867
1683999084448127600,11.390528076171876,0.5378319620609929,0.29894447315577255,-0.628326773621485
1683999084458169800,11.400570068359375,0.49591463808965575,0.32074737548635074,-0.6347447633142065
1683999084468211900,11.4106123046875,0.5483052730179068,0.3633632661279469,-0.6393697261215596
1683999084478254000,11.420654296875,0.663375913971892,0.3860216140413898,-0.6794873475792236
1683999084488296100,11.430696533203124,0.8107976316389259,0.4126119613165643,-0.6516987085246881
1683999084498338000,11.44073828125,0.957739591493018,0.4145021437796207,-0.6467548609654172
1683999084508380100,11.450780517578124,1.080845594459888,0.3965787885981192,-0.5738034248823303
1683999084518422200,11.460822509765626,1.181383490647361,0.318417549102716,-0.4764873982568182
1683999084528464300,11.47086474609375,1.2458899021613576,0.2685489654732171,-0.4360151291730985
1683999084538506400,11.48090673828125,1.2797722816539006,0.23028945932325504,-0.32607042782622425
1683999084548548600,11.490948974609376,1.2509956361011003,0.1846084594199354,-0.21667456628260667
1683999084558590600,11.500990966796875,1.1383488176971683,0.06461048131935068,-0.08394122126110078
1683999084568632600,11.511032958984377,0.9770132304264915,-0.0650358200627504,0.24837255473731548
1683999084578674600,11.521074951171874,0.7859521507930196,-0.19456863389342985,0.5636283159988471
1683999084588716600,11.5311171875,0.6316146254817546,-0.2498636246237183,0.7585878373176015
1683999084598758800,11.5411591796875,0.5009797216083406,-0.32177352906542817,0.9167363643926981
1683999084608800900,11.551201416015624,0.4161544442767578,-0.32179164890884404,1.0138875246824162
1683999084618843100,11.561243408203126,0.3507327437958921,-0.2976894379849182,1.032775044480162
1683999084628885200,11.57128564453125,0.2850006221477437,-0.23030948640501506,0.994666457306802
1683999084638927000,11.581327392578125,0.2277839183454245,-0.1721992491842437,0.8276844025061417
1683999084648969100,11.59136962890625,0.19520592701803696,-0.14255428325426145,0.635399699206083
1683999084659011200,11.60141162109375,0.1562935114748559,-0.12479496004536292,0.41891372214399863
1683999084669053400,11.611453857421877,0.1447992324019633,-0.11429595949956081,0.2770892381316946
1683999084679095500,11.621495849609374,0.1633570044427616,-0.063308715766726,0.1788949965898177
1683999084689137600,11.6315380859375,0.236188337193842,-0.02448081977698797,0.13148736945482822
1683999084699179600,11.641580078125,0.31745967266892977,-0.014532089135336435,0.0513193605910189
1683999084709221600,11.6516220703125,0.3843792975145257,0.032948493960290995,0.05962371825937456
1683999084719263600,11.6616640625,0.45049524307088357,0.060548782351851835,0.09473681442321163
1683999084729305800,11.6717060546875,0.5103360415114446,0.09917736052438222,0.11151158818600414
1683999084739347900,11.681748291015625,0.5490216017252487,0.0944738388271492,0.15970158579242352
1683999084749390000,11.691790283203124,0.5618910194199975,0.10362434380773922,0.18941175948024752
1683999084759432100,11.70183251953125,0.5374646186590043,0.09110355366044158,0.22431981564880585
1683999084769474200,11.71187451171875,0.4952680468780407,0.1020135879774508,0.30189645291069844
1683999084779516100,11.72191650390625,0.42462125428365877,0.09592723851680215,0.3226859570246333
1683999084789558200,11.73195849609375,0.35305401700817046,0.0520162583447226,0.431071281497073
1683999084799600300,11.742000732421875,0.2891191243852216,-0.017224311831911015,0.5195331574100768
1683999084809642400,11.752042724609376,0.27115350966880697,-0.040662765471042334,0.6118129490775555
1683999084819684600,11.7620849609375,0.2841463089935787,-0.042525291451626666,0.66514670834956
1683999084829726600,11.772126953125,0.3177328407345804,-0.07726478570931752,0.679928779517476
1683999084839768800,11.782169189453125,0.2979131341331982,-0.07131481170004778,0.6753740310015068
1683999084849810900,11.792211181640624,0.2489193379150309,-0.058326721049735825,0.6330224276131511
1683999084859852600,11.802253173828126,0.2162002920606138,-0.06428241729250533,0.6028531788772377
1683999084869894800,11.812295166015623,0.1811807750961724,-0.08178901671890781,0.5612229110090662
1683999084879936900,11.82233740234375,0.16105848557078045,-0.13654327398461721,0.4990479945960536
1683999084889979100,11.83237939453125,0.20507836341905325,-0.1574335099127273,0.4831774236174688
1683999084900021200,11.842421630859375,0.2836776377200574,-0.1074275970801002,0.4730575085262027
1683999084910063300,11.852463623046877,0.37012028705015315,-0.09836483002588356,0.525069952182829
1683999084920105400,11.862505859375,0.45420879116837887,-0.04722499836162702,0.4993636607905716
1683999084930147600,11.8725478515625,0.5281355977819576,-0.011289596603044546,0.5033107996658293
1683999084940189400,11.88258984375,0.617277443293125,-0.03258609765260713,0.5641021728216319
1683999084950231600,11.8926318359375,0.7159069180986974,-0.07003879547246991,0.5836880207388846
1683999084960273600,11.902674072265626,0.814000487216037,-0.12100124344733855,0.6190603971931419
1683999084970315600,11.912716064453123,0.906705141098718,-0.2721481323173011,0.6997156143365869
1683999084980357800,11.92275830078125,0.9892535804932919,-0.41099262242357054,0.7959408759568828
1683999084990399900,11.93280029296875,1.087082862724802,-0.4555854797323936,0.8471273182968854
1683999085000442000,11.942842529296875,1.1241343021655348,-0.6097354889417116,0.9353823661076616
1683999085010484100,11.952884521484377,1.206906557161316,-0.7113294600346748,1.0096898078876928
1683999085020526000,11.962926513671874,1.2261452674729005,-0.9047393799303494,1.0838249921980705
1683999085030568100,11.972968505859376,1.2114064692640079,-1.066001892072976,1.0823663472425125
1683999085040610200,11.9830107421875,1.1968679429101994,-1.3202648163249595,1.1119011639624763
1683999085050652300,11.993052734375,1.103558540525893,-1.477244377279698,1.1986981629195785
1683999085060694400,12.0030947265625,1.0045864582357673,-1.470176696821898,1.101824402754331
1683999085070736600,12.013136962890623,0.813958406387778,-1.4842557907794485,0.9059569834914499
1683999085080778600,12.023178955078125,0.5031019449863555,-1.488627433861474,0.7111642360447135
1683999085090820600,12.033220947265624,0.08167964217098854,-1.1322517394474498,0.4323453902264169
1683999085100862600,12.043262939453124,-0.667315661929275,-0.6930513381817394,-0.017638683256363034
1683999085110904800,12.05330517578125,-1.6486011742421876,-0.2997293472927824,-0.6819512843195085
1683999085120946900,12.06334716796875,-2.5080323218914224,-0.020175933701511838,-1.3371014595390989
1683999085130989000,12.073389404296876,-2.9053673743883444,0.16401004774381478,-1.7523496151759557
1683999085141031100,12.083431396484375,-2.7785539627310474,0.5581817626337326,-2.121351480606817
1683999085151073200,12.0934736328125,-2.386911630726748,0.8777322769896002,-2.666754961008912
1683999085161115100,12.103515380859376,-1.8723738193213217,0.9656352996086133,-2.78499293316208
1683999085171157200,12.1135576171875,-1.3309589623963665,0.9029598235628777,-2.5475311280648048
1683999085181199300,12.123599609375,-0.8195230959729939,0.7306776047169178,-2.037449359910443
1683999085191241400,12.133641845703124,-0.3770327865123908,0.5781631470428678,-1.3708777428750263
1683999085201283600,12.143683837890626,-0.031541328993776166,0.3216114043099862,-0.6046762466666924
1683999085211325600,12.15372607421875,0.17613530163965918,0.12922573094059744,0.17451727377590573
1683999085221367600,12.16376806640625,0.24712139374434575,-0.08447551728255132,0.6945536135880361
1683999085231409600,12.17381005859375,0.07981670651648556,-0.30720996852602483,0.921666026178224
1683999085241451600,12.18385205078125,-0.2601252197714377,-0.49589920042108354,0.9442082643273263
1683999085251493800,12.193894287109377,-0.607347548073899,-0.5549259186364089,0.7606700659548311
1683999085261535900,12.203936279296874,-0.8829374313400588,-0.5132675171271489,0.4295330047149311
1683999085271578000,12.213978515625,-0.9842665194688175,-0.4144754409209389,0.003291845331581853
1683999085281620100,12.2240205078125,-0.9629204868707077,-0.31886863712301783,-0.46722698217540953
1683999085291662300,12.234062744140624,-0.8039242029193998,-0.21506118777226016,-0.9474141597447537
1683999085301704400,12.244104736328126,-0.5334949494084722,-0.14630317690641192,-1.2652019262259566
1683999085311746600,12.25414697265625,-0.13628256319222187,-0.10770893084888464,-1.5045086143807231
1683999085321788300,12.264188720703125,0.316288232671938,-0.0512313841354571,-1.669736146982257
1683999085331830400,12.27423095703125,0.8794934749661202,-0.017203331004970256,-1.7094931602006294
1683999085341872600,12.28427294921875,1.4839322566438637,0.016475677571105653,-1.7106478215059844
1683999085351914600,12.294315185546877,1.9945042133685202,0.11733055111702634,-1.635769367143433
1683999085361956800,12.304357177734374,2.133046388507697,0.12344551095041306,-1.5467734336976315
1683999085371998900,12.3143994140625,2.004015445748414,0.059345245384853605,-1.4014371634043605
1683999085382041000,12.32444140625,1.7556850909982442,-0.046084403971252436,-1.298396587422649
1683999085392082900,12.334483154296874,1.5856282711610294,-0.1308021545513486,-1.2154421805967586
1683999085402125000,12.344525390625,1.4680765868918402,-0.12821960440892075,-1.1388415097707463
1683999085412167100,12.3545673828125,1.400791049133732,-0.06027793882522845,-1.0351873637227684
1683999085422209200,12.364609619140625,1.4079651832152003,0.10617160804876831,-0.9651629923764357
1683999085432251300,12.374651611328124,1.4296483993878266,0.38050174701159123,-0.8562765122234587
1683999085442293400,12.38469384765625,1.482036828943189,0.6600236892348604,-0.7494666575565662
1683999085452335600,12.39473583984375,1.4035706520740208,0.9018468856234503,-0.7275742292501778
1683999085462377400,12.40477783203125,1.2037241459300918,1.0915803910646549,-0.7300581932340139
1683999085472419600,12.41481982421875,1.0117416381341675,1.226515769999723,-0.6831191777428263
1683999085482461600,12.424862060546875,0.7213006020401368,1.353473663407482,-0.8416686057809114
1683999085492503700,12.434904052734376,0.5154670475826039,1.4284276964002152,-1.006227493311069
1683999085502545800,12.4449462890625,0.3771921397339228,1.3868999480971405,-1.0693669320220272
1683999085512588000,12.45498828125,0.313944458987944,1.2678689955337072,-1.122276544418741
1683999085522630100,12.465030517578125,0.32918977731966154,1.1128320693963538,-1.1981199979390433
1683999085532672200,12.475072509765624,0.33029842391309205,1.0128049850657093,-1.3695483208276522
1683999085542714300,12.48511474609375,0.14188146608628632,0.7815151215454501,-1.267948031561898
1683999085552756100,12.495156494140623,-0.11830675595343979,0.5600929260839739,-1.1517088414505607
1683999085562798300,12.50519873046875,-0.32394027720732205,0.3747797012352066,-1.1013418436060287
1683999085572840400,12.51524072265625,-0.4593110084623059,0.18263912209577782,-1.0710427761226518
1683999085582882600,12.525282958984375,-0.571060895811447,0.08187866219536719,-1.0016787052167566
1683999085592924600,12.535324951171877,-0.6287510394351102,0.005543708906570805,-0.8125444651894701
1683999085602966600,12.5453671875,-0.689836978803698,-0.0393457411499572,-0.6965805888349017
1683999085613008800,12.5554091796875,-0.7223854065281959,-0.12239170077976125,-0.5834393499909388
1683999085623050600,12.565451171875,-0.6727819441560589,-0.07425022122787235,-0.5153974294293208
